###################################################################
## OUTPUT of StarlightChains_v04.for    [Cid@UFSC - 01/Apr/2007] ##
###################################################################

## Some input info
NGC6441_a_2.cxt                          [arq_obs]
Base.BC03.S                              [arq_base]
NGC6441_a_2.msk                          [arq_masks]
StCv04.C11.config                        [arq_config]
  150                                    [N_base]
    0                                    [N_YAV_components = # of components with extra extinction!]
    0                                    [i_FitPowerLaw (1/0 = Yes/No)]
-9.99                                    [alpha_PowerLaw]
CCM                                      [red_law_option]
 1.458241                                [q_norm = A(l_norm)/A(V)]

## (Re)Sampling Parameters
 3359.00                                 [l_ini (A)]
 6428.00                                 [l_fin (A)]
    1.00                                 [dl    (A)]     (OBS: dl_cushion =    50.00 A)

## Normalization info
 4020.00                                 [l_norm (A) - for base]
 4010.00                                 [llow_norm (A) - window for f_obs]
 4060.00                                 [lupp_norm (A) - window for f_obs]
3.752896E-14                             [fobs_norm (in input units)]

## S/N
 4730.00                                 [llow_SN (A) - window for S/N]
 4780.00                                 [lupp_SN (A) - window for S/N]
  36.122                                 [S/N in S/N window]
  21.548                                 [S/N in norm. window]
 237.783                                 [S/N_err in S/N window]
 141.847                                 [S/N_err in norm. window]
  1.0000                                 [fscale_chi2]

## etc...
  2147483608                             [idum_orig]
  3067                                   [NOl_eff]
   709                                   [Nl_eff]
  2358    NSIGMA                         [Ntot_cliped & clip_method]
  2467710                                [Nglobal_steps]
   7                                     [N_chains]
  33                                     [NEX0s_base = N_base in EX0s-fits]
 0   0   1      159   2.0   3.244E+02    [Clip-Bug, RC-Crash & Burn-In warning-flags, n_censored_weights, wei_nsig_threshold & wei_limit]
    85     84.912     84.900      0.012  [idt_all, wdt_TotTime, wdt_UsrTime & wdt_SysTime (sec)]

## Synthesis Results - Best model ##

 2.81172E+00                             [chi2/Nl_eff]
     1.60723                             [adev (%)]

   100.34013                             [sum-of-x (%)]
 1.84859E-13                             [Flux_tot (units of input spectrum!)]
 1.33120E-08                             [Mini_tot (???)]
 6.64667E-09                             [Mcor_tot (???)]

 -14.48                                  [v0_min  (km/s)]
  32.75                                  [vd_min  (km/s)]
 1.1846                                  [AV_min  (mag)]
 0.0000                                  [YAV_min (mag)]

# j     x_j(%)      Mini_j(%)     Mcor_j(%)     age_j(yr)     Z_j      (L/M)_j    YAV?  Mstars   component_j        a/Fe...       SSP_chi2r SSP_adev(%)   SSP_AV   SSP_x(%)
  1      0.0000     0.0000E+00    0.0000E+00    1.000000E+06  0.00010  8.160E-03    0   1.0000   age020_m22            0.0000     4.7239E+03    44.7002   4.0000   100.1700
  2      2.3414     6.8089E-04    1.3637E-03    3.160000E+06  0.00010  4.759E-02    0   1.0000   age045_m22            0.0000     3.1648E+02    10.1500   3.4103    95.6288
  3      4.4788     3.2083E-03    6.1570E-03    5.010000E+06  0.00010  1.932E-02    0   0.9582   age055_m22            0.0000     6.5264E+02    17.3677   3.6642    84.2300
  4      0.0605     8.3904E-05    1.5623E-04    6.610000E+06  0.00010  9.973E-03    0   0.9297   age061_m22            0.0000     4.6296E+03    43.7076   4.0000   102.9168
  5      0.0000     0.0000E+00    0.0000E+00    8.710000E+06  0.00010  7.690E-03    0   0.9030   age067_m22            0.0000     4.5428E+03    43.2703   4.0000   103.3525
  6      0.0000     0.0000E+00    0.0000E+00    1.000000E+07  0.00010  6.375E-03    0   0.8902   age070_m22            0.0000     4.5719E+03    43.1932   4.0000   103.6448
  7      0.0000     0.0000E+00    0.0000E+00    1.445000E+07  0.00010  4.874E-03    0   0.8589   age078_m22            0.0000     3.4764E+03    38.4183   4.0000   105.1442
  8      0.0000     0.0000E+00    0.0000E+00    2.512000E+07  0.00010  4.103E-03    0   0.8174   age090_m22            0.0000     1.6915E+03    27.2080   4.0000   106.2271
  9      0.0000     0.0000E+00    0.0000E+00    4.000000E+07  0.00010  3.654E-03    0   0.7830   age104_m22            0.0000     9.7973E+02    18.8348   4.0000   105.3475
 10      0.0000     0.0000E+00    0.0000E+00    5.500000E+07  0.00010  3.093E-03    0   0.7597   age110_m22            0.0000     8.2738E+02    16.3501   4.0000   104.6020
 11      0.0000     0.0000E+00    0.0000E+00    1.015200E+08  0.00010  2.431E-03    0   0.7138   age116_m22            0.0000     5.7882E+02    12.4740   4.0000    98.8689
 12      0.0000     0.0000E+00    0.0000E+00    1.609000E+08  0.00010  1.319E-03    0   0.6775   age120_m22            0.0000     5.3487E+02    11.5904   3.6127    98.7112
 13      0.0000     0.0000E+00    0.0000E+00    2.861200E+08  0.00010  1.075E-03    0   0.6412   age125_m22            0.0000     8.5131E+02    15.3336   3.7236   100.5395
 14      0.0000     0.0000E+00    0.0000E+00    5.088000E+08  0.00010  7.183E-04    0   0.6083   age130_m22            0.0000     9.4542E+02    16.3404   3.5026   101.8840
 15      0.0000     0.0000E+00    0.0000E+00    9.047900E+08  0.00010  4.524E-04    0   0.5785   age135_m22            0.0000     9.4030E+02    16.3824   3.3030   103.0712
 16      0.0000     0.0000E+00    0.0000E+00    1.278050E+09  0.00010  3.018E-04    0   0.5588   age138_m22            0.0000     5.9124E+02    12.5742   2.7420   102.5914
 17      0.0000     0.0000E+00    0.0000E+00    1.434000E+09  0.00010  2.691E-04    0   0.5532   age139_m22            0.0000     5.2729E+02    11.7799   2.5803   102.2956
 18      0.0000     0.0000E+00    0.0000E+00    2.500000E+09  0.00010  1.582E-04    0   0.5296   age150_m22            0.0000     4.9434E+02    11.4796   2.4574   103.3439
 19      0.0000     0.0000E+00    0.0000E+00    4.250000E+09  0.00010  1.007E-04    0   0.5110   age158_m22            0.0000     3.7036E+02     9.5878   2.2912   102.1677
 20      0.0000     0.0000E+00    0.0000E+00    6.250000E+09  0.00010  6.869E-05    0   0.4985   age166_m22            0.0000     2.8348E+02     8.0171   2.2181    99.8839
 21      0.0000     0.0000E+00    0.0000E+00    7.500000E+09  0.00010  5.873E-05    0   0.4931   age171_m22            0.0000     2.7862E+02     7.9657   2.2011    99.4990
 22      0.0869     2.6853E-02    2.6106E-02    1.000000E+10  0.00010  4.481E-05    0   0.4854   age181_m22            0.0000     2.7139E+02     7.8546   2.1633    99.1458
 23      0.0000     0.0000E+00    0.0000E+00    1.300000E+10  0.00010  3.489E-05    0   0.4791   age193_m22            0.0000     2.5673E+02     7.5913   2.1057    98.6596
 24      0.0000     0.0000E+00    0.0000E+00    1.500000E+10  0.00010  3.035E-05    0   0.4766   age201_m22            0.0000     2.4752E+02     7.4504   2.0650    98.5536
 25      2.1865     1.2056E+00    1.1433E+00    1.800000E+10  0.00010  2.510E-05    0   0.4735   age213_m22            0.0000     2.2884E+02     7.1559   1.9942    98.0760
 26      0.0000     0.0000E+00    0.0000E+00    1.000000E+06  0.00040  8.458E-03    0   1.0000   age020_m32            0.0000     4.8253E+03    44.7732   4.0000   100.9818
 27      0.0000     0.0000E+00    0.0000E+00    3.160000E+06  0.00040  3.973E-02    0   1.0000   age045_m32            0.0000     1.3711E+03    25.0526   4.0000   104.3570
 28      0.0000     0.0000E+00    0.0000E+00    5.010000E+06  0.00040  1.935E-02    0   0.9532   age055_m32            0.0000     2.3369E+03    33.2381   4.0000   101.8634
 29      0.5449     6.2630E-04    1.1594E-03    6.610000E+06  0.00040  1.204E-02    0   0.9243   age061_m32            0.0000     3.7674E+03    40.1940   4.0000   103.8759
 30      0.0000     0.0000E+00    0.0000E+00    8.710000E+06  0.00040  9.433E-03    0   0.9001   age067_m32            0.0000     3.5656E+03    39.1380   4.0000   104.6005
 31      0.0000     0.0000E+00    0.0000E+00    1.000000E+07  0.00040  8.053E-03    0   0.8877   age070_m32            0.0000     3.3724E+03    38.2279   4.0000   104.7000
 32      0.0000     0.0000E+00    0.0000E+00    1.445000E+07  0.00040  7.027E-03    0   0.8578   age078_m32            0.0000     1.3216E+03    25.3079   4.0000   102.1167
 33      0.0000     0.0000E+00    0.0000E+00    2.512000E+07  0.00040  4.707E-03    0   0.8166   age090_m32            0.0000     6.9877E+02    17.7237   4.0000    99.9085
 34      0.0000     0.0000E+00    0.0000E+00    4.000000E+07  0.00040  3.714E-03    0   0.7827   age104_m32            0.0000     5.1399E+02    13.3243   4.0000    98.3897
 35      0.0000     0.0000E+00    0.0000E+00    5.500000E+07  0.00040  2.982E-03    0   0.7593   age110_m32            0.0000     5.0908E+02    12.5401   4.0000    97.9550
 36      0.0000     0.0000E+00    0.0000E+00    1.015200E+08  0.00040  2.188E-03    0   0.7143   age116_m32            0.0000     6.4039E+02    13.0440   3.8728    98.3974
 37      0.0000     0.0000E+00    0.0000E+00    1.609000E+08  0.00040  1.690E-03    0   0.6856   age120_m32            0.0000     7.6128E+02    14.5081   3.6872   100.4294
 38      0.0000     0.0000E+00    0.0000E+00    2.861200E+08  0.00040  1.152E-03    0   0.6509   age125_m32            0.0000     8.6094E+02    15.5263   3.4797   101.5735
 39      0.0000     0.0000E+00    0.0000E+00    5.088000E+08  0.00040  7.331E-04    0   0.6182   age130_m32            0.0000     8.9674E+02    15.8525   3.3208   102.1464
 40      0.0000     0.0000E+00    0.0000E+00    9.047900E+08  0.00040  3.960E-04    0   0.5890   age135_m32            0.0000     6.0502E+02    12.7114   2.8389   101.6734
 41      0.0000     0.0000E+00    0.0000E+00    1.278050E+09  0.00040  2.854E-04    0   0.5687   age138_m32            0.0000     5.2562E+02    11.9459   2.5292   104.0986
 42      0.0000     0.0000E+00    0.0000E+00    1.434000E+09  0.00040  2.531E-04    0   0.5632   age139_m32            0.0000     5.1416E+02    11.8480   2.4670   104.1345
 43      0.0000     0.0000E+00    0.0000E+00    2.500000E+09  0.00040  1.488E-04    0   0.5386   age150_m32            0.0000     4.1251E+02    10.4844   2.2039   102.6610
 44      2.2949     3.4971E-01    3.6414E-01    4.250000E+09  0.00040  9.082E-05    0   0.5199   age158_m32            0.0000     2.5595E+02     7.6131   2.0828   100.1155
 45     10.7545     2.3395E+00    2.3784E+00    6.250000E+09  0.00040  6.362E-05    0   0.5076   age166_m32            0.0000     1.9219E+02     6.3898   2.0207    97.4277
 46      9.4968     2.4850E+00    2.5019E+00    7.500000E+09  0.00040  5.289E-05    0   0.5027   age171_m32            0.0000     1.7778E+02     6.2067   1.9823    96.2667
 47      8.1768     2.8490E+00    2.8234E+00    1.000000E+10  0.00040  3.972E-05    0   0.4948   age181_m32            0.0000     1.6424E+02     6.0304   1.9202    94.9633
 48      4.6838     1.9745E+00    1.9258E+00    1.300000E+10  0.00040  3.283E-05    0   0.4870   age193_m32            0.0000     1.7619E+02     6.1696   1.8855    97.4586
 49      1.5583     7.3729E-01    7.1677E-01    1.500000E+10  0.00040  2.925E-05    0   0.4854   age201_m32            0.0000     1.9235E+02     6.5050   1.8736    98.8752
 50      2.7523     1.5428E+00    1.4890E+00    1.800000E+10  0.00040  2.469E-05    0   0.4819   age213_m32            0.0000     1.9575E+02     6.6145   1.8353    99.3797
 51      0.3418     4.2459E-04    8.5036E-04    1.000000E+06  0.00400  1.114E-02    0   1.0000   age020_m42            0.0000     4.4073E+03    43.1751   4.0000   100.8844
 52      0.0000     0.0000E+00    0.0000E+00    3.160000E+06  0.00400  4.073E-02    0   0.9999   age045_m42            0.0000     6.5732E+02    17.0054   4.0000   100.7983
 53      0.0000     0.0000E+00    0.0000E+00    5.010000E+06  0.00400  2.534E-02    0   0.9488   age055_m42            0.0000     1.7315E+03    28.7192   4.0000   102.3642
 54      0.0000     0.0000E+00    0.0000E+00    6.610000E+06  0.00400  2.583E-02    0   0.9220   age061_m42            0.0000     4.7266E+02    13.8149   4.0000    97.4432
 55      0.2079     1.6867E-04    3.0346E-04    8.710000E+06  0.00400  1.706E-02    0   0.8983   age067_m42            0.0000     4.2225E+02    13.5826   4.0000    91.5045
 56      0.0000     0.0000E+00    0.0000E+00    1.000000E+07  0.00400  1.271E-02    0   0.8862   age070_m42            0.0000     4.9652E+02    15.1843   3.9771    90.4251
 57      0.0000     0.0000E+00    0.0000E+00    1.445000E+07  0.00400  7.666E-03    0   0.8571   age078_m42            0.0000     8.6242E+02    21.9124   4.0000    95.7616
 58      0.0000     0.0000E+00    0.0000E+00    2.512000E+07  0.00400  5.070E-03    0   0.8174   age090_m42            0.0000     4.5403E+02    14.5279   3.8515    91.9531
 59      0.0000     0.0000E+00    0.0000E+00    4.000000E+07  0.00400  3.505E-03    0   0.7851   age104_m42            0.0000     3.5005E+02    12.5795   3.5469    94.6630
 60      0.0000     0.0000E+00    0.0000E+00    5.500000E+07  0.00400  3.059E-03    0   0.7629   age110_m42            0.0000     3.7798E+02    10.7183   3.6423    97.9245
 61      0.0000     0.0000E+00    0.0000E+00    1.015200E+08  0.00400  2.268E-03    0   0.7207   age116_m42            0.0000     6.4309E+02    13.2611   3.5971   101.4752
 62      0.0000     0.0000E+00    0.0000E+00    1.609000E+08  0.00400  1.720E-03    0   0.6930   age120_m42            0.0000     6.6614E+02    13.4789   3.4656   102.6609
 63      0.0000     0.0000E+00    0.0000E+00    2.861200E+08  0.00400  1.079E-03    0   0.6613   age125_m42            0.0000     6.2561E+02    13.2159   3.1065   103.3259
 64      0.0000     0.0000E+00    0.0000E+00    5.088000E+08  0.00400  6.261E-04    0   0.6313   age130_m42            0.0000     6.7948E+02    14.1017   2.9128   106.2194
 65      0.0000     0.0000E+00    0.0000E+00    9.047900E+08  0.00400  3.535E-04    0   0.6024   age135_m42            0.0000     4.4511E+02    11.2560   2.4967   107.1919
 66      0.0000     0.0000E+00    0.0000E+00    1.278050E+09  0.00400  2.677E-04    0   0.5837   age138_m42            0.0000     1.4915E+02     6.5515   1.8028   105.4386
 67      0.6418     4.6501E-02    5.3235E-02    1.434000E+09  0.00400  1.910E-04    0   0.5716   age139_m42            0.0000     2.1392E+02     7.5216   1.9733   106.0541
 68      0.3953     5.5727E-02    6.0973E-02    2.500000E+09  0.00400  9.818E-05    0   0.5463   age150_m42            0.0000     6.6758E+01     3.8440   1.6924   101.6746
 69      0.0000     0.0000E+00    0.0000E+00    4.250000E+09  0.00400  5.491E-05    0   0.5269   age158_m42            0.0000     3.1035E+01     2.8820   1.5611    99.2181
 70      0.0000     0.0000E+00    0.0000E+00    6.250000E+09  0.00400  3.857E-05    0   0.5151   age166_m42            0.0000     2.5297E+01     2.8435   1.4361    97.9898
 71      0.2372     1.0124E-01    1.0361E-01    7.500000E+09  0.00400  3.243E-05    0   0.5110   age171_m42            0.0000     2.6794E+01     2.9817   1.3607    97.4403
 72      0.0181     1.0338E-02    1.0411E-02    1.000000E+10  0.00400  2.424E-05    0   0.5028   age181_m42            0.0000     3.3730E+01     3.3887   1.2853    96.7837
 73      0.0000     0.0000E+00    0.0000E+00    1.300000E+10  0.00400  1.883E-05    0   0.4927   age193_m42            0.0000     4.2905E+01     3.8836   1.2469    96.4911
 74      0.0000     0.0000E+00    0.0000E+00    1.500000E+10  0.00400  1.685E-05    0   0.4919   age201_m42            0.0000     3.9840E+01     3.7389   1.2511    96.5288
 75      0.0000     0.0000E+00    0.0000E+00    1.800000E+10  0.00400  1.452E-05    0   0.4874   age213_m42            0.0000     3.4860E+01     3.5004   1.2652    96.8331
 76      0.0000     0.0000E+00    0.0000E+00    1.000000E+06  0.00800  1.286E-02    0   1.0000   age020_m52            0.0000     4.2146E+03    42.0510   4.0000   102.6577
 77      0.0000     0.0000E+00    0.0000E+00    3.160000E+06  0.00800  3.147E-02    0   0.9966   age045_m52            0.0000     3.7933E+03    40.3246   4.0000   103.6116
 78      0.0000     0.0000E+00    0.0000E+00    5.010000E+06  0.00800  2.664E-02    0   0.9443   age055_m52            0.0000     2.2070E+03    32.1551   4.0000   103.2078
 79      0.0718     4.6216E-05    8.4944E-05    6.610000E+06  0.00800  2.151E-02    0   0.9177   age061_m52            0.0000     3.9171E+02    13.8540   3.5661    92.1662
 80      0.0000     0.0000E+00    0.0000E+00    8.710000E+06  0.00800  1.628E-02    0   0.8948   age067_m52            0.0000     4.4418E+02    14.3103   3.9551    92.0319
 81      0.0000     0.0000E+00    0.0000E+00    1.000000E+07  0.00800  1.215E-02    0   0.8827   age070_m52            0.0000     6.8664E+02    19.2118   4.0000    97.2725
 82      0.0000     0.0000E+00    0.0000E+00    1.445000E+07  0.00800  8.739E-03    0   0.8552   age078_m52            0.0000     7.3189E+02    19.1624   4.0000    99.4928
 83      0.0000     0.0000E+00    0.0000E+00    2.512000E+07  0.00800  5.676E-03    0   0.8162   age090_m52            0.0000     4.6004E+02    12.8466   3.9689    95.3703
 84      0.0000     0.0000E+00    0.0000E+00    4.000000E+07  0.00800  3.939E-03    0   0.7841   age104_m52            0.0000     4.5381E+02    11.8110   3.8255    97.1753
 85      0.0000     0.0000E+00    0.0000E+00    5.500000E+07  0.00800  3.155E-03    0   0.7627   age110_m52            0.0000     4.8800E+02    11.5104   3.8063    98.4231
 86      0.0000     0.0000E+00    0.0000E+00    1.015200E+08  0.00800  2.206E-03    0   0.7226   age116_m52            0.0000     5.7263E+02    12.1105   3.6411   101.6334
 87      0.0000     0.0000E+00    0.0000E+00    1.609000E+08  0.00800  1.596E-03    0   0.6963   age120_m52            0.0000     5.9687E+02    12.6572   3.4331   103.1044
 88      0.0000     0.0000E+00    0.0000E+00    2.861200E+08  0.00800  1.002E-03    0   0.6665   age125_m52            0.0000     7.0466E+02    14.2631   3.1610   105.2821
 89      0.0000     0.0000E+00    0.0000E+00    5.088000E+08  0.00800  5.759E-04    0   0.6377   age130_m52            0.0000     6.9505E+02    14.0980   2.8197   109.1250
 90      0.0000     0.0000E+00    0.0000E+00    9.047900E+08  0.00800  2.972E-04    0   0.6086   age135_m52            0.0000     4.0474E+02    10.1836   2.2734   108.2763
 91      0.0000     0.0000E+00    0.0000E+00    1.278050E+09  0.00800  2.242E-04    0   0.5907   age138_m52            0.0000     1.2368E+02     5.7605   1.6402   107.9955
 92      0.0000     0.0000E+00    0.0000E+00    1.434000E+09  0.00800  1.645E-04    0   0.5787   age139_m52            0.0000     1.1709E+02     5.4697   1.7855   107.3744
 93      0.0000     0.0000E+00    0.0000E+00    2.500000E+09  0.00800  7.723E-05    0   0.5519   age150_m52            0.0000     3.6204E+01     3.4907   1.4411   103.9571
 94      0.0000     0.0000E+00    0.0000E+00    4.250000E+09  0.00800  4.151E-05    0   0.5320   age158_m52            0.0000     2.7190E+01     3.2988   1.3657   101.6594
 95      0.0000     0.0000E+00    0.0000E+00    6.250000E+09  0.00800  3.010E-05    0   0.5197   age166_m52            0.0000     3.0309E+01     3.6717   1.1757   100.3269
 96      0.0000     0.0000E+00    0.0000E+00    7.500000E+09  0.00800  2.467E-05    0   0.5139   age171_m52            0.0000     3.4759E+01     3.8780   1.1360    99.9228
 97      0.0000     0.0000E+00    0.0000E+00    1.000000E+10  0.00800  1.862E-05    0   0.5054   age181_m52            0.0000     5.3112E+01     4.6602   1.0117    99.5024
 98      0.0000     0.0000E+00    0.0000E+00    1.300000E+10  0.00800  1.433E-05    0   0.4988   age193_m52            0.0000     7.7946E+01     5.5744   0.9222   100.0517
 99      0.0000     0.0000E+00    0.0000E+00    1.500000E+10  0.00800  1.244E-05    0   0.4936   age201_m52            0.0000     8.9022E+01     5.9125   0.8952   100.4868
100      0.0000     0.0000E+00    0.0000E+00    1.800000E+10  0.00800  1.070E-05    0   0.4888   age213_m52            0.0000     9.8516E+01     6.1697   0.8627   100.3385
101      0.0000     0.0000E+00    0.0000E+00    1.000000E+06  0.02000  1.989E-02    0   1.0000   age020_m62            0.0000     4.2417E+03    42.1299   4.0000   101.3660
102      0.0000     0.0000E+00    0.0000E+00    3.160000E+06  0.02000  3.772E-02    0   0.9858   age045_m62            0.0000     3.5162E+03    39.3402   4.0000   102.6250
103      0.0000     0.0000E+00    0.0000E+00    5.010000E+06  0.02000  3.227E-02    0   0.9342   age055_m62            0.0000     1.2818E+03    24.5818   4.0000   103.0057
104      0.0000     0.0000E+00    0.0000E+00    6.610000E+06  0.02000  2.387E-02    0   0.9090   age061_m62            0.0000     8.4061E+02    21.3573   4.0000    97.4526
105      0.0000     0.0000E+00    0.0000E+00    8.710000E+06  0.02000  1.102E-02    0   0.8861   age067_m62            0.0000     1.0425E+03    22.3411   3.9845    85.4875
106      0.0000     0.0000E+00    0.0000E+00    1.000000E+07  0.02000  1.011E-02    0   0.8751   age070_m62            0.0000     7.6450E+02    19.5136   4.0000    87.7089
107      0.0000     0.0000E+00    0.0000E+00    1.445000E+07  0.02000  7.331E-03    0   0.8472   age078_m62            0.0000     5.9008E+02    17.4788   4.0000    89.2213
108      0.0000     0.0000E+00    0.0000E+00    2.512000E+07  0.02000  4.206E-03    0   0.8099   age090_m62            0.0000     5.9828E+02    17.5125   3.9379    88.1617
109      0.0000     0.0000E+00    0.0000E+00    4.000000E+07  0.02000  3.373E-03    0   0.7799   age104_m62            0.0000     3.9597E+02    12.4457   3.7739    95.6643
110      0.0000     0.0000E+00    0.0000E+00    5.500000E+07  0.02000  2.747E-03    0   0.7595   age110_m62            0.0000     4.3297E+02    11.4531   3.7250    98.4975
111      0.0000     0.0000E+00    0.0000E+00    1.015200E+08  0.02000  1.878E-03    0   0.7221   age116_m62            0.0000     6.0000E+02    12.5791   3.6149   102.3427
112      0.0000     0.0000E+00    0.0000E+00    1.609000E+08  0.02000  1.378E-03    0   0.6978   age120_m62            0.0000     7.1651E+02    14.1485   3.4760   104.3577
113      0.0000     0.0000E+00    0.0000E+00    2.861200E+08  0.02000  8.869E-04    0   0.6700   age125_m62            0.0000     8.8628E+02    16.1225   3.1266   108.0871
114      0.0000     0.0000E+00    0.0000E+00    5.088000E+08  0.02000  4.834E-04    0   0.6430   age130_m62            0.0000     7.4828E+02    14.4881   2.6918   110.4419
115      0.0000     0.0000E+00    0.0000E+00    9.047900E+08  0.02000  2.312E-04    0   0.6152   age135_m62            0.0000     3.5306E+02     9.3850   2.0710   110.5495
116      0.0000     0.0000E+00    0.0000E+00    1.278050E+09  0.02000  1.387E-04    0   0.5927   age138_m62            0.0000     1.2598E+02     5.5044   1.6735   106.9386
117      0.0000     0.0000E+00    0.0000E+00    1.434000E+09  0.02000  1.168E-04    0   0.5865   age139_m62            0.0000     9.6119E+01     4.8372   1.6439   105.4339
118      0.0000     0.0000E+00    0.0000E+00    2.500000E+09  0.02000  5.505E-05    0   0.5610   age150_m62            0.0000     3.4182E+01     3.7355   1.2720   102.8600
119      0.0065     2.9465E-03    3.1908E-03    4.250000E+09  0.02000  3.070E-05    0   0.5407   age158_m62            0.0000     6.1806E+01     5.0093   0.9875   102.7805
120      0.1496     9.8402E-02    1.0400E-01    6.250000E+09  0.02000  2.104E-05    0   0.5277   age166_m62            0.0000     9.1518E+01     5.9587   0.8596   103.1990
121      0.0000     0.0000E+00    0.0000E+00    7.500000E+09  0.02000  1.770E-05    0   0.5223   age171_m62            0.0000     1.1123E+02     6.4704   0.7743   103.5703
122     11.8443     1.2638E+01    1.2962E+01    1.000000E+10  0.02000  1.297E-05    0   0.5121   age181_m62            0.0000     1.5888E+02     7.5529   0.6199   104.0955
123      6.8922     9.8426E+00    9.9491E+00    1.300000E+10  0.02000  9.691E-06    0   0.5047   age193_m62            0.0000     1.9588E+02     8.2756   0.5389   104.4863
124     13.0466     2.1598E+01    2.1624E+01    1.500000E+10  0.02000  8.360E-06    0   0.4999   age201_m62            0.0000     2.3054E+02     8.9016   0.4700   104.7559
125      9.1479     1.8319E+01    1.8147E+01    1.800000E+10  0.02000  6.911E-06    0   0.4946   age213_m62            0.0000     2.7651E+02     9.6801   0.3977   105.0639
126      0.0000     0.0000E+00    0.0000E+00    1.000000E+06  0.05000  2.651E-02    0   0.9998   age020_m72            0.0000     4.1953E+03    41.7060   4.0000   102.4485
127      0.0000     0.0000E+00    0.0000E+00    3.160000E+06  0.05000  4.817E-02    0   0.9577   age045_m72            0.0000     2.6775E+03    34.6497   4.0000   104.5026
128      0.0000     0.0000E+00    0.0000E+00    5.010000E+06  0.05000  3.101E-02    0   0.9147   age055_m72            0.0000     1.4193E+03    26.7724   4.0000   101.6009
129      0.0000     0.0000E+00    0.0000E+00    6.610000E+06  0.05000  1.472E-02    0   0.8877   age061_m72            0.0000     8.6959E+02    22.2938   4.0000    90.9724
130      0.0000     0.0000E+00    0.0000E+00    8.710000E+06  0.05000  1.050E-02    0   0.8638   age067_m72            0.0000     1.4209E+03    27.3744   4.0000    99.2964
131      0.0000     0.0000E+00    0.0000E+00    1.000000E+07  0.05000  8.954E-03    0   0.8524   age070_m72            0.0000     2.1831E+03    31.5921   4.0000   104.0693
132      0.0000     0.0000E+00    0.0000E+00    1.445000E+07  0.05000  6.392E-03    0   0.8262   age078_m72            0.0000     1.9346E+03    29.7441   4.0000   104.3708
133      0.0000     0.0000E+00    0.0000E+00    2.512000E+07  0.05000  4.207E-03    0   0.7902   age090_m72            0.0000     8.3176E+02    19.9649   4.0000   101.9766
134      0.0000     0.0000E+00    0.0000E+00    4.000000E+07  0.05000  3.198E-03    0   0.7618   age104_m72            0.0000     4.6591E+02    11.0733   3.9923    98.0359
135      0.0000     0.0000E+00    0.0000E+00    5.500000E+07  0.05000  2.593E-03    0   0.7432   age110_m72            0.0000     5.2952E+02    11.7487   3.9105    99.6985
136      0.0000     0.0000E+00    0.0000E+00    1.015200E+08  0.05000  1.716E-03    0   0.7092   age116_m72            0.0000     6.5311E+02    13.2793   3.7250   101.9017
137      0.0000     0.0000E+00    0.0000E+00    1.609000E+08  0.05000  1.218E-03    0   0.6876   age120_m72            0.0000     7.7318E+02    14.7824   3.4619   104.4409
138      0.0000     0.0000E+00    0.0000E+00    2.861200E+08  0.05000  7.047E-04    0   0.6618   age125_m72            0.0000     8.2651E+02    15.3823   2.9380   108.1755
139      0.0000     0.0000E+00    0.0000E+00    5.088000E+08  0.05000  3.590E-04    0   0.6356   age130_m72            0.0000     6.0533E+02    12.7791   2.3569   111.1261
140      0.0000     0.0000E+00    0.0000E+00    9.047900E+08  0.05000  1.484E-04    0   0.6088   age135_m72            0.0000     1.5156E+02     6.4961   1.5936   105.8946
141      0.0000     0.0000E+00    0.0000E+00    1.278050E+09  0.05000  9.435E-05    0   0.5924   age138_m72            0.0000     8.8007E+01     5.4834   1.1899   103.3029
142      0.0000     0.0000E+00    0.0000E+00    1.434000E+09  0.05000  7.827E-05    0   0.5847   age139_m72            0.0000     7.3747E+01     5.1550   1.2009   102.7240
143      0.0008     3.0264E-04    3.3840E-04    2.500000E+09  0.05000  3.759E-05    0   0.5583   age150_m72            0.0000     9.7599E+01     6.1240   0.8782   102.1685
144      0.6578     4.9423E-01    5.3194E-01    4.250000E+09  0.05000  1.842E-05    0   0.5374   age158_m72            0.0000     1.7644E+02     7.6749   0.5745   101.6844
145      0.8486     9.7300E-01    1.0215E+00    6.250000E+09  0.05000  1.207E-05    0   0.5242   age166_m72            0.0000     2.6220E+02     9.0014   0.3379   101.5878
146      0.0000     0.0000E+00    0.0000E+00    7.500000E+09  0.05000  9.993E-06    0   0.5183   age171_m72            0.0000     2.7808E+02     9.1725   0.2948   101.5700
147      0.5296     1.0052E+00    1.0229E+00    1.000000E+10  0.05000  7.291E-06    0   0.5081   age181_m72            0.0000     3.4971E+02    10.1506   0.1729   101.6351
148      0.1917     4.9912E-01    5.0162E-01    1.300000E+10  0.05000  5.316E-06    0   0.5018   age193_m72            0.0000     4.8026E+02    11.7747  -0.0091   101.7123
149      0.4451     1.3699E+00    1.3642E+00    1.500000E+10  0.05000  4.497E-06    0   0.4972   age201_m72            0.0000     5.5112E+02    12.6136  -0.0820   102.0703
150      5.2492     1.9429E+01    1.9161E+01    1.800000E+10  0.05000  3.739E-06    0   0.4924   age213_m72            0.0000     6.4700E+02    13.6940  -0.1869   102.3218


## Synthesis Results - Average & Chains ##

# j      x_j: min, <> & last-chain-values for 1 ...  7 chains
  1      0.0000      0.0283      0.0000      0.0594      0.0000      0.0231      0.1069      0.0000      0.0000
  2      2.3414      0.7446      1.1103      0.6978      1.0556      0.9498      0.6999      0.7650      1.0869
  3      4.4788      3.9763      4.0118      4.1311      3.9656      4.2533      4.0852      3.9964      3.8965
  4      0.0605      0.0425      0.0000      0.0308      0.0000      0.3460      0.0000      0.0000      0.1010
  5      0.0000      0.0286      0.0000      0.0000      0.0000      0.0000      0.1384      0.1018      0.0000
  6      0.0000      0.1230      0.0000      0.0410      0.2086      0.0000      0.1415      0.1111      0.1112
  7      0.0000      0.0188      0.0000      0.0000      0.1037      0.0000      0.0000      0.0000      0.0000
  8      0.0000      0.0247      0.0000      0.0000      0.0099      0.0000      0.0000      0.1114      0.0000
  9      0.0000      0.0351      0.0000      0.0000      0.0408      0.0000      0.0000      0.0810      0.0971
 10      0.0000      0.0342      0.0000      0.0655      0.0000      0.0000      0.0000      0.0214      0.0000
 11      0.0000      0.0327      0.0000      0.0000      0.0000      0.0000      0.0000      0.0409      0.0000
 12      0.0000      0.0197      0.0000      0.0637      0.0416      0.0000      0.0000      0.0000      0.0257
 13      0.0000      0.0133      0.0000      0.0000      0.0000      0.0000      0.0267      0.0000      0.0000
 14      0.0000      0.0112      0.0013      0.0000      0.0000      0.0106      0.0000      0.0000      0.0149
 15      0.0000      0.0108      0.0152      0.0000      0.0000      0.0000      0.0000      0.0000      0.0000
 16      0.0000      0.0186      0.0000      0.0000      0.0000      0.0082      0.0273      0.0000      0.0000
 17      0.0000      0.0186      0.0000      0.0000      0.0000      0.0000      0.0000      0.0000      0.0000
 18      0.0000      0.0361      0.0472      0.0000      0.0000      0.0000      0.0000      0.0000      0.0010
 19      0.0000      0.0535      0.0000      0.0000      0.0000      0.0739      0.0000      0.0777      0.0000
 20      0.0000      0.1042      0.0000      0.0000      0.0000      0.0000      0.8378      0.0321      0.1390
 21      0.0000      0.1245      0.0000      0.1827      0.0000      0.0832      0.0000      0.1693      0.0000
 22      0.0869      0.0838      0.1734      0.0000      0.0000      0.1447      0.0000      0.0000      0.0000
 23      0.0000      0.0826      0.2573      0.0000      0.0000      0.0000      0.0650      0.0669      0.0000
 24      0.0000      0.0868      0.0462      0.1728      0.3069      0.1111      0.1195      0.0207      0.0000
 25      2.1865      2.1045      2.0141      2.6096      2.4849      1.8398      2.2046      2.2183      2.0869
 26      0.0000      0.0222      0.0000      0.0000      0.0000      0.0000      0.0000      0.0161      0.0000
 27      0.0000      0.0487      0.0000      0.0000      0.0000      0.0322      0.0757      0.0000      0.0000
 28      0.0000      0.3298      0.4280      0.3852      0.2863      0.0187      0.3332      0.3481      0.3841
 29      0.5449      0.2332      0.2617      0.0000      0.3335      0.3315      0.2941      0.2597      0.2131
 30      0.0000      0.0132      0.0000      0.0000      0.0000      0.0498      0.0000      0.0000      0.0000
 31      0.0000      0.0377      0.0000      0.0000      0.0000      0.0000      0.0870      0.0000      0.0000
 32      0.0000      0.0492      0.0000      0.0000      0.0021      0.0437      0.0000      0.0000      0.1626
 33      0.0000      0.0136      0.0000      0.0000      0.0000      0.0000      0.0000      0.0000      0.1048
 34      0.0000      0.0175      0.1869      0.0000      0.0000      0.0000      0.0000      0.0000      0.0000
 35      0.0000      0.0293      0.0000      0.0080      0.0000      0.0000      0.0000      0.0000      0.0000
 36      0.0000      0.0300      0.0000      0.0595      0.0000      0.1219      0.0767      0.0000      0.2106
 37      0.0000      0.0093      0.0073      0.0000      0.0000      0.0000      0.0000      0.0968      0.0441
 38      0.0000      0.0140      0.0000      0.0000      0.0000      0.0000      0.0000      0.0000      0.0000
 39      0.0000      0.0169      0.0000      0.0000      0.0000      0.0000      0.0000      0.0540      0.0000
 40      0.0000      0.0245      0.0427      0.0000      0.0000      0.0000      0.0000      0.0610      0.0000
 41      0.0000      0.0215      0.0422      0.0079      0.0054      0.0000      0.0000      0.0000      0.0000
 42      0.0000      0.0363      0.0000      0.0299      0.0000      0.0576      0.0000      0.1156      0.0000
 43      0.0000      0.0710      0.0000      0.2172      0.0000      0.0000      0.0000      0.2874      0.0000
 44      2.2949      1.9634      1.8092      2.1681      1.7096      2.0100      1.5541      2.1903      2.1650
 45     10.7545      9.9185     10.1340     11.3934     10.3149     10.0523      9.8411     10.0004      9.4979
 46      9.4968      8.3681      8.8424      8.6437      8.8537      8.7763      8.7271      8.5845      8.3412
 47      8.1768      8.0432      8.1179      8.1124      8.0133      8.2501      8.2177      8.1257      8.3716
 48      4.6838      5.1727      4.9762      4.1366      5.3413      5.2568      5.4255      5.2915      5.1830
 49      1.5583      1.8662      2.0459      1.6053      1.6385      1.9231      1.9309      1.3791      2.4192
 50      2.7523      3.3900      3.2111      3.1861      3.1861      3.3872      3.4488      3.4429      3.3779
 51      0.3418      0.3339      0.3512      0.3195      0.3595      0.1752      0.3113      0.4137      0.4889
 52      0.0000      0.0290      0.0780      0.1083      0.0063      0.0000      0.0000      0.0000      0.0000
 53      0.0000      0.0130      0.0000      0.0000      0.0000      0.1004      0.0000      0.0000      0.0000
 54      0.0000      0.0227      0.0000      0.0000      0.0000      0.0000      0.0000      0.1426      0.0000
 55      0.2079      0.0666      0.0868      0.0522      0.0000      0.2050      0.0000      0.1216      0.1569
 56      0.0000      0.0481      0.2369      0.0914      0.2962      0.0000      0.0848      0.0000      0.0923
 57      0.0000      0.0336      0.0000      0.0000      0.0000      0.0000      0.0878      0.0000      0.0000
 58      0.0000      0.0264      0.0000      0.0600      0.0000      0.0000      0.0000      0.0000      0.0880
 59      0.0000      0.0183      0.0000      0.0373      0.0000      0.0217      0.0000      0.0000      0.0344
 60      0.0000      0.0170      0.0092      0.0000      0.0000      0.0000      0.0000      0.0000      0.0000
 61      0.0000      0.0203      0.0000      0.0000      0.0000      0.0572      0.0204      0.0000      0.0000
 62      0.0000      0.0156      0.0000      0.0000      0.0161      0.0000      0.0119      0.0000      0.0000
 63      0.0000      0.0204      0.0000      0.0000      0.0000      0.0322      0.0000      0.0000      0.0000
 64      0.0000      0.0431      0.0825      0.1046      0.3614      0.0000      0.0000      0.0000      0.0000
 65      0.0000      0.0252      0.0000      0.0000      0.0864      0.0268      0.0000      0.0000      0.1302
 66      0.0000      0.0613      0.0651      0.0000      0.0000      0.0000      0.0000      0.0000      0.1511
 67      0.6418      0.0719      0.0977      0.0000      0.0000      0.3183      0.0000      0.1991      0.1500
 68      0.3953      0.1015      0.0681      0.0963      0.2638      0.5464      0.2348      0.0361      0.0000
 69      0.0000      0.1638      0.6393      0.4238      0.0000      0.0151      0.6291      0.3152      0.0000
 70      0.0000      0.2430      0.1191      0.0823      0.0000      0.0000      0.0000      0.0000      0.0000
 71      0.2372      0.1852      0.0000      0.1875      0.0000      0.6023      0.3780      0.3767      0.3847
 72      0.0181      0.1251      0.0000      0.1697      0.2937      0.2019      0.1734      0.0000      0.0000
 73      0.0000      0.1170      0.0284      0.0000      0.0000      0.0000      0.0000      0.0000      0.0000
 74      0.0000      0.1278      0.0000      0.3277      0.0000      0.0000      0.0798      0.0000      0.0000
 75      0.0000      0.1454      0.0000      0.0273      0.0000      0.0000      0.0449      0.0794      0.0000
 76      0.0000      0.0192      0.0000      0.0000      0.0000      0.0000      0.0000      0.0000      0.0000
 77      0.0000      0.0065      0.0000      0.0000      0.0000      0.0000      0.0133      0.0000      0.0000
 78      0.0000      0.0269      0.0000      0.0896      0.0000      0.0000      0.0000      0.0000      0.0000
 79      0.0718      0.0538      0.0585      0.0000      0.0000      0.2905      0.0000      0.2464      0.0000
 80      0.0000      0.0365      0.0646      0.0000      0.2127      0.0000      0.0000      0.0000      0.0000
 81      0.0000      0.0483      0.1667      0.0150      0.0714      0.0000      0.0000      0.0191      0.1669
 82      0.0000      0.0250      0.0000      0.0175      0.0012      0.0037      0.0022      0.0940      0.0819
 83      0.0000      0.0377      0.0000      0.0000      0.0541      0.1183      0.0000      0.0000      0.0000
 84      0.0000      0.0181      0.0000      0.0000      0.0841      0.0000      0.0000      0.0000      0.0000
 85      0.0000      0.0175      0.0000      0.0000      0.0000      0.0000      0.0000      0.0240      0.0000
 86      0.0000      0.0295      0.0128      0.0000      0.0605      0.0000      0.1592      0.0000      0.1195
 87      0.0000      0.0177      0.0000      0.0000      0.0995      0.0000      0.0000      0.0571      0.0000
 88      0.0000      0.0135      0.0000      0.0000      0.0000      0.0000      0.0000      0.0000      0.0000
 89      0.0000      0.0143      0.0000      0.0252      0.0000      0.0000      0.1035      0.0000      0.0000
 90      0.0000      0.0282      0.1166      0.0000      0.0000      0.0000      0.0000      0.0000      0.0000
 91      0.0000      0.0405      0.0000      0.1306      0.0000      0.0000      0.0000      0.0000      0.0000
 92      0.0000      0.0371      0.0000      0.0000      0.0000      0.0279      0.0000      0.0000      0.0000
 93      0.0000      0.0883      0.0000      0.0000      0.0000      0.0385      0.0118      0.0000      0.5802
 94      0.0000      0.1636      0.0000      0.0000      0.0000      0.0000      0.0919      0.0000      0.1692
 95      0.0000      0.1615      0.0446      0.0000      0.1609      0.0690      0.1326      0.4940      0.2930
 96      0.0000      0.1634      0.4113      0.4158      0.1081      0.0000      0.0000      0.3892      0.5677
 97      0.0000      0.1613      0.0000      0.0000      0.0825      0.0030      0.0750      0.0000      0.0000
 98      0.0000      0.1199      0.0275      0.0920      0.0000      0.0161      0.1030      0.0761      0.0071
 99      0.0000      0.1188      0.0085      0.0000      0.0000      0.0000      0.0731      0.1834      0.3363
100      0.0000      0.1283      0.0000      0.0000      0.0000      0.0038      0.0000      0.3692      0.0000
101      0.0000      0.0467      0.0000      0.2026      0.0000      0.0000      0.0000      0.0000      0.0000
102      0.0000      0.0137      0.0232      0.0030      0.0000      0.0000      0.0000      0.0000      0.0305
103      0.0000      0.0216      0.1356      0.1043      0.0000      0.0000      0.0876      0.0000      0.0000
104      0.0000      0.0207      0.0000      0.0000      0.0000      0.0000      0.0932      0.0000      0.0195
105      0.0000      0.0423      0.0000      0.0000      0.0000      0.1009      0.0000      0.0000      0.0000
106      0.0000      0.0220      0.0000      0.0000      0.0000      0.0000      0.0000      0.0170      0.0000
107      0.0000      0.0156      0.0000      0.0000      0.1010      0.0000      0.0000      0.0000      0.0000
108      0.0000      0.0177      0.0242      0.0000      0.0000      0.1200      0.0000      0.0000      0.0023
109      0.0000      0.0423      0.1932      0.0000      0.0000      0.0965      0.0000      0.0000      0.0000
110      0.0000      0.0137      0.0089      0.0171      0.0000      0.0000      0.0000      0.0000      0.0000
111      0.0000      0.0171      0.0000      0.0000      0.0998      0.0000      0.0000      0.1646      0.0000
112      0.0000      0.0236      0.0000      0.0000      0.0078      0.0000      0.1428      0.0000      0.0101
113      0.0000      0.0174      0.0000      0.0472      0.0000      0.0000      0.0000      0.0000      0.0068
114      0.0000      0.0186      0.0084      0.0000      0.0614      0.0000      0.0000      0.0000      0.0000
115      0.0000      0.0218      0.0000      0.0000      0.0187      0.0000      0.0000      0.0000      0.0000
116      0.0000      0.0617      0.0000      0.0661      0.0000      0.0455      0.0000      0.0000      0.1833
117      0.0000      0.0596      0.0889      0.0000      0.0000      0.0000      0.0000      0.0000      0.0000
118      0.0000      0.1078      0.1423      0.0000      0.0028      0.0000      0.0514      0.0227      0.0095
119      0.0065      0.1367      0.2342      0.0000      0.2163      0.1685      0.0483      0.0000      0.0000
120      0.1496      0.1884      0.1729      0.0000      0.6781      0.1606      0.0000      0.0142      0.0000
121      0.0000      0.1750      0.4272      0.6313      0.0830      0.0875      0.0000      0.0278      0.1518
122     11.8443     11.2822     11.2669     11.3424     11.3953     11.5811     11.6719     11.3766     11.5360
123      6.8922      6.5166      6.5812      6.6387      6.7030      6.3558      6.4565      6.2793      6.5791
124     13.0466     13.2608     13.4114     13.1796     13.5548     13.2493     13.2806     13.3019     13.1190
125      9.1479      9.3213      9.3180      9.5263      9.2817      9.4657      9.1178      9.3574      9.3772
126      0.0000      0.0117      0.0000      0.0000      0.0123      0.0632      0.0154      0.0000      0.0000
127      0.0000      0.0187      0.0901      0.1745      0.0000      0.0000      0.0000      0.0000      0.0000
128      0.0000      0.0236      0.0000      0.0000      0.0000      0.0000      0.0000      0.0565      0.0063
129      0.0000      0.0293      0.0821      0.1451      0.1477      0.0000      0.0000      0.0000      0.0000
130      0.0000      0.0208      0.0195      0.0000      0.0000      0.0126      0.0000      0.0000      0.0000
131      0.0000      0.0326      0.0000      0.0123      0.0000      0.0201      0.0715      0.2023      0.0000
132      0.0000      0.0146      0.0290      0.0491      0.0000      0.0000      0.0000      0.0000      0.0034
133      0.0000      0.0159      0.0000      0.0000      0.0000      0.0000      0.0996      0.0038      0.0000
134      0.0000      0.0150      0.0000      0.1247      0.1151      0.0867      0.0000      0.1049      0.0000
135      0.0000      0.0073      0.0000      0.0000      0.0000      0.0489      0.0000      0.0000      0.0000
136      0.0000      0.0096      0.0000      0.0000      0.0000      0.0000      0.0000      0.0032      0.0000
137      0.0000      0.0091      0.0000      0.0000      0.0000      0.0000      0.0000      0.0000      0.0000
138      0.0000      0.0115      0.0000      0.0000      0.0000      0.0000      0.1113      0.0000      0.0000
139      0.0000      0.0129      0.0000      0.0000      0.0115      0.0060      0.0000      0.0000      0.0000
140      0.0000      0.0341      0.0000      0.1563      0.0079      0.0000      0.0000      0.0000      0.0088
141      0.0000      0.0482      0.0000      0.0000      0.0000      0.0000      0.0000      0.0067      0.0000
142      0.0000      0.0701      0.0736      0.0000      0.0000      0.0011      0.1639      0.0000      0.0423
143      0.0008      0.0801      0.0000      0.0000      0.0000      0.1427      0.0000      0.0000      0.0000
144      0.6578      0.2700      1.0036      0.2394      0.4989      0.1918      0.4507      0.2402      0.3324
145      0.8486      0.5188      0.3197      0.2526      0.7316      0.7331      0.6273      0.9707      0.5297
146      0.0000      0.2330      0.1896      0.3714      0.0000      0.1119      0.1760      0.3861      0.1763
147      0.5296      0.2410      0.0000      0.2045      0.2541      0.6011      0.2654      0.2427      0.2373
148      0.1917      0.2363      0.2014      0.2325      0.1751      0.2046      0.4297      0.2223      0.2742
149      0.4451      0.5565      0.6077      0.5192      0.5395      0.4180      0.6142      0.6326      0.6104
150      5.2492      5.1700      5.1902      5.2553      5.1924      5.2390      5.0817      5.0338      5.1388

# j      m_j: min, <> & last-chain-values for 1 ...  7 chains
  1  0.0000E+00  9.5486E-05  0.0000E+00  2.0054E-04  0.0000E+00  7.8112E-05  3.6094E-04  0.0000E+00  0.0000E+00
  2  1.3637E-03  4.3141E-04  6.4545E-04  4.0367E-04  6.1043E-04  5.5064E-04  4.0527E-04  4.4291E-04  6.2963E-04
  3  6.1570E-03  5.4375E-03  5.5046E-03  5.6404E-03  5.4128E-03  5.8202E-03  5.5835E-03  5.4611E-03  5.3275E-03
  4  1.5623E-04  1.0924E-04  0.0000E+00  7.8931E-05  0.0000E+00  8.8985E-04  0.0000E+00  0.0000E+00  2.5961E-04
  5  0.0000E+00  9.2534E-05  0.0000E+00  0.0000E+00  0.0000E+00  0.0000E+00  4.4789E-04  3.2945E-04  0.0000E+00
  6  0.0000E+00  4.7369E-04  0.0000E+00  1.5757E-04  8.0151E-04  0.0000E+00  5.4465E-04  4.2732E-04  4.2824E-04
  7  0.0000E+00  9.1320E-05  0.0000E+00  0.0000E+00  5.0285E-04  0.0000E+00  0.0000E+00  0.0000E+00  0.0000E+00
  8  0.0000E+00  1.3546E-04  0.0000E+00  0.0000E+00  5.4112E-05  0.0000E+00  0.0000E+00  6.1168E-04  0.0000E+00
  9  0.0000E+00  2.0710E-04  0.0000E+00  0.0000E+00  2.4037E-04  0.0000E+00  0.0000E+00  4.7820E-04  5.7368E-04
 10  0.0000E+00  2.3191E-04  0.0000E+00  4.4306E-04  0.0000E+00  0.0000E+00  0.0000E+00  1.4503E-04  0.0000E+00
 11  0.0000E+00  2.6509E-04  0.0000E+00  0.0000E+00  0.0000E+00  0.0000E+00  0.0000E+00  3.3085E-04  0.0000E+00
 12  0.0000E+00  2.7900E-04  0.0000E+00  9.0142E-04  5.8752E-04  0.0000E+00  0.0000E+00  0.0000E+00  3.6345E-04
 13  0.0000E+00  2.1873E-04  0.0000E+00  0.0000E+00  0.0000E+00  0.0000E+00  4.3875E-04  0.0000E+00  0.0000E+00
 14  0.0000E+00  2.6102E-04  2.9947E-05  0.0000E+00  0.0000E+00  2.4731E-04  0.0000E+00  0.0000E+00  3.4717E-04
 15  0.0000E+00  3.8076E-04  5.3740E-04  0.0000E+00  0.0000E+00  0.0000E+00  0.0000E+00  0.0000E+00  0.0000E+00
 16  0.0000E+00  9.5022E-04  0.0000E+00  0.0000E+00  0.0000E+00  4.1852E-04  1.3923E-03  0.0000E+00  0.0000E+00
 17  0.0000E+00  1.0553E-03  0.0000E+00  0.0000E+00  0.0000E+00  0.0000E+00  0.0000E+00  0.0000E+00  0.0000E+00
 18  0.0000E+00  3.3360E-03  4.3759E-03  0.0000E+00  0.0000E+00  0.0000E+00  0.0000E+00  0.0000E+00  9.0432E-05
 19  0.0000E+00  7.4884E-03  0.0000E+00  0.0000E+00  0.0000E+00  1.0350E-02  0.0000E+00  1.0868E-02  0.0000E+00
 20  0.0000E+00  2.0851E-02  0.0000E+00  0.0000E+00  0.0000E+00  0.0000E+00  1.6756E-01  6.4098E-03  2.7816E-02
 21  0.0000E+00  2.8817E-02  0.0000E+00  4.2224E-02  0.0000E+00  1.9267E-02  0.0000E+00  3.9155E-02  0.0000E+00
 22  2.6106E-02  2.5030E-02  5.1971E-02  0.0000E+00  0.0000E+00  4.3239E-02  0.0000E+00  0.0000E+00  0.0000E+00
 23  0.0000E+00  3.1262E-02  9.7742E-02  0.0000E+00  0.0000E+00  0.0000E+00  2.4606E-02  2.5327E-02  0.0000E+00
 24  0.0000E+00  3.7563E-02  2.0074E-02  7.4715E-02  1.3262E-01  4.8129E-02  5.1725E-02  8.9574E-03  0.0000E+00
 25  1.1433E+00  1.0946E+00  1.0511E+00  1.3553E+00  1.2901E+00  9.5758E-01  1.1461E+00  1.1530E+00  1.0853E+00
 26  0.0000E+00  7.2357E-05  0.0000E+00  0.0000E+00  0.0000E+00  0.0000E+00  0.0000E+00  5.2570E-05  0.0000E+00
 27  0.0000E+00  3.3795E-05  0.0000E+00  0.0000E+00  0.0000E+00  2.2339E-05  5.2487E-05  0.0000E+00  0.0000E+00
 28  0.0000E+00  4.4801E-04  5.8331E-04  5.2241E-04  3.8810E-04  2.5402E-05  4.5235E-04  4.7249E-04  5.2168E-04
 29  1.1594E-03  4.9370E-04  5.5581E-04  0.0000E+00  7.0464E-04  7.0208E-04  6.2224E-04  5.4923E-04  4.5101E-04
 30  0.0000E+00  3.4702E-05  0.0000E+00  0.0000E+00  0.0000E+00  1.3114E-04  0.0000E+00  0.0000E+00  0.0000E+00
 31  0.0000E+00  1.1459E-04  0.0000E+00  0.0000E+00  0.0000E+00  0.0000E+00  2.6427E-04  0.0000E+00  0.0000E+00
 32  0.0000E+00  1.6566E-04  0.0000E+00  0.0000E+00  7.0246E-06  1.4727E-04  0.0000E+00  0.0000E+00  5.4729E-04
 33  0.0000E+00  6.5188E-05  0.0000E+00  0.0000E+00  0.0000E+00  0.0000E+00  0.0000E+00  0.0000E+00  5.0131E-04
 34  0.0000E+00  1.0156E-04  1.0896E-03  0.0000E+00  0.0000E+00  0.0000E+00  0.0000E+00  0.0000E+00  0.0000E+00
 35  0.0000E+00  2.0545E-04  0.0000E+00  5.5739E-05  0.0000E+00  0.0000E+00  0.0000E+00  0.0000E+00  0.0000E+00
 36  0.0000E+00  2.7024E-04  0.0000E+00  5.3458E-04  0.0000E+00  1.0979E-03  6.8995E-04  0.0000E+00  1.8954E-03
 37  0.0000E+00  1.0350E-04  8.1828E-05  0.0000E+00  0.0000E+00  0.0000E+00  0.0000E+00  1.0815E-03  4.9293E-04
 38  0.0000E+00  2.1835E-04  0.0000E+00  0.0000E+00  0.0000E+00  0.0000E+00  0.0000E+00  0.0000E+00  0.0000E+00
 39  0.0000E+00  3.9379E-04  0.0000E+00  0.0000E+00  0.0000E+00  0.0000E+00  0.0000E+00  1.2543E-03  0.0000E+00
 40  0.0000E+00  1.0053E-03  1.7565E-03  0.0000E+00  0.0000E+00  0.0000E+00  0.0000E+00  2.5010E-03  0.0000E+00
 41  0.0000E+00  1.1815E-03  2.3256E-03  4.3127E-04  2.9655E-04  0.0000E+00  0.0000E+00  0.0000E+00  0.0000E+00
 42  0.0000E+00  2.2246E-03  0.0000E+00  1.8297E-03  0.0000E+00  3.5392E-03  0.0000E+00  7.0881E-03  0.0000E+00
 43  0.0000E+00  7.0809E-03  0.0000E+00  2.1640E-02  0.0000E+00  0.0000E+00  0.0000E+00  2.8665E-02  0.0000E+00
 44  3.6414E-01  3.0989E-01  2.8653E-01  3.4168E-01  2.6933E-01  3.1746E-01  2.4517E-01  3.4546E-01  3.4165E-01
 45  2.3784E+00  2.1819E+00  2.2369E+00  2.5025E+00  2.2649E+00  2.2129E+00  2.1638E+00  2.1984E+00  2.0891E+00
 46  2.5019E+00  2.1930E+00  2.3251E+00  2.2617E+00  2.3159E+00  2.3015E+00  2.2859E+00  2.2481E+00  2.1856E+00
 47  2.8234E+00  2.7626E+00  2.7977E+00  2.7821E+00  2.7472E+00  2.8356E+00  2.8211E+00  2.7890E+00  2.8749E+00
 48  1.9258E+00  2.1157E+00  2.0422E+00  1.6893E+00  2.1805E+00  2.1515E+00  2.2179E+00  2.1627E+00  2.1195E+00
 49  7.1677E-01  8.5390E-01  9.3927E-01  7.3340E-01  7.4831E-01  8.8053E-01  8.8305E-01  6.3057E-01  1.1067E+00
 50  1.4890E+00  1.8243E+00  1.7339E+00  1.7120E+00  1.7114E+00  1.8241E+00  1.8550E+00  1.8515E+00  1.8175E+00
 51  8.5036E-04  8.2649E-04  8.7223E-04  7.8967E-04  8.8811E-04  4.3397E-04  7.7003E-04  1.0231E-03  1.2099E-03
 52  0.0000E+00  1.9640E-05  5.2982E-05  7.3216E-05  4.2736E-06  0.0000E+00  0.0000E+00  0.0000E+00  0.0000E+00
 53  0.0000E+00  1.3442E-05  0.0000E+00  0.0000E+00  0.0000E+00  1.0372E-04  0.0000E+00  0.0000E+00  0.0000E+00
 54  0.0000E+00  2.2292E-05  0.0000E+00  0.0000E+00  0.0000E+00  0.0000E+00  0.0000E+00  1.4025E-04  0.0000E+00
 55  3.0346E-04  9.6729E-05  1.2652E-04  7.5739E-05  0.0000E+00  2.9777E-04  0.0000E+00  1.7640E-04  2.2769E-04
 56  0.0000E+00  9.2497E-05  4.5701E-04  1.7552E-04  5.6833E-04  0.0000E+00  1.6299E-04  0.0000E+00  1.7743E-04
 57  0.0000E+00  1.0357E-04  0.0000E+00  0.0000E+00  0.0000E+00  0.0000E+00  2.7062E-04  0.0000E+00  0.0000E+00
 58  0.0000E+00  1.1746E-04  0.0000E+00  2.6642E-04  0.0000E+00  0.0000E+00  0.0000E+00  0.0000E+00  3.9128E-04
 59  0.0000E+00  1.1289E-04  0.0000E+00  2.2983E-04  0.0000E+00  1.3422E-04  0.0000E+00  0.0000E+00  2.1257E-04
 60  0.0000E+00  1.1655E-04  6.3421E-05  0.0000E+00  0.0000E+00  0.0000E+00  0.0000E+00  0.0000E+00  0.0000E+00
 61  0.0000E+00  1.7783E-04  0.0000E+00  0.0000E+00  0.0000E+00  5.0125E-04  1.7903E-04  0.0000E+00  0.0000E+00
 62  0.0000E+00  1.7306E-04  0.0000E+00  0.0000E+00  1.7849E-04  0.0000E+00  1.3233E-04  0.0000E+00  0.0000E+00
 63  0.0000E+00  3.4391E-04  0.0000E+00  0.0000E+00  0.0000E+00  5.4426E-04  0.0000E+00  0.0000E+00  0.0000E+00
 64  0.0000E+00  1.1969E-03  2.3012E-03  2.9035E-03  1.0029E-02  0.0000E+00  0.0000E+00  0.0000E+00  0.0000E+00
 65  0.0000E+00  1.1820E-03  0.0000E+00  0.0000E+00  4.0513E-03  1.2607E-03  0.0000E+00  0.0000E+00  6.1174E-03
 66  0.0000E+00  3.6838E-03  3.9297E-03  0.0000E+00  0.0000E+00  0.0000E+00  0.0000E+00  0.0000E+00  9.0828E-03
 67  5.3235E-02  5.9319E-03  8.0916E-03  0.0000E+00  0.0000E+00  2.6285E-02  0.0000E+00  1.6413E-02  1.2372E-02
 68  6.0973E-02  1.5567E-02  1.0490E-02  1.4750E-02  4.0398E-02  8.3879E-02  3.6008E-02  5.5334E-03  0.0000E+00
 69  0.0000E+00  4.3346E-02  1.6972E-01  1.1197E-01  0.0000E+00  4.0008E-03  1.6634E-01  8.3335E-02  0.0000E+00
 70  0.0000E+00  8.9477E-02  4.3999E-02  3.0269E-02  0.0000E+00  0.0000E+00  0.0000E+00  0.0000E+00  0.0000E+00
 71  1.0361E-01  8.0469E-02  0.0000E+00  8.1329E-02  0.0000E+00  2.6184E-01  1.6415E-01  1.6353E-01  1.6711E-01
 72  1.0411E-02  7.1549E-02  0.0000E+00  9.6884E-02  1.6763E-01  1.1552E-01  9.9111E-02  0.0000E+00  0.0000E+00
 73  0.0000E+00  8.4396E-02  2.0545E-02  0.0000E+00  0.0000E+00  0.0000E+00  0.0000E+00  0.0000E+00  0.0000E+00
 74  0.0000E+00  1.0288E-01  0.0000E+00  2.6340E-01  0.0000E+00  0.0000E+00  6.4238E-02  0.0000E+00  0.0000E+00
 75  0.0000E+00  1.3460E-01  0.0000E+00  2.5258E-02  0.0000E+00  0.0000E+00  4.1488E-02  7.3473E-02  0.0000E+00
 76  0.0000E+00  4.1171E-05  0.0000E+00  0.0000E+00  0.0000E+00  0.0000E+00  0.0000E+00  0.0000E+00  0.0000E+00
 77  0.0000E+00  5.6831E-06  0.0000E+00  0.0000E+00  0.0000E+00  0.0000E+00  1.1607E-05  0.0000E+00  0.0000E+00
 78  0.0000E+00  2.6292E-05  0.0000E+00  8.7459E-05  0.0000E+00  0.0000E+00  0.0000E+00  0.0000E+00  0.0000E+00
 79  8.4944E-05  6.3241E-05  6.9092E-05  0.0000E+00  0.0000E+00  3.4194E-04  0.0000E+00  2.8962E-04  0.0000E+00
 80  0.0000E+00  5.5363E-05  9.8230E-05  0.0000E+00  3.2173E-04  0.0000E+00  0.0000E+00  0.0000E+00  0.0000E+00
 81  0.0000E+00  9.6732E-05  3.3507E-04  2.9971E-05  1.4283E-04  0.0000E+00  0.0000E+00  3.8258E-05  3.3419E-04
 82  0.0000E+00  6.7404E-05  0.0000E+00  4.7085E-05  3.1556E-06  1.0011E-05  5.9017E-06  2.5348E-04  2.2099E-04
 83  0.0000E+00  1.4947E-04  0.0000E+00  0.0000E+00  2.1407E-04  4.6922E-04  0.0000E+00  0.0000E+00  0.0000E+00
 84  0.0000E+00  9.9356E-05  0.0000E+00  0.0000E+00  4.6085E-04  0.0000E+00  0.0000E+00  0.0000E+00  0.0000E+00
 85  0.0000E+00  1.1671E-04  0.0000E+00  0.0000E+00  0.0000E+00  0.0000E+00  0.0000E+00  1.5962E-04  0.0000E+00
 86  0.0000E+00  2.6635E-04  1.1567E-04  0.0000E+00  5.4503E-04  0.0000E+00  1.4373E-03  0.0000E+00  1.0794E-03
 87  0.0000E+00  2.1344E-04  0.0000E+00  0.0000E+00  1.1946E-03  0.0000E+00  0.0000E+00  6.8624E-04  0.0000E+00
 88  0.0000E+00  2.4795E-04  0.0000E+00  0.0000E+00  0.0000E+00  0.0000E+00  0.0000E+00  0.0000E+00  0.0000E+00
 89  0.0000E+00  4.3596E-04  0.0000E+00  7.6726E-04  0.0000E+00  0.0000E+00  3.1570E-03  0.0000E+00  0.0000E+00
 90  0.0000E+00  1.5912E-03  6.6060E-03  0.0000E+00  0.0000E+00  0.0000E+00  0.0000E+00  0.0000E+00  0.0000E+00
 91  0.0000E+00  2.9412E-03  0.0000E+00  9.4706E-03  0.0000E+00  0.0000E+00  0.0000E+00  0.0000E+00  0.0000E+00
 92  0.0000E+00  3.5979E-03  0.0000E+00  0.0000E+00  0.0000E+00  2.7066E-03  0.0000E+00  0.0000E+00  0.0000E+00
 93  0.0000E+00  1.7394E-02  0.0000E+00  0.0000E+00  0.0000E+00  7.5952E-03  2.3296E-03  0.0000E+00  1.1429E-01
 94  0.0000E+00  5.7806E-02  0.0000E+00  0.0000E+00  0.0000E+00  0.0000E+00  3.2458E-02  0.0000E+00  5.9772E-02
 95  0.0000E+00  7.6861E-02  2.1306E-02  0.0000E+00  7.6449E-02  3.2888E-02  6.3105E-02  2.3498E-01  1.3948E-01
 96  0.0000E+00  9.3864E-02  2.3703E-01  2.3844E-01  6.1957E-02  0.0000E+00  0.0000E+00  2.2338E-01  3.2601E-01
 97  0.0000E+00  1.2069E-01  0.0000E+00  0.0000E+00  6.1638E-02  2.2659E-03  5.6102E-02  0.0000E+00  0.0000E+00
 98  0.0000E+00  1.1512E-01  2.6464E-02  8.8186E-02  0.0000E+00  1.5416E-02  9.8840E-02  7.2987E-02  6.7871E-03
 99  0.0000E+00  1.2992E-01  9.3224E-03  0.0000E+00  0.0000E+00  0.0000E+00  7.9959E-02  2.0052E-01  3.6787E-01
100  0.0000E+00  1.6163E-01  0.0000E+00  0.0000E+00  0.0000E+00  4.8101E-03  0.0000E+00  4.6466E-01  0.0000E+00
101  0.0000E+00  6.4795E-05  0.0000E+00  2.8043E-04  0.0000E+00  0.0000E+00  0.0000E+00  0.0000E+00  0.0000E+00
102  0.0000E+00  9.8498E-06  1.6805E-05  2.1316E-06  0.0000E+00  0.0000E+00  0.0000E+00  0.0000E+00  2.2003E-05
103  0.0000E+00  1.7204E-05  1.0864E-04  8.3117E-05  0.0000E+00  0.0000E+00  6.9874E-05  0.0000E+00  0.0000E+00
104  0.0000E+00  2.1765E-05  0.0000E+00  0.0000E+00  0.0000E+00  0.0000E+00  9.7782E-05  0.0000E+00  2.0466E-05
105  0.0000E+00  9.3785E-05  0.0000E+00  0.0000E+00  0.0000E+00  2.2375E-04  0.0000E+00  0.0000E+00  0.0000E+00
106  0.0000E+00  5.2533E-05  0.0000E+00  0.0000E+00  0.0000E+00  0.0000E+00  0.0000E+00  4.0551E-05  0.0000E+00
107  0.0000E+00  4.9792E-05  0.0000E+00  0.0000E+00  3.2109E-04  0.0000E+00  0.0000E+00  0.0000E+00  0.0000E+00
108  0.0000E+00  9.3739E-05  1.2886E-04  0.0000E+00  0.0000E+00  6.3737E-04  0.0000E+00  0.0000E+00  1.2312E-05
109  0.0000E+00  2.6998E-04  1.2360E-03  0.0000E+00  0.0000E+00  6.1531E-04  0.0000E+00  0.0000E+00  0.0000E+00
110  0.0000E+00  1.0471E-04  6.8254E-05  1.3039E-04  0.0000E+00  0.0000E+00  0.0000E+00  0.0000E+00  0.0000E+00
111  0.0000E+00  1.8116E-04  0.0000E+00  0.0000E+00  1.0559E-03  0.0000E+00  0.0000E+00  1.7443E-03  0.0000E+00
112  0.0000E+00  3.3013E-04  0.0000E+00  0.0000E+00  1.0834E-04  0.0000E+00  1.9923E-03  0.0000E+00  1.4069E-04
113  0.0000E+00  3.6221E-04  0.0000E+00  9.8074E-04  0.0000E+00  0.0000E+00  0.0000E+00  0.0000E+00  1.4185E-04
114  0.0000E+00  6.8116E-04  3.0991E-04  0.0000E+00  2.2481E-03  0.0000E+00  0.0000E+00  0.0000E+00  0.0000E+00
115  0.0000E+00  1.6014E-03  0.0000E+00  0.0000E+00  1.3661E-03  0.0000E+00  0.0000E+00  0.0000E+00  0.0000E+00
116  0.0000E+00  7.2718E-03  0.0000E+00  7.7786E-03  0.0000E+00  5.3613E-03  0.0000E+00  0.0000E+00  2.1599E-02
117  0.0000E+00  8.2518E-03  1.2350E-02  0.0000E+00  0.0000E+00  0.0000E+00  0.0000E+00  0.0000E+00  0.0000E+00
118  0.0000E+00  3.0294E-02  4.0116E-02  0.0000E+00  7.9307E-04  0.0000E+00  1.4433E-02  6.3867E-03  2.6755E-03
119  3.1908E-03  6.6391E-02  1.1412E-01  0.0000E+00  1.0486E-01  8.1871E-02  2.3456E-02  0.0000E+00  0.0000E+00
120  1.0400E-01  1.3031E-01  1.2000E-01  0.0000E+00  4.6806E-01  1.1115E-01  0.0000E+00  9.7801E-03  0.0000E+00
121  0.0000E+00  1.4235E-01  3.4876E-01  5.1286E-01  6.7367E-02  7.1215E-02  0.0000E+00  2.2612E-02  1.2347E-01
122  1.2962E+01  1.2282E+01  1.2307E+01  1.2329E+01  1.2382E+01  1.2616E+01  1.2700E+01  1.2376E+01  1.2557E+01
123  9.9491E+00  9.3574E+00  9.4822E+00  9.5180E+00  9.6072E+00  9.1327E+00  9.2663E+00  9.0103E+00  9.4457E+00
124  2.1624E+01  2.1863E+01  2.2186E+01  2.1696E+01  2.2307E+01  2.1859E+01  2.1885E+01  2.1916E+01  2.1626E+01
125  1.8147E+01  1.8393E+01  1.8449E+01  1.8769E+01  1.8281E+01  1.8691E+01  1.7982E+01  1.8451E+01  1.8501E+01
126  0.0000E+00  1.2165E-05  0.0000E+00  0.0000E+00  1.2739E-05  6.5767E-05  1.5973E-05  0.0000E+00  0.0000E+00
127  0.0000E+00  1.0256E-05  4.9531E-05  9.5507E-05  0.0000E+00  0.0000E+00  0.0000E+00  0.0000E+00  0.0000E+00
128  0.0000E+00  1.9200E-05  0.0000E+00  0.0000E+00  0.0000E+00  0.0000E+00  0.0000E+00  4.5906E-05  5.1347E-06
129  0.0000E+00  4.8776E-05  1.3698E-04  2.4085E-04  2.4512E-04  0.0000E+00  0.0000E+00  0.0000E+00  0.0000E+00
130  0.0000E+00  4.7174E-05  4.4456E-05  0.0000E+00  0.0000E+00  2.8620E-05  0.0000E+00  0.0000E+00  0.0000E+00
131  0.0000E+00  8.5476E-05  0.0000E+00  3.2256E-05  0.0000E+00  5.2806E-05  1.8758E-04  5.3068E-04  0.0000E+00
132  0.0000E+00  5.2185E-05  1.0367E-04  1.7469E-04  0.0000E+00  0.0000E+00  0.0000E+00  0.0000E+00  1.2057E-05
133  0.0000E+00  8.2583E-05  0.0000E+00  0.0000E+00  0.0000E+00  0.0000E+00  5.1543E-04  1.9424E-05  0.0000E+00
134  0.0000E+00  9.8548E-05  0.0000E+00  8.1805E-04  7.5430E-04  5.6970E-04  0.0000E+00  6.8867E-04  0.0000E+00
135  0.0000E+00  5.7414E-05  0.0000E+00  0.0000E+00  0.0000E+00  3.8681E-04  0.0000E+00  0.0000E+00  0.0000E+00
136  0.0000E+00  1.0904E-04  0.0000E+00  0.0000E+00  0.0000E+00  0.0000E+00  0.0000E+00  3.6589E-05  0.0000E+00
137  0.0000E+00  1.4153E-04  0.0000E+00  0.0000E+00  0.0000E+00  0.0000E+00  0.0000E+00  0.0000E+00  0.0000E+00
138  0.0000E+00  2.9835E-04  0.0000E+00  0.0000E+00  0.0000E+00  0.0000E+00  2.8793E-03  0.0000E+00  0.0000E+00
139  0.0000E+00  6.3214E-04  0.0000E+00  0.0000E+00  5.6275E-04  2.9439E-04  0.0000E+00  0.0000E+00  0.0000E+00
140  0.0000E+00  3.8527E-03  0.0000E+00  1.7651E-02  8.9178E-04  0.0000E+00  0.0000E+00  0.0000E+00  9.9847E-04
141  0.0000E+00  8.3513E-03  0.0000E+00  0.0000E+00  0.0000E+00  0.0000E+00  0.0000E+00  1.1569E-03  0.0000E+00
142  0.0000E+00  1.4436E-02  1.5214E-02  0.0000E+00  0.0000E+00  2.2253E-04  3.3741E-02  0.0000E+00  8.7036E-03
143  3.3840E-04  3.2821E-02  0.0000E+00  0.0000E+00  0.0000E+00  5.8475E-02  0.0000E+00  0.0000E+00  0.0000E+00
144  5.3194E-01  2.1717E-01  8.1000E-01  1.9225E-01  4.0058E-01  1.5439E-01  3.6238E-01  1.9310E-01  2.6732E-01
145  1.0215E+00  6.2128E-01  3.8414E-01  3.0200E-01  8.7448E-01  8.7851E-01  7.5082E-01  1.1615E+00  6.3418E-01
146  0.0000E+00  3.3320E-01  2.7208E-01  5.3029E-01  0.0000E+00  1.6010E-01  2.5159E-01  5.5175E-01  2.5215E-01
147  1.0229E+00  4.6307E-01  0.0000E+00  3.9227E-01  4.8731E-01  1.1557E+00  5.0975E-01  4.6608E-01  4.5581E-01
148  5.0162E-01  6.1503E-01  5.2593E-01  6.0407E-01  4.5475E-01  5.3278E-01  1.1177E+00  5.7810E-01  7.1364E-01
149  1.3642E+00  1.6966E+00  1.8588E+00  1.5804E+00  1.6415E+00  1.2750E+00  1.8714E+00  1.9270E+00  1.8606E+00
150  1.9161E+01  1.8772E+01  1.8910E+01  1.9053E+01  1.8819E+01  1.9036E+01  1.8442E+01  1.8265E+01  1.8656E+01

# AV, chi2 & Mass for <> & i_chain = 1 ...  7 solutions
AV       1.1846      1.1831      1.1839      1.1829      1.1842      1.1837      1.1830      1.1827      1.1838
chi2 2.8117E+00  2.8598E+00  2.8454E+00  2.8475E+00  2.8457E+00  2.8419E+00  2.8504E+00  2.8474E+00  2.8498E+00
Mass 6.6467E-09  6.6682E-09  6.6522E-09  6.6767E-09  6.6902E-09  6.6685E-09  6.6702E-09  6.6692E-09  6.6751E-09
 -14.48                                  [v0_min (km/s) before EX0s...]
  32.75                                  [vd_min (km/s) before EX0s...]


## Synthetic spectrum (Best Model) ##l_obs f_obs f_syn wei
 3070    [Nl_obs]
 3359.00    0.00000   0.34390   -2.000
 3360.00    0.19023   0.32530   -1.000
 3361.00    0.20453   0.33760   -1.000
 3362.00    0.21619   0.37139   -1.000
 3363.00    0.22771   0.41051   -1.000
 3364.00    0.25331   0.43322   -1.000
 3365.00    0.26184   0.42888   -1.000
 3366.00    0.26611   0.41094   -1.000
 3367.00    0.25714   0.39405   -1.000
 3368.00    0.24168   0.37767   -1.000
 3369.00    0.23462   0.36538   -1.000
 3370.00    0.23348   0.34975   -1.000
 3371.00    0.22748   0.34168   -1.000
 3372.00    0.23427   0.35021   -1.000
 3373.00    0.24551   0.37500   -1.000
 3374.00    0.25848   0.40650   -1.000
 3375.00    0.26935   0.43540   -1.000
 3376.00    0.28654   0.44880   -1.000
 3377.00    0.29387   0.44087   -1.000
 3378.00    0.29980   0.41852   -1.000
 3379.00    0.29338   0.40049   -1.000
 3380.00    0.29067   0.39663   -1.000
 3381.00    0.28423   0.40723   -1.000
 3382.00    0.28022   0.41974   -1.000
 3383.00    0.28628   0.43076   -1.000
 3384.00    0.29860   0.43917   -1.000
 3385.00    0.30796   0.44712   -1.000
 3386.00    0.30897   0.44445   -1.000
 3387.00    0.31161   0.43580   -1.000
 3388.00    0.32360   0.43042   -1.000
 3389.00    0.32938   0.43462   -1.000
 3390.00    0.33320   0.43771   -1.000
 3391.00    0.32952   0.43094   -1.000
 3392.00    0.32617   0.41800   -1.000
 3393.00    0.32455   0.41408   -1.000
 3394.00    0.33309   0.42551   -1.000
 3395.00    0.35257   0.44603   -1.000
 3396.00    0.35609   0.46436   -1.000
 3397.00    0.37407   0.48087   -1.000
 3398.00    0.38895   0.49483   -1.000
 3399.00    0.39858   0.50086   -1.000
 3400.00    0.41256   0.49718   -1.000
 3401.00    0.40251   0.48420   -1.000
 3402.00    0.40069   0.46446   41.312
 3403.00    0.40249   0.45179   41.759
 3404.00    0.39087   0.44373   42.489
 3405.00    0.39190   0.44177   43.266
 3406.00    0.38476   0.43786   43.971
 3407.00    0.37706   0.43090   44.178
 3408.00    0.37489   0.42768   44.884
 3409.00    0.37260   0.43348   45.134
 3410.00    0.37338   0.44489   -1.000
 3411.00    0.38189   0.44131   43.506
 3412.00    0.38615   0.42428   43.155
 3413.00    0.38866   0.40442   45.009
 3414.00    0.37021   0.39730   45.850
 3415.00    0.35646   0.41266   45.757
 3416.00    0.37240   0.43558   44.628
 3417.00    0.39334   0.45880   42.716
 3418.00    0.41232   0.47628   40.695
 3419.00    0.42392   0.49020   38.639
 3420.00    0.41696   0.49453   38.457
 3421.00    0.42229   0.48475   38.193
 3422.00    0.41973   0.46071   38.421
 3423.00    0.41791   0.44445   39.541
 3424.00    0.41710   0.44150   40.440
 3425.00    0.42224   0.44755   39.308
 3426.00    0.42210   0.45587   38.270
 3427.00    0.42900   0.46853   38.053
 3428.00    0.44541   0.48946   -1.000
 3429.00    0.45499   0.50959   -1.000
 3430.00    0.46051   0.50853   -1.000
 3431.00    0.45130   0.48633   -1.000
 3432.00    0.44542   0.46044   -1.000
 3433.00    0.43895   0.45254   39.353
 3434.00    0.43840   0.46627   37.947
 3435.00    0.44024   0.47952   -1.000
 3436.00    0.44011   0.47744   -1.000
 3437.00    0.43469   0.45915   39.068
 3438.00    0.41781   0.43287   39.668
 3439.00    0.40039   0.40315   42.049
 3440.00    0.38251   0.37886   45.389
 3441.00    0.36483   0.36098   47.257
 3442.00    0.35797   0.35982   47.373
 3443.00    0.36042   0.36970   47.176
 3444.00    0.38010   0.38505   45.333
 3445.00    0.39017   0.40228   42.862
 3446.00    0.40086   0.42514   40.489
 3447.00    0.42282   0.44910   39.065
 3448.00    0.44039   0.47266   -1.000
 3449.00    0.45606   0.48780   -1.000
 3450.00    0.46833   0.48207   -1.000
 3451.00    0.47683   0.46208   -1.000
 3452.00    0.46811   0.44846   -1.000
 3453.00    0.45887   0.44871   -1.000
 3454.00    0.46040   0.46142  324.424
 3455.00    0.46968   0.47053  324.424
 3456.00    0.47640   0.46578   -1.000
 3457.00    0.47261   0.45161   -1.000
 3458.00    0.45658   0.43287   -1.000
 3459.00    0.44182   0.41944   39.191
 3460.00    0.43722   0.40945   38.546
 3461.00    0.43212   0.41223   38.306
 3462.00    0.43439   0.42986  288.077
 3463.00    0.44711   0.44924  324.424
 3464.00    0.47834   0.45231   -1.000
 3465.00    0.49261   0.44638   -1.000
 3466.00    0.47597   0.44715   -1.000
 3467.00    0.46856   0.46064  324.424
 3468.00    0.48724   0.48135  324.424
 3469.00    0.49720   0.49574  323.942
 3470.00    0.51275   0.49890   -1.000
 3471.00    0.50671   0.48663   -1.000
 3472.00    0.49359   0.46464   -1.000
 3473.00    0.47408   0.43394   -1.000
 3474.00    0.45577   0.40895   -1.000
 3475.00    0.44192   0.39618   39.525
 3476.00    0.43481   0.40491   39.768
 3477.00    0.44352   0.42927   38.946
 3478.00    0.46333   0.45500  283.438
 3479.00    0.48601   0.47217   -1.000
 3480.00    0.49751   0.48083   -1.000
 3481.00    0.49223   0.47779   -1.000
 3482.00    0.49979   0.46783   -1.000
 3483.00    0.49629   0.45903   -1.000
 3484.00    0.48149   0.45996   -1.000
 3485.00    0.49863   0.47459   -1.000
 3486.00    0.52082   0.48906   -1.000
 3487.00    0.52117   0.49084   -1.000
 3488.00    0.52158   0.47258   -1.000
 3489.00    0.49637   0.44559   -1.000
 3490.00    0.46455   0.42616   -1.000
 3491.00    0.45781   0.42689   -1.000
 3492.00    0.45743   0.44082   -1.000
 3493.00    0.47284   0.45246   -1.000
 3494.00    0.47507   0.45589   -1.000
 3495.00    0.47486   0.44694   -1.000
 3496.00    0.46738   0.43877   -1.000
 3497.00    0.45967   0.44405   -1.000
 3498.00    0.47399   0.46331   -1.000
 3499.00    0.50555   0.48576   -1.000
 3500.00    0.53034   0.49398   -1.000
 3501.00    0.53842   0.49931   -1.000
 3502.00    0.54331   0.50910   -1.000
 3503.00    0.55362   0.51451   -1.000
 3504.00    0.54595   0.51071   -1.000
 3505.00    0.54397   0.49802   -1.000
 3506.00    0.53731   0.48750   -1.000
 3507.00    0.52721   0.48371   -1.000
 3508.00    0.52954   0.47903   -1.000
 3509.00    0.53217   0.47233   -1.000
 3510.00    0.51997   0.46494   -1.000
 3511.00    0.50321   0.45477   -1.000
 3512.00    0.49411   0.44202   -1.000
 3513.00    0.48598   0.43072   -1.000
 3514.00    0.46828   0.43154   -1.000
 3515.00    0.48093   0.45411   -1.000
 3516.00    0.51699   0.49130   -1.000
 3517.00    0.53872   0.51853   -1.000
 3518.00    0.53924   0.52310   -1.000
 3519.00    0.54024   0.50240   -1.000
 3520.00    0.51294   0.47613   -1.000
 3521.00    0.49398   0.45151   -1.000
 3522.00    0.48390   0.43460   -1.000
 3523.00    0.47404   0.41703   -1.000
 3524.00    0.44490   0.40002   39.202
 3525.00    0.43175   0.39616   39.361
 3526.00    0.43909   0.41348   39.141
 3527.00    0.45828   0.44301   -1.000
 3528.00    0.48852   0.47572   -1.000
 3529.00    0.50379   0.49602  321.258
 3530.00    0.51616   0.50160   -1.000
 3531.00    0.51931   0.49682   -1.000
 3532.00    0.50709   0.49128   -1.000
 3533.00    0.50785   0.48645   -1.000
 3534.00    0.51762   0.48895   -1.000
 3535.00    0.53421   0.49594   -1.000
 3536.00    0.53803   0.50739   -1.000
 3537.00    0.53610   0.52261   -1.000
 3538.00    0.53205   0.53479  302.644
 3539.00    0.53389   0.53807  298.758
 3540.00    0.54848   0.53152   -1.000
 3541.00    0.52855   0.52151  306.937
 3542.00    0.52807   0.52177  309.639
 3543.00    0.52729   0.53343  307.747
 3544.00    0.53393   0.54195  303.118
 3545.00    0.53589   0.54126  302.126
 3546.00    0.53159   0.53230  307.628
 3547.00    0.52508   0.52486  314.695
 3548.00    0.52817   0.52395  316.045
 3549.00    0.52540   0.52719  315.403
 3550.00    0.52763   0.52932  313.188
 3551.00    0.52126   0.52420  317.388
 3552.00    0.50225   0.50970  324.424
 3553.00    0.49102   0.49276  324.424
 3554.00    0.48069   0.48760  324.424
 3555.00    0.47695   0.49433   -1.000
 3556.00    0.49246   0.50232   -1.000
 3557.00    0.49417   0.50776   -1.000
 3558.00    0.49132   0.50736   -1.000
 3559.00    0.48625   0.50853   -1.000
 3560.00    0.48741   0.51594   -1.000
 3561.00    0.48930   0.52425   -1.000
 3562.00    0.49525   0.52377   -1.000
 3563.00    0.50239   0.50247  324.424
 3564.00    0.48212   0.46819   -1.000
 3565.00    0.44700   0.43547   39.604
 3566.00    0.42071   0.42632   39.942
 3567.00    0.42054   0.42918   39.528
 3568.00    0.43579   0.42644   39.303
 3569.00    0.43121   0.41723   40.614
 3570.00    0.41462   0.40779   41.377
 3571.00    0.41726   0.41104   40.123
 3572.00    0.43192   0.42668   38.336
 3573.00    0.44780   0.43984  285.167
 3574.00    0.45738   0.45123  324.424
 3575.00    0.46038   0.45911  324.424
 3576.00    0.46450   0.45986  324.424
 3577.00    0.46725   0.45188   -1.000
 3578.00    0.45269   0.43650   -1.000
 3579.00    0.42577   0.41212   40.946
 3580.00    0.40724   0.39121   42.774
 3581.00    0.37982   0.38006   45.147
 3582.00    0.37515   0.38141   45.489
 3583.00    0.37776   0.38517   45.679
 3584.00    0.38059   0.38267   46.815
 3585.00    0.36933   0.37257   48.356
 3586.00    0.36780   0.36516   49.059
 3587.00    0.37219   0.37124   46.642
 3588.00    0.38804   0.39224   44.155
 3589.00    0.40421   0.42633   42.017
 3590.00    0.42339   0.45838   38.285
 3591.00    0.45766   0.47912   -1.000
 3592.00    0.47982   0.48170  324.424
 3593.00    0.48336   0.48185  324.424
 3594.00    0.48779   0.49104  324.424
 3595.00    0.50123   0.51136   -1.000
 3596.00    0.52153   0.53248   -1.000
 3597.00    0.53995   0.54331  298.003
 3598.00    0.55599   0.55135  290.172
 3599.00    0.56850   0.55749  285.357
 3600.00    0.56621   0.55157   -1.000
 3601.00    0.55107   0.52928   -1.000
 3602.00    0.53105   0.50284   -1.000
 3603.00    0.50679   0.48152   -1.000
 3604.00    0.49559   0.47416   -1.000
 3605.00    0.49059   0.47323   -1.000
 3606.00    0.47939   0.46834   -1.000
 3607.00    0.48613   0.45542   -1.000
 3608.00    0.46893   0.44120   -1.000
 3609.00    0.44564   0.43865  324.424
 3610.00    0.44747   0.45015  324.424
 3611.00    0.47939   0.47124  324.424
 3612.00    0.49293   0.48713  324.424
 3613.00    0.49750   0.50172  324.424
 3614.00    0.51209   0.51843  321.814
 3615.00    0.52189   0.52958  310.147
 3616.00    0.52711   0.51729  310.613
 3617.00    0.50261   0.48365   -1.000
 3618.00    0.46201   0.44579   -1.000
 3619.00    0.44279   0.43940   39.034
 3620.00    0.44723   0.46148   -1.000
 3621.00    0.49513   0.49749  324.424
 3622.00    0.52962   0.52478  306.142
 3623.00    0.54491   0.54316  298.617
 3624.00    0.55366   0.56223  294.875
 3625.00    0.57174   0.59071   -1.000
 3626.00    0.59223   0.61944   -1.000
 3627.00    0.60959   0.63214   -1.000
 3628.00    0.60744   0.61281  272.756
 3629.00    0.57395   0.56383  289.373
 3630.00    0.52697   0.50260   -1.000
 3631.00    0.48273   0.47014   -1.000
 3632.00    0.46422   0.46870  324.424
 3633.00    0.47917   0.49091   -1.000
 3634.00    0.49807   0.51166   -1.000
 3635.00    0.50877   0.52534   -1.000
 3636.00    0.52278   0.53653   -1.000
 3637.00    0.54772   0.55710   -1.000
 3638.00    0.56880   0.58131   -1.000
 3639.00    0.58727   0.59802   -1.000
 3640.00    0.60009   0.60278  274.649
 3641.00    0.58917   0.59094  281.467
 3642.00    0.57427   0.56899  290.957
 3643.00    0.54503   0.54765  306.733
 3644.00    0.53317   0.52889  315.853
 3645.00    0.52626   0.51313   -1.000
 3646.00    0.50948   0.49798   -1.000
 3647.00    0.49630   0.48508   -1.000
 3648.00    0.48750   0.48498  324.424
 3649.00    0.49754   0.49775  323.696
 3650.00    0.52294   0.52354  310.656
 3651.00    0.54077   0.55307   -1.000
 3652.00    0.56870   0.58297   -1.000
 3653.00    0.59273   0.59905  276.113
 3654.00    0.60339   0.61156  272.224
 3655.00    0.60811   0.62405   -1.000
 3656.00    0.61269   0.63830   -1.000
 3657.00    0.63101   0.65209   -1.000
 3658.00    0.63267   0.65795   -1.000
 3659.00    0.63827   0.65910   -1.000
 3660.00    0.63281   0.65358   -1.000
 3661.00    0.63177   0.64031  263.908
 3662.00    0.62607   0.62304  266.741
 3663.00    0.60285   0.61296   -1.000
 3664.00    0.60342   0.61201  273.422
 3665.00    0.61158   0.61700  270.160
 3666.00    0.61225   0.61744  270.283
 3667.00    0.61012   0.60865  275.943
 3668.00    0.59759   0.59318  279.014
 3669.00    0.57654   0.58234  285.908
 3670.00    0.57507   0.59031   -1.000
 3671.00    0.60552   0.60894  273.596
 3672.00    0.62275   0.62499  268.024
 3673.00    0.62054   0.63214   -1.000
 3674.00    0.62654   0.62902  266.943
 3675.00    0.62438   0.61694  267.549
 3676.00    0.61532   0.59481   -1.000
 3677.00    0.59565   0.56727   -1.000
 3678.00    0.56955   0.54295   -1.000
 3679.00    0.55350   0.53231   -1.000
 3680.00    0.55111   0.53872   -1.000
 3681.00    0.56305   0.55494  292.015
 3682.00    0.57555   0.57034  283.563
 3683.00    0.58020   0.57666  280.850
 3684.00    0.58202   0.56768   -1.000
 3685.00    0.56703   0.54608   -1.000
 3686.00    0.54560   0.52251   -1.000
 3687.00    0.53210   0.51949   -1.000
 3688.00    0.53760   0.53901  308.691
 3689.00    0.56330   0.57697   -1.000
 3690.00    0.59945   0.61258   -1.000
 3691.00    0.62971   0.63304  260.926
 3692.00    0.64071   0.62734   -1.000
 3693.00    0.62722   0.61114   -1.000
 3694.00    0.61666   0.60161   -1.000
 3695.00    0.61238   0.60085  272.660
 3696.00    0.60410   0.60735  270.241
 3697.00    0.61791   0.62086  266.942
 3698.00    0.63878   0.64315  258.222
 3699.00    0.65658   0.66077  251.640
 3700.00    0.66999   0.66795  248.236
 3701.00    0.66859   0.65147   -1.000
 3702.00    0.64316   0.61041   -1.000
 3703.00    0.59430   0.55388   -1.000
 3704.00    0.55170   0.50817   -1.000
 3705.00    0.52265   0.48096   -1.000
 3706.00    0.51061   0.47981   -1.000
 3707.00    0.52045   0.48818   -1.000
 3708.00    0.52620   0.50109   -1.000
 3709.00    0.53276   0.51860   -1.000
 3710.00    0.55850   0.54292   -1.000
 3711.00    0.58893   0.57065   -1.000
 3712.00    0.62281   0.60337   -1.000
 3713.00    0.65861   0.63357   -1.000
 3714.00    0.68216   0.64896   -1.000
 3715.00    0.68631   0.64677   -1.000
 3716.00    0.66694   0.62877   -1.000
 3717.00    0.64428   0.59101   -1.000
 3718.00    0.59755   0.53743   -1.000
 3719.00    0.53231   0.47718   -1.000
 3720.00    0.47483   0.42375   -1.000
 3721.00    0.44590   0.41087   39.861
 3722.00    0.45723   0.43858   -1.000
 3723.00    0.51355   0.49201   -1.000
 3724.00    0.57082   0.54713   -1.000
 3725.00    0.60648   0.57799   -1.000
 3726.00    0.61516   0.57759   -1.000
 3727.00    0.59889   0.56834   -1.000
 3728.00    0.58389   0.57034   -1.000
 3729.00    0.59579   0.57435   -1.000
 3730.00    0.60008   0.56612   -1.000
 3731.00    0.57080   0.53055   -1.000
 3732.00    0.53108   0.46823   -1.000
 3733.00    0.47629   0.41166   39.125
 3734.00    0.42758   0.37134   42.328
 3735.00    0.39954   0.36401   44.014
 3736.00    0.40377   0.38965   41.903
 3737.00    0.43445   0.44009   37.993
 3738.00    0.49227   0.49651  261.879
 3739.00    0.54109   0.55275  302.007
 3740.00    0.58863   0.58374  284.231
 3741.00    0.60161   0.58402   -1.000
 3742.00    0.58410   0.55627   -1.000
 3743.00    0.55568   0.52192   -1.000
 3744.00    0.52744   0.48829   -1.000
 3745.00    0.49715   0.46811   -1.000
 3746.00    0.47194   0.44956   -1.000
 3747.00    0.45495   0.42503   39.694
 3748.00    0.42707   0.40409   40.851
 3749.00    0.41610   0.39867   41.350
 3750.00    0.43835   0.42346   -1.000
 3751.00    0.48883   0.47482   -1.000
 3752.00    0.55286   0.53206   -1.000
 3753.00    0.59949   0.58647   -1.000
 3754.00    0.63693   0.62537   -1.000
 3755.00    0.66502   0.62905   -1.000
 3756.00    0.64819   0.59918   -1.000
 3757.00    0.59447   0.55263   -1.000
 3758.00    0.53610   0.51990   -1.000
 3759.00    0.52053   0.51863  324.424
 3760.00    0.54026   0.53437  314.158
 3761.00    0.56557   0.55239   -1.000
 3762.00    0.57878   0.55604   -1.000
 3763.00    0.57750   0.55294   -1.000
 3764.00    0.57854   0.54887   -1.000
 3765.00    0.57697   0.54164   -1.000
 3766.00    0.57123   0.53231   -1.000
 3767.00    0.56274   0.52588   -1.000
 3768.00    0.56026   0.52097   -1.000
 3769.00    0.56772   0.51789   -1.000
 3770.00    0.57105   0.52383   -1.000
 3771.00    0.57830   0.54577   -1.000
 3772.00    0.60851   0.57583   -1.000
 3773.00    0.63455   0.60491   -1.000
 3774.00    0.64400   0.61872   -1.000
 3775.00    0.64653   0.62290   -1.000
 3776.00    0.64664   0.62733   -1.000
 3777.00    0.65545   0.63797   -1.000
 3778.00    0.66853   0.65658   -1.000
 3779.00    0.67905   0.67640  248.882
 3780.00    0.69776   0.69278  243.041
 3781.00    0.70840   0.70031  241.348
 3782.00    0.70874   0.70156  239.879
 3783.00    0.71717   0.69662   -1.000
 3784.00    0.71464   0.67890   -1.000
 3785.00    0.68728   0.64737   -1.000
 3786.00    0.64683   0.61274   -1.000
 3787.00    0.60377   0.58235   -1.000
 3788.00    0.58839   0.56567   -1.000
 3789.00    0.58072   0.56837   -1.000
 3790.00    0.58032   0.58019  292.185
 3791.00    0.59024   0.58771  289.158
 3792.00    0.59293   0.58160   -1.000
 3793.00    0.57411   0.55759   -1.000
 3794.00    0.54531   0.53009   -1.000
 3795.00    0.52942   0.50151   -1.000
 3796.00    0.51154   0.47280   -1.000
 3797.00    0.48425   0.44669   -1.000
 3798.00    0.47061   0.43878   -1.000
 3799.00    0.49313   0.46498   -1.000
 3800.00    0.52941   0.52168  312.563
 3801.00    0.57170   0.57654  287.415
 3802.00    0.60078   0.62005   -1.000
 3803.00    0.62626   0.64071   -1.000
 3804.00    0.64551   0.64389  266.931
 3805.00    0.62966   0.63223  270.983
 3806.00    0.60540   0.61969   -1.000
 3807.00    0.59760   0.61850   -1.000
 3808.00    0.60895   0.63471   -1.000
 3809.00    0.63243   0.65571   -1.000
 3810.00    0.64557   0.66609   -1.000
 3811.00    0.64413   0.65325  270.647
 3812.00    0.62491   0.61874  285.253
 3813.00    0.59686   0.58206   -1.000
 3814.00    0.55613   0.55199  321.220
 3815.00    0.52950   0.54323   -1.000
 3816.00    0.52973   0.55153   -1.000
 3817.00    0.54775   0.56192   -1.000
 3818.00    0.55306   0.55340  322.952
 3819.00    0.52255   0.52864  324.424
 3820.00    0.49361   0.51258   -1.000
 3821.00    0.49327   0.51512   -1.000
 3822.00    0.51133   0.52914   -1.000
 3823.00    0.51936   0.52517  324.424
 3824.00    0.49196   0.50041  324.424
 3825.00    0.45786   0.47898   41.065
 3826.00    0.44963   0.46783   40.550
 3827.00    0.44520   0.46729   40.218
 3828.00    0.44995   0.47201   39.569
 3829.00    0.45271   0.47528   38.918
 3830.00    0.45602   0.46966   39.390
 3831.00    0.44601   0.45163   41.180
 3832.00    0.42048   0.42369   44.483
 3833.00    0.39764   0.39595   45.878
 3834.00    0.39404   0.38107   44.999
 3835.00    0.40741   0.38218   43.180
 3836.00    0.41766   0.39436   42.225
 3837.00    0.41402   0.40634   43.108
 3838.00    0.40745   0.41769   44.155
 3839.00    0.40799   0.43350   43.390
 3840.00    0.43318   0.45956   40.920
 3841.00    0.46817   0.49932   -1.000
 3842.00    0.51902   0.54090   -1.000
 3843.00    0.55114   0.57881   -1.000
 3844.00    0.56708   0.59981   -1.000
 3845.00    0.57034   0.60911   -1.000
 3846.00    0.56894   0.61530   -1.000
 3847.00    0.57406   0.61708   -1.000
 3848.00    0.57294   0.61022   -1.000
 3849.00    0.54911   0.59850   -1.000
 3850.00    0.54012   0.59431   -1.000
 3851.00    0.54858   0.60585   -1.000
 3852.00    0.56529   0.61917   -1.000
 3853.00    0.56593   0.62325   -1.000
 3854.00    0.55985   0.61271   -1.000
 3855.00    0.54138   0.59630   -1.000
 3856.00    0.53358   0.57953   -1.000
 3857.00    0.52519   0.56002   -1.000
 3858.00    0.50181   0.54048   38.901
 3859.00    0.47059   0.53570   39.944
 3860.00    0.47335   0.55040   39.103
 3861.00    0.50802   0.58369   -1.000
 3862.00    0.55313   0.61483   -1.000
 3863.00    0.59280   0.63012   -1.000
 3864.00    0.59772   0.62628   -1.000
 3865.00    0.58916   0.61806   -1.000
 3866.00    0.57801   0.61616   -1.000
 3867.00    0.57048   0.61710   -1.000
 3868.00    0.55457   0.61475   -1.000
 3869.00    0.53116   0.60290   -1.000
 3870.00    0.51391   0.58196   -1.000
 3871.00    0.49650   0.56766   39.411
 3872.00    0.50249   0.56639   -1.000
 3873.00    0.53847   0.58378   -1.000
 3874.00    0.58634   0.60716   -1.000
 3875.00    0.61014   0.62132  293.366
 3876.00    0.60383   0.60676  302.363
 3877.00    0.57101   0.57927  324.424
 3878.00    0.52940   0.56168   -1.000
 3879.00    0.51920   0.55870   -1.000
 3880.00    0.52009   0.56650   -1.000
 3881.00    0.50569   0.57133   -1.000
 3882.00    0.50253   0.57302   -1.000
 3883.00    0.53612   0.57709   -1.000
 3884.00    0.57902   0.56814   -1.000
 3885.00    0.57706   0.53492   -1.000
 3886.00    0.54711   0.49430   -1.000
 3887.00    0.52867   0.46193   -1.000
 3888.00    0.52940   0.45861   -1.000
 3889.00    0.54656   0.48710   -1.000
 3890.00    0.58704   0.53825   -1.000
 3891.00    0.64167   0.59167   -1.000
 3892.00    0.68218   0.63031   -1.000
 3893.00    0.69366   0.63962   -1.000
 3894.00    0.68209   0.63577   -1.000
 3895.00    0.67973   0.63776   -1.000
 3896.00    0.69358   0.64587   -1.000
 3897.00    0.70845   0.65557   -1.000
 3898.00    0.71089   0.65775   -1.000
 3899.00    0.70387   0.65570   -1.000
 3900.00    0.70523   0.66117   -1.000
 3901.00    0.71161   0.66720   -1.000
 3902.00    0.71145   0.66436   -1.000
 3903.00    0.70298   0.65326   -1.000
 3904.00    0.68465   0.63909   -1.000
 3905.00    0.65540   0.63669   -1.000
 3906.00    0.65555   0.65047  274.570
 3907.00    0.68851   0.68226  258.550
 3908.00    0.73422   0.71719   -1.000
 3909.00    0.76982   0.74430   -1.000
 3910.00    0.78390   0.75709   -1.000
 3911.00    0.79272   0.76366   -1.000
 3912.00    0.80048   0.76579   -1.000
 3913.00    0.78510   0.76170   -1.000
 3914.00    0.76271   0.75049  236.980
 3915.00    0.75708   0.73935   -1.000
 3916.00    0.75511   0.72850   -1.000
 3917.00    0.74179   0.71426   -1.000
 3918.00    0.72846   0.69273   -1.000
 3919.00    0.69902   0.66685   -1.000
 3920.00    0.65988   0.64697   -1.000
 3921.00    0.64763   0.63608   -1.000
 3922.00    0.65096   0.64078   -1.000
 3923.00    0.66270   0.65078   -1.000
 3924.00    0.67140   0.65295   -1.000
 3925.00    0.65691   0.63994   -1.000
 3926.00    0.61517   0.60670   -1.000
 3927.00    0.55431   0.56433  324.424
 3928.00    0.50012   0.51509   43.498
 3929.00    0.44453   0.46661   49.021
 3930.00    0.39192   0.41384   57.351
 3931.00    0.33403   0.34999   67.863
 3932.00    0.27827   0.29193   79.408
 3933.00    0.24619   0.25744   86.901
 3934.00    0.24319   0.26635   83.517
 3935.00    0.27684   0.31614   72.609
 3936.00    0.33001   0.38754   -1.000
 3937.00    0.39582   0.45804   49.339
 3938.00    0.45649   0.52630   41.454
 3939.00    0.51888   0.57406   -1.000
 3940.00    0.56319   0.60528   -1.000
 3941.00    0.58567   0.61900   -1.000
 3942.00    0.58888   0.61848   -1.000
 3943.00    0.57449   0.61723   -1.000
 3944.00    0.57771   0.63129   -1.000
 3945.00    0.62808   0.65759   -1.000
 3946.00    0.68069   0.68396  262.245
 3947.00    0.70907   0.69999  259.206
 3948.00    0.71127   0.70823  257.321
 3949.00    0.72335   0.71946  247.939
 3950.00    0.75344   0.73077   -1.000
 3951.00    0.76412   0.73139   -1.000
 3952.00    0.75151   0.73297   -1.000
 3953.00    0.75583   0.74172   -1.000
 3954.00    0.77314   0.74670   -1.000
 3955.00    0.77412   0.74078   -1.000
 3956.00    0.74825   0.72645   -1.000
 3957.00    0.73303   0.71580   -1.000
 3958.00    0.73553   0.71248   -1.000
 3959.00    0.72891   0.69312   -1.000
 3960.00    0.67198   0.64724   -1.000
 3961.00    0.60048   0.59940  313.076
 3962.00    0.54576   0.55666  324.424
 3963.00    0.51444   0.52950   -1.000
 3964.00    0.49003   0.49839   40.951
 3965.00    0.43949   0.44245   46.190
 3966.00    0.36623   0.37248   56.929
 3967.00    0.30364   0.30003   69.669
 3968.00    0.26262   0.25967   77.181
 3969.00    0.26177   0.26484   71.955
 3970.00    0.29937   0.31297   59.441
 3971.00    0.36230   0.38174   48.831
 3972.00    0.43569   0.45833   40.835
 3973.00    0.50360   0.52414   -1.000
 3974.00    0.56599   0.58455   -1.000
 3975.00    0.63058   0.63502  279.842
 3976.00    0.67799   0.67921  257.793
 3977.00    0.71924   0.72134  242.537
 3978.00    0.77041   0.75825  229.793
 3979.00    0.81229   0.78865   -1.000
 3980.00    0.83977   0.79923   -1.000
 3981.00    0.83498   0.79782   -1.000
 3982.00    0.82165   0.79316   -1.000
 3983.00    0.82899   0.79610   -1.000
 3984.00    0.84427   0.80975   -1.000
 3985.00    0.85865   0.82788   -1.000
 3986.00    0.88019   0.84776   -1.000
 3987.00    0.88686   0.86657   -1.000
 3988.00    0.90549   0.87562   -1.000
 3989.00    0.91252   0.87494   -1.000
 3990.00    0.89876   0.87580   -1.000
 3991.00    0.91282   0.88480   -1.000
 3992.00    0.94426   0.89865   -1.000
 3993.00    0.94525   0.90594   -1.000
 3994.00    0.92552   0.89934   -1.000
 3995.00    0.90570   0.88117   -1.000
 3996.00    0.88419   0.86144   -1.000
 3997.00    0.87124   0.85790  207.868
 3998.00    0.88001   0.87338  203.229
 3999.00    0.92218   0.90233   -1.000
 4000.00    0.95942   0.92768   -1.000
 4001.00    0.97891   0.94496   -1.000
 4002.00    0.98543   0.94585   -1.000
 4003.00    0.97958   0.92419   -1.000
 4004.00    0.93631   0.88264   -1.000
 4005.00    0.87360   0.85322   -1.000
 4006.00    0.86940   0.85694  206.593
 4007.00    0.91461   0.89022   -1.000
 4008.00    0.95531   0.92920   -1.000
 4009.00    0.97985   0.94964   -1.000
 4010.00    0.98965   0.95870   -1.000
 4011.00    0.98493   0.96319   -1.000
 4012.00    0.98243   0.96600  183.088
 4013.00    0.98810   0.97079   -1.000
 4014.00    0.99851   0.97750   -1.000
 4015.00    1.00571   0.98110   -1.000
 4016.00    1.00734   0.97978   -1.000
 4017.00    0.99573   0.98061  183.915
 4018.00    1.00000   0.98822  183.054
 4019.00    1.01922   0.99696   -1.000
 4020.00    1.02228   1.00040   -1.000
 4021.00    1.01780   0.99330   -1.000
 4022.00    1.01364   0.98322   -1.000
 4023.00    1.00402   0.97375   -1.000
 4024.00    0.99275   0.96869   -1.000
 4025.00    1.00275   0.97508   -1.000
 4026.00    1.03434   0.99633   -1.000
 4027.00    1.06032   1.01706   -1.000
 4028.00    1.06185   1.01219   -1.000
 4029.00    1.02202   0.97128   -1.000
 4030.00    0.96293   0.91038   -1.000
 4031.00    0.91438   0.86486   -1.000
 4032.00    0.89750   0.84318   -1.000
 4033.00    0.89721   0.84835   -1.000
 4034.00    0.91398   0.87852   -1.000
 4035.00    0.95892   0.93100   -1.000
 4036.00    1.02027   0.98761   -1.000
 4037.00    1.06195   1.03277   -1.000
 4038.00    1.08045   1.04490   -1.000
 4039.00    1.07037   1.03313   -1.000
 4040.00    1.03773   1.01503   -1.000
 4041.00    1.02102   1.00412  178.980
 4042.00    1.03184   0.98105   -1.000
 4043.00    0.99583   0.92718   -1.000
 4044.00    0.90597   0.85469   -1.000
 4045.00    0.82560   0.80474   -1.000
 4046.00    0.83018   0.82121  214.235
 4047.00    0.91195   0.88915   -1.000
 4048.00    0.99710   0.95857   -1.000
 4049.00    1.04178   1.00798   -1.000
 4050.00    1.06393   1.02576   -1.000
 4051.00    1.05646   1.02509   -1.000
 4052.00    1.02640   1.01004  180.282
 4053.00    1.00028   0.98978  184.969
 4054.00    0.98492   0.97085  187.860
 4055.00    0.97409   0.95554   -1.000
 4056.00    0.95832   0.94200   -1.000
 4057.00    0.94856   0.93412  192.649
 4058.00    0.95236   0.94515  190.403
 4059.00    0.97387   0.96830  183.480
 4060.00    1.01417   0.97667   -1.000
 4061.00    1.01037   0.94746   -1.000
 4062.00    0.94889   0.88928   -1.000
 4063.00    0.87619   0.85170   -1.000
 4064.00    0.86796   0.84794   -1.000
 4065.00    0.91813   0.87164   -1.000
 4066.00    0.95792   0.90624   -1.000
 4067.00    0.97427   0.93569   -1.000
 4068.00    1.00228   0.95330   -1.000
 4069.00    1.02437   0.95106   -1.000
 4070.00    0.99557   0.92127   -1.000
 4071.00    0.95036   0.88927   -1.000
 4072.00    0.94402   0.89112   -1.000
 4073.00    0.97527   0.91638   -1.000
 4074.00    0.98950   0.93257   -1.000
 4075.00    0.95999   0.91043   -1.000
 4076.00    0.90405   0.86984   -1.000
 4077.00    0.86090   0.85259  216.363
 4078.00    0.87303   0.87311  209.290
 4079.00    0.92819   0.92806  194.884
 4080.00    0.99322   0.98158  181.420
 4081.00    1.03468   1.01164   -1.000
 4082.00    1.02407   1.00524   -1.000
 4083.00    0.99569   0.98240  184.963
 4084.00    0.97675   0.96695  187.827
 4085.00    0.98091   0.97534  185.059
 4086.00    1.01237   1.00645  178.790
 4087.00    1.05603   1.04019  171.897
 4088.00    1.09349   1.06359   -1.000
 4089.00    1.09308   1.06297   -1.000
 4090.00    1.07558   1.04610   -1.000
 4091.00    1.05148   1.02739   -1.000
 4092.00    1.04005   1.01688   -1.000
 4093.00    1.04261   1.00251   -1.000
 4094.00    1.03037   0.97815   -1.000
 4095.00    0.99734   0.94284   -1.000
 4096.00    0.94764   0.90833   -1.000
 4097.00    0.92782   0.88483   -1.000
 4098.00    0.92119   0.85811   -1.000
 4099.00    0.89005   0.81325   -1.000
 4100.00    0.82791   0.75677   -1.000
 4101.00    0.75739   0.72154   -1.000
 4102.00    0.75517   0.73300   -1.000
 4103.00    0.80892   0.79283   -1.000
 4104.00    0.87721   0.86181  202.496
 4105.00    0.93850   0.92045   -1.000
 4106.00    0.97499   0.95377   -1.000
 4107.00    0.99350   0.96777   -1.000
 4108.00    0.98568   0.96704   -1.000
 4109.00    0.97464   0.95837   -1.000
 4110.00    0.96373   0.95294  193.004
 4111.00    0.96032   0.95846  190.623
 4112.00    0.97651   0.97393  186.295
 4113.00    1.00008   0.99640  183.087
 4114.00    1.02433   1.01839  180.269
 4115.00    1.04017   1.03130  178.503
 4116.00    1.04062   1.02517  179.378
 4117.00    1.02340   1.00514   -1.000
 4118.00    0.99738   0.98295  189.447
 4119.00    0.98198   0.97194  191.692
 4120.00    0.99070   0.97712  189.300
 4121.00    1.00187   0.98757  187.329
 4122.00    0.99607   0.99654  187.518
 4123.00    0.99313   1.00580  185.509
 4124.00    1.02075   1.01764  182.200
 4125.00    1.02924   1.02528  181.573
 4126.00    1.02268   1.02021  184.024
 4127.00    1.01088   1.00708  188.022
 4128.00    0.99294   0.99615  189.592
 4129.00    0.98470   0.98478  190.545
 4130.00    0.97343   0.96371  192.949
 4131.00    0.95536   0.93497   -1.000
 4132.00    0.92675   0.91204   -1.000
 4133.00    0.91694   0.91938  205.951
 4134.00    0.94243   0.95345  199.176
 4135.00    0.98951   0.99516  189.067
 4136.00    1.02968   1.03030  182.890
 4137.00    1.04826   1.05310  179.931
 4138.00    1.06415   1.06498  177.117
 4139.00    1.06892   1.06787  176.409
 4140.00    1.05794   1.04704  180.028
 4141.00    1.02532   0.99684   -1.000
 4142.00    0.95257   0.93546   -1.000
 4143.00    0.89472   0.90203  216.621
 4144.00    0.89717   0.91215   -1.000
 4145.00    0.95004   0.95468  196.138
 4146.00    1.00734   0.99642  188.792
 4147.00    1.02272   1.01012  186.812
 4148.00    1.01197   1.00522  190.371
 4149.00    0.99359   0.99611  195.739
 4150.00    0.97040   0.99208   -1.000
 4151.00    0.96466   0.99035   -1.000
 4152.00    0.96248   0.98529   -1.000
 4153.00    0.96302   0.97709  197.447
 4154.00    0.96221   0.96912  200.722
 4155.00    0.95108   0.96943   -1.000
 4156.00    0.95461   0.98331   -1.000
 4157.00    1.13574   1.00527   -1.000
 4158.00    1.09213   1.03161   -1.000
 4159.00    0.96318   1.05397   -1.000
 4160.00    0.95190   1.06809   -1.000
 4161.00    1.02319   1.08007   -1.000
 4162.00    1.05524   1.08889   -1.000
 4163.00    1.06044   1.09129   -1.000
 4164.00    1.05463   1.08134   -1.000
 4165.00    1.03275   1.06011   -1.000
 4166.00    1.01010   1.03651   -1.000
 4167.00    0.98314   1.02891   -1.000
 4168.00    0.98291   1.03292   -1.000
 4169.00    1.01214   1.03813   -1.000
 4170.00    1.01309   1.02389  191.958
 4171.00    0.97058   0.98613   -1.000
 4172.00    0.90828   0.95249   -1.000
 4173.00    0.88151   0.94103   -1.000
 4174.00    0.90646   0.95585   -1.000
 4175.00    0.94240   0.97817   -1.000
 4176.00    0.95410   0.98972   -1.000
 4177.00    0.94671   0.99755   -1.000
 4178.00    0.94418   1.00947   -1.000
 4179.00    0.96021   1.01993   -1.000
 4180.00    0.96694   1.02348   -1.000
 4181.00    0.97808   1.01646   -1.000
 4182.00    0.98076   1.01861   -1.000
 4183.00    0.99890   1.03933   -1.000
 4184.00    1.03359   1.05524   -1.000
 4185.00    1.03978   1.05083  187.305
 4186.00    1.01873   1.02584  193.693
 4187.00    0.98160   1.00614   -1.000
 4188.00    0.97329   1.01021   -1.000
 4189.00    1.00160   1.02720   -1.000
 4190.00    1.00790   1.04263   -1.000
 4191.00    1.01047   1.05249   -1.000
 4192.00    1.03694   1.06284   -1.000
 4193.00    1.05957   1.06950  182.673
 4194.00    1.05204   1.05574  188.046
 4195.00    1.00813   1.01826  198.043
 4196.00    0.95885   0.98074   -1.000
 4197.00    0.93839   0.95380   -1.000
 4198.00    0.93296   0.94351  208.643
 4199.00    0.94865   0.94315  206.341
 4200.00    0.97130   0.95039   -1.000
 4201.00    0.97111   0.95799  202.466
 4202.00    0.96849   0.97023  201.158
 4203.00    0.98443   0.99555  197.964
 4204.00    1.00405   1.03011   -1.000
 4205.00    1.02253   1.06123   -1.000
 4206.00    1.03675   1.08363   -1.000
 4207.00    1.06015   1.09788   -1.000
 4208.00    1.08062   1.09875   -1.000
 4209.00    1.07197   1.09242   -1.000
 4210.00    1.07409   1.08927  183.691
 4211.00    1.08433   1.09413  182.381
 4212.00    1.08244   1.09483  183.458
 4213.00    1.06850   1.06935  189.537
 4214.00    1.01944   1.02972  198.300
 4215.00    0.98045   1.01073   -1.000
 4216.00    0.99606   1.03043   -1.000
 4217.00    1.06166   1.08196   -1.000
 4218.00    1.12377   1.12638  176.023
 4219.00    1.15894   1.15269  171.136
 4220.00    1.17411   1.15348   -1.000
 4221.00    1.17171   1.13197   -1.000
 4222.00    1.14347   1.08492   -1.000
 4223.00    1.08398   1.01070   -1.000
 4224.00    0.99516   0.91241   -1.000
 4225.00    0.88779   0.82971   -1.000
 4226.00    0.79700   0.79277  257.296
 4227.00    0.80647   0.83313   -1.000
 4228.00    0.92739   0.92929  208.418
 4229.00    1.05308   1.03636  187.094
 4230.00    1.12118   1.09269   -1.000
 4231.00    1.14188   1.10539   -1.000
 4232.00    1.12237   1.08900   -1.000
 4233.00    1.08831   1.06158   -1.000
 4234.00    1.06737   1.03785   -1.000
 4235.00    1.05335   1.03059   -1.000
 4236.00    1.03807   1.03203  194.509
 4237.00    1.04069   1.04365  193.028
 4238.00    1.05307   1.06473  188.455
 4239.00    1.06239   1.08794   -1.000
 4240.00    1.08729   1.11242   -1.000
 4241.00    1.11786   1.13896   -1.000
 4242.00    1.13818   1.16238   -1.000
 4243.00    1.14660   1.18523   -1.000
 4244.00    1.16421   1.19916   -1.000
 4245.00    1.17089   1.18981   -1.000
 4246.00    1.13820   1.15221  182.159
 4247.00    1.09720   1.10154  189.100
 4248.00    1.06938   1.05494  193.908
 4249.00    1.04915   1.03025   -1.000
 4250.00    1.03672   1.02966  195.407
 4251.00    1.05141   1.04900  189.702
 4252.00    1.09053   1.06087   -1.000
 4253.00    1.09997   1.05496   -1.000
 4254.00    1.06861   1.04692   -1.000
 4255.00    1.06061   1.06457  188.077
 4256.00    1.10499   1.10241  180.615
 4257.00    1.13368   1.11397   -1.000
 4258.00    1.09858   1.08139   -1.000
 4259.00    1.04097   1.03417  196.609
 4260.00    1.00826   1.01679  201.742
 4261.00    1.01955   1.05288   -1.000
 4262.00    1.09025   1.11961   -1.000
 4263.00    1.16933   1.18380  173.230
 4264.00    1.20099   1.21429  169.217
 4265.00    1.21419   1.21630  168.840
 4266.00    1.21415   1.19995  171.650
 4267.00    1.17550   1.16592  177.421
 4268.00    1.13538   1.11435   -1.000
 4269.00    1.10042   1.05203   -1.000
 4270.00    1.03008   0.98440   -1.000
 4271.00    0.95437   0.94036   -1.000
 4272.00    0.92716   0.92713  217.263
 4273.00    0.94966   0.94468  212.296
 4274.00    0.97734   0.98148  206.945
 4275.00    1.01780   1.03405   -1.000
 4276.00    1.08594   1.09765  184.677
 4277.00    1.14387   1.15310  176.112
 4278.00    1.17190   1.16739  176.082
 4279.00    1.15684   1.14831  184.110
 4280.00    1.10853   1.11868  190.525
 4281.00    1.08793   1.10866   -1.000
 4282.00    1.09732   1.11403   -1.000
 4283.00    1.10824   1.11715  186.504
 4284.00    1.10468   1.11205  188.969
 4285.00    1.07568   1.09919   -1.000
 4286.00    1.05031   1.08276   -1.000
 4287.00    1.03546   1.05491   -1.000
 4288.00    1.00599   1.01292  210.215
 4289.00    0.95707   0.97197   -1.000
 4290.00    0.93484   0.96470   -1.000
 4291.00    0.97009   0.99817   -1.000
 4292.00    1.03567   1.04416  196.432
 4293.00    1.08197   1.06605   -1.000
 4294.00    1.07835   1.06350  194.651
 4295.00    1.06027   1.05061  197.900
 4296.00    1.04523   1.02773   -1.000
 4297.00    1.00947   0.98270   -1.000
 4298.00    0.94324   0.92591   -1.000
 4299.00    0.87581   0.87544  248.787
 4300.00    0.84650   0.85630  251.766
 4301.00    0.86537   0.86413  244.121
 4302.00    0.87959   0.88255  240.445
 4303.00    0.89702   0.89653  236.792
 4304.00    0.91489   0.90306  233.935
 4305.00    0.91862   0.89041   -1.000
 4306.00    0.89523   0.85713   -1.000
 4307.00    0.85574   0.82329   -1.000
 4308.00    0.81857   0.81330  262.901
 4309.00    0.82910   0.83740  257.517
 4310.00    0.88980   0.88433  243.468
 4311.00    0.94188   0.94012  227.477
 4312.00    0.98839   0.99210  216.011
 4313.00    1.01651   1.04998   -1.000
 4314.00    1.05891   1.12286   -1.000
 4315.00    1.13136   1.20343   -1.000
 4316.00    1.23242   1.28317   -1.000
 4317.00    1.29719   1.32375   -1.000
 4318.00    1.30770   1.32282  159.066
 4319.00    1.28316   1.29907  161.609
 4320.00    1.26364   1.26843  165.306
 4321.00    1.23212   1.22362  170.963
 4322.00    1.18557   1.15772   -1.000
 4323.00    1.11487   1.06875   -1.000
 4324.00    1.02983   0.99131   -1.000
 4325.00    0.95581   0.97133   -1.000
 4326.00    0.97521   1.02735   -1.000
 4327.00    1.08043   1.12850   -1.000
 4328.00    1.19596   1.22401   -1.000
 4329.00    1.24644   1.26586   -1.000
 4330.00    1.24740   1.27126   -1.000
 4331.00    1.23500   1.27030   -1.000
 4332.00    1.24445   1.28191   -1.000
 4333.00    1.25818   1.29532   -1.000
 4334.00    1.26893   1.29145   -1.000
 4335.00    1.26689   1.25477  164.052
 4336.00    1.21069   1.17836   -1.000
 4337.00    1.10543   1.07175   -1.000
 4338.00    1.00816   0.96373   -1.000
 4339.00    0.93313   0.90598   -1.000
 4340.00    0.88976   0.90663   -1.000
 4341.00    0.92699   0.96638   -1.000
 4342.00    1.01959   1.05671   -1.000
 4343.00    1.10892   1.14016   -1.000
 4344.00    1.15592   1.19102   -1.000
 4345.00    1.19658   1.22779   -1.000
 4346.00    1.22608   1.25784   -1.000
 4347.00    1.24352   1.28718   -1.000
 4348.00    1.27145   1.30571   -1.000
 4349.00    1.28520   1.28613  164.545
 4350.00    1.23767   1.22411  173.917
 4351.00    1.14372   1.15855   -1.000
 4352.00    1.09609   1.13249   -1.000
 4353.00    1.14128   1.16222   -1.000
 4354.00    1.20571   1.21561  173.292
 4355.00    1.24082   1.26165   -1.000
 4356.00    1.27687   1.28339  164.545
 4357.00    1.30041   1.28564  164.695
 4358.00    1.27475   1.27549  168.396
 4359.00    1.25285   1.27346   -1.000
 4360.00    1.26161   1.29200   -1.000
 4361.00    1.29970   1.32091   -1.000
 4362.00    1.33654   1.34696  160.142
 4363.00    1.34498   1.36300   -1.000
 4364.00    1.34647   1.37276   -1.000
 4365.00    1.36241   1.36736  157.586
 4366.00    1.33626   1.33631  162.612
 4367.00    1.28027   1.29603  168.619
 4368.00    1.24860   1.27432   -1.000
 4369.00    1.25403   1.27016  168.622
 4370.00    1.26447   1.27121  167.596
 4371.00    1.26886   1.26086  167.469
 4372.00    1.26668   1.23221   -1.000
 4373.00    1.22498   1.19128   -1.000
 4374.00    1.17106   1.15540  183.311
 4375.00    1.15403   1.15546  183.264
 4376.00    1.19247   1.19702  175.498
 4377.00    1.25631   1.25246  166.619
 4378.00    1.29974   1.27975  163.798
 4379.00    1.30093   1.26913   -1.000
 4380.00    1.28010   1.21884   -1.000
 4381.00    1.23377   1.13025   -1.000
 4382.00    1.13164   1.02545   -1.000
 4383.00    0.99518   0.95820   -1.000
 4384.00    0.93883   0.96144   -1.000
 4385.00    1.01153   1.03410   -1.000
 4386.00    1.13259   1.12326  180.360
 4387.00    1.20497   1.17395   -1.000
 4388.00    1.22113   1.18525   -1.000
 4389.00    1.21166   1.18261   -1.000
 4390.00    1.19902   1.18700  177.483
 4391.00    1.21588   1.20162  173.935
 4392.00    1.24743   1.21733   -1.000
 4393.00    1.25091   1.22321   -1.000
 4394.00    1.23017   1.22401  175.184
 4395.00    1.22919   1.24323  174.414
 4396.00    1.26894   1.28313  166.206
 4397.00    1.32623   1.31063  161.446
 4398.00    1.33796   1.30221   -1.000
 4399.00    1.28335   1.26938  170.112
 4400.00    1.23033   1.24418  175.141
 4401.00    1.22548   1.22909  172.901
 4402.00    1.25470   1.20637   -1.000
 4403.00    1.23671   1.15803   -1.000
 4404.00    1.15528   1.10626   -1.000
 4405.00    1.11430   1.09417   -1.000
 4406.00    1.15123   1.12455   -1.000
 4407.00    1.18343   1.16753  178.687
 4408.00    1.18874   1.21242   -1.000
 4409.00    1.22438   1.26594   -1.000
 4410.00    1.29156   1.32943   -1.000
 4411.00    1.34000   1.37007   -1.000
 4412.00    1.36628   1.35764  155.599
 4413.00    1.34556   1.30439   -1.000
 4414.00    1.27256   1.24136   -1.000
 4415.00    1.19952   1.20319  175.449
 4416.00    1.19773   1.22089   -1.000
 4417.00    1.24116   1.28093   -1.000
 4418.00    1.28765   1.34742   -1.000
 4419.00    1.33068   1.38151   -1.000
 4420.00    1.34209   1.37716   -1.000
 4421.00    1.30718   1.34381   -1.000
 4422.00    1.26740   1.31138   -1.000
 4423.00    1.24951   1.30052   -1.000
 4424.00    1.25670   1.30773   -1.000
 4425.00    1.26047   1.31422   -1.000
 4426.00    1.25909   1.31729   -1.000
 4427.00    1.25947   1.32468   -1.000
 4428.00    1.27766   1.33235   -1.000
 4429.00    1.27082   1.33217   -1.000
 4430.00    1.25814   1.32732   -1.000
 4431.00    1.25970   1.32602   -1.000
 4432.00    1.27224   1.32069   -1.000
 4433.00    1.25735   1.29048   -1.000
 4434.00    1.21131   1.25045   -1.000
 4435.00    1.18352   1.24051   -1.000
 4436.00    1.21872   1.28426   -1.000
 4437.00    1.29857   1.36148   -1.000
 4438.00    1.36881   1.41671   -1.000
 4439.00    1.38784   1.42400   -1.000
 4440.00    1.36954   1.38191  157.318
 4441.00    1.30586   1.32494   -1.000
 4442.00    1.25074   1.28877   -1.000
 4443.00    1.24125   1.30296   -1.000
 4444.00    1.27957   1.35596   -1.000
 4445.00    1.34716   1.40935   -1.000
 4446.00    1.39680   1.43815   -1.000
 4447.00    1.39636   1.44104   -1.000
 4448.00    1.38675   1.43836   -1.000
 4449.00    1.38849   1.43633   -1.000
 4450.00    1.37168   1.42951   -1.000
 4451.00    1.36776   1.41507   -1.000
 4452.00    1.36849   1.38691   -1.000
 4453.00    1.33238   1.33826  165.395
 4454.00    1.27284   1.28171  173.115
 4455.00    1.23088   1.25339   -1.000
 4456.00    1.23952   1.25603   -1.000
 4457.00    1.26306   1.27246  170.324
 4458.00    1.26714   1.27738  170.517
 4459.00    1.26040   1.26956  171.424
 4460.00    1.24566   1.26356   -1.000
 4461.00    1.23410   1.27286   -1.000
 4462.00    1.25221   1.30518   -1.000
 4463.00    1.30810   1.34894   -1.000
 4464.00    1.35279   1.38143   -1.000
 4465.00    1.36288   1.39070   -1.000
 4466.00    1.36456   1.38241   -1.000
 4467.00    1.36033   1.36917  162.405
 4468.00    1.33349   1.35941   -1.000
 4469.00    1.31560   1.35897   -1.000
 4470.00    1.32934   1.38037   -1.000
 4471.00    1.35696   1.42195   -1.000
 4472.00    1.40458   1.46227   -1.000
 4473.00    1.45491   1.49099   -1.000
 4474.00    1.47809   1.50252   -1.000
 4475.00    1.47719   1.51159   -1.000
 4476.00    1.49637   1.52584   -1.000
 4477.00    1.51935   1.53186  146.142
 4478.00    1.50768   1.50776  147.521
 4479.00    1.45763   1.45010  153.127
 4480.00    1.38277   1.39000  160.153
 4481.00    1.33096   1.36689   -1.000
 4482.00    1.33864   1.39364   -1.000
 4483.00    1.39231   1.45541   -1.000
 4484.00    1.46045   1.51593   -1.000
 4485.00    1.50333   1.55310   -1.000
 4486.00    1.51515   1.55008   -1.000
 4487.00    1.49639   1.51210  150.330
 4488.00    1.43787   1.45929   -1.000
 4489.00    1.38472   1.43087   -1.000
 4490.00    1.37894   1.43798   -1.000
 4491.00    1.41158   1.46590   -1.000
 4492.00    1.44483   1.47695   -1.000
 4493.00    1.44148   1.45287  153.553
 4494.00    1.39618   1.41963   -1.000
 4495.00    1.35897   1.40695   -1.000
 4496.00    1.36748   1.42982   -1.000
 4497.00    1.40965   1.47050   -1.000
 4498.00    1.45383   1.50300   -1.000
 4499.00    1.47771   1.51322   -1.000
 4500.00    1.46170   1.50661   -1.000
 4501.00    1.43840   1.50869   -1.000
 4502.00    1.45462   1.53270   -1.000
 4503.00    1.52180   1.57348   -1.000
 4504.00    1.57668   1.61053   -1.000
 4505.00    1.58036   1.62315   -1.000
 4506.00    1.57517   1.60910   -1.000
 4507.00    1.56370   1.59029   -1.000
 4508.00    1.54974   1.58379   -1.000
 4509.00    1.56158   1.58816   -1.000
 4510.00    1.57523   1.59316  142.789
 4511.00    1.56243   1.58454   -1.000
 4512.00    1.53467   1.56086   -1.000
 4513.00    1.49953   1.53510   -1.000
 4514.00    1.47872   1.51947   -1.000
 4515.00    1.48437   1.51698   -1.000
 4516.00    1.49389   1.51939   -1.000
 4517.00    1.48290   1.51824   -1.000
 4518.00    1.46960   1.51817   -1.000
 4519.00    1.48654   1.53081   -1.000
 4520.00    1.52802   1.55277   -1.000
 4521.00    1.53833   1.56471   -1.000
 4522.00    1.51328   1.55291   -1.000
 4523.00    1.47671   1.52296   -1.000
 4524.00    1.45507   1.49084   -1.000
 4525.00    1.43469   1.45704   -1.000
 4526.00    1.37951   1.41300   -1.000
 4527.00    1.34330   1.36674   -1.000
 4528.00    1.31879   1.33629   -1.000
 4529.00    1.31814   1.33343  167.915
 4530.00    1.33272   1.35476   -1.000
 4531.00    1.36226   1.38262   -1.000
 4532.00    1.38553   1.39746  161.150
 4533.00    1.37706   1.39047  165.807
 4534.00    1.33639   1.37617   -1.000
 4535.00    1.32452   1.38356   -1.000
 4536.00    1.37578   1.42737   -1.000
 4537.00    1.47467   1.49325   -1.000
 4538.00    1.53476   1.54280  145.910
 4539.00    1.53451   1.55200  147.439
 4540.00    1.49761   1.53381   -1.000
 4541.00    1.48097   1.51839   -1.000
 4542.00    1.49737   1.52029   -1.000
 4543.00    1.50187   1.52746   -1.000
 4544.00    1.47239   1.52499   -1.000
 4545.00    1.51212   1.51134   69.298
 4546.00    0.53206   1.49941   -1.000
 4547.00   -0.03897   1.49116    0.000
 4548.00   -0.03361   1.47806    0.000
 4549.00    0.93793   1.46576   -1.000
 4550.00    0.56947   1.46967   -1.000
 4551.00    0.78109   1.48803   -1.000
 4552.00    1.51222   1.49487  156.408
 4553.00    1.43718   1.48049   -1.000
 4554.00    1.42538   1.46377   -1.000
 4555.00    1.42754   1.46946   -1.000
 4556.00    1.47363   1.50660   -1.000
 4557.00    1.53162   1.56080   -1.000
 4558.00    1.56864   1.60509   -1.000
 4559.00    1.58359   1.62530   -1.000
 4560.00    1.58102   1.63022   -1.000
 4561.00    1.58221   1.62257   -1.000
 4562.00    1.57160   1.60169   -1.000
 4563.00    1.52693   1.56739   -1.000
 4564.00    1.47785   1.53613   -1.000
 4565.00    1.46459   1.52844   -1.000
 4566.00    1.50174   1.55280   -1.000
 4567.00    1.55723   1.59301   -1.000
 4568.00    1.58900   1.62250   -1.000
 4569.00    1.58692   1.61924   -1.000
 4570.00    1.54887   1.59173   -1.000
 4571.00    1.49558   1.56130   -1.000
 4572.00    1.49956   1.55564   -1.000
 4573.00    1.54862   1.58193   -1.000
 4574.00    1.57829   1.61334   -1.000
 4575.00    1.58035   1.62657   -1.000
 4576.00    1.57312   1.62059   -1.000
 4577.00    1.56318   1.60433   -1.000
 4578.00    1.54589   1.57539   -1.000
 4579.00    1.50157   1.53578   -1.000
 4580.00    1.45727   1.50254   -1.000
 4581.00    1.45702   1.49466   -1.000
 4582.00    1.46916   1.50749   -1.000
 4583.00    1.48397   1.52295   -1.000
 4584.00    1.48978   1.52606   -1.000
 4585.00    1.48426   1.52187   -1.000
 4586.00    1.49330   1.52936   -1.000
 4587.00    1.52620   1.55716   -1.000
 4588.00    1.56652   1.59241   -1.000
 4589.00    1.58820   1.61381   -1.000
 4590.00    1.57469   1.61107   -1.000
 4591.00    1.53466   1.58813   -1.000
 4592.00    1.51502   1.55972   -1.000
 4593.00    1.50579   1.54227   -1.000
 4594.00    1.50784   1.53605   -1.000
 4595.00    1.50981   1.53661   -1.000
 4596.00    1.51652   1.54130   -1.000
 4597.00    1.52560   1.55043   -1.000
 4598.00    1.53189   1.55925   -1.000
 4599.00    1.53432   1.56247   -1.000
 4600.00    1.51898   1.55824   -1.000
 4601.00    1.50685   1.55315   -1.000
 4602.00    1.51674   1.55365   -1.000
 4603.00    1.53769   1.55665  148.050
 4604.00    1.54549   1.55892  148.325
 4605.00    1.54618   1.56451  148.071
 4606.00    1.56111   1.58245   -1.000
 4607.00    1.59419   1.61672   -1.000
 4608.00    1.63698   1.65869   -1.000
 4609.00    1.66571   1.68956   -1.000
 4610.00    1.66345   1.68944   -1.000
 4611.00    1.63515   1.66893   -1.000
 4612.00    1.61313   1.64716   -1.000
 4613.00    1.60607   1.63776   -1.000
 4614.00    1.61572   1.64376   -1.000
 4615.00    1.62205   1.65829   -1.000
 4616.00    1.62541   1.67041   -1.000
 4617.00    1.62562   1.67563   -1.000
 4618.00    1.62061   1.67525   -1.000
 4619.00    1.60493   1.67291   -1.000
 4620.00    1.61897   1.67596   -1.000
 4621.00    1.64938   1.68510   -1.000
 4622.00    1.65404   1.69102   -1.000
 4623.00    1.64256   1.68743   -1.000
 4624.00    1.63761   1.67780   -1.000
 4625.00    1.63606   1.66865   -1.000
 4626.00    1.63765   1.66108   -1.000
 4627.00    1.64290   1.65908  141.702
 4628.00    1.63770   1.66217   -1.000
 4629.00    1.62497   1.66681   -1.000
 4630.00    1.63228   1.67337   -1.000
 4631.00    1.65653   1.68021   -1.000
 4632.00    1.64822   1.67744   -1.000
 4633.00    1.62426   1.66124   -1.000
 4634.00    1.61336   1.64266   -1.000
 4635.00    1.60930   1.63181   -1.000
 4636.00    1.59727   1.62144   -1.000
 4637.00    1.58012   1.60413   -1.000
 4638.00    1.55839   1.58524   -1.000
 4639.00    1.55749   1.57595  148.229
 4640.00    1.58843   1.58345  145.671
 4641.00    1.62388   1.60483  142.073
 4642.00    1.65049   1.62430   -1.000
 4643.00    1.65693   1.62531   -1.000
 4644.00    1.62732   1.60089   -1.000
 4645.00    1.58733   1.56280   -1.000
 4646.00    1.54141   1.52200  151.601
 4647.00    1.51321   1.50073  152.194
 4648.00    1.52114   1.51470  149.438
 4649.00    1.56510   1.55501  145.918
 4650.00    1.60581   1.59959  143.940
 4651.00    1.61563   1.63084  143.718
 4652.00    1.63001   1.64352  143.419
 4653.00    1.62172   1.63713  145.164
 4654.00    1.59532   1.61617  148.579
 4655.00    1.56050   1.59889   -1.000
 4656.00    1.55624   1.60381   -1.000
 4657.00    1.58531   1.63545   -1.000
 4658.00    1.65380   1.68766   -1.000
 4659.00    1.70787   1.73497   -1.000
 4660.00    1.73207   1.75318  135.392
 4661.00    1.69834   1.73507   -1.000
 4662.00    1.65852   1.69717   -1.000
 4663.00    1.62776   1.65667   -1.000
 4664.00    1.60833   1.62007  143.579
 4665.00    1.58533   1.57955  145.977
 4666.00    1.52689   1.53028  152.351
 4667.00    1.45492   1.48730   -1.000
 4668.00    1.43156   1.47947   -1.000
 4669.00    1.47440   1.51561   -1.000
 4670.00    1.56159   1.57435  147.316
 4671.00    1.61445   1.62199  143.365
 4672.00    1.63304   1.64271  142.565
 4673.00    1.63244   1.64177  142.694
 4674.00    1.63091   1.64349  142.540
 4675.00    1.64618   1.65537  140.652
 4676.00    1.67998   1.66937  138.522
 4677.00    1.69138   1.66733   -1.000
 4678.00    1.65498   1.64365  142.350
 4679.00    1.60757   1.61287  145.166
 4680.00    1.57915   1.58744  147.559
 4681.00    1.57530   1.57714  148.969
 4682.00    1.58818   1.58598  147.056
 4683.00    1.62148   1.60932  143.296
 4684.00    1.66331   1.63227   -1.000
 4685.00    1.66945   1.64195   -1.000
 4686.00    1.64939   1.63980  142.020
 4687.00    1.64299   1.63160  142.849
 4688.00    1.64754   1.62601   -1.000
 4689.00    1.64402   1.62491  142.856
 4690.00    1.63668   1.62429  143.908
 4691.00    1.63420   1.62192  144.195
 4692.00    1.63821   1.62459  142.446
 4693.00    1.66227   1.63644   -1.000
 4694.00    1.69136   1.65418   -1.000
 4695.00    1.71722   1.67024   -1.000
 4696.00    1.72220   1.67406   -1.000
 4697.00    1.69108   1.65552   -1.000
 4698.00    1.63846   1.62090  144.398
 4699.00    1.60022   1.58919  146.036
 4700.00    1.60412   1.57247   -1.000
 4701.00    1.59997   1.56303   -1.000
 4702.00    1.57701   1.55716   -1.000
 4703.00    1.56266   1.56076  149.300
 4704.00    1.58242   1.57946  146.399
 4705.00    1.61850   1.59918  144.246
 4706.00    1.60824   1.60183  146.336
 4707.00    1.58751   1.58694  149.306
 4708.00    1.55976   1.57305  150.722
 4709.00    1.55297   1.57833   -1.000
 4710.00    1.59288   1.60193  145.403
 4711.00    1.64969   1.62805   -1.000
 4712.00    1.67215   1.63944   -1.000
 4713.00    1.66555   1.63186   -1.000
 4714.00    1.64398   1.62016   -1.000
 4715.00    1.62804   1.62672  144.126
 4716.00    1.66133   1.65656  141.209
 4717.00    1.70197   1.69549  138.491
 4718.00    1.71695   1.72694  137.666
 4719.00    1.72433   1.74649  137.185
 4720.00    1.72602   1.75586   -1.000
 4721.00    1.71644   1.75274   -1.000
 4722.00    1.70513   1.74335   -1.000
 4723.00    1.70642   1.74201   -1.000
 4724.00    1.71923   1.74958   -1.000
 4725.00    1.72189   1.74553   -1.000
 4726.00    1.67894   1.71557   -1.000
 4727.00    1.61393   1.66149   -1.000
 4728.00    1.57139   1.60766   -1.000
 4729.00    1.56884   1.58309  148.168
 4730.00    1.58479   1.58835  146.631
 4731.00    1.60612   1.61336  145.484
 4732.00    1.63013   1.64366  143.716
 4733.00    1.64976   1.66794  142.477
 4734.00    1.67380   1.67895  141.675
 4735.00    1.68384   1.67928  140.886
 4736.00    1.66316   1.67701  142.446
 4737.00    1.65495   1.68057   -1.000
 4738.00    1.67993   1.69421  140.719
 4739.00    1.69434   1.70954  140.813
 4740.00    1.68330   1.71395   -1.000
 4741.00    1.66832   1.71030   -1.000
 4742.00    1.67754   1.71216   -1.000
 4743.00    1.70343   1.72000  139.116
 4744.00    1.71352   1.72828  139.429
 4745.00    1.71185   1.73833   -1.000
 4746.00    1.71402   1.75180   -1.000
 4747.00    1.72927   1.76837   -1.000
 4748.00    1.73730   1.78049   -1.000
 4749.00    1.73343   1.78675   -1.000
 4750.00    1.72947   1.78959   -1.000
 4751.00    1.72199   1.78406   -1.000
 4752.00    1.70877   1.76688   -1.000
 4753.00    1.68461   1.74351   -1.000
 4754.00    1.66397   1.72406   -1.000
 4755.00    1.65848   1.71733   -1.000
 4756.00    1.65522   1.72103   -1.000
 4757.00    1.65498   1.73013   -1.000
 4758.00    1.66451   1.74242   -1.000
 4759.00    1.68063   1.75266   -1.000
 4760.00    1.67732   1.75311   -1.000
 4761.00    1.65097   1.73599   -1.000
 4762.00    1.60387   1.70418   -1.000
 4763.00    1.58187   1.67105   -1.000
 4764.00    1.58023   1.64841   -1.000
 4765.00    1.57683   1.63459   -1.000
 4766.00    1.58717   1.62886   -1.000
 4767.00    1.61664   1.64417   -1.000
 4768.00    1.65385   1.68553   -1.000
 4769.00    1.69082   1.73177   -1.000
 4770.00    1.70935   1.75582   -1.000
 4771.00    1.69578   1.75114   -1.000
 4772.00    1.67514   1.73932   -1.000
 4773.00    1.68196   1.74757   -1.000
 4774.00    1.72156   1.77537   -1.000
 4775.00    1.74329   1.80328   -1.000
 4776.00    1.74653   1.81614   -1.000
 4777.00    1.74394   1.81883   -1.000
 4778.00    1.72880   1.81740   -1.000
 4779.00    1.71069   1.80854   -1.000
 4780.00    1.70094   1.79335   -1.000
 4781.00    1.69795   1.77630   -1.000
 4782.00    1.68749   1.75573   -1.000
 4783.00    1.67843   1.73299   -1.000
 4784.00    1.68239   1.72110   -1.000
 4785.00    1.67937   1.72113   -1.000
 4786.00    1.66162   1.72161   -1.000
 4787.00    1.65314   1.71976   -1.000
 4788.00    1.65661   1.72079   -1.000
 4789.00    1.66014   1.72404   -1.000
 4790.00    1.66458   1.73060   -1.000
 4791.00    1.68048   1.74859   -1.000
 4792.00    1.70339   1.78336   -1.000
 4793.00    1.73445   1.82708   -1.000
 4794.00    1.78218   1.86799   -1.000
 4795.00    1.80165   1.89124   -1.000
 4796.00    1.78182   1.88648   -1.000
 4797.00    1.75443   1.85669   -1.000
 4798.00    1.71262   1.81764   -1.000
 4799.00    1.68003   1.78909   -1.000
 4800.00    1.68728   1.78513   -1.000
 4801.00    1.72313   1.80871   -1.000
 4802.00    1.76291   1.84505   -1.000
 4803.00    1.77800   1.86736   -1.000
 4804.00    1.75709   1.85522   -1.000
 4805.00    1.72389   1.82413   -1.000
 4806.00    1.71153   1.79560   -1.000
 4807.00    1.70022   1.77958   -1.000
 4808.00    1.69980   1.77798   -1.000
 4809.00    1.71447   1.79077   -1.000
 4810.00    1.73541   1.80942   -1.000
 4811.00    1.74203   1.82443   -1.000
 4812.00    1.74279   1.83061   -1.000
 4813.00    1.75111   1.83308   -1.000
 4814.00    1.75283   1.83903   -1.000
 4815.00    1.76397   1.84986   -1.000
 4816.00    1.78245   1.86460   -1.000
 4817.00    1.79159   1.88094   -1.000
 4818.00    1.80378   1.89595   -1.000
 4819.00    1.80374   1.90574   -1.000
 4820.00    1.79924   1.90431   -1.000
 4821.00    1.79381   1.88489   -1.000
 4822.00    1.75512   1.84703   -1.000
 4823.00    1.71609   1.80249   -1.000
 4824.00    1.69115   1.77639   -1.000
 4825.00    1.72302   1.78642   -1.000
 4826.00    1.76495   1.81732   -1.000
 4827.00    1.77036   1.83412   -1.000
 4828.00    1.75190   1.82773   -1.000
 4829.00    1.74081   1.81511   -1.000
 4830.00    1.73346   1.80505   -1.000
 4831.00    1.72270   1.79223   -1.000
 4832.00    1.71086   1.78002   -1.000
 4833.00    1.72614   1.78441   -1.000
 4834.00    1.75691   1.80607   -1.000
 4835.00    1.76950   1.83207   -1.000
 4836.00    1.76457   1.84431   -1.000
 4837.00    1.75903   1.84170   -1.000
 4838.00    1.74157   1.82644   -1.000
 4839.00    1.71133   1.80278   -1.000
 4840.00    1.69385   1.78453   -1.000
 4841.00    1.70156   1.77912   -1.000
 4842.00    1.71156   1.78004   -1.000
 4843.00    1.71313   1.78237   -1.000
 4844.00    1.72905   1.79457   -1.000
 4845.00    1.76015   1.82071   -1.000
 4846.00    1.78088   1.84399   -1.000
 4847.00    1.76646   1.84292   -1.000
 4848.00    1.72493   1.82115   -1.000
 4849.00    1.71214   1.80567   -1.000
 4850.00    1.73817   1.81040   -1.000
 4851.00    1.75337   1.82210   -1.000
 4852.00    1.74535   1.82335   -1.000
 4853.00    1.72933   1.80160   -1.000
 4854.00    1.68596   1.75707   -1.000
 4855.00    1.62922   1.70743   -1.000
 4856.00    1.60891   1.68129   -1.000
 4857.00    1.62487   1.67785   -1.000
 4858.00    1.59809   1.65672   -1.000
 4859.00    1.50715   1.57260   -1.000
 4860.00    1.35582   1.43274   -1.000
 4861.00    1.25050   1.32729   -1.000
 4862.00    1.27530   1.32731   -1.000
 4863.00    1.39852   1.43001   -1.000
 4864.00    1.51017   1.55414   -1.000
 4865.00    1.57481   1.64445   -1.000
 4866.00    1.62132   1.69917   -1.000
 4867.00    1.64392   1.73238   -1.000
 4868.00    1.65382   1.74825   -1.000
 4869.00    1.65182   1.73928   -1.000
 4870.00    1.61527   1.69748   -1.000
 4871.00    1.55810   1.63903   -1.000
 4872.00    1.54006   1.60885   -1.000
 4873.00    1.58837   1.63982   -1.000
 4874.00    1.63183   1.70270   -1.000
 4875.00    1.64559   1.75120   -1.000
 4876.00    1.65873   1.77695   -1.000
 4877.00    1.67708   1.79525   -1.000
 4878.00    1.69836   1.81821   -1.000
 4879.00    1.72665   1.84267   -1.000
 4880.00    1.73258   1.85620   -1.000
 4881.00    1.70010   1.84475   -1.000
 4882.00    1.68601   1.82037   -1.000
 4883.00    1.69369   1.80748   -1.000
 4884.00    1.68225   1.79706   -1.000
 4885.00    1.64872   1.77209   -1.000
 4886.00    1.62851   1.74556   -1.000
 4887.00    1.63867   1.73698   -1.000
 4888.00    1.64953   1.73719   -1.000
 4889.00    1.63636   1.72175   -1.000
 4890.00    1.60216   1.68571   -1.000
 4891.00    1.58455   1.65961   -1.000
 4892.00    1.62970   1.68957   -1.000
 4893.00    1.73358   1.77758   -1.000
 4894.00    1.82084   1.88354   -1.000
 4895.00    1.85757   1.95765   -1.000
 4896.00    1.87323   1.98676   -1.000
 4897.00    1.87560   1.98748   -1.000
 4898.00    1.85854   1.97125   -1.000
 4899.00    1.81786   1.94319   -1.000
 4900.00    1.79088   1.91440   -1.000
 4901.00    1.79184   1.89688   -1.000
 4902.00    1.78882   1.88497   -1.000
 4903.00    1.76809   1.87304   -1.000
 4904.00    1.77454   1.87442   -1.000
 4905.00    1.81265   1.90440   -1.000
 4906.00    1.83859   1.94330   -1.000
 4907.00    1.83516   1.94854   -1.000
 4908.00    1.80248   1.91297   -1.000
 4909.00    1.75086   1.86070   -1.000
 4910.00    1.71546   1.81848   -1.000
 4911.00    1.71777   1.80884   -1.000
 4912.00    1.74706   1.83370   -1.000
 4913.00    1.78095   1.87504   -1.000
 4914.00    1.81573   1.91296   -1.000
 4915.00    1.84520   1.93853   -1.000
 4916.00    1.85622   1.93655   -1.000
 4917.00    1.80205   1.88421   -1.000
 4918.00    1.69765   1.77885   -1.000
 4919.00    1.60178   1.66441   -1.000
 4920.00    1.55621   1.59460   -1.000
 4921.00    1.58703   1.60484  152.678
 4922.00    1.66496   1.67414  147.114
 4923.00    1.71284   1.74579   -1.000
 4924.00    1.72069   1.78472   -1.000
 4925.00    1.73750   1.80918   -1.000
 4926.00    1.78149   1.84982   -1.000
 4927.00    1.82580   1.90173   -1.000
 4928.00    1.85216   1.94834   -1.000
 4929.00    1.87469   1.98468   -1.000
 4930.00    1.88496   2.00216   -1.000
 4931.00    1.88274   1.98992   -1.000
 4932.00    1.84716   1.94714   -1.000
 4933.00    1.77931   1.89131   -1.000
 4934.00    1.75059   1.85459   -1.000
 4935.00    1.77917   1.85377   -1.000
 4936.00    1.79308   1.85720   -1.000
 4937.00    1.75181   1.82612   -1.000
 4938.00    1.69253   1.77030   -1.000
 4939.00    1.68216   1.74462   -1.000
 4940.00    1.74116   1.78225   -1.000
 4941.00    1.81813   1.85911   -1.000
 4942.00    1.86077   1.93146   -1.000
 4943.00    1.88004   1.97163   -1.000
 4944.00    1.89194   1.98311   -1.000
 4945.00    1.87642   1.97721   -1.000
 4946.00    1.85321   1.96824   -1.000
 4947.00    1.86581   1.97214   -1.000
 4948.00    1.89728   1.99181   -1.000
 4949.00    1.90557   2.01263   -1.000
 4950.00    1.90817   2.02351   -1.000
 4951.00    1.91619   2.02546   -1.000
 4952.00    1.90392   2.01702   -1.000
 4953.00    1.87974   1.99960   -1.000
 4954.00    1.87181   1.96967   -1.000
 4955.00    1.84198   1.91028   -1.000
 4956.00    1.75699   1.81164   -1.000
 4957.00    1.66025   1.70631   -1.000
 4958.00    1.65871   1.67516  151.208
 4959.00    1.75737   1.74640  142.571
 4960.00    1.84939   1.85537  137.602
 4961.00    1.88360   1.93276   -1.000
 4962.00    1.87779   1.95523   -1.000
 4963.00    1.87179   1.94614   -1.000
 4964.00    1.85209   1.91763   -1.000
 4965.00    1.80148   1.87500   -1.000
 4966.00    1.77529   1.83853   -1.000
 4967.00    1.76906   1.82499   -1.000
 4968.00    1.77278   1.83002   -1.000
 4969.00    1.78061   1.84699   -1.000
 4970.00    1.79963   1.87319   -1.000
 4971.00    1.83109   1.90464   -1.000
 4972.00    1.85409   1.93699   -1.000
 4973.00    1.88141   1.96055   -1.000
 4974.00    1.89048   1.96934   -1.000
 4975.00    1.88723   1.96581   -1.000
 4976.00    1.87516   1.95038   -1.000
 4977.00    1.84285   1.92247   -1.000
 4978.00    1.80305   1.89021   -1.000
 4979.00    1.77948   1.86249   -1.000
 4980.00    1.76137   1.83293   -1.000
 4981.00    1.71508   1.78538   -1.000
 4982.00    1.64824   1.72203   -1.000
 4983.00    1.61935   1.67453   -1.000
 4984.00    1.63858   1.67525   -1.000
 4985.00    1.68745   1.72114   -1.000
 4986.00    1.75726   1.78921   -1.000
 4987.00    1.81358   1.85514   -1.000
 4988.00    1.83131   1.89638   -1.000
 4989.00    1.81632   1.89730   -1.000
 4990.00    1.79172   1.87677   -1.000
 4991.00    1.78866   1.86394   -1.000
 4992.00    1.80246   1.86875   -1.000
 4993.00    1.81750   1.88104   -1.000
 4994.00    1.82879   1.88873   -1.000
 4995.00    1.83550   1.89699   -1.000
 4996.00    1.84415   1.91066   -1.000
 4997.00    1.83578   1.91250   -1.000
 4998.00    1.81473   1.88567   -1.000
 4999.00    1.77981   1.83719   -1.000
 5000.00    1.74947   1.78820   -1.000
 5001.00    1.74713   1.76567   -1.000
 5002.00    1.74940   1.76889   -1.000
 5003.00    1.76461   1.77735  146.869
 5004.00    1.76724   1.76624  148.927
 5005.00    1.72191   1.72958  152.722
 5006.00    1.68319   1.69592  153.639
 5007.00    1.71245   1.70549  149.944
 5008.00    1.77999   1.76282  145.368
 5009.00    1.82184   1.82039  143.764
 5010.00    1.81468   1.83959   -1.000
 5011.00    1.77738   1.81255   -1.000
 5012.00    1.70804   1.75583   -1.000
 5013.00    1.65299   1.69920   -1.000
 5014.00    1.63860   1.67286   -1.000
 5015.00    1.67207   1.68710  155.083
 5016.00    1.70985   1.71732  151.825
 5017.00    1.72478   1.73817  151.141
 5018.00    1.72281   1.74638   -1.000
 5019.00    1.74155   1.75959  149.473
 5020.00    1.76840   1.77912  148.238
 5021.00    1.77067   1.78484  148.868
 5022.00    1.75689   1.78061   -1.000
 5023.00    1.76367   1.78939   -1.000
 5024.00    1.79178   1.81997   -1.000
 5025.00    1.81243   1.85207   -1.000
 5026.00    1.80519   1.85855   -1.000
 5027.00    1.77653   1.84077   -1.000
 5028.00    1.78384   1.83024   -1.000
 5029.00    1.82343   1.84736   -1.000
 5030.00    1.85529   1.88656   -1.000
 5031.00    1.87635   1.93012   -1.000
 5032.00    1.90751   1.96774   -1.000
 5033.00    1.93344   1.98548   -1.000
 5034.00    1.89999   1.96477   -1.000
 5035.00    1.82815   1.91037   -1.000
 5036.00    1.77610   1.85574   -1.000
 5037.00    1.76647   1.82904   -1.000
 5038.00    1.76013   1.81017   -1.000
 5039.00    1.71288   1.76277   -1.000
 5040.00    1.62673   1.68912   -1.000
 5041.00    1.58480   1.64281   -1.000
 5042.00    1.64467   1.67469   -1.000
 5043.00    1.75664   1.77377  147.286
 5044.00    1.85807   1.88990   -1.000
 5045.00    1.91632   1.97461   -1.000
 5046.00    1.98857   2.00782  132.945
 5047.00    1.73866   1.98885   -1.000
 5048.00    0.67067   1.92930   -1.000
 5049.00    0.14513   1.85912   -1.000
 5050.00    0.18975   1.81440   -1.000
 5051.00    1.45439   1.80781   -1.000
 5052.00    1.81853   1.83016  144.800
 5053.00    1.86137   1.87354  141.138
 5054.00    1.91071   1.92432  138.552
 5055.00    1.94314   1.96117  137.218
 5056.00    1.95344   1.97981   -1.000
 5057.00    1.94905   1.99003   -1.000
 5058.00    1.95446   2.00029   -1.000
 5059.00    1.95405   2.01672   -1.000
 5060.00    1.96593   2.03620   -1.000
 5061.00    1.97604   2.05109   -1.000
 5062.00    1.96678   2.04389   -1.000
 5063.00    1.93056   1.99824   -1.000
 5064.00    1.85310   1.92740   -1.000
 5065.00    1.79741   1.86880   -1.000
 5066.00    1.81944   1.84989   -1.000
 5067.00    1.84358   1.85854  145.003
 5068.00    1.85085   1.87305   -1.000
 5069.00    1.85877   1.88902   -1.000
 5070.00    1.88475   1.90640   -1.000
 5071.00    1.88294   1.91172   -1.000
 5072.00    1.85585   1.90058   -1.000
 5073.00    1.86078   1.89226   -1.000
 5074.00    1.88968   1.89998  142.281
 5075.00    1.89347   1.91119  142.083
 5076.00    1.88544   1.91531   -1.000
 5077.00    1.88370   1.90449   -1.000
 5078.00    1.83887   1.86520   -1.000
 5079.00    1.75660   1.79974   -1.000
 5080.00    1.70788   1.74787   -1.000
 5081.00    1.72752   1.74498  153.991
 5082.00    1.77719   1.77381  150.693
 5083.00    1.81246   1.80733  148.659
 5084.00    1.84272   1.84105  145.852
 5085.00    1.88371   1.87847  143.347
 5086.00    1.90889   1.91277  142.313
 5087.00    1.91404   1.93488   -1.000
 5088.00    1.91712   1.94581   -1.000
 5089.00    1.92794   1.95417   -1.000
 5090.00    1.93598   1.96338   -1.000
 5091.00    1.94562   1.97808   -1.000
 5092.00    1.96853   2.00215   -1.000
 5093.00    1.99012   2.02608   -1.000
 5094.00    1.98706   2.02901   -1.000
 5095.00    1.97815   1.99909   -1.000
 5096.00    1.91940   1.94606   -1.000
 5097.00    1.86270   1.88855   -1.000
 5098.00    1.80419   1.83981   -1.000
 5099.00    1.78792   1.81888   -1.000
 5100.00    1.81978   1.84404   -1.000
 5101.00    1.88721   1.89779  142.288
 5102.00    1.91943   1.94261   -1.000
 5103.00    1.91789   1.95245   -1.000
 5104.00    1.89665   1.93787   -1.000
 5105.00    1.87982   1.91598   -1.000
 5106.00    1.85334   1.89016   -1.000
 5107.00    1.83065   1.86223   -1.000
 5108.00    1.82693   1.84067  148.959
 5109.00    1.82243   1.83334  148.003
 5110.00    1.83805   1.84513  146.939
 5111.00    1.87370   1.87506  144.826
 5112.00    1.90570   1.91408  143.049
 5113.00    1.92805   1.94549  141.305
 5114.00    1.94426   1.96869   -1.000
 5115.00    1.96384   1.99142   -1.000
 5116.00    1.97545   2.01501   -1.000
 5117.00    1.99583   2.03505   -1.000
 5118.00    2.00851   2.04296   -1.000
 5119.00    1.99280   2.03157   -1.000
 5120.00    1.96052   2.00212   -1.000
 5121.00    1.91961   1.96050   -1.000
 5122.00    1.87633   1.90992   -1.000
 5123.00    1.82495   1.85795   -1.000
 5124.00    1.79377   1.82179   -1.000
 5125.00    1.80414   1.81389  151.123
 5126.00    1.83122   1.82616  150.381
 5127.00    1.84032   1.83721  149.483
 5128.00    1.83696   1.84023  149.697
 5129.00    1.83539   1.84503  149.565
 5130.00    1.83985   1.86246   -1.000
 5131.00    1.87497   1.89331   -1.000
 5132.00    1.91252   1.92391  143.907
 5133.00    1.92173   1.94506   -1.000
 5134.00    1.93940   1.96049   -1.000
 5135.00    1.96224   1.97199  140.914
 5136.00    1.94038   1.96645   -1.000
 5137.00    1.88825   1.92836   -1.000
 5138.00    1.84139   1.87736   -1.000
 5139.00    1.82263   1.85214   -1.000
 5140.00    1.84180   1.85686  148.170
 5141.00    1.85511   1.86843  149.272
 5142.00    1.83357   1.86771   -1.000
 5143.00    1.82633   1.86601   -1.000
 5144.00    1.85514   1.87925   -1.000
 5145.00    1.87217   1.88829  147.768
 5146.00    1.85688   1.87315  149.159
 5147.00    1.84411   1.85594  149.530
 5148.00    1.86125   1.85818  147.685
 5149.00    1.87726   1.87230  146.853
 5150.00    1.87459   1.87517  148.681
 5151.00    1.84619   1.85907  151.411
 5152.00    1.81452   1.84127   -1.000
 5153.00    1.80937   1.83607   -1.000
 5154.00    1.83660   1.84762  148.721
 5155.00    1.88236   1.88233  144.932
 5156.00    1.94164   1.93556  141.244
 5157.00    1.98998   1.98681  138.601
 5158.00    2.00957   2.01753  137.583
 5159.00    2.01486   2.02864  137.565
 5160.00    2.01642   2.02598  138.028
 5161.00    2.00522   2.00982  138.825
 5162.00    1.97839   1.97679  140.396
 5163.00    1.94803   1.92760  142.581
 5164.00    1.90210   1.86342   -1.000
 5165.00    1.79232   1.76662   -1.000
 5166.00    1.62441   1.62215  177.183
 5167.00    1.48635   1.48575  189.121
 5168.00    1.46679   1.44548   -1.000
 5169.00    1.56161   1.49873   -1.000
 5170.00    1.63033   1.55784   -1.000
 5171.00    1.56902   1.52986   -1.000
 5172.00    1.44588   1.44863  195.957
 5173.00    1.44713   1.43301  187.825
 5174.00    1.60277   1.53286   -1.000
 5175.00    1.78688   1.69662   -1.000
 5176.00    1.88600   1.81945   -1.000
 5177.00    1.92078   1.87467   -1.000
 5178.00    1.93299   1.89203   -1.000
 5179.00    1.92842   1.88453   -1.000
 5180.00    1.88707   1.84240   -1.000
 5181.00    1.79000   1.74043   -1.000
 5182.00    1.62290   1.58453   -1.000
 5183.00    1.45409   1.45109  197.049
 5184.00    1.43930   1.42882  187.793
 5185.00    1.60049   1.54984   -1.000
 5186.00    1.80194   1.72393   -1.000
 5187.00    1.91150   1.85300   -1.000
 5188.00    1.93388   1.91589  146.228
 5189.00    1.94513   1.93502  145.628
 5190.00    1.94178   1.92066  147.215
 5191.00    1.88831   1.86735  151.938
 5192.00    1.81942   1.80246  156.144
 5193.00    1.81420   1.77911   -1.000
 5194.00    1.84337   1.80502   -1.000
 5195.00    1.87700   1.83990   -1.000
 5196.00    1.90406   1.87581   -1.000
 5197.00    1.93435   1.91840  144.803
 5198.00    1.97052   1.96246  142.346
 5199.00    2.00544   1.99651  141.191
 5200.00    2.02566   2.01172  141.062
 5201.00    2.01826   2.00405  142.216
 5202.00    1.98979   1.97246  144.818
 5203.00    1.94024   1.91610   -1.000
 5204.00    1.88208   1.83437   -1.000
 5205.00    1.82217   1.75163   -1.000
 5206.00    1.78824   1.69892   -1.000
 5207.00    1.78495   1.68166   -1.000
 5208.00    1.77701   1.68423   -1.000
 5209.00    1.79136   1.70679   -1.000
 5210.00    1.85269   1.77013   -1.000
 5211.00    1.93554   1.86792   -1.000
 5212.00    2.01558   1.96254   -1.000
 5213.00    2.05680   2.01927   -1.000
 5214.00    2.04101   2.01805   -1.000
 5215.00    1.99556   1.97856  142.490
 5216.00    1.95783   1.94357  144.210
 5217.00    1.97762   1.95150   -1.000
 5218.00    2.01711   1.99971  139.852
 5219.00    2.06808   2.05539  137.742
 5220.00    2.09053   2.09416  136.697
 5221.00    2.09559   2.10641  136.154
 5222.00    2.08588   2.08939  137.951
 5223.00    2.04269   2.03796  142.210
 5224.00    1.96160   1.95441  148.120
 5225.00    1.86184   1.85238  155.091
 5226.00    1.79077   1.76837   -1.000
 5227.00    1.79381   1.75228   -1.000
 5228.00    1.89094   1.82360   -1.000
 5229.00    1.99207   1.93992   -1.000
 5230.00    2.05883   2.02739   -1.000
 5231.00    2.06617   2.04027   -1.000
 5232.00    2.03567   1.99970   -1.000
 5233.00    1.98558   1.95168   -1.000
 5234.00    1.97434   1.94496   -1.000
 5235.00    2.00830   1.99034  140.130
 5236.00    2.06462   2.05731  136.776
 5237.00    2.11250   2.11558  135.264
 5238.00    2.12697   2.14227  135.163
 5239.00    2.12593   2.14247  135.603
 5240.00    2.13208   2.13284  135.351
 5241.00    2.14194   2.12344  134.539
 5242.00    2.13897   2.12083  134.763
 5243.00    2.13505   2.12946  134.477
 5244.00    2.14839   2.14037  134.264
 5245.00    2.13278   2.12821  137.016
 5246.00    2.06485   2.08014  141.355
 5247.00    2.00671   2.02034  144.628
 5248.00    1.99825   1.98442  144.947
 5249.00    2.00211   1.97533   -1.000
 5250.00    1.98625   1.97420  146.163
 5251.00    1.98340   1.98239  145.440
 5252.00    2.01796   2.00499  143.393
 5253.00    2.04161   2.02302  141.984
 5254.00    2.03714   2.02608  142.033
 5255.00    2.03761   2.03189  140.991
 5256.00    2.08323   2.07028  137.649
 5257.00    2.15391   2.13644  133.914
 5258.00    2.19653   2.18548  132.776
 5259.00    2.18814   2.19057  134.065
 5260.00    2.14180   2.14736  137.799
 5261.00    2.05597   2.06548  143.697
 5262.00    1.95708   1.96364  150.566
 5263.00    1.87258   1.86530  155.748
 5264.00    1.81035   1.78913   -1.000
 5265.00    1.78909   1.75062   -1.000
 5266.00    1.81003   1.75154   -1.000
 5267.00    1.85951   1.77004   -1.000
 5268.00    1.85052   1.75528   -1.000
 5269.00    1.76800   1.69623   -1.000
 5270.00    1.75179   1.66497   -1.000
 5271.00    1.85598   1.72895   -1.000
 5272.00    1.97934   1.86316   -1.000
 5273.00    2.02947   1.96006   -1.000
 5274.00    2.02438   1.98413   -1.000
 5275.00    2.01287   1.99537  142.866
 5276.00    2.05084   2.03319  140.070
 5277.00    2.13476   2.10217   -1.000
 5278.00    2.19583   2.16359   -1.000
 5279.00    2.20129   2.17720   -1.000
 5280.00    2.15471   2.14186  136.898
 5281.00    2.09571   2.08081  140.475
 5282.00    2.05396   2.02191   -1.000
 5283.00    2.02872   1.99241   -1.000
 5284.00    2.04666   2.02032   -1.000
 5285.00    2.13628   2.10151   -1.000
 5286.00    2.20647   2.19416  132.069
 5287.00    2.24125   2.24485  131.135
 5288.00    2.25043   2.25428  131.866
 5289.00    2.24698   2.25334  131.832
 5290.00    2.25865   2.25881  131.042
 5291.00    2.26130   2.26434  130.775
 5292.00    2.25338   2.25687  131.566
 5293.00    2.23294   2.24063  132.824
 5294.00    2.20954   2.21979  134.602
 5295.00    2.17732   2.17624  138.305
 5296.00    2.09412   2.09732  143.670
 5297.00    2.00436   2.01195  147.493
 5298.00    1.98645   1.97111  146.472
 5299.00    2.03301   1.99684   -1.000
 5300.00    2.09470   2.05151   -1.000
 5301.00    2.12524   2.09313   -1.000
 5302.00    2.13732   2.12671  137.464
 5303.00    2.19451   2.17451   -1.000
 5304.00    2.25408   2.23597  131.275
 5305.00    2.27871   2.27845  130.980
 5306.00    2.26254   2.27988  132.297
 5307.00    2.24568   2.26314  133.444
 5308.00    2.24494   2.25831  132.528
 5309.00    2.27761   2.27469  131.121
 5310.00    2.30257   2.29515  130.297
 5311.00    2.30755   2.29724  130.447
 5312.00    2.28988   2.28383  131.198
 5313.00    2.27021   2.26569  131.760
 5314.00    2.26104   2.24632  132.729
 5315.00    2.24624   2.22646  134.054
 5316.00    2.21781   2.20691  135.241
 5317.00    2.20419   2.19785  135.257
 5318.00    2.22869   2.20470   -1.000
 5319.00    2.24479   2.21430   -1.000
 5320.00    2.23762   2.21739   -1.000
 5321.00    2.22892   2.20932   -1.000
 5322.00    2.20601   2.18245   -1.000
 5323.00    2.16146   2.13575   -1.000
 5324.00    2.12218   2.08666   -1.000
 5325.00    2.11073   2.04503   -1.000
 5326.00    2.08219   1.98281   -1.000
 5327.00    1.98090   1.88435   -1.000
 5328.00    1.87744   1.80447   -1.000
 5329.00    1.90228   1.81887   -1.000
 5330.00    2.03926   1.94032   -1.000
 5331.00    2.15244   2.07054   -1.000
 5332.00    2.19464   2.14322   -1.000
 5333.00    2.20952   2.17552   -1.000
 5334.00    2.23537   2.20485   -1.000
 5335.00    2.26457   2.23828   -1.000
 5336.00    2.25809   2.25420  134.553
 5337.00    2.23673   2.24137  135.423
 5338.00    2.22128   2.20165  136.926
 5339.00    2.17060   2.13739   -1.000
 5340.00    2.11430   2.07268   -1.000
 5341.00    2.10734   2.05425   -1.000
 5342.00    2.15917   2.09934   -1.000
 5343.00    2.21958   2.15815   -1.000
 5344.00    2.23889   2.18765   -1.000
 5345.00    2.22583   2.18339   -1.000
 5346.00    2.21149   2.16445   -1.000
 5347.00    2.20293   2.14478   -1.000
 5348.00    2.18120   2.12636   -1.000
 5349.00    2.16768   2.11919   -1.000
 5350.00    2.20149   2.14440   -1.000
 5351.00    2.26036   2.19651   -1.000
 5352.00    2.29491   2.24961   -1.000
 5353.00    2.30063   2.28722  131.891
 5354.00    2.31833   2.31234  130.833
 5355.00    2.34995   2.33983  129.139
 5356.00    2.36808   2.36202  128.189
 5357.00    2.37017   2.36917  128.334
 5358.00    2.37337   2.36626  128.532
 5359.00    2.36206   2.35531  129.011
 5360.00    2.34173   2.33231  130.558
 5361.00    2.30491   2.30060  132.773
 5362.00    2.27015   2.27002  134.712
 5363.00    2.23417   2.24418  135.629
 5364.00    2.21550   2.22058  136.413
 5365.00    2.21165   2.19950  137.236
 5366.00    2.21663   2.18731   -1.000
 5367.00    2.22292   2.18472   -1.000
 5368.00    2.21008   2.16639   -1.000
 5369.00    2.16133   2.10780   -1.000
 5370.00    2.08972   2.02800   -1.000
 5371.00    2.05514   1.97970   -1.000
 5372.00    2.11160   2.01218   -1.000
 5373.00    2.22747   2.11347   -1.000
 5374.00    2.31264   2.21889   -1.000
 5375.00    2.34621   2.28130   -1.000
 5376.00    2.34412   2.29175   -1.000
 5377.00    2.33574   2.28598   -1.000
 5378.00    2.33192   2.28910   -1.000
 5379.00    2.32471   2.29644   -1.000
 5380.00    2.31216   2.29108   -1.000
 5381.00    2.28699   2.26787   -1.000
 5382.00    2.27185   2.24167   -1.000
 5383.00    2.26445   2.22855   -1.000
 5384.00    2.28777   2.23489   -1.000
 5385.00    2.31448   2.25695   -1.000
 5386.00    2.32464   2.27931   -1.000
 5387.00    2.31464   2.28143   -1.000
 5388.00    2.28769   2.25690   -1.000
 5389.00    2.25552   2.21712   -1.000
 5390.00    2.23287   2.17783   -1.000
 5391.00    2.21582   2.15355   -1.000
 5392.00    2.20717   2.14539   -1.000
 5393.00    2.19702   2.14524   -1.000
 5394.00    2.19207   2.14033   -1.000
 5395.00    2.18179   2.11684   -1.000
 5396.00    2.13690   2.07335   -1.000
 5397.00    2.10624   2.04041   -1.000
 5398.00    2.14504   2.05844   -1.000
 5399.00    2.21409   2.11965   -1.000
 5400.00    2.24028   2.17950   -1.000
 5401.00    2.25401   2.20888   -1.000
 5402.00    2.24929   2.20265   -1.000
 5403.00    2.20165   2.15452   -1.000
 5404.00    2.10611   2.06750   -1.000
 5405.00    2.04921   1.98240   -1.000
 5406.00    2.05895   1.96388   -1.000
 5407.00    2.12082   2.01344   -1.000
 5408.00    2.16179   2.06536   -1.000
 5409.00    2.14281   2.08237   -1.000
 5410.00    2.14485   2.08358   -1.000
 5411.00    2.19955   2.12106   -1.000
 5412.00    2.27060   2.18869   -1.000
 5413.00    2.30286   2.23694   -1.000
 5414.00    2.29482   2.25448   -1.000
 5415.00    2.28500   2.26311   -1.000
 5416.00    2.29936   2.28576  133.448
 5417.00    2.33170   2.31362   -1.000
 5418.00    2.33040   2.31877  133.214
 5419.00    2.29155   2.30094  134.572
 5420.00    2.27497   2.27977  135.353
 5421.00    2.28998   2.26768   -1.000
 5422.00    2.29758   2.26185   -1.000
 5423.00    2.27842   2.24694   -1.000
 5424.00    2.25515   2.23223   -1.000
 5425.00    2.27102   2.25010   -1.000
 5426.00    2.32050   2.29347   -1.000
 5427.00    2.33739   2.31433   -1.000
 5428.00    2.28181   2.26827  137.902
 5429.00    2.19830   2.17943   -1.000
 5430.00    2.16597   2.12760   -1.000
 5431.00    2.21649   2.13651   -1.000
 5432.00    2.23475   2.16252   -1.000
 5433.00    2.20531   2.15312   -1.000
 5434.00    2.17072   2.11455   -1.000
 5435.00    2.17021   2.10131   -1.000
 5436.00    2.20670   2.13734   -1.000
 5437.00    2.26713   2.20981   -1.000
 5438.00    2.33510   2.28872   -1.000
 5439.00    2.38456   2.34837   -1.000
 5440.00    2.41616   2.38284   -1.000
 5441.00    2.41239   2.39717  130.166
 5442.00    2.41372   2.40110  130.166
 5443.00    2.38833   2.38607  131.608
 5444.00    2.33198   2.33331  135.222
 5445.00    2.23830   2.23833  140.913
 5446.00    2.15149   2.13668  145.516
 5447.00    2.14232   2.09167   -1.000
 5448.00    2.20756   2.12668   -1.000
 5449.00    2.29252   2.20923   -1.000
 5450.00    2.33798   2.27512   -1.000
 5451.00    2.34916   2.29166   -1.000
 5452.00    2.33303   2.27460   -1.000
 5453.00    2.29465   2.23002   -1.000
 5454.00    2.22816   2.16003   -1.000
 5455.00    2.16886   2.09615   -1.000
 5456.00    2.19085   2.09065   -1.000
 5457.00    2.27699   2.16041   -1.000
 5458.00    2.34800   2.25708   -1.000
 5459.00    2.36959   2.30656   -1.000
 5460.00    2.34978   2.29849   -1.000
 5461.00    2.31259   2.25657   -1.000
 5462.00    2.27122   2.21127   -1.000
 5463.00    2.24539   2.18985   -1.000
 5464.00    2.26790   2.20260   -1.000
 5465.00    2.31024   2.23524   -1.000
 5466.00    2.32833   2.26509   -1.000
 5467.00    2.33705   2.28402   -1.000
 5468.00    2.35217   2.29059   -1.000
 5469.00    2.35152   2.28472   -1.000
 5470.00    2.33313   2.26910   -1.000
 5471.00    2.31916   2.25075   -1.000
 5472.00    2.30935   2.23697   -1.000
 5473.00    2.28995   2.22381   -1.000
 5474.00    2.26016   2.19596   -1.000
 5475.00    2.23245   2.14952   -1.000
 5476.00    2.17528   2.10224   -1.000
 5477.00    2.16000   2.09266   -1.000
 5478.00    2.23192   2.14366   -1.000
 5479.00    2.29642   2.20289   -1.000
 5480.00    2.28845   2.21618   -1.000
 5481.00    2.24153   2.19018   -1.000
 5482.00    2.23939   2.17455   -1.000
 5483.00    2.26723   2.21024   -1.000
 5484.00    2.31794   2.27155   -1.000
 5485.00    2.34645   2.31049   -1.000
 5486.00    2.33159   2.30576   -1.000
 5487.00    2.28344   2.27002  138.376
 5488.00    2.27078   2.24055   -1.000
 5489.00    2.28890   2.23895   -1.000
 5490.00    2.30754   2.26270   -1.000
 5491.00    2.33311   2.28490   -1.000
 5492.00    2.34890   2.29227   -1.000
 5493.00    2.33944   2.28843   -1.000
 5494.00    2.33460   2.28318   -1.000
 5495.00    2.35228   2.27937   -1.000
 5496.00    2.34376   2.26827   -1.000
 5497.00    2.32236   2.25574   -1.000
 5498.00    2.33752   2.26292   -1.000
 5499.00    2.37482   2.28312   -1.000
 5500.00    2.37653   2.28494   -1.000
 5501.00    2.33346   2.25826   -1.000
 5502.00    2.30873   2.22645   -1.000
 5503.00    2.32413   2.22058   -1.000
 5504.00    2.33210   2.22835   -1.000
 5505.00    2.31155   2.21708   -1.000
 5506.00    2.27509   2.19562   -1.000
 5507.00    2.27410   2.19540   -1.000
 5508.00    2.31863   2.22926   -1.000
 5509.00    2.34388   2.26905   -1.000
 5510.00    2.33312   2.27003   -1.000
 5511.00    2.29807   2.23190   -1.000
 5512.00    2.25236   2.18450   -1.000
 5513.00    2.23394   2.15604   -1.000
 5514.00    2.25773   2.15932   -1.000
 5515.00    2.29050   2.18373   -1.000
 5516.00    2.33641   2.21995   -1.000
 5517.00    2.37075   2.26377   -1.000
 5518.00    2.41253   2.31077   -1.000
 5519.00    2.43631   2.34718   -1.000
 5520.00    2.44045   2.35993   -1.000
 5521.00    2.42994   2.35415   -1.000
 5522.00    2.41950   2.35020   -1.000
 5523.00    2.40738   2.35128   -1.000
 5524.00    2.39883   2.34773   -1.000
 5525.00    2.36894   2.32336   -1.000
 5526.00    2.32414   2.27113   -1.000
 5527.00    2.26980   2.20661   -1.000
 5528.00    2.24080   2.16489   -1.000
 5529.00    2.26831   2.18380   -1.000
 5530.00    2.34107   2.24587   -1.000
 5531.00    2.38987   2.30213   -1.000
 5532.00    2.39064   2.32048   -1.000
 5533.00    2.36843   2.31000   -1.000
 5534.00    2.34042   2.29526   -1.000
 5535.00    2.33239   2.28650   -1.000
 5536.00    2.34886   2.28723   -1.000
 5537.00    2.36871   2.29709   -1.000
 5538.00    2.37965   2.31365   -1.000
 5539.00    2.41485   2.33568   -1.000
 5540.00    2.44796   2.36023   -1.000
 5541.00    2.45341   2.37341   -1.000
 5542.00    2.42478   2.36551   -1.000
 5543.00    2.39262   2.34475   -1.000
 5544.00    2.38927   2.33032   -1.000
 5545.00    2.39258   2.32822   -1.000
 5546.00    2.39893   2.33429   -1.000
 5547.00    2.42021   2.34969   -1.000
 5548.00    2.45583   2.37786   -1.000
 5549.00    2.48101   2.40610   -1.000
 5550.00    2.48752   2.41882   -1.000
 5551.00    2.48396   2.41410   -1.000
 5552.00    2.46743   2.39546   -1.000
 5553.00    2.43593   2.37039   -1.000
 5554.00    2.41095   2.35132   -1.000
 5555.00    2.42099   2.34600   -1.000
 5556.00    2.42930   2.34992   -1.000
 5557.00    2.42951   2.35342   -1.000
 5558.00    2.43790   2.35317   -1.000
 5559.00    2.44215   2.35540   -1.000
 5560.00    2.43771   2.35659   -1.000
 5561.00    2.43136   2.34599   -1.000
 5562.00    2.41198   2.32641   -1.000
 5563.00    2.39151   2.31222   -1.000
 5564.00    2.38125   2.30716   -1.000
 5565.00    2.37248   2.30303   -1.000
 5566.00    2.37963   2.29321   -1.000
 5567.00    2.37646   2.28427   -1.000
 5568.00    2.38288   2.28181   -1.000
 5569.00    2.37901   2.28524   -1.000
 5570.00    2.38243   2.29295   -1.000
 5571.00    2.38923   2.29711   -1.000
 5572.00    2.36972   2.29160   -1.000
 5573.00    2.36729   2.28482   -1.000
 5574.00    2.39274   2.29444   -1.000
 5575.00    2.37095   2.32337   -1.000
 5576.00    2.27592   2.34434   -1.000
 5577.00    2.21602   2.35041   -1.000
 5578.00    2.29437   2.36020   -1.000
 5579.00    2.44450   2.37342   -1.000
 5580.00    2.48378   2.37769   -1.000
 5581.00    2.45642   2.37109   -1.000
 5582.00    2.43779   2.35757   -1.000
 5583.00    2.43548   2.34596   -1.000
 5584.00    2.42741   2.32881   -1.000
 5585.00    2.38151   2.28389   -1.000
 5586.00    2.30940   2.21494   -1.000
 5587.00    2.24836   2.14822   -1.000
 5588.00    2.22230   2.11722   -1.000
 5589.00    2.23933   2.13255   -1.000
 5590.00    2.28278   2.17459   -1.000
 5591.00    2.32208   2.22035   -1.000
 5592.00    2.33494   2.24645   -1.000
 5593.00    2.33559   2.25700   -1.000
 5594.00    2.34488   2.27088   -1.000
 5595.00    2.37162   2.30272   -1.000
 5596.00    2.41417   2.33478   -1.000
 5597.00    2.41308   2.33277   -1.000
 5598.00    2.35937   2.29568   -1.000
 5599.00    2.32935   2.25120   -1.000
 5600.00    2.32146   2.21967   -1.000
 5601.00    2.30616   2.20159   -1.000
 5602.00    2.29772   2.19913   -1.000
 5603.00    2.32191   2.22944   -1.000
 5604.00    2.39257   2.29610   -1.000
 5605.00    2.46593   2.36848   -1.000
 5606.00    2.49971   2.41712   -1.000
 5607.00    2.51404   2.43784   -1.000
 5608.00    2.50617   2.43874   -1.000
 5609.00    2.50632   2.43450   -1.000
 5610.00    2.51416   2.43755   -1.000
 5611.00    2.51590   2.44867   -1.000
 5612.00    2.51584   2.44651   -1.000
 5613.00    2.47822   2.40394   -1.000
 5614.00    2.39009   2.31508   -1.000
 5615.00    2.30156   2.22582   -1.000
 5616.00    2.30367   2.19733   -1.000
 5617.00    2.35810   2.23469   -1.000
 5618.00    2.41157   2.29263   -1.000
 5619.00    2.42725   2.32212   -1.000
 5620.00    2.44404   2.33623   -1.000
 5621.00    2.45665   2.35565   -1.000
 5622.00    2.45644   2.35975   -1.000
 5623.00    2.42251   2.32690   -1.000
 5624.00    2.36169   2.27597   -1.000
 5625.00    2.35587   2.24719   -1.000
 5626.00    2.38973   2.26896   -1.000
 5627.00    2.43094   2.31579   -1.000
 5628.00    2.46804   2.35675   -1.000
 5629.00    2.49414   2.38934   -1.000
 5630.00    2.51253   2.41119   -1.000
 5631.00    2.51943   2.41824   -1.000
 5632.00    2.51646   2.41281   -1.000
 5633.00    2.50545   2.39953   -1.000
 5634.00    2.48969   2.38135   -1.000
 5635.00    2.46238   2.35784   -1.000
 5636.00    2.43314   2.33436   -1.000
 5637.00    2.41694   2.32099   -1.000
 5638.00    2.41789   2.32156   -1.000
 5639.00    2.42526   2.32759   -1.000
 5640.00    2.42111   2.32622   -1.000
 5641.00    2.41264   2.31429   -1.000
 5642.00    2.41502   2.30775   -1.000
 5643.00    2.42639   2.31913   -1.000
 5644.00    2.44267   2.33610   -1.000
 5645.00    2.45896   2.34977   -1.000
 5646.00    2.46999   2.36096   -1.000
 5647.00    2.47217   2.36648   -1.000
 5648.00    2.46633   2.36437   -1.000
 5649.00    2.46771   2.35949   -1.000
 5650.00    2.47541   2.36275   -1.000
 5651.00    2.48899   2.38073   -1.000
 5652.00    2.50401   2.39868   -1.000
 5653.00    2.49136   2.39524   -1.000
 5654.00    2.46906   2.37578   -1.000
 5655.00    2.44235   2.35643   -1.000
 5656.00    2.41024   2.33090   -1.000
 5657.00    2.35210   2.28746   -1.000
 5658.00    2.29117   2.23773   -1.000
 5659.00    2.30321   2.22066   -1.000
 5660.00    2.36204   2.25285   -1.000
 5661.00    2.39861   2.28780   -1.000
 5662.00    2.38484   2.29513   -1.000
 5663.00    2.40084   2.30913   -1.000
 5664.00    2.43592   2.34414   -1.000
 5665.00    2.46156   2.37330   -1.000
 5666.00    2.45485   2.37685   -1.000
 5667.00    2.43289   2.35808   -1.000
 5668.00    2.42058   2.34234   -1.000
 5669.00    2.42949   2.34348   -1.000
 5670.00    2.43802   2.35473   -1.000
 5671.00    2.45687   2.37538   -1.000
 5672.00    2.48688   2.40651   -1.000
 5673.00    2.51633   2.43516   -1.000
 5674.00    2.53195   2.44757   -1.000
 5675.00    2.52635   2.44784   -1.000
 5676.00    2.53565   2.44683   -1.000
 5677.00    2.54589   2.45046   -1.000
 5678.00    2.53210   2.44791   -1.000
 5679.00    2.51536   2.43252   -1.000
 5680.00    2.50329   2.41121   -1.000
 5681.00    2.47428   2.38566   -1.000
 5682.00    2.44763   2.35564   -1.000
 5683.00    2.42672   2.33975   -1.000
 5684.00    2.43455   2.35182   -1.000
 5685.00    2.44563   2.36796   -1.000
 5686.00    2.43275   2.36379   -1.000
 5687.00    2.40245   2.34674   -1.000
 5688.00    2.39543   2.33822   -1.000
 5689.00    2.43300   2.35351   -1.000
 5690.00    2.47503   2.38740   -1.000
 5691.00    2.51307   2.42376   -1.000
 5692.00    2.53831   2.45052   -1.000
 5693.00    2.54195   2.46009   -1.000
 5694.00    2.53549   2.45588   -1.000
 5695.00    2.53388   2.44760   -1.000
 5696.00    2.52572   2.43809   -1.000
 5697.00    2.50368   2.42087   -1.000
 5698.00    2.48028   2.39539   -1.000
 5699.00    2.45094   2.36975   -1.000
 5700.00    2.41812   2.34767   -1.000
 5701.00    2.39636   2.32915   -1.000
 5702.00    2.39381   2.32844   -1.000
 5703.00    2.40668   2.35048   -1.000
 5704.00    2.42192   2.37043   -1.000
 5705.00    2.41348   2.36750   -1.000
 5706.00    2.38178   2.33620   -1.000
 5707.00    2.34850   2.29391   -1.000
 5708.00    2.31332   2.26145   -1.000
 5709.00    2.30182   2.24125   -1.000
 5710.00    2.31437   2.23840   -1.000
 5711.00    2.33311   2.25672   -1.000
 5712.00    2.37494   2.29488   -1.000
 5713.00    2.43604   2.34860   -1.000
 5714.00    2.49416   2.39705   -1.000
 5715.00    2.51780   2.42450   -1.000
 5716.00    2.52538   2.44092   -1.000
 5717.00    2.52871   2.45180   -1.000
 5718.00    2.53867   2.46042   -1.000
 5719.00    2.56189   2.47254   -1.000
 5720.00    2.57198   2.48995   -1.000
 5721.00    2.59012   2.50786   -1.000
 5722.00    2.59973   2.52217   -1.000
 5723.00    2.60234   2.53022   -1.000
 5724.00    2.59643   2.52595   -1.000
 5725.00    2.57302   2.50260   -1.000
 5726.00    2.54275   2.46794   -1.000
 5727.00    2.52476   2.44532   -1.000
 5728.00    2.53396   2.45104   -1.000
 5729.00    2.55267   2.46947   -1.000
 5730.00    2.54594   2.47223   -1.000
 5731.00    2.52827   2.46023   -1.000
 5732.00    2.53884   2.45647   -1.000
 5733.00    2.56519   2.47843   -1.000
 5734.00    2.58479   2.50911   -1.000
 5735.00    2.59411   2.51943   -1.000
 5736.00    2.58541   2.51097   -1.000
 5737.00    2.57572   2.49758   -1.000
 5738.00    2.56379   2.49150   -1.000
 5739.00    2.55103   2.49451   -1.000
 5740.00    2.55333   2.49650   -1.000
 5741.00    2.56093   2.49352   -1.000
 5742.00    2.55909   2.48756   -1.000
 5743.00    2.55024   2.49183   -1.000
 5744.00    2.56356   2.51134   -1.000
 5745.00    2.57898   2.52970   -1.000
 5746.00    2.57398   2.52695   -1.000
 5747.00    2.55514   2.50057   -1.000
 5748.00    2.53915   2.48102   -1.000
 5749.00    2.55511   2.49036   -1.000
 5750.00    2.58184   2.50816   -1.000
 5751.00    2.56018   2.50334   -1.000
 5752.00    2.51193   2.46231   -1.000
 5753.00    2.47578   2.41697   -1.000
 5754.00    2.47875   2.40884   -1.000
 5755.00    2.52403   2.44672   -1.000
 5756.00    2.57202   2.50548   -1.000
 5757.00    2.60624   2.54465   -1.000
 5758.00    2.61319   2.55062   -1.000
 5759.00    2.58819   2.52405   -1.000
 5760.00    2.55045   2.47646   -1.000
 5761.00    2.51164   2.42911   -1.000
 5762.00    2.48802   2.40588   -1.000
 5763.00    2.51022   2.42485   -1.000
 5764.00    2.54622   2.48126   -1.000
 5765.00    2.59576   2.53643   -1.000
 5766.00    2.61918   2.56209   -1.000
 5767.00    2.62103   2.56892   -1.000
 5768.00    2.62200   2.56650   -1.000
 5769.00    2.60781   2.55815   -1.000
 5770.00    2.59472   2.54694   -1.000
 5771.00    2.57320   2.53585   -1.000
 5772.00    2.55652   2.52377   -1.000
 5773.00    2.54525   2.51254   -1.000
 5774.00    2.54192   2.50486   -1.000
 5775.00    2.53480   2.50520   -1.000
 5776.00    2.53492   2.51639   -1.000
 5777.00    2.51856   2.52425  134.238
 5778.00    2.46696   2.51146   -1.000
 5779.00    2.38192   2.47115   -1.000
 5780.00    2.29938   2.41181   -1.000
 5781.00    2.28587   2.35817   -1.000
 5782.00    2.33298   2.33291  141.278
 5783.00    2.38430   2.33574   -1.000
 5784.00    2.41907   2.33990   -1.000
 5785.00    2.43942   2.34499   -1.000
 5786.00    2.47439   2.37321   -1.000
 5787.00    2.51898   2.41951   -1.000
 5788.00    2.54332   2.45920   -1.000
 5789.00    2.55359   2.47734   -1.000
 5790.00    2.55173   2.47374   -1.000
 5791.00    2.55037   2.46824   -1.000
 5792.00    2.56365   2.48216   -1.000
 5793.00    2.57290   2.51866   -1.000
 5794.00    2.56947   2.55587  132.942
 5795.00    2.56262   2.57010  132.906
 5796.00    2.54737   2.55402  133.766
 5797.00    2.52453   2.52415  134.621
 5798.00    2.53960   2.51503   -1.000
 5799.00    2.59927   2.54218   -1.000
 5800.00    2.64884   2.58897   -1.000
 5801.00    2.67542   2.62027   -1.000
 5802.00    2.66269   2.61917   -1.000
 5803.00    2.63046   2.59178   -1.000
 5804.00    2.60561   2.55662   -1.000
 5805.00    2.58549   2.53648   -1.000
 5806.00    2.58236   2.53614   -1.000
 5807.00    2.60113   2.54767   -1.000
 5808.00    2.60870   2.56032   -1.000
 5809.00    2.61598   2.57100   -1.000
 5810.00    2.62895   2.58112   -1.000
 5811.00    2.63782   2.58699   -1.000
 5812.00    2.64402   2.58381   -1.000
 5813.00    2.63779   2.56974   -1.000
 5814.00    2.62670   2.54415   -1.000
 5815.00    2.60654   2.51525   -1.000
 5816.00    2.60314   2.50420   -1.000
 5817.00    2.62867   2.52631   -1.000
 5818.00    2.66000   2.56733   -1.000
 5819.00    2.67664   2.60080   -1.000
 5820.00    2.69148   2.61145   -1.000
 5821.00    2.68822   2.60556   -1.000
 5822.00    2.67976   2.59405   -1.000
 5823.00    2.68225   2.58674   -1.000
 5824.00    2.68901   2.58860   -1.000
 5825.00    2.69124   2.59417   -1.000
 5826.00    2.68841   2.60035   -1.000
 5827.00    2.68551   2.60498   -1.000
 5828.00    2.68691   2.61058   -1.000
 5829.00    2.68591   2.61750   -1.000
 5830.00    2.68548   2.62016   -1.000
 5831.00    2.69354   2.61721   -1.000
 5832.00    2.68988   2.60947   -1.000
 5833.00    2.68687   2.59737   -1.000
 5834.00    2.67952   2.58439   -1.000
 5835.00    2.67575   2.57838   -1.000
 5836.00    2.68300   2.58218   -1.000
 5837.00    2.68399   2.58442   -1.000
 5838.00    2.67557   2.58427   -1.000
 5839.00    2.67969   2.59255   -1.000
 5840.00    2.69366   2.61077   -1.000
 5841.00    2.69474   2.63059   -1.000
 5842.00    2.70016   2.64012   -1.000
 5843.00    2.70162   2.63345   -1.000
 5844.00    2.67937   2.61536   -1.000
 5845.00    2.65951   2.59181   -1.000
 5846.00    2.64986   2.56831   -1.000
 5847.00    2.64176   2.55130   -1.000
 5848.00    2.63748   2.54616   -1.000
 5849.00    2.64644   2.54968   -1.000
 5850.00    2.63801   2.54809   -1.000
 5851.00    2.62043   2.52962   -1.000
 5852.00    2.59265   2.50157   -1.000
 5853.00    2.58277   2.48268   -1.000
 5854.00    2.58124   2.48051   -1.000
 5855.00    2.58112   2.47592   -1.000
 5856.00    2.56069   2.44691   -1.000
 5857.00    2.52172   2.40848   -1.000
 5858.00    2.52388   2.39615   -1.000
 5859.00    2.56114   2.42584   -1.000
 5860.00    2.59474   2.47334   -1.000
 5861.00    2.61573   2.50238   -1.000
 5862.00    2.61501   2.51060   -1.000
 5863.00    2.62815   2.51033   -1.000
 5864.00    2.63002   2.51047   -1.000
 5865.00    2.62462   2.50546   -1.000
 5866.00    2.60853   2.49099   -1.000
 5867.00    2.61237   2.48744   -1.000
 5868.00    2.64188   2.51111   -1.000
 5869.00    2.66901   2.54392   -1.000
 5870.00    2.67813   2.56444   -1.000
 5871.00    2.67675   2.56666   -1.000
 5872.00    2.66946   2.55698   -1.000
 5873.00    2.66572   2.54852   -1.000
 5874.00    2.66868   2.54735   -1.000
 5875.00    2.66374   2.54886   -1.000
 5876.00    2.66082   2.54157   -1.000
 5877.00    2.64922   2.52218   -1.000
 5878.00    2.63675   2.49636   -1.000
 5879.00    2.61227   2.47224   -1.000
 5880.00    2.59167   2.45948   -1.000
 5881.00    2.58762   2.46230   -1.000
 5882.00    2.59702   2.47120   -1.000
 5883.00    2.57968   2.46788   -1.000
 5884.00    2.55591   2.45705   -1.000
 5885.00    2.52478   2.44642   -1.000
 5886.00    2.43128   2.41022  138.342
 5887.00    2.21000   2.30757   -1.000
 5888.00    1.85916   2.12351   -1.000
 5889.00    1.54769   1.92251   -1.000
 5890.00    1.52506   1.82061   -1.000
 5891.00    1.75126   1.87055   -1.000
 5892.00    1.94882   2.00828   -1.000
 5893.00    1.95809   2.09596   -1.000
 5894.00    1.80523   2.07756   -1.000
 5895.00    1.66207   1.99485   -1.000
 5896.00    1.72559   1.96136   -1.000
 5897.00    1.96899   2.04674   -1.000
 5898.00    2.19712   2.18038  146.629
 5899.00    2.33301   2.29052   -1.000
 5900.00    2.43699   2.36664   -1.000
 5901.00    2.52817   2.41777   -1.000
 5902.00    2.57626   2.44792   -1.000
 5903.00    2.59977   2.46332   -1.000
 5904.00    2.60738   2.46749   -1.000
 5905.00    2.60153   2.46546   -1.000
 5906.00    2.60229   2.46656   -1.000
 5907.00    2.61647   2.47738   -1.000
 5908.00    2.62093   2.49194   -1.000
 5909.00    2.61172   2.50418   -1.000
 5910.00    2.61123   2.51434   -1.000
 5911.00    2.61769   2.51604   -1.000
 5912.00    2.61027   2.50024   -1.000
 5913.00    2.57437   2.46581   -1.000
 5914.00    2.54407   2.42841   -1.000
 5915.00    2.53310   2.41317   -1.000
 5916.00    2.55240   2.42510   -1.000
 5917.00    2.57188   2.45113   -1.000
 5918.00    2.58613   2.48017   -1.000
 5919.00    2.59817   2.50022   -1.000
 5920.00    2.60448   2.50776   -1.000
 5921.00    2.60728   2.50414   -1.000
 5922.00    2.59812   2.49655   -1.000
 5923.00    2.59779   2.49646   -1.000
 5924.00    2.61304   2.51007   -1.000
 5925.00    2.62918   2.52810   -1.000
 5926.00    2.64437   2.53760   -1.000
 5927.00    2.64099   2.52956   -1.000
 5928.00    2.62070   2.50561   -1.000
 5929.00    2.61180   2.48271   -1.000
 5930.00    2.61264   2.47922   -1.000
 5931.00    2.62773   2.49908   -1.000
 5932.00    2.63667   2.51725   -1.000
 5933.00    2.63638   2.51463   -1.000
 5934.00    2.62185   2.49876   -1.000
 5935.00    2.62435   2.49428   -1.000
 5936.00    2.63496   2.51436   -1.000
 5937.00    2.64783   2.53820   -1.000
 5938.00    2.65652   2.54715   -1.000
 5939.00    2.65641   2.54017   -1.000
 5940.00    2.63720   2.51885   -1.000
 5941.00    2.60487   2.49481   -1.000
 5942.00    2.59430   2.48646   -1.000
 5943.00    2.61132   2.50212   -1.000
 5944.00    2.63493   2.52830   -1.000
 5945.00    2.64895   2.54724   -1.000
 5946.00    2.64176   2.54821   -1.000
 5947.00    2.61795   2.53008   -1.000
 5948.00    2.59961   2.50560   -1.000
 5949.00    2.59367   2.49758   -1.000
 5950.00    2.60549   2.50787   -1.000
 5951.00    2.61892   2.51280   -1.000
 5952.00    2.61823   2.50601   -1.000
 5953.00    2.61059   2.49888   -1.000
 5954.00    2.61807   2.50299   -1.000
 5955.00    2.62660   2.50787   -1.000
 5956.00    2.61242   2.49798   -1.000
 5957.00    2.60162   2.48710   -1.000
 5958.00    2.61948   2.49650   -1.000
 5959.00    2.65251   2.52397   -1.000
 5960.00    2.67574   2.55505   -1.000
 5961.00    2.69341   2.57660   -1.000
 5962.00    2.70380   2.58220   -1.000
 5963.00    2.70104   2.57526   -1.000
 5964.00    2.69167   2.56035   -1.000
 5965.00    2.66774   2.54500   -1.000
 5966.00    2.65376   2.54192   -1.000
 5967.00    2.66392   2.55599   -1.000
 5968.00    2.67644   2.57408   -1.000
 5969.00    2.68900   2.58766   -1.000
 5970.00    2.70154   2.59805   -1.000
 5971.00    2.70950   2.60434   -1.000
 5972.00    2.70742   2.60292   -1.000
 5973.00    2.69371   2.59345   -1.000
 5974.00    2.67206   2.57407   -1.000
 5975.00    2.64044   2.54400   -1.000
 5976.00    2.61557   2.51582   -1.000
 5977.00    2.60926   2.50348   -1.000
 5978.00    2.62623   2.50986   -1.000
 5979.00    2.64753   2.53237   -1.000
 5980.00    2.66430   2.55614   -1.000
 5981.00    2.67367   2.56198   -1.000
 5982.00    2.65394   2.53812   -1.000
 5983.00    2.61926   2.49901   -1.000
 5984.00    2.59577   2.47335   -1.000
 5985.00    2.60128   2.48270   -1.000
 5986.00    2.62966   2.51475   -1.000
 5987.00    2.65168   2.54104   -1.000
 5988.00    2.67160   2.55824   -1.000
 5989.00    2.67698   2.56899   -1.000
 5990.00    2.66829   2.57121   -1.000
 5991.00    2.67067   2.57173   -1.000
 5992.00    2.67829   2.58409   -1.000
 5993.00    2.70352   2.60809   -1.000
 5994.00    2.71262   2.62471   -1.000
 5995.00    2.70299   2.61582   -1.000
 5996.00    2.69150   2.58525   -1.000
 5997.00    2.66611   2.55526   -1.000
 5998.00    2.65978   2.54427   -1.000
 5999.00    2.66106   2.55413   -1.000
 6000.00    2.67395   2.56642   -1.000
 6001.00    2.67341   2.56851   -1.000
 6002.00    2.65925   2.56017   -1.000
 6003.00    2.64612   2.55443   -1.000
 6004.00    2.64572   2.56063   -1.000
 6005.00    2.64445   2.55810   -1.000
 6006.00    2.62542   2.53183   -1.000
 6007.00    2.59662   2.49966   -1.000
 6008.00    2.58874   2.49232   -1.000
 6009.00    2.60606   2.52446   -1.000
 6010.00    2.63334   2.56412   -1.000
 6011.00    2.65326   2.57243   -1.000
 6012.00    2.64216   2.55407   -1.000
 6013.00    2.63709   2.53494   -1.000
 6014.00    2.64365   2.53444   -1.000
 6015.00    2.64400   2.54154   -1.000
 6016.00    2.64234   2.53827   -1.000
 6017.00    2.63886   2.53410   -1.000
 6018.00    2.64069   2.53470   -1.000
 6019.00    2.62359   2.52674   -1.000
 6020.00    2.60880   2.51555   -1.000
 6021.00    2.62243   2.51674   -1.000
 6022.00    2.63755   2.52855   -1.000
 6023.00    2.64879   2.54575   -1.000
 6024.00    2.66300   2.56529   -1.000
 6025.00    2.67723   2.58456   -1.000
 6026.00    2.69416   2.60020   -1.000
 6027.00    2.70795   2.61342   -1.000
 6028.00    2.71382   2.62881   -1.000
 6029.00    2.73062   2.64196   -1.000
 6030.00    2.74007   2.64765   -1.000
 6031.00    2.73960   2.65162   -1.000
 6032.00    2.74482   2.65923   -1.000
 6033.00    2.75373   2.67410   -1.000
 6034.00    2.74912   2.69387   -1.000
 6035.00    2.73983   2.70432   -1.000
 6036.00    2.73908   2.69938   -1.000
 6037.00    2.73640   2.68508   -1.000
 6038.00    2.73236   2.66738   -1.000
 6039.00    2.72297   2.65174   -1.000
 6040.00    2.71404   2.64383   -1.000
 6041.00    2.72007   2.64825   -1.000
 6042.00    2.72235   2.66058   -1.000
 6043.00    2.73741   2.67725   -1.000
 6044.00    2.75582   2.69248   -1.000
 6045.00    2.75449   2.70094   -1.000
 6046.00    2.75998   2.70630   -1.000
 6047.00    2.76608   2.70823   -1.000
 6048.00    2.75898   2.70851   -1.000
 6049.00    2.77142   2.70893   -1.000
 6050.00    2.77762   2.70877   -1.000
 6051.00    2.77341   2.70126   -1.000
 6052.00    2.76576   2.68376   -1.000
 6053.00    2.75802   2.66310   -1.000
 6054.00    2.74490   2.64438   -1.000
 6055.00    2.71575   2.62794   -1.000
 6056.00    2.71180   2.61971   -1.000
 6057.00    2.72046   2.62618   -1.000
 6058.00    2.73548   2.64234   -1.000
 6059.00    2.74152   2.66027   -1.000
 6060.00    2.75833   2.66911   -1.000
 6061.00    2.74974   2.66141   -1.000
 6062.00    2.73354   2.63706   -1.000
 6063.00    2.82505   2.60240   -1.000
 6064.00    2.73049   2.57308   -1.000
 6065.00    2.66918   2.56877   -1.000
 6066.00    2.21225   2.60099   -1.000
 6067.00    0.85371   2.65266   -1.000
 6068.00    1.78396   2.69346   -1.000
 6069.00    2.70077   2.71240  136.232
 6070.00    2.66370   2.72175   -1.000
 6071.00    2.73469   2.72875  130.742
 6072.00    2.92124   2.73207   -1.000
 6073.00    2.84186   2.73014   -1.000
 6074.00    2.78273   2.72305   -1.000
 6075.00    2.78033   2.70934   -1.000
 6076.00    2.76969   2.68778   -1.000
 6077.00    2.74179   2.66200   -1.000
 6078.00    2.70948   2.64006   -1.000
 6079.00    2.70104   2.62811   -1.000
 6080.00    2.70234   2.62013   -1.000
 6081.00    2.69495   2.60973   -1.000
 6082.00    2.67977   2.60312   -1.000
 6083.00    2.68058   2.60812   -1.000
 6084.00    2.69283   2.61716   -1.000
 6085.00    2.69758   2.62575   -1.000
 6086.00    2.70311   2.63670   -1.000
 6087.00    2.71104   2.64562   -1.000
 6088.00    2.71013   2.64315   -1.000
 6089.00    2.69686   2.62559   -1.000
 6090.00    2.68728   2.60443   -1.000
 6091.00    2.68310   2.59675   -1.000
 6092.00    2.68971   2.60612   -1.000
 6093.00    2.69942   2.62763   -1.000
 6094.00    2.71837   2.65224   -1.000
 6095.00    2.74815   2.66846   -1.000
 6096.00    2.75496   2.67240   -1.000
 6097.00    2.74793   2.67512   -1.000
 6098.00    2.74177   2.68382   -1.000
 6099.00    2.73533   2.68131   -1.000
 6100.00    2.71343   2.64718   -1.000
 6101.00    2.66117   2.58169   -1.000
 6102.00    2.60477   2.52145   -1.000
 6103.00    2.59507   2.51695   -1.000
 6104.00    2.64130   2.56343   -1.000
 6105.00    2.69690   2.61786   -1.000
 6106.00    2.73068   2.64901   -1.000
 6107.00    2.72235   2.66269   -1.000
 6108.00    2.71232   2.67497   -1.000
 6109.00    2.72433   2.68463   -1.000
 6110.00    2.72874   2.68293   -1.000
 6111.00    2.71915   2.67873   -1.000
 6112.00    2.72697   2.68637   -1.000
 6113.00    2.74687   2.70254   -1.000
 6114.00    2.75251   2.71131   -1.000
 6115.00    2.74161   2.70340   -1.000
 6116.00    2.72860   2.69043   -1.000
 6117.00    2.71871   2.68187   -1.000
 6118.00    2.71598   2.66340   -1.000
 6119.00    2.68289   2.62186   -1.000
 6120.00    2.64832   2.56521   -1.000
 6121.00    2.61369   2.51672   -1.000
 6122.00    2.60230   2.50990   -1.000
 6123.00    2.63581   2.55329   -1.000
 6124.00    2.67509   2.60912   -1.000
 6125.00    2.70792   2.63733   -1.000
 6126.00    2.70133   2.63884   -1.000
 6127.00    2.68036   2.63143   -1.000
 6128.00    2.67538   2.63431   -1.000
 6129.00    2.68979   2.65755   -1.000
 6130.00    2.71989   2.69031   -1.000
 6131.00    2.74522   2.71532   -1.000
 6132.00    2.73581   2.71814   -1.000
 6133.00    2.72058   2.68643   -1.000
 6134.00    2.66838   2.61336   -1.000
 6135.00    2.58939   2.51291   -1.000
 6136.00    2.51148   2.43431   -1.000
 6137.00    2.49034   2.43207   -1.000
 6138.00    2.54633   2.50074   -1.000
 6139.00    2.62998   2.58245   -1.000
 6140.00    2.67165   2.62199   -1.000
 6141.00    2.66869   2.62655   -1.000
 6142.00    2.67002   2.64022   -1.000
 6143.00    2.69358   2.67230   -1.000
 6144.00    2.72636   2.70125   -1.000
 6145.00    2.73309   2.71025   -1.000
 6146.00    2.72339   2.69955   -1.000
 6147.00    2.70482   2.67576   -1.000
 6148.00    2.67999   2.64722   -1.000
 6149.00    2.65782   2.62630   -1.000
 6150.00    2.65602   2.62245   -1.000
 6151.00    2.66356   2.63599   -1.000
 6152.00    2.67631   2.65039   -1.000
 6153.00    2.68441   2.64906   -1.000
 6154.00    2.67225   2.63165   -1.000
 6155.00    2.65290   2.61520   -1.000
 6156.00    2.64393   2.60840   -1.000
 6157.00    2.63460   2.60042   -1.000
 6158.00    2.60971   2.57501   -1.000
 6159.00    2.57335   2.51524   -1.000
 6160.00    2.50195   2.42167   -1.000
 6161.00    2.42220   2.32802   -1.000
 6162.00    2.38419   2.28682   -1.000
 6163.00    2.40257   2.31761   -1.000
 6164.00    2.45836   2.38733   -1.000
 6165.00    2.51938   2.45420   -1.000
 6166.00    2.54233   2.49088   -1.000
 6167.00    2.53529   2.48976   -1.000
 6168.00    2.51064   2.45633   -1.000
 6169.00    2.47353   2.42588   -1.000
 6170.00    2.47751   2.43470   -1.000
 6171.00    2.51274   2.48193   -1.000
 6172.00    2.55131   2.52851   -1.000
 6173.00    2.57222   2.55079   -1.000
 6174.00    2.57842   2.55874   -1.000
 6175.00    2.58215   2.56125   -1.000
 6176.00    2.57973   2.56304  145.405
 6177.00    2.58166   2.57168  144.997
 6178.00    2.59938   2.58593  144.249
 6179.00    2.61652   2.59691   -1.000
 6180.00    2.62449   2.60613   -1.000
 6181.00    2.63554   2.61933  142.604
 6182.00    2.64187   2.62826  142.276
 6183.00    2.64485   2.62434   -1.000
 6184.00    2.64234   2.60876   -1.000
 6185.00    2.61726   2.58375   -1.000
 6186.00    2.59192   2.55433   -1.000
 6187.00    2.56869   2.52912   -1.000
 6188.00    2.54521   2.50815   -1.000
 6189.00    2.53296   2.47860   -1.000
 6190.00    2.50991   2.44173   -1.000
 6191.00    2.48838   2.42656   -1.000
 6192.00    2.50669   2.45492   -1.000
 6193.00    2.56073   2.51110   -1.000
 6194.00    2.60095   2.56242   -1.000
 6195.00    2.61763   2.59248   -1.000
 6196.00    2.62824   2.60348   -1.000
 6197.00    2.62403   2.59299   -1.000
 6198.00    2.59733   2.56479   -1.000
 6199.00    2.56334   2.54213   -1.000
 6200.00    2.54512   2.55052  147.427
 6201.00    2.55322   2.58088   -1.000
 6202.00    2.57076   2.61129   -1.000
 6203.00    2.57825   2.62999   -1.000
 6204.00    2.59890   2.63756   -1.000
 6205.00    2.62366   2.64227  143.459
 6206.00    2.63636   2.64675  143.485
 6207.00    2.64991   2.64966  144.098
 6208.00    2.65510   2.64628  144.014
 6209.00    2.64341   2.63340  144.732
 6210.00    2.62361   2.61206  146.123
 6211.00    2.59044   2.57980  147.230
 6212.00    2.55816   2.53380   -1.000
 6213.00    2.51791   2.48394   -1.000
 6214.00    2.49425   2.45090   -1.000
 6215.00    2.49975   2.44682   -1.000
 6216.00    2.52004   2.46321   -1.000
 6217.00    2.53653   2.47970   -1.000
 6218.00    2.53999   2.47994   -1.000
 6219.00    2.53690   2.46892   -1.000
 6220.00    2.52522   2.46847   -1.000
 6221.00    2.54051   2.48279   -1.000
 6222.00    2.59050   2.49888   -1.000
 6223.00    2.46244   2.50757   -1.000
 6224.00    2.17808   2.51341   -1.000
 6225.00    2.55732   2.52162   -1.000
 6226.00    2.59236   2.52712   -1.000
 6227.00    2.57491   2.51745   -1.000
 6228.00    2.55038   2.48274   -1.000
 6229.00    2.50416   2.42879   -1.000
 6230.00    2.46363   2.38476   -1.000
 6231.00    2.45858   2.38042   -1.000
 6232.00    2.48512   2.41879   -1.000
 6233.00    2.53550   2.48019   -1.000
 6234.00    2.58973   2.53835   -1.000
 6235.00    2.60679   2.56930   -1.000
 6236.00    2.59637   2.56479   -1.000
 6237.00    2.57299   2.53752   -1.000
 6238.00    2.54899   2.50288   -1.000
 6239.00    2.51934   2.47508   -1.000
 6240.00    2.50028   2.45938   -1.000
 6241.00    2.50221   2.45040   -1.000
 6242.00    2.48938   2.43802   -1.000
 6243.00    2.47349   2.42510   -1.000
 6244.00    2.47474   2.42286   -1.000
 6245.00    2.48565   2.43563   -1.000
 6246.00    2.50922   2.46496   -1.000
 6247.00    2.53210   2.50609   -1.000
 6248.00    2.56314   2.53997   -1.000
 6249.00    2.57686   2.54974   -1.000
 6250.00    2.57105   2.53082   -1.000
 6251.00    2.52872   2.48973   -1.000
 6252.00    2.47417   2.44866   -1.000
 6253.00    2.45154   2.42764   -1.000
 6254.00    2.45812   2.42349   -1.000
 6255.00    2.45578   2.41786   -1.000
 6256.00    2.44381   2.39926   -1.000
 6257.00    2.41982   2.38178   -1.000
 6258.00    2.42179   2.38861   -1.000
 6259.00    2.46369   2.42358   -1.000
 6260.00    2.50720   2.47449   -1.000
 6261.00    2.54393   2.52429   -1.000
 6262.00    2.56658   2.56045  149.628
 6263.00    2.58458   2.57305  149.020
 6264.00    2.58004   2.56551  150.346
 6265.00    2.56203   2.55484  151.308
 6266.00    2.55103   2.55646  150.500
 6267.00    2.55661   2.56378  149.387
 6268.00    2.55063   2.56333  150.049
 6269.00    2.53720   2.55993   -1.000
 6270.00    2.53697   2.56402   -1.000
 6271.00    2.56284   2.57569  150.000
 6272.00    2.57600   2.58466  149.663
 6273.00    2.57703   2.58119  150.115
 6274.00    2.55309   2.56339  151.257
 6275.00    2.52972   2.53831  152.482
 6276.00    2.49558   2.51361  155.031
 6277.00    2.43739   2.49210   -1.000
 6278.00    2.37993   2.47482   -1.000
 6279.00    2.34051   2.46205   -1.000
 6280.00    2.31837   2.46078   -1.000
 6281.00    2.28796   2.47972   -1.000
 6282.00    2.27802   2.51643   -1.000
 6283.00    2.28281   2.55570   -1.000
 6284.00    2.32792   2.58515   -1.000
 6285.00    2.38665   2.60438   -1.000
 6286.00    2.45685   2.62218   -1.000
 6287.00    2.52175   2.63959   -1.000
 6288.00    2.56150   2.64668   -1.000
 6289.00    2.57225   2.63536   -1.000
 6290.00    2.55579   2.61107   -1.000
 6291.00    2.55750   2.58793   -1.000
 6292.00    2.55514   2.57590  151.983
 6293.00    2.55318   2.57239  152.146
 6294.00    2.55672   2.56771  152.426
 6295.00    2.54262   2.54912  153.678
 6296.00    2.52116   2.52285  154.669
 6297.00    2.50238   2.51036  154.849
 6298.00    2.49246   2.51732   -1.000
 6299.00    2.49194   2.52662   -1.000
 6300.00    2.48439   2.52207   -1.000
 6301.00    2.46983   2.51174   -1.000
 6302.00    2.48138   2.51548   -1.000
 6303.00    2.51351   2.53490  154.938
 6304.00    2.54086   2.55979  152.423
 6305.00    2.55593   2.58398   -1.000
 6306.00    2.56950   2.61066   -1.000
 6307.00    2.58942   2.63778   -1.000
 6308.00    2.59452   2.65288   -1.000
 6309.00    2.59101   2.64747   -1.000
 6310.00    2.58043   2.63012   -1.000
 6311.00    2.56128   2.61287   -1.000
 6312.00    2.54892   2.60093   -1.000
 6313.00    2.54266   2.58894   -1.000
 6314.00    2.52220   2.57087   -1.000
 6315.00    2.49639   2.55350   -1.000
 6316.00    2.48575   2.53949   -1.000
 6317.00    2.48255   2.52583   -1.000
 6318.00    2.48287   2.52519   -1.000
 6319.00    2.49846   2.55069   -1.000
 6320.00    2.54030   2.58609   -1.000
 6321.00    2.56894   2.61194   -1.000
 6322.00    2.57928   2.63039   -1.000
 6323.00    2.58928   2.64951   -1.000
 6324.00    2.60399   2.66768   -1.000
 6325.00    2.61577   2.67670   -1.000
 6326.00    2.61934   2.67804   -1.000
 6327.00    2.62129   2.67961   -1.000
 6328.00    2.62274   2.68234   -1.000
 6329.00    2.63076   2.68278   -1.000
 6330.00    2.62643   2.68484   -1.000
 6331.00    2.62556   2.69522   -1.000
 6332.00    2.62464   2.70160   -1.000
 6333.00    2.61036   2.68408   -1.000
 6334.00    2.58759   2.64129   -1.000
 6335.00    2.53624   2.59710   -1.000
 6336.00    2.51970   2.58239   -1.000
 6337.00    2.55079   2.59886   -1.000
 6338.00    2.58022   2.62901   -1.000
 6339.00    2.60921   2.66020   -1.000
 6340.00    2.62480   2.68068   -1.000
 6341.00    2.62281   2.67912   -1.000
 6342.00    2.60766   2.65719   -1.000
 6343.00    2.59134   2.63058   -1.000
 6344.00    2.57719   2.62250   -1.000
 6345.00    2.58369   2.64140   -1.000
 6346.00    2.59941   2.67155   -1.000
 6347.00    2.61092   2.69968   -1.000
 6348.00    2.62352   2.72068   -1.000
 6349.00    2.63112   2.73409   -1.000
 6350.00    2.63721   2.73952   -1.000
 6351.00    2.63745   2.73537   -1.000
 6352.00    2.62864   2.71883   -1.000
 6353.00    2.60129   2.69112   -1.000
 6354.00    2.57289   2.66448   -1.000
 6355.00    2.56350   2.64999   -1.000
 6356.00    2.55654   2.63888   -1.000
 6357.00    2.53841   2.61711   -1.000
 6358.00    2.52082   2.58712   -1.000
 6359.00    2.50792   2.56193   -1.000
 6360.00    2.50553   2.54584   -1.000
 6361.00    2.50085   2.53665   -1.000
 6362.00    2.49051   2.53922   -1.000
 6363.00    2.50152   2.55894   -1.000
 6364.00    2.52080   2.59161   -1.000
 6365.00    2.54604   2.62753   -1.000
 6366.00    2.56054   2.66200   -1.000
 6367.00    2.57895   2.69276   -1.000
 6368.00    2.59749   2.71302   -1.000
 6369.00    2.60912   2.71982   -1.000
 6370.00    2.60239   2.72340   -1.000
 6371.00    2.59930   2.73310   -1.000
 6372.00    2.61560   2.74816   -1.000
 6373.00    2.61838   2.75845   -1.000
 6374.00    2.60848   2.75990   -1.000
 6375.00    2.59815   2.75772   -1.000
 6376.00    2.58233   2.75112   -1.000
 6377.00    2.57044   2.73516   -1.000
 6378.00    2.55918   2.71563   -1.000
 6379.00    2.55391   2.70269   -1.000
 6380.00    2.54554   2.69999   -1.000
 6381.00    2.54564   2.70608   -1.000
 6382.00    2.55204   2.71477   -1.000
 6383.00    2.56222   2.72049   -1.000
 6384.00    2.55574   2.72401   -1.000
 6385.00    2.54949   2.73140   -1.000
 6386.00    2.54439   2.74189   -1.000
 6387.00    2.53852   2.74865   -1.000
 6388.00    2.54103   2.75105   -1.000
 6389.00    2.53377   2.74913   -1.000
 6390.00    2.50631   2.73372   -1.000
 6391.00    2.47573   2.69764   -1.000
 6392.00    2.44231   2.65303   -1.000
 6393.00    2.40688   2.63091   -1.000
 6394.00    2.40157   2.65226   -1.000
 6395.00    2.42525   2.69820   -1.000
 6396.00    2.44270   2.73278   -1.000
 6397.00    2.43343   2.72993   -1.000
 6398.00    2.39555   2.68857   -1.000
 6399.00    2.35414   2.64020   -1.000
 6400.00    2.32377   2.63078   -1.000
 6401.00    2.34086   2.67373   -1.000
 6402.00    2.37289   2.73218   -1.000
 6403.00    2.40461   2.77186   -1.000
 6404.00    2.40043   2.78193   -1.000
 6405.00    2.37842   2.76445   -1.000
 6406.00    2.34214   2.73280   -1.000
 6407.00    2.30795   2.70905   -1.000
 6408.00    2.28638   2.70601   -1.000
 6409.00    2.27458   2.71316   -1.000
 6410.00    2.25870   2.71163   -1.000
 6411.00    2.23373   2.69984   -1.000
 6412.00    2.21498   2.69477   -1.000
 6413.00    2.20312   2.70436   -1.000
 6414.00    2.20528   2.72128   -1.000
 6415.00    2.20382   2.73861   -1.000
 6416.00    2.19450   2.74706   -1.000
 6417.00    2.17957   2.73767   -1.000
 6418.00    2.15243   2.70948   -1.000
 6419.00    2.11539   2.67320   -1.000
 6420.00    2.07038   2.65272   -1.000
 6421.00    2.05617   2.66823   -1.000
 6422.00    2.06536   2.71027   -1.000
 6423.00    2.07528   2.75063   -1.000
 6424.00    2.07582   2.77615   -1.000
 6425.00    2.06395   2.79057   -1.000
 6426.00    2.04891   2.79999   -1.000
 6427.00    2.03284   2.79625   -1.000
 6428.00    2.00637   2.76583   -1.000
