###################################################################
## OUTPUT of StarlightChains_v04.for    [Cid@UFSC - 01/Apr/2007] ##
###################################################################

## Some input info
NGC6652_b_1.cxt                          [arq_obs]
Base.BC03.S                              [arq_base]
NGC6652_b_1.msk                          [arq_masks]
StCv04.C11.config                        [arq_config]
  150                                    [N_base]
    0                                    [N_YAV_components = # of components with extra extinction!]
    0                                    [i_FitPowerLaw (1/0 = Yes/No)]
-9.99                                    [alpha_PowerLaw]
CCM                                      [red_law_option]
 1.458241                                [q_norm = A(l_norm)/A(V)]

## (Re)Sampling Parameters
 3359.00                                 [l_ini (A)]
 6428.00                                 [l_fin (A)]
    1.00                                 [dl    (A)]     (OBS: dl_cushion =    50.00 A)

## Normalization info
 4020.00                                 [l_norm (A) - for base]
 4010.00                                 [llow_norm (A) - window for f_obs]
 4060.00                                 [lupp_norm (A) - window for f_obs]
1.611308E-14                             [fobs_norm (in input units)]

## S/N
 4730.00                                 [llow_SN (A) - window for S/N]
 4780.00                                 [lupp_SN (A) - window for S/N]
  60.034                                 [S/N in S/N window]
  49.598                                 [S/N in norm. window]
  73.857                                 [S/N_err in S/N window]
  61.019                                 [S/N_err in norm. window]
  1.0000                                 [fscale_chi2]

## etc...
  2147483591                             [idum_orig]
  3066                                   [NOl_eff]
  2021                                   [Nl_eff]
  1045    NSIGMA                         [Ntot_cliped & clip_method]
  1231370                                [Nglobal_steps]
   7                                     [N_chains]
  17                                     [NEX0s_base = N_base in EX0s-fits]
 0   0   1      173   2.0   7.711E+02    [Clip-Bug, RC-Crash & Burn-In warning-flags, n_censored_weights, wei_nsig_threshold & wei_limit]
    50     49.856     49.852      0.004  [idt_all, wdt_TotTime, wdt_UsrTime & wdt_SysTime (sec)]

## Synthesis Results - Best model ##

 2.24835E+00                             [chi2/Nl_eff]
     1.81988                             [adev (%)]

   101.20047                             [sum-of-x (%)]
 1.62124E-14                             [Flux_tot (units of input spectrum!)]
 4.78943E-10                             [Mini_tot (???)]
 2.43639E-10                             [Mcor_tot (???)]

  30.19                                  [v0_min  (km/s)]
  47.71                                  [vd_min  (km/s)]
-0.0043                                  [AV_min  (mag)]
 0.0000                                  [YAV_min (mag)]

# j     x_j(%)      Mini_j(%)     Mcor_j(%)     age_j(yr)     Z_j      (L/M)_j    YAV?  Mstars   component_j        a/Fe...       SSP_chi2r SSP_adev(%)   SSP_AV   SSP_x(%)
  1      0.0000     0.0000E+00    0.0000E+00    1.000000E+06  0.00010  8.160E-03    0   1.0000   age020_m22            0.0000     2.7655E+02    15.7449   4.0000    68.4868
  2      0.0000     0.0000E+00    0.0000E+00    3.160000E+06  0.00010  4.759E-02    0   1.0000   age045_m22            0.0000     6.0376E+01     8.5946   2.0518    91.9018
  3      0.0000     0.0000E+00    0.0000E+00    5.010000E+06  0.00010  1.932E-02    0   0.9582   age055_m22            0.0000     2.1491E+02    16.3028   2.5890    71.7061
  4      0.0000     0.0000E+00    0.0000E+00    6.610000E+06  0.00010  9.973E-03    0   0.9297   age061_m22            0.0000     2.6391E+02    15.5291   4.0000    70.5654
  5      0.0000     0.0000E+00    0.0000E+00    8.710000E+06  0.00010  7.690E-03    0   0.9030   age067_m22            0.0000     2.4992E+02    15.1525   4.0000    71.1239
  6      0.0000     0.0000E+00    0.0000E+00    1.000000E+07  0.00010  6.375E-03    0   0.8902   age070_m22            0.0000     2.4239E+02    14.8640   4.0000    71.5855
  7      0.0000     0.0000E+00    0.0000E+00    1.445000E+07  0.00010  4.874E-03    0   0.8589   age078_m22            0.0000     1.6898E+02    14.1736   4.0000    73.7022
  8      0.0000     0.0000E+00    0.0000E+00    2.512000E+07  0.00010  4.103E-03    0   0.8174   age090_m22            0.0000     9.4412E+01    11.1030   3.5122    83.0628
  9      0.0000     0.0000E+00    0.0000E+00    4.000000E+07  0.00010  3.654E-03    0   0.7830   age104_m22            0.0000     6.2672E+01     8.6792   3.0791    92.3020
 10      0.0000     0.0000E+00    0.0000E+00    5.500000E+07  0.00010  3.093E-03    0   0.7597   age110_m22            0.0000     5.9099E+01     7.8800   2.9312    95.5040
 11      0.0000     0.0000E+00    0.0000E+00    1.015200E+08  0.00010  2.431E-03    0   0.7138   age116_m22            0.0000     6.8614E+01     7.6170   2.5136   101.0462
 12      0.0000     0.0000E+00    0.0000E+00    1.609000E+08  0.00010  1.319E-03    0   0.6775   age120_m22            0.0000     6.1431E+01     7.3066   2.0532   102.8682
 13      0.0000     0.0000E+00    0.0000E+00    2.861200E+08  0.00010  1.075E-03    0   0.6412   age125_m22            0.0000     1.5232E+02     9.7852   1.9024   114.6752
 14      0.0000     0.0000E+00    0.0000E+00    5.088000E+08  0.00010  7.183E-04    0   0.6083   age130_m22            0.0000     1.9233E+02    11.0840   1.6074   118.9984
 15      0.0000     0.0000E+00    0.0000E+00    9.047900E+08  0.00010  4.524E-04    0   0.5785   age135_m22            0.0000     1.9717E+02    11.2787   1.3968   120.7976
 16      0.0000     0.0000E+00    0.0000E+00    1.278050E+09  0.00010  3.018E-04    0   0.5588   age138_m22            0.0000     8.6362E+01     7.7709   1.0185   112.8080
 17      0.0000     0.0000E+00    0.0000E+00    1.434000E+09  0.00010  2.691E-04    0   0.5532   age139_m22            0.0000     7.0007E+01     7.1603   0.8915   111.0523
 18      0.0000     0.0000E+00    0.0000E+00    2.500000E+09  0.00010  1.582E-04    0   0.5296   age150_m22            0.0000     6.1830E+01     6.9351   0.8043   110.8155
 19      0.0000     0.0000E+00    0.0000E+00    4.250000E+09  0.00010  1.007E-04    0   0.5110   age158_m22            0.0000     3.6471E+01     5.7830   0.7258   106.1745
 20      0.0004     1.9083E-04    1.8700E-04    6.250000E+09  0.00010  6.869E-05    0   0.4985   age166_m22            0.0000     2.5163E+01     5.1882   0.7413   100.5674
 21      0.0000     0.0000E+00    0.0000E+00    7.500000E+09  0.00010  5.873E-05    0   0.4931   age171_m22            0.0000     2.5970E+01     5.3859   0.7430    99.4916
 22      0.0000     0.0000E+00    0.0000E+00    1.000000E+10  0.00010  4.481E-05    0   0.4854   age181_m22            0.0000     2.5220E+01     5.3297   0.7060    99.0827
 23      0.0002     1.4479E-04    1.3637E-04    1.300000E+10  0.00010  3.489E-05    0   0.4791   age193_m22            0.0000     2.3861E+01     5.2066   0.6540    98.3486
 24      0.0000     0.0000E+00    0.0000E+00    1.500000E+10  0.00010  3.035E-05    0   0.4766   age201_m22            0.0000     2.3332E+01     5.1726   0.6190    97.9939
 25      0.0000     0.0000E+00    0.0000E+00    1.800000E+10  0.00010  2.510E-05    0   0.4735   age213_m22            0.0000     2.2706E+01     5.1534   0.5626    96.9191
 26      0.0000     0.0000E+00    0.0000E+00    1.000000E+06  0.00040  8.458E-03    0   1.0000   age020_m32            0.0000     2.7769E+02    15.7830   4.0000    69.1463
 27      0.0000     0.0000E+00    0.0000E+00    3.160000E+06  0.00040  3.973E-02    0   1.0000   age045_m32            0.0000     1.0590E+02    11.6588   3.4249    82.4345
 28      0.0000     0.0000E+00    0.0000E+00    5.010000E+06  0.00040  1.935E-02    0   0.9532   age055_m32            0.0000     1.8703E+02    15.3268   3.7679    73.2007
 29      0.0000     0.0000E+00    0.0000E+00    6.610000E+06  0.00040  1.204E-02    0   0.9243   age061_m32            0.0000     2.0577E+02    14.8964   4.0000    71.9364
 30      0.0000     0.0000E+00    0.0000E+00    8.710000E+06  0.00040  9.433E-03    0   0.9001   age067_m32            0.0000     1.8630E+02    14.6253   4.0000    72.8731
 31      0.0000     0.0000E+00    0.0000E+00    1.000000E+07  0.00040  8.053E-03    0   0.8877   age070_m32            0.0000     1.7872E+02    14.7507   4.0000    73.0733
 32      0.0000     0.0000E+00    0.0000E+00    1.445000E+07  0.00040  7.027E-03    0   0.8578   age078_m32            0.0000     1.2388E+02    12.6749   3.4139    80.2012
 33      0.0000     0.0000E+00    0.0000E+00    2.512000E+07  0.00040  4.707E-03    0   0.8166   age090_m32            0.0000     8.5010E+01    10.6656   3.0444    86.4143
 34      0.0000     0.0000E+00    0.0000E+00    4.000000E+07  0.00040  3.714E-03    0   0.7827   age104_m32            0.0000     6.2109E+01     8.7970   2.7457    93.0540
 35      0.0000     0.0000E+00    0.0000E+00    5.500000E+07  0.00040  2.982E-03    0   0.7593   age110_m32            0.0000     5.9241E+01     8.1748   2.6452    95.6637
 36      0.0000     0.0000E+00    0.0000E+00    1.015200E+08  0.00040  2.188E-03    0   0.7143   age116_m32            0.0000     8.5841E+01     7.8816   2.2226   105.8645
 37      0.0000     0.0000E+00    0.0000E+00    1.609000E+08  0.00040  1.690E-03    0   0.6856   age120_m32            0.0000     1.2883E+02     8.9922   1.9194   112.2828
 38      0.0000     0.0000E+00    0.0000E+00    2.861200E+08  0.00040  1.152E-03    0   0.6509   age125_m32            0.0000     1.6326E+02    10.0967   1.6303   116.7909
 39      0.0000     0.0000E+00    0.0000E+00    5.088000E+08  0.00040  7.331E-04    0   0.6182   age130_m32            0.0000     1.8052E+02    10.7291   1.4352   118.8155
 40      0.0000     0.0000E+00    0.0000E+00    9.047900E+08  0.00040  3.960E-04    0   0.5890   age135_m32            0.0000     8.8214E+01     7.8498   1.1016   112.4733
 41      0.0000     0.0000E+00    0.0000E+00    1.278050E+09  0.00040  2.854E-04    0   0.5687   age138_m32            0.0000     7.1510E+01     7.1994   0.8441   112.9009
 42      0.0000     0.0000E+00    0.0000E+00    1.434000E+09  0.00040  2.531E-04    0   0.5632   age139_m32            0.0000     6.9674E+01     7.1497   0.7842   112.7690
 43     33.6434     7.5627E+00    8.0072E+00    2.500000E+09  0.00040  1.488E-04    0   0.5386   age150_m32            0.0000     4.7660E+01     6.1741   0.5643   109.3279
 44      7.3451     2.7052E+00    2.7647E+00    4.250000E+09  0.00040  9.082E-05    0   0.5199   age158_m32            0.0000     2.0935E+01     4.6844   0.5809   101.4266
 45      0.0000     0.0000E+00    0.0000E+00    6.250000E+09  0.00040  6.362E-05    0   0.5076   age166_m32            0.0000     2.4955E+01     5.4039   0.6317    94.5874
 46      0.0000     0.0000E+00    0.0000E+00    7.500000E+09  0.00040  5.289E-05    0   0.5027   age171_m32            0.0000     2.6522E+01     5.5285   0.6106    92.8358
 47      0.0000     0.0000E+00    0.0000E+00    1.000000E+10  0.00040  3.972E-05    0   0.4948   age181_m32            0.0000     2.6645E+01     5.4523   0.5581    91.2678
 48      0.0000     0.0000E+00    0.0000E+00    1.300000E+10  0.00040  3.283E-05    0   0.4870   age193_m32            0.0000     1.8846E+01     4.6139   0.4666    95.6158
 49      0.0000     0.0000E+00    0.0000E+00    1.500000E+10  0.00040  2.925E-05    0   0.4854   age201_m32            0.0000     1.7090E+01     4.3642   0.4187    98.2575
 50      0.0000     0.0000E+00    0.0000E+00    1.800000E+10  0.00040  2.469E-05    0   0.4819   age213_m32            0.0000     1.6541E+01     4.2743   0.3652    99.2343
 51      0.0000     0.0000E+00    0.0000E+00    1.000000E+06  0.00400  1.114E-02    0   1.0000   age020_m42            0.0000     2.5127E+02    15.0913   4.0000    69.2293
 52      0.0000     0.0000E+00    0.0000E+00    3.160000E+06  0.00400  4.073E-02    0   0.9999   age045_m42            0.0000     7.9482E+01     9.9948   3.0709    86.5980
 53      0.0000     0.0000E+00    0.0000E+00    5.010000E+06  0.00400  2.534E-02    0   0.9488   age055_m42            0.0000     1.3897E+02    13.2074   3.5912    77.0568
 54      0.0000     0.0000E+00    0.0000E+00    6.610000E+06  0.00400  2.583E-02    0   0.9220   age061_m42            0.0000     6.6857E+01     9.2759   2.8411    89.1591
 55      0.0000     0.0000E+00    0.0000E+00    8.710000E+06  0.00400  1.706E-02    0   0.8983   age067_m42            0.0000     9.4780E+01    11.3252   2.7429    84.5433
 56      0.0000     0.0000E+00    0.0000E+00    1.000000E+07  0.00400  1.271E-02    0   0.8862   age070_m42            0.0000     1.2291E+02    12.9075   2.7731    81.4643
 57      0.0000     0.0000E+00    0.0000E+00    1.445000E+07  0.00400  7.666E-03    0   0.8571   age078_m42            0.0000     1.5105E+02    13.9587   3.2278    76.9685
 58      0.0000     0.0000E+00    0.0000E+00    2.512000E+07  0.00400  5.070E-03    0   0.8174   age090_m42            0.0000     1.1225E+02    12.2693   2.6365    83.1321
 59      0.0000     0.0000E+00    0.0000E+00    4.000000E+07  0.00400  3.505E-03    0   0.7851   age104_m42            0.0000     8.4237E+01    10.3883   2.2838    87.1717
 60      0.0000     0.0000E+00    0.0000E+00    5.500000E+07  0.00400  3.059E-03    0   0.7629   age110_m42            0.0000     4.9419E+01     7.1778   2.1825    97.5668
 61      0.0000     0.0000E+00    0.0000E+00    1.015200E+08  0.00400  2.268E-03    0   0.7207   age116_m42            0.0000     1.0447E+02     8.0414   1.8595   111.8351
 62      0.0000     0.0000E+00    0.0000E+00    1.609000E+08  0.00400  1.720E-03    0   0.6930   age120_m42            0.0000     1.1550E+02     8.3376   1.6845   114.8867
 63      0.0000     0.0000E+00    0.0000E+00    2.861200E+08  0.00400  1.079E-03    0   0.6613   age125_m42            0.0000     1.0581E+02     8.2802   1.3452   114.7972
 64      0.0000     0.0000E+00    0.0000E+00    5.088000E+08  0.00400  6.261E-04    0   0.6313   age130_m42            0.0000     1.2990E+02     9.0717   1.1035   119.7715
 65      0.0000     0.0000E+00    0.0000E+00    9.047900E+08  0.00400  3.535E-04    0   0.6024   age135_m42            0.0000     6.6506E+01     6.7953   0.7947   116.1853
 66      0.0000     0.0000E+00    0.0000E+00    1.278050E+09  0.00400  2.677E-04    0   0.5837   age138_m42            0.0000     1.1950E+01     3.5138   0.2352   108.1692
 67      0.0000     0.0000E+00    0.0000E+00    1.434000E+09  0.00400  1.910E-04    0   0.5716   age139_m42            0.0000     2.1097E+01     4.2065   0.3661   110.5998
 68      5.0705     1.7275E+00    1.8551E+00    2.500000E+09  0.00400  9.818E-05    0   0.5463   age150_m42            0.0000     3.3366E+00     1.8822   0.2212   100.8865
 69      0.0000     0.0000E+00    0.0000E+00    4.250000E+09  0.00400  5.491E-05    0   0.5269   age158_m42            0.0000     8.0810E+00     2.6976   0.1527    96.0445
 70      2.4195     2.0982E+00    2.1246E+00    6.250000E+09  0.00400  3.857E-05    0   0.5151   age166_m42            0.0000     1.1503E+01     3.0779   0.0439    94.1553
 71      4.3308     4.4669E+00    4.4870E+00    7.500000E+09  0.00400  3.243E-05    0   0.5110   age171_m42            0.0000     1.3626E+01     3.2811  -0.0294    93.4439
 72     10.6245     1.4661E+01    1.4491E+01    1.000000E+10  0.00400  2.424E-05    0   0.5028   age181_m42            0.0000     1.7981E+01     3.6770  -0.0994    92.5200
 73      0.0000     0.0000E+00    0.0000E+00    1.300000E+10  0.00400  1.883E-05    0   0.4927   age193_m42            0.0000     2.3471E+01     4.1156  -0.1280    91.8133
 74      0.0000     0.0000E+00    0.0000E+00    1.500000E+10  0.00400  1.685E-05    0   0.4919   age201_m42            0.0000     2.2666E+01     4.0781  -0.1241    91.8419
 75      0.0000     0.0000E+00    0.0000E+00    1.800000E+10  0.00400  1.452E-05    0   0.4874   age213_m42            0.0000     2.1323E+01     4.0083  -0.1117    92.1327
 76      0.0000     0.0000E+00    0.0000E+00    1.000000E+06  0.00800  1.286E-02    0   1.0000   age020_m52            0.0000     2.2578E+02    14.3075   4.0000    70.9242
 77      0.0000     0.0000E+00    0.0000E+00    3.160000E+06  0.00800  3.147E-02    0   0.9966   age045_m52            0.0000     2.0464E+02    14.5124   4.0000    71.7249
 78      0.0000     0.0000E+00    0.0000E+00    5.010000E+06  0.00800  2.664E-02    0   0.9443   age055_m52            0.0000     1.5843E+02    13.8619   3.7451    75.1546
 79      0.0000     0.0000E+00    0.0000E+00    6.610000E+06  0.00800  2.151E-02    0   0.9177   age061_m52            0.0000     1.1489E+02    11.9258   2.3925    82.2067
 80      0.0000     0.0000E+00    0.0000E+00    8.710000E+06  0.00800  1.628E-02    0   0.8948   age067_m52            0.0000     1.0950E+02    11.9090   2.7370    83.5723
 81      0.0000     0.0000E+00    0.0000E+00    1.000000E+07  0.00800  1.215E-02    0   0.8827   age070_m52            0.0000     1.2674E+02    12.7367   3.1025    81.0765
 82      0.0000     0.0000E+00    0.0000E+00    1.445000E+07  0.00800  8.739E-03    0   0.8552   age078_m52            0.0000     1.0861E+02    11.8361   3.1065    83.5961
 83      0.0000     0.0000E+00    0.0000E+00    2.512000E+07  0.00800  5.676E-03    0   0.8162   age090_m52            0.0000     7.8111E+01    10.0395   2.6045    91.5565
 84      0.0000     0.0000E+00    0.0000E+00    4.000000E+07  0.00800  3.939E-03    0   0.7841   age104_m52            0.0000     6.4338E+01     8.4686   2.3793    96.3848
 85      0.0000     0.0000E+00    0.0000E+00    5.500000E+07  0.00800  3.155E-03    0   0.7627   age110_m52            0.0000     6.1080E+01     7.5277   2.2912   100.3998
 86      0.0000     0.0000E+00    0.0000E+00    1.015200E+08  0.00800  2.206E-03    0   0.7226   age116_m52            0.0000     7.7601E+01     7.2830   1.9851   109.0716
 87      0.0000     0.0000E+00    0.0000E+00    1.609000E+08  0.00800  1.596E-03    0   0.6963   age120_m52            0.0000     8.8165E+01     7.6141   1.7280   112.4909
 88      0.0000     0.0000E+00    0.0000E+00    2.861200E+08  0.00800  1.002E-03    0   0.6665   age125_m52            0.0000     1.3497E+02     9.4405   1.3288   119.5251
 89      0.0000     0.0000E+00    0.0000E+00    5.088000E+08  0.00800  5.759E-04    0   0.6377   age130_m52            0.0000     1.4367E+02    10.1398   0.9446   125.1353
 90      0.0000     0.0000E+00    0.0000E+00    9.047900E+08  0.00800  2.972E-04    0   0.6086   age135_m52            0.0000     5.7589E+01     6.9596   0.5440   118.1898
 91      0.0000     0.0000E+00    0.0000E+00    1.278050E+09  0.00800  2.242E-04    0   0.5907   age138_m52            0.0000     1.0748E+01     3.4229   0.0699   110.7711
 92      0.0000     0.0000E+00    0.0000E+00    1.434000E+09  0.00800  1.645E-04    0   0.5787   age139_m52            0.0000     8.2230E+00     3.0333   0.2324   109.6280
 93      0.0000     0.0000E+00    0.0000E+00    2.500000E+09  0.00800  7.723E-05    0   0.5519   age150_m52            0.0000     5.7891E+00     2.3880  -0.0256   102.6712
 94      0.0000     0.0000E+00    0.0000E+00    4.250000E+09  0.00800  4.151E-05    0   0.5320   age158_m52            0.0000     8.1854E+00     2.7217  -0.0691    99.1805
 95      0.0000     0.0000E+00    0.0000E+00    6.250000E+09  0.00800  3.010E-05    0   0.5197   age166_m52            0.0000     1.4939E+01     3.4629  -0.2439    97.1659
 96      0.0003     3.9992E-04    4.0401E-04    7.500000E+09  0.00800  2.467E-05    0   0.5139   age171_m52            0.0000     1.6912E+01     3.6377  -0.2832    96.7163
 97     18.8638     3.3887E+01    3.3667E+01    1.000000E+10  0.00800  1.862E-05    0   0.5054   age181_m52            0.0000     2.3005E+01     4.1501  -0.4136    96.3811
 98     11.8781     2.7726E+01    2.7186E+01    1.300000E+10  0.00800  1.433E-05    0   0.4988   age193_m52            0.0000     3.3146E+01     4.7812  -0.5047    96.8138
 99      1.1460     3.0815E+00    2.9900E+00    1.500000E+10  0.00800  1.244E-05    0   0.4936   age201_m52            0.0000     3.7922E+01     5.0252  -0.5324    97.1749
100      0.0001     2.8986E-04    2.7852E-04    1.800000E+10  0.00800  1.070E-05    0   0.4888   age213_m52            0.0000     4.0588E+01     5.2059  -0.5693    97.0974
101      0.0000     0.0000E+00    0.0000E+00    1.000000E+06  0.02000  1.989E-02    0   1.0000   age020_m62            0.0000     2.4368E+02    15.0050   4.0000    69.5400
102      0.0000     0.0000E+00    0.0000E+00    3.160000E+06  0.02000  3.772E-02    0   0.9858   age045_m62            0.0000     2.0791E+02    15.3101   4.0000    70.6970
103      0.0000     0.0000E+00    0.0000E+00    5.010000E+06  0.02000  3.227E-02    0   0.9342   age055_m62            0.0000     1.0360E+02    11.5848   3.3843    81.9044
104      0.0000     0.0000E+00    0.0000E+00    6.610000E+06  0.02000  2.387E-02    0   0.9090   age061_m62            0.0000     1.4212E+02    13.6415   3.1888    79.2464
105      0.0000     0.0000E+00    0.0000E+00    8.710000E+06  0.02000  1.102E-02    0   0.8861   age067_m62            0.0000     2.8959E+02    19.4110   2.9490    70.2174
106      0.0000     0.0000E+00    0.0000E+00    1.000000E+07  0.02000  1.011E-02    0   0.8751   age070_m62            0.0000     2.2404E+02    17.0345   2.9224    74.0180
107      0.0000     0.0000E+00    0.0000E+00    1.445000E+07  0.02000  7.331E-03    0   0.8472   age078_m62            0.0000     1.7722E+02    15.0689   2.9024    76.7220
108      0.0000     0.0000E+00    0.0000E+00    2.512000E+07  0.02000  4.206E-03    0   0.8099   age090_m62            0.0000     1.8627E+02    15.2403   2.8366    75.6464
109      0.0000     0.0000E+00    0.0000E+00    4.000000E+07  0.02000  3.373E-03    0   0.7799   age104_m62            0.0000     7.5435E+01     9.8408   2.4552    90.2268
110      0.0000     0.0000E+00    0.0000E+00    5.500000E+07  0.02000  2.747E-03    0   0.7595   age110_m62            0.0000     5.6631E+01     7.9298   2.2816    97.6309
111      0.0000     0.0000E+00    0.0000E+00    1.015200E+08  0.02000  1.878E-03    0   0.7221   age116_m62            0.0000     8.3420E+01     7.7800   1.9623   109.4563
112      0.0000     0.0000E+00    0.0000E+00    1.609000E+08  0.02000  1.378E-03    0   0.6978   age120_m62            0.0000     1.2281E+02     8.8000   1.7102   116.0599
113      0.0000     0.0000E+00    0.0000E+00    2.861200E+08  0.02000  8.869E-04    0   0.6700   age125_m62            0.0000     2.0476E+02    11.3386   1.2003   126.1660
114      0.0000     0.0000E+00    0.0000E+00    5.088000E+08  0.02000  4.834E-04    0   0.6430   age130_m62            0.0000     1.6481E+02    10.8418   0.7833   127.9073
115      0.0000     0.0000E+00    0.0000E+00    9.047900E+08  0.02000  2.312E-04    0   0.6152   age135_m62            0.0000     5.3154E+01     6.4437   0.3424   120.1942
116      0.0000     0.0000E+00    0.0000E+00    1.278050E+09  0.02000  1.387E-04    0   0.5927   age138_m62            0.0000     9.4158E+00     3.0889   0.1041   109.7083
117      0.0000     0.0000E+00    0.0000E+00    1.434000E+09  0.02000  1.168E-04    0   0.5865   age139_m62            0.0000     6.1598E+00     2.5970   0.1088   106.8981
118      0.0000     0.0000E+00    0.0000E+00    2.500000E+09  0.02000  5.505E-05    0   0.5610   age150_m62            0.0000     8.7425E+00     3.0396  -0.2064   101.6464
119      0.0000     0.0000E+00    0.0000E+00    4.250000E+09  0.02000  3.070E-05    0   0.5407   age158_m62            0.0000     2.2498E+01     4.4386  -0.4982   101.4360
120      0.0000     0.0000E+00    0.0000E+00    6.250000E+09  0.02000  2.104E-05    0   0.5277   age166_m62            0.0000     3.3961E+01     5.2038  -0.6293   101.7929
121      0.0000     0.0000E+00    0.0000E+00    7.500000E+09  0.02000  1.770E-05    0   0.5223   age171_m62            0.0000     3.9634E+01     5.6150  -0.7221   102.3216
122      0.0000     0.0000E+00    0.0000E+00    1.000000E+10  0.02000  1.297E-05    0   0.5121   age181_m62            0.0000     5.3434E+01     6.4906  -0.8878   103.0447
123      0.0000     0.0000E+00    0.0000E+00    1.300000E+10  0.02000  9.691E-06    0   0.5047   age193_m62            0.0000     6.4150E+01     7.0709  -0.9744   103.4803
124      0.0000     0.0000E+00    0.0000E+00    1.500000E+10  0.02000  8.360E-06    0   0.4999   age201_m62            0.0000     7.4032E+01     7.4124  -1.0000   103.1831
125      0.0000     0.0000E+00    0.0000E+00    1.800000E+10  0.02000  6.911E-06    0   0.4946   age213_m62            0.0000     9.1330E+01     8.1799  -1.0000   102.5155
126      0.0000     0.0000E+00    0.0000E+00    1.000000E+06  0.05000  2.651E-02    0   0.9998   age020_m72            0.0000     2.3238E+02    14.5193   4.0000    70.5166
127      0.0000     0.0000E+00    0.0000E+00    3.160000E+06  0.05000  4.817E-02    0   0.9577   age045_m72            0.0000     1.6097E+02    13.9382   3.8602    74.7951
128      0.0000     0.0000E+00    0.0000E+00    5.010000E+06  0.05000  3.101E-02    0   0.9147   age055_m72            0.0000     1.5149E+02    13.6719   3.4916    77.4682
129      0.0000     0.0000E+00    0.0000E+00    6.610000E+06  0.05000  1.472E-02    0   0.8877   age061_m72            0.0000     2.4509E+02    17.4578   3.1486    72.3273
130      0.0000     0.0000E+00    0.0000E+00    8.710000E+06  0.05000  1.050E-02    0   0.8638   age067_m72            0.0000     1.9060E+02    15.2961   3.5026    74.3846
131      0.0000     0.0000E+00    0.0000E+00    1.000000E+07  0.05000  8.954E-03    0   0.8524   age070_m72            0.0000     1.5373E+02    13.5651   3.7501    75.7826
132      0.0000     0.0000E+00    0.0000E+00    1.445000E+07  0.05000  6.392E-03    0   0.8262   age078_m72            0.0000     1.3672E+02    12.7543   3.6748    77.4247
133      0.0000     0.0000E+00    0.0000E+00    2.512000E+07  0.05000  4.207E-03    0   0.7902   age090_m72            0.0000     9.1140E+01    10.5607   3.2136    84.1622
134      0.0000     0.0000E+00    0.0000E+00    4.000000E+07  0.05000  3.198E-03    0   0.7618   age104_m72            0.0000     5.3118E+01     6.9312   2.4538   100.6146
135      0.0000     0.0000E+00    0.0000E+00    5.500000E+07  0.05000  2.593E-03    0   0.7432   age110_m72            0.0000     6.5520E+01     7.2227   2.2926   104.9489
136      0.0000     0.0000E+00    0.0000E+00    1.015200E+08  0.05000  1.716E-03    0   0.7092   age116_m72            0.0000     1.0075E+02     8.2006   1.9993   111.4915
137      0.0000     0.0000E+00    0.0000E+00    1.609000E+08  0.05000  1.218E-03    0   0.6876   age120_m72            0.0000     1.4950E+02     9.4708   1.6269   118.5663
138      0.0000     0.0000E+00    0.0000E+00    2.861200E+08  0.05000  7.047E-04    0   0.6618   age125_m72            0.0000     2.0132E+02    11.5847   0.9737   127.1765
139      0.0000     0.0000E+00    0.0000E+00    5.088000E+08  0.05000  3.590E-04    0   0.6356   age130_m72            0.0000     1.3958E+02    10.2207   0.4381   128.1621
140      0.0002     3.7299E-05    4.4638E-05    9.047900E+08  0.05000  1.484E-04    0   0.6088   age135_m72            0.0000     1.7179E+01     4.0426  -0.0444   110.9236
141      5.8774     2.0837E+00    2.4265E+00    1.278050E+09  0.05000  9.435E-05    0   0.5924   age138_m72            0.0000     1.4230E+01     3.9495  -0.3808   105.2534
142      0.0001     5.4368E-05    6.2491E-05    1.434000E+09  0.05000  7.827E-05    0   0.5847   age139_m72            0.0000     1.3996E+01     3.7982  -0.3452   103.7993
143      0.0002     1.8638E-04    2.0456E-04    2.500000E+09  0.05000  3.759E-05    0   0.5583   age150_m72            0.0000     3.1860E+01     5.1217  -0.6324   101.5374
144      0.0000     0.0000E+00    0.0000E+00    4.250000E+09  0.05000  1.842E-05    0   0.5374   age158_m72            0.0000     5.0819E+01     6.4633  -0.9567   101.0921
145      0.0000     0.0000E+00    0.0000E+00    6.250000E+09  0.05000  1.207E-05    0   0.5242   age166_m72            0.0000     8.6736E+01     8.6012  -1.0000    98.1603
146      0.0000     0.0000E+00    0.0000E+00    7.500000E+09  0.05000  9.993E-06    0   0.5183   age171_m72            0.0000     9.8078E+01     9.3004  -1.0000    97.4225
147      0.0000     0.0000E+00    0.0000E+00    1.000000E+10  0.05000  7.291E-06    0   0.5081   age181_m72            0.0000     1.4991E+02    11.6884  -1.0000    95.4619
148      0.0000     0.0000E+00    0.0000E+00    1.300000E+10  0.05000  5.316E-06    0   0.5018   age193_m72            0.0000     2.6224E+02    15.2997  -1.0000    92.0515
149      0.0000     0.0000E+00    0.0000E+00    1.500000E+10  0.05000  4.497E-06    0   0.4972   age201_m72            0.0000     3.2369E+02    16.7480  -1.0000    90.8707
150      0.0000     0.0000E+00    0.0000E+00    1.800000E+10  0.05000  3.739E-06    0   0.4924   age213_m72            0.0000     4.1678E+02    18.6251  -1.0000    88.7789


## Synthesis Results - Average & Chains ##

# j      x_j: min, <> & last-chain-values for 1 ...  7 chains
  1      0.0000      0.0004      0.0000      0.0000      0.0000      0.0000      0.0000      0.0000      0.0000
  2      0.0000      0.0645      0.0474      0.4167      0.0000      0.1808      0.0628      0.0484      0.0428
  3      0.0000      0.0013      0.0000      0.0000      0.0000      0.0000      0.0000      0.0000      0.0000
  4      0.0000      0.0005      0.0000      0.0000      0.0000      0.0000      0.0000      0.0000      0.0000
  5      0.0000      0.0007      0.0000      0.0000      0.0000      0.0000      0.0000      0.0000      0.0000
  6      0.0000      0.0005      0.0000      0.0000      0.0000      0.0000      0.0000      0.0000      0.0005
  7      0.0000      0.0002      0.0000      0.0000      0.0000      0.0000      0.0000      0.0000      0.0000
  8      0.0000      0.0030      0.0008      0.0000      0.0000      0.0000      0.0000      0.0133      0.0000
  9      0.0000      0.0046      0.0451      0.0000      0.0000      0.0000      0.0000      0.0000      0.0000
 10      0.0000      0.0151      0.0000      0.0000      0.0015      0.0000      0.0000      0.0000      0.0000
 11      0.0000      0.0178      0.0000      0.0000      0.0000      0.0846      0.0000      0.0000      0.0451
 12      0.0000      0.0118      0.0000      0.0000      0.0000      0.0000      0.0000      0.0000      0.0000
 13      0.0000      0.0289      0.0000      0.0000      0.0000      0.0000      0.1543      0.0000      0.0000
 14      0.0000      0.0242      0.0000      0.0162      0.0000      0.0000      0.0000      0.0000      0.0209
 15      0.0000      0.0831      0.0528      0.0000      0.0151      0.0264      0.0000      0.2065      0.1204
 16      0.0000      0.0933      0.0173      0.0000      0.0000      0.0000      0.0000      0.0000      0.0000
 17      0.0000      0.0891      0.0000      0.0000      0.1227      0.0000      0.1973      0.0000      0.0000
 18      0.0000      0.0636      0.0000      0.1740      0.0282      0.0246      0.0000      0.0000      0.3375
 19      0.0000      0.0987      0.3243      0.1488      0.0000      0.4521      0.0743      0.0000      0.1516
 20      0.0004      0.0797      0.0000      0.0000      0.6262      0.0000      0.0000      0.1957      0.0000
 21      0.0000      0.0961      0.0000      0.0000      0.2093      0.1071      0.0000      0.0746      0.0000
 22      0.0000      0.0735      0.0000      0.0072      0.0584      0.0000      0.0000      0.0000      0.1561
 23      0.0002      0.0794      0.0000      0.0000      0.2582      0.0894      0.0000      0.0000      0.0000
 24      0.0000      0.1612      0.3071      1.1730      0.0000      0.0000      0.1060      0.0135      0.0000
 25      0.0000      0.1448      0.1141      0.0000      0.0373      0.1514      0.0834      0.4892      0.2614
 26      0.0000      0.0002      0.0000      0.0000      0.0000      0.0000      0.0000      0.0000      0.0000
 27      0.0000      0.0024      0.0000      0.0000      0.0000      0.0000      0.0000      0.0000      0.0000
 28      0.0000      0.0009      0.0000      0.0000      0.0000      0.0000      0.0000      0.0000      0.0000
 29      0.0000      0.0001      0.0000      0.0000      0.0000      0.0000      0.0000      0.0000      0.0000
 30      0.0000      0.0002      0.0000      0.0000      0.0000      0.0000      0.0000      0.0000      0.0000
 31      0.0000      0.0003      0.0000      0.0000      0.0000      0.0000      0.0000      0.0000      0.0000
 32      0.0000      0.0017      0.0000      0.0000      0.0000      0.0000      0.0000      0.0000      0.0000
 33      0.0000      0.0027      0.0000      0.0000      0.0000      0.0000      0.0000      0.0000      0.0000
 34      0.0000      0.0114      0.0000      0.0000      0.0000      0.0000      0.0000      0.0000      0.0000
 35      0.0000      0.0172      0.0000      0.0000      0.0190      0.0000      0.0000      0.0000      0.0134
 36      0.0000      0.0468      0.0040      0.0000      0.0000      0.1141      0.0000      0.0474      0.0000
 37      0.0000      0.0392      0.0000      0.0000      0.0358      0.0000      0.0000      0.0000      0.0054
 38      0.0000      0.0452      0.0000      0.0037      0.0000      0.0000      0.0000      0.0000      0.0000
 39      0.0000      0.0514      0.0000      0.0000      0.0515      0.0096      0.2677      0.3171      0.1863
 40      0.0000      0.1048      0.4549      0.0000      0.0000      0.8382      0.0000      0.0000      0.0000
 41      0.0000      0.0905      0.0000      0.2942      0.0258      0.0000      0.0000      0.5630      0.1290
 42      0.0000      0.0481      0.0000      0.0337      0.0000      0.0000      0.1943      0.0000      0.1174
 43     33.6434     33.4212     34.3216     33.2822     34.3404     33.0867     34.0015     33.3659     34.0869
 44      7.3451      6.4087      7.2026      6.1384      6.5462      6.3385      6.2596      6.8741      6.1960
 45      0.0000      0.1322      0.0434      0.0000      0.0000      0.1207      0.0000      0.0000      0.1717
 46      0.0000      0.1122      0.1584      0.0000      0.0000      0.5603      0.0314      0.2407      0.0000
 47      0.0000      0.1569      0.1580      0.0000      0.1275      0.0000      0.6461      0.0383      0.4588
 48      0.0000      0.2229      0.0355      0.0000      0.0000      0.0000      0.0000      0.2722      0.0000
 49      0.0000      0.2691      0.0000      0.9970      0.2335      0.0000      0.6969      0.1744      0.0305
 50      0.0000      0.2186      0.0000      0.0000      0.1917      0.3897      0.9281      0.0000      0.0054
 51      0.0000      0.0001      0.0000      0.0000      0.0000      0.0000      0.0070      0.0000      0.0000
 52      0.0000      0.0060      0.0000      0.0000      0.0000      0.0000      0.0000      0.0000      0.0000
 53      0.0000      0.0009      0.0000      0.0000      0.0000      0.0000      0.0000      0.0000      0.0000
 54      0.0000      0.0091      0.0000      0.0000      0.0000      0.0000      0.0000      0.0000      0.0037
 55      0.0000      0.0037      0.0000      0.0000      0.0330      0.0000      0.0000      0.0000      0.0000
 56      0.0000      0.0022      0.0000      0.0000      0.0000      0.0000      0.0000      0.0000      0.0000
 57      0.0000      0.0028      0.0000      0.0000      0.0000      0.0000      0.0000      0.0000      0.0000
 58      0.0000      0.0033      0.0000      0.0000      0.0000      0.0000      0.0000      0.0000      0.0000
 59      0.0000      0.0018      0.0000      0.0000      0.0000      0.0000      0.0000      0.0000      0.0000
 60      0.0000      0.0099      0.0000      0.0060      0.0000      0.0000      0.0000      0.0000      0.0801
 61      0.0000      0.0353      0.0000      0.1570      0.0000      0.0000      0.0000      0.0000      0.1627
 62      0.0000      0.0517      0.0000      0.1138      0.0000      0.0000      0.0000      0.0000      0.1516
 63      0.0000      0.0392      0.0000      0.1437      0.0000      0.0000      0.3155      0.0000      0.0000
 64      0.0000      0.0269      0.1025      0.0000      0.0000      0.0000      0.0000      0.0000      0.0163
 65      0.0000      0.0731      0.0000      0.0513      0.0000      0.0000      0.0159      0.0000      0.0000
 66      0.0000      0.0524      0.0000      0.0000      0.0048      0.0000      0.0000      0.0000      0.0000
 67      0.0000      0.2114      0.5876      0.0000      0.0000      0.6274      0.0000      0.0000      0.0000
 68      5.0705      0.8438      0.7725      1.8038      2.3927      2.9598      0.8394      0.4592      0.6644
 69      0.0000      0.2659      0.2362      0.0000      0.0000      0.7066      0.3070      0.5295      0.2365
 70      2.4195      0.7646      0.5220      0.5873      0.3624      0.9862      0.0388      1.0211      1.3802
 71      4.3308      0.4811      0.5845      0.0554      0.2921      0.0000      0.7852      0.6247      0.9748
 72     10.6245     15.9089     16.1519     16.1705     16.4367     15.2138     16.6299     16.0996     15.2531
 73      0.0000      0.3056      0.0429      0.1474      0.0000      0.0000      0.2791      0.0000      0.3829
 74      0.0000      0.1318      0.4094      0.3338      0.0000      0.0000      0.0000      0.0000      0.0000
 75      0.0000      0.0596      0.0000      0.0115      0.0000      0.0000      0.0660      0.0499      0.0000
 76      0.0000      0.0006      0.0000      0.0000      0.0000      0.0000      0.0000      0.0000      0.0000
 77      0.0000      0.0003      0.0000      0.0000      0.0000      0.0000      0.0000      0.0000      0.0000
 78      0.0000      0.0007      0.0000      0.0000      0.0000      0.0000      0.0000      0.0056      0.0000
 79      0.0000      0.0023      0.0000      0.0000      0.0017      0.0000      0.0000      0.0000      0.0000
 80      0.0000      0.0022      0.0000      0.0000      0.0000      0.0000      0.0000      0.0000      0.0000
 81      0.0000      0.0023      0.0000      0.0000      0.0000      0.0000      0.0000      0.0000      0.0000
 82      0.0000      0.0015      0.0000      0.0000      0.0000      0.0000      0.0000      0.0000      0.0000
 83      0.0000      0.0057      0.0000      0.0000      0.0000      0.0000      0.0000      0.0000      0.0000
 84      0.0000      0.0053      0.0000      0.0000      0.0000      0.0000      0.0000      0.0000      0.0000
 85      0.0000      0.0048      0.0000      0.0000      0.0000      0.0000      0.0000      0.0000      0.0000
 86      0.0000      0.0194      0.0000      0.1627      0.0000      0.0000      0.0000      0.0000      0.0000
 87      0.0000      0.0390      0.1714      0.0000      0.0000      0.0000      0.0000      0.0000      0.0000
 88      0.0000      0.0432      0.0000      0.0000      0.0000      0.0000      0.0000      0.0000      0.0000
 89      0.0000      0.0571      0.2876      0.0225      0.0000      0.0000      0.0843      0.0000      0.0000
 90      0.0000      0.0808      0.0000      0.0995      0.0000      0.0242      0.0000      0.0000      0.0000
 91      0.0000      0.0715      0.0000      0.0000      0.0030      0.0000      0.0000      0.0000      0.0000
 92      0.0000      0.0478      0.0347      0.0000      0.0000      0.0000      0.0000      0.0397      0.0000
 93      0.0000      0.1285      0.0000      0.0000      0.0000      0.0990      0.0062      0.0000      0.5992
 94      0.0000      0.3069      0.0859      0.0735      0.2069      0.2818      0.2866      1.4201      0.1487
 95      0.0000      0.3935      0.0000      0.0000      0.0000      0.0000      0.1422      0.0000      0.7062
 96      0.0003      0.8640      0.5192      0.0438      1.1832      0.8017      0.2220      0.7151      0.7541
 97     18.8638     17.1037     17.6095     17.5019     17.3494     17.2578     17.2051     17.5279     17.3349
 98     11.8781     11.0057     10.5674     11.6419     10.8697     11.3192     11.2203     11.2031     11.8221
 99      1.1460      1.9286      2.5170      1.7385      1.6820      2.0063      2.0392      1.9320      1.5641
100      0.0001      0.8293      0.8419      0.8435      1.0944      0.8903      0.9846      0.7271      0.5471
101      0.0000      0.0017      0.0000      0.0000      0.0000      0.0000      0.0000      0.0000      0.0000
102      0.0000      0.0008      0.0000      0.0000      0.0000      0.0000      0.0000      0.0000      0.0000
103      0.0000      0.0031      0.0000      0.0000      0.0000      0.0000      0.0000      0.0000      0.0000
104      0.0000      0.0024      0.0000      0.0000      0.0000      0.0000      0.0000      0.0000      0.0000
105      0.0000      0.0006      0.0000      0.0000      0.0000      0.0000      0.0000      0.0000      0.0000
106      0.0000      0.0015      0.0000      0.0000      0.0000      0.0000      0.0000      0.0000      0.0000
107      0.0000      0.0009      0.0000      0.0000      0.0000      0.0000      0.0000      0.0000      0.0000
108      0.0000      0.0007      0.0000      0.0000      0.0000      0.0000      0.0000      0.0000      0.0000
109      0.0000      0.0037      0.0000      0.0000      0.0000      0.0000      0.0000      0.0124      0.0000
110      0.0000      0.0041      0.0000      0.0000      0.0225      0.0000      0.0000      0.0000      0.0000
111      0.0000      0.0116      0.0095      0.0000      0.0000      0.0000      0.0000      0.0493      0.0000
112      0.0000      0.0177      0.0000      0.1109      0.0016      0.0000      0.0000      0.0000      0.0467
113      0.0000      0.0111      0.0000      0.0000      0.0000      0.0000      0.0000      0.0000      0.0000
114      0.0000      0.0661      0.0000      0.0000      0.0000      0.0004      0.0058      0.0000      0.0000
115      0.0000      0.0460      0.0000      0.0000      0.0000      0.0000      0.0000      0.0000      0.0000
116      0.0000      0.0933      0.0895      0.0286      0.0000      0.0056      0.0000      0.0000      0.0000
117      0.0000      0.2152      0.0000      0.0000      0.0000      0.0000      0.1635      0.0000      0.2321
118      0.0000      0.1130      0.3519      0.0396      0.0000      0.0000      0.1130      0.0000      0.0549
119      0.0000      0.2760      0.4743      0.0000      0.0000      0.0000      0.0000      0.0000      0.0000
120      0.0000      0.1942      0.0000      0.2700      0.0395      0.0000      0.7162      0.0490      0.0000
121      0.0000      0.0723      0.0000      0.0000      0.1242      0.0000      0.0000      0.0000      0.0000
122      0.0000      0.1624      0.3677      0.0000      0.0000      0.0000      0.0870      0.0000      0.0000
123      0.0000      0.0414      0.0000      0.0000      0.0000      0.0000      0.0000      0.0603      0.0126
124      0.0000      0.0286      0.0000      0.1105      0.0000      0.0000      0.0000      0.0667      0.0589
125      0.0000      0.0448      0.0000      0.0000      0.0000      0.0000      0.0000      0.0000      0.0000
126      0.0000      0.0004      0.0000      0.0000      0.0000      0.0000      0.0000      0.0000      0.0000
127      0.0000      0.0001      0.0000      0.0000      0.0000      0.0000      0.0000      0.0000      0.0000
128      0.0000      0.0008      0.0000      0.0000      0.0000      0.0000      0.0000      0.0000      0.0000
129      0.0000      0.0003      0.0000      0.0000      0.0000      0.0000      0.0000      0.0000      0.0000
130      0.0000      0.0007      0.0000      0.0000      0.0000      0.0000      0.0000      0.0000      0.0000
131      0.0000      0.0005      0.0001      0.0000      0.0000      0.0000      0.0000      0.0000      0.0000
132      0.0000      0.0007      0.0000      0.0000      0.0000      0.0000      0.0000      0.0000      0.0000
133      0.0000      0.0014      0.0000      0.0000      0.0000      0.0000      0.0000      0.0000      0.0000
134      0.0000      0.0031      0.0000      0.0000      0.0000      0.0000      0.0000      0.0000      0.0000
135      0.0000      0.0127      0.0000      0.0000      0.0000      0.0000      0.0000      0.0000      0.0335
136      0.0000      0.0153      0.0552      0.0000      0.0105      0.0000      0.0000      0.1110      0.0000
137      0.0000      0.0168      0.0196      0.0000      0.1674      0.0000      0.0000      0.0722      0.0000
138      0.0000      0.0281      0.0000      0.0000      0.0000      0.0000      0.0000      0.1953      0.0000
139      0.0000      0.0592      0.0000      0.0000      0.0000      0.0155      0.0000      0.0000      0.0862
140      0.0002      0.5925      0.0000      0.7253      0.5437      0.9151      0.8395      0.5536      0.1571
141      5.8774      1.7191      1.7214      3.0941      2.5828      1.9332      1.6677      2.3976      2.5714
142      0.0001      1.9419      2.6578      2.2319      2.2029      1.8964      2.2192      1.9839      2.5930
143      0.0002      0.2289      0.0000      0.0000      0.5077      0.4990      0.0000      0.0000      0.0000
144      0.0000      0.0389      0.0000      0.0000      0.0000      0.0000      0.0374      0.0000      0.0000
145      0.0000      0.0352      0.0000      0.0982      0.0000      0.0000      0.0000      0.0000      0.0000
146      0.0000      0.0426      0.1633      0.0000      0.0479      0.0116      0.0000      0.2993      0.0000
147      0.0000      0.0449      0.0000      0.0000      0.0000      0.2319      0.0336      0.0000      0.0000
148      0.0000      0.0170      0.0000      0.0015      0.0000      0.0000      0.0000      0.0000      0.0294
149      0.0000      0.0433      0.0000      0.0638      0.0000      0.0000      0.0591      0.0000      0.0000
150      0.0000      0.0360      0.0000      0.0000      0.0860      0.0000      0.0000      0.0000      0.0000

# j      m_j: min, <> & last-chain-values for 1 ...  7 chains
  1  0.0000E+00  3.2262E-06  0.0000E+00  0.0000E+00  0.0000E+00  0.0000E+00  0.0000E+00  0.0000E+00  0.0000E+00
  2  0.0000E+00  8.3452E-05  6.1676E-05  5.4196E-04  0.0000E+00  2.3883E-04  8.0683E-05  6.3037E-05  5.6503E-05
  3  0.0000E+00  4.0028E-06  0.0000E+00  0.0000E+00  0.0000E+00  0.0000E+00  0.0000E+00  0.0000E+00  0.0000E+00
  4  0.0000E+00  2.7897E-06  0.0000E+00  0.0000E+00  0.0000E+00  0.0000E+00  0.0000E+00  0.0000E+00  0.0000E+00
  5  0.0000E+00  5.3970E-06  0.0000E+00  0.0000E+00  0.0000E+00  0.0000E+00  0.0000E+00  0.0000E+00  0.0000E+00
  6  0.0000E+00  4.0011E-06  0.0000E+00  0.0000E+00  0.0000E+00  0.0000E+00  0.0000E+00  0.0000E+00  4.4868E-06
  7  0.0000E+00  2.1483E-06  0.0000E+00  0.0000E+00  0.0000E+00  0.0000E+00  0.0000E+00  0.0000E+00  0.0000E+00
  8  0.0000E+00  3.6267E-05  9.6995E-06  0.0000E+00  0.0000E+00  0.0000E+00  0.0000E+00  1.6457E-04  0.0000E+00
  9  0.0000E+00  6.0152E-05  5.9811E-04  0.0000E+00  0.0000E+00  0.0000E+00  0.0000E+00  0.0000E+00  0.0000E+00
 10  0.0000E+00  2.2899E-04  0.0000E+00  0.0000E+00  2.3763E-05  0.0000E+00  0.0000E+00  0.0000E+00  0.0000E+00
 11  0.0000E+00  3.2256E-04  0.0000E+00  0.0000E+00  0.0000E+00  1.5617E-03  0.0000E+00  0.0000E+00  8.3245E-04
 12  0.0000E+00  3.7350E-04  0.0000E+00  0.0000E+00  0.0000E+00  0.0000E+00  0.0000E+00  0.0000E+00  0.0000E+00
 13  0.0000E+00  1.0607E-03  0.0000E+00  0.0000E+00  0.0000E+00  0.0000E+00  5.6284E-03  0.0000E+00  0.0000E+00
 14  0.0000E+00  1.2598E-03  0.0000E+00  8.4874E-04  0.0000E+00  0.0000E+00  0.0000E+00  0.0000E+00  1.1115E-03
 15  0.0000E+00  6.5391E-03  4.1798E-03  0.0000E+00  1.2028E-03  2.1234E-03  0.0000E+00  1.6355E-02  9.6783E-03
 16  0.0000E+00  1.0635E-02  1.9875E-03  0.0000E+00  0.0000E+00  0.0000E+00  0.0000E+00  0.0000E+00  0.0000E+00
 17  0.0000E+00  1.1279E-02  0.0000E+00  0.0000E+00  1.5763E-02  0.0000E+00  2.4811E-02  0.0000E+00  0.0000E+00
 18  0.0000E+00  1.3100E-02  0.0000E+00  3.6051E-02  5.8944E-03  5.1727E-03  0.0000E+00  0.0000E+00  7.1045E-02
 19  0.0000E+00  3.0821E-02  1.0192E-01  4.6724E-02  0.0000E+00  1.4424E-01  2.3062E-02  0.0000E+00  4.8375E-02
 20  1.8700E-04  3.5596E-02  0.0000E+00  0.0000E+00  2.8392E-01  0.0000E+00  0.0000E+00  8.7945E-02  0.0000E+00
 21  0.0000E+00  4.9679E-02  0.0000E+00  0.0000E+00  1.0976E-01  5.6514E-02  0.0000E+00  3.8766E-02  0.0000E+00
 22  0.0000E+00  4.9034E-02  0.0000E+00  4.8383E-03  3.9542E-02  0.0000E+00  0.0000E+00  0.0000E+00  1.0632E-01
 23  1.3637E-04  6.7095E-02  0.0000E+00  0.0000E+00  2.2154E-01  7.7159E-02  0.0000E+00  0.0000E+00  0.0000E+00
 24  0.0000E+00  1.5580E-01  2.9868E-01  1.1402E+00  0.0000E+00  0.0000E+00  1.0183E-01  1.3128E-02  0.0000E+00
 25  0.0000E+00  1.6810E-01  1.3337E-01  0.0000E+00  4.3953E-02  1.7951E-01  9.6175E-02  5.7145E-01  3.1004E-01
 26  0.0000E+00  1.3579E-06  0.0000E+00  0.0000E+00  0.0000E+00  0.0000E+00  0.0000E+00  0.0000E+00  0.0000E+00
 27  0.0000E+00  3.7352E-06  0.0000E+00  0.0000E+00  0.0000E+00  0.0000E+00  0.0000E+00  0.0000E+00  0.0000E+00
 28  0.0000E+00  2.6256E-06  0.0000E+00  0.0000E+00  0.0000E+00  0.0000E+00  0.0000E+00  0.0000E+00  0.0000E+00
 29  0.0000E+00  4.8216E-07  0.0000E+00  0.0000E+00  0.0000E+00  0.0000E+00  0.0000E+00  0.0000E+00  0.0000E+00
 30  0.0000E+00  8.9725E-07  0.0000E+00  0.0000E+00  0.0000E+00  0.0000E+00  0.0000E+00  0.0000E+00  0.0000E+00
 31  0.0000E+00  2.3682E-06  0.0000E+00  0.0000E+00  0.0000E+00  0.0000E+00  0.0000E+00  0.0000E+00  0.0000E+00
 32  0.0000E+00  1.2814E-05  0.0000E+00  0.0000E+00  0.0000E+00  0.0000E+00  0.0000E+00  0.0000E+00  0.0000E+00
 33  0.0000E+00  2.8381E-05  0.0000E+00  0.0000E+00  0.0000E+00  0.0000E+00  0.0000E+00  0.0000E+00  0.0000E+00
 34  0.0000E+00  1.4820E-04  0.0000E+00  0.0000E+00  0.0000E+00  0.0000E+00  0.0000E+00  0.0000E+00  0.0000E+00
 35  0.0000E+00  2.6985E-04  0.0000E+00  0.0000E+00  3.0216E-04  0.0000E+00  0.0000E+00  0.0000E+00  2.1436E-04
 36  0.0000E+00  9.3977E-04  8.1177E-05  0.0000E+00  0.0000E+00  2.3422E-03  0.0000E+00  9.5747E-04  0.0000E+00
 37  0.0000E+00  9.7924E-04  0.0000E+00  0.0000E+00  9.0657E-04  0.0000E+00  0.0000E+00  0.0000E+00  1.3798E-04
 38  0.0000E+00  1.5737E-03  0.0000E+00  1.2869E-04  0.0000E+00  0.0000E+00  0.0000E+00  0.0000E+00  0.0000E+00
 39  0.0000E+00  2.6680E-03  0.0000E+00  0.0000E+00  2.7134E-03  5.0838E-04  1.3805E-02  1.6558E-02  9.8758E-03
 40  0.0000E+00  9.5967E-03  4.1908E-02  0.0000E+00  0.0000E+00  7.8386E-02  0.0000E+00  0.0000E+00  0.0000E+00
 41  0.0000E+00  1.1095E-02  0.0000E+00  3.6282E-02  3.2126E-03  0.0000E+00  0.0000E+00  6.9472E-02  1.6168E-02
 42  0.0000E+00  6.5878E-03  0.0000E+00  4.6485E-03  0.0000E+00  0.0000E+00  2.6447E-02  0.0000E+00  1.6428E-02
 43  8.0072E+00  7.4464E+00  7.6947E+00  7.4569E+00  7.7655E+00  7.5294E+00  7.5271E+00  7.4788E+00  7.7577E+00
 44  2.7647E+00  2.2582E+00  2.5538E+00  2.1751E+00  2.3411E+00  2.2812E+00  2.1915E+00  2.4368E+00  2.2302E+00
 45  0.0000E+00  6.4915E-02  2.1444E-02  0.0000E+00  0.0000E+00  6.0537E-02  0.0000E+00  0.0000E+00  8.6128E-02
 46  0.0000E+00  6.5640E-02  9.3278E-02  0.0000E+00  0.0000E+00  3.3479E-01  1.8269E-02  1.4165E-01  0.0000E+00
 47  0.0000E+00  1.2029E-01  1.2190E-01  0.0000E+00  9.9208E-02  0.0000E+00  4.9222E-01  2.9555E-02  3.5933E-01
 48  0.0000E+00  2.0353E-01  3.2634E-02  0.0000E+00  0.0000E+00  0.0000E+00  0.0000E+00  2.5007E-01  0.0000E+00
 49  0.0000E+00  2.7490E-01  0.0000E+00  1.0241E+00  2.4211E-01  0.0000E+00  7.0728E-01  1.7923E-01  3.1808E-02
 50  0.0000E+00  2.6259E-01  0.0000E+00  0.0000E+00  2.3377E-01  4.7822E-01  1.1079E+00  0.0000E+00  6.6480E-03
 51  0.0000E+00  3.8441E-07  0.0000E+00  0.0000E+00  0.0000E+00  0.0000E+00  3.8347E-05  0.0000E+00  0.0000E+00
 52  0.0000E+00  8.9997E-06  0.0000E+00  0.0000E+00  0.0000E+00  0.0000E+00  0.0000E+00  0.0000E+00  0.0000E+00
 53  0.0000E+00  1.9607E-06  0.0000E+00  0.0000E+00  0.0000E+00  0.0000E+00  0.0000E+00  0.0000E+00  0.0000E+00
 54  0.0000E+00  2.0089E-05  0.0000E+00  0.0000E+00  0.0000E+00  0.0000E+00  0.0000E+00  0.0000E+00  8.4014E-06
 55  0.0000E+00  1.2154E-05  0.0000E+00  0.0000E+00  1.0858E-04  0.0000E+00  0.0000E+00  0.0000E+00  0.0000E+00
 56  0.0000E+00  9.6326E-06  0.0000E+00  0.0000E+00  0.0000E+00  0.0000E+00  0.0000E+00  0.0000E+00  0.0000E+00
 57  0.0000E+00  1.9168E-05  0.0000E+00  0.0000E+00  0.0000E+00  0.0000E+00  0.0000E+00  0.0000E+00  0.0000E+00
 58  0.0000E+00  3.2981E-05  0.0000E+00  0.0000E+00  0.0000E+00  0.0000E+00  0.0000E+00  0.0000E+00  0.0000E+00
 59  0.0000E+00  2.4628E-05  0.0000E+00  0.0000E+00  0.0000E+00  0.0000E+00  0.0000E+00  0.0000E+00  0.0000E+00
 60  0.0000E+00  1.5209E-04  0.0000E+00  9.3190E-05  0.0000E+00  0.0000E+00  0.0000E+00  0.0000E+00  1.2567E-03
 61  0.0000E+00  6.8998E-04  0.0000E+00  3.0875E-03  0.0000E+00  0.0000E+00  0.0000E+00  0.0000E+00  3.2504E-03
 62  0.0000E+00  1.2816E-03  0.0000E+00  2.8383E-03  0.0000E+00  0.0000E+00  0.0000E+00  0.0000E+00  3.8399E-03
 63  0.0000E+00  1.4785E-03  0.0000E+00  5.4501E-03  0.0000E+00  0.0000E+00  1.1827E-02  0.0000E+00  0.0000E+00
 64  0.0000E+00  1.6684E-03  6.4026E-03  0.0000E+00  0.0000E+00  0.0000E+00  0.0000E+00  0.0000E+00  1.0358E-03
 65  0.0000E+00  7.6645E-03  0.0000E+00  5.4062E-03  0.0000E+00  0.0000E+00  1.6581E-03  0.0000E+00  0.0000E+00
 66  0.0000E+00  7.0373E-03  0.0000E+00  0.0000E+00  6.5586E-04  0.0000E+00  0.0000E+00  0.0000E+00  0.0000E+00
 67  0.0000E+00  3.8937E-02  1.0891E-01  0.0000E+00  0.0000E+00  1.1804E-01  0.0000E+00  0.0000E+00  0.0000E+00
 68  1.8551E+00  2.8900E-01  2.6625E-01  6.2125E-01  8.3175E-01  1.0354E+00  2.8565E-01  1.5822E-01  2.3245E-01
 69  0.0000E+00  1.5703E-01  1.4036E-01  0.0000E+00  0.0000E+00  4.2631E-01  1.8019E-01  3.1466E-01  1.4269E-01
 70  2.1246E+00  6.2851E-01  4.3177E-01  4.8551E-01  3.0232E-01  8.2805E-01  3.1700E-02  8.4442E-01  1.1589E+00
 71  4.4870E+00  4.6661E-01  5.7043E-01  5.4032E-02  2.8759E-01  0.0000E+00  7.5666E-01  6.0951E-01  9.6573E-01
 72  1.4491E+01  2.0312E+01  2.0751E+01  2.0762E+01  2.1300E+01  1.9840E+01  2.1097E+01  2.0680E+01  1.9893E+01
 73  0.0000E+00  4.9222E-01  6.9452E-02  2.3868E-01  0.0000E+00  0.0000E+00  4.4663E-01  0.0000E+00  6.2992E-01
 74  0.0000E+00  2.3682E-01  7.4034E-01  6.0320E-01  0.0000E+00  0.0000E+00  0.0000E+00  0.0000E+00  0.0000E+00
 75  0.0000E+00  1.2324E-01  0.0000E+00  2.3964E-02  0.0000E+00  0.0000E+00  1.3543E-01  1.0374E-01  0.0000E+00
 76  0.0000E+00  2.9864E-06  0.0000E+00  0.0000E+00  0.0000E+00  0.0000E+00  0.0000E+00  0.0000E+00  0.0000E+00
 77  0.0000E+00  5.6089E-07  0.0000E+00  0.0000E+00  0.0000E+00  0.0000E+00  0.0000E+00  0.0000E+00  0.0000E+00
 78  0.0000E+00  1.4567E-06  0.0000E+00  0.0000E+00  0.0000E+00  0.0000E+00  0.0000E+00  1.2275E-05  0.0000E+00
 79  0.0000E+00  6.1164E-06  0.0000E+00  0.0000E+00  4.5926E-06  0.0000E+00  0.0000E+00  0.0000E+00  0.0000E+00
 80  0.0000E+00  7.4364E-06  0.0000E+00  0.0000E+00  0.0000E+00  0.0000E+00  0.0000E+00  0.0000E+00  0.0000E+00
 81  0.0000E+00  1.0129E-05  0.0000E+00  0.0000E+00  0.0000E+00  0.0000E+00  0.0000E+00  0.0000E+00  0.0000E+00
 82  0.0000E+00  8.8230E-06  0.0000E+00  0.0000E+00  0.0000E+00  0.0000E+00  0.0000E+00  0.0000E+00  0.0000E+00
 83  0.0000E+00  5.0803E-05  0.0000E+00  0.0000E+00  0.0000E+00  0.0000E+00  0.0000E+00  0.0000E+00  0.0000E+00
 84  0.0000E+00  6.5449E-05  0.0000E+00  0.0000E+00  0.0000E+00  0.0000E+00  0.0000E+00  0.0000E+00  0.0000E+00
 85  0.0000E+00  7.1127E-05  0.0000E+00  0.0000E+00  0.0000E+00  0.0000E+00  0.0000E+00  0.0000E+00  0.0000E+00
 86  0.0000E+00  3.9152E-04  0.0000E+00  3.2988E-03  0.0000E+00  0.0000E+00  0.0000E+00  0.0000E+00  0.0000E+00
 87  0.0000E+00  1.0486E-03  4.6313E-03  0.0000E+00  0.0000E+00  0.0000E+00  0.0000E+00  0.0000E+00  0.0000E+00
 88  0.0000E+00  1.7682E-03  0.0000E+00  0.0000E+00  0.0000E+00  0.0000E+00  0.0000E+00  0.0000E+00  0.0000E+00
 89  0.0000E+00  3.8949E-03  1.9722E-02  1.5412E-03  0.0000E+00  0.0000E+00  5.7058E-03  0.0000E+00  0.0000E+00
 90  0.0000E+00  1.0182E-02  0.0000E+00  1.2607E-02  0.0000E+00  3.1130E-03  0.0000E+00  0.0000E+00  0.0000E+00
 91  0.0000E+00  1.1602E-02  0.0000E+00  0.0000E+00  4.9842E-04  0.0000E+00  0.0000E+00  0.0000E+00  0.0000E+00
 92  0.0000E+00  1.0351E-02  7.5607E-03  0.0000E+00  0.0000E+00  0.0000E+00  0.0000E+00  8.6520E-03  0.0000E+00
 93  0.0000E+00  5.6522E-02  0.0000E+00  0.0000E+00  0.0000E+00  4.4481E-02  2.7293E-03  0.0000E+00  2.6924E-01
 94  0.0000E+00  2.4212E-01  6.8221E-02  5.8348E-02  1.6563E-01  2.2705E-01  2.2466E-01  1.1271E+00  1.1982E-01
 95  0.0000E+00  4.1815E-01  0.0000E+00  0.0000E+00  0.0000E+00  0.0000E+00  1.5017E-01  0.0000E+00  7.6665E-01
 96  4.0401E-04  1.1079E+00  6.6990E-01  5.6413E-02  1.5398E+00  1.0499E+00  2.8281E-01  9.2239E-01  9.8775E-01
 97  3.3667E+01  2.8576E+01  2.9605E+01  2.9405E+01  2.9420E+01  2.9450E+01  2.8561E+01  2.9461E+01  2.9584E+01
 98  2.7186E+01  2.3581E+01  2.2783E+01  2.5083E+01  2.3637E+01  2.4771E+01  2.3886E+01  2.4148E+01  2.5874E+01
 99  2.9900E+00  4.7104E+00  6.1858E+00  4.2700E+00  4.1694E+00  5.0049E+00  4.9486E+00  4.7471E+00  3.9022E+00
100  2.7852E-04  2.3320E+00  2.3821E+00  2.3851E+00  3.1234E+00  2.5570E+00  2.7510E+00  2.0569E+00  1.5713E+00
101  0.0000E+00  5.3261E-06  0.0000E+00  0.0000E+00  0.0000E+00  0.0000E+00  0.0000E+00  0.0000E+00  0.0000E+00
102  0.0000E+00  1.3045E-06  0.0000E+00  0.0000E+00  0.0000E+00  0.0000E+00  0.0000E+00  0.0000E+00  0.0000E+00
103  0.0000E+00  5.4944E-06  0.0000E+00  0.0000E+00  0.0000E+00  0.0000E+00  0.0000E+00  0.0000E+00  0.0000E+00
104  0.0000E+00  5.5973E-06  0.0000E+00  0.0000E+00  0.0000E+00  0.0000E+00  0.0000E+00  0.0000E+00  0.0000E+00
105  0.0000E+00  2.8387E-06  0.0000E+00  0.0000E+00  0.0000E+00  0.0000E+00  0.0000E+00  0.0000E+00  0.0000E+00
106  0.0000E+00  7.9898E-06  0.0000E+00  0.0000E+00  0.0000E+00  0.0000E+00  0.0000E+00  0.0000E+00  0.0000E+00
107  0.0000E+00  6.7187E-06  0.0000E+00  0.0000E+00  0.0000E+00  0.0000E+00  0.0000E+00  0.0000E+00  0.0000E+00
108  0.0000E+00  8.8337E-06  0.0000E+00  0.0000E+00  0.0000E+00  0.0000E+00  0.0000E+00  0.0000E+00  0.0000E+00
109  0.0000E+00  5.2165E-05  0.0000E+00  0.0000E+00  0.0000E+00  0.0000E+00  0.0000E+00  1.7781E-04  0.0000E+00
110  0.0000E+00  6.9898E-05  0.0000E+00  0.0000E+00  3.8867E-04  0.0000E+00  0.0000E+00  0.0000E+00  0.0000E+00
111  0.0000E+00  2.7507E-04  2.2684E-04  0.0000E+00  0.0000E+00  0.0000E+00  0.0000E+00  1.1748E-03  0.0000E+00
112  0.0000E+00  5.5033E-04  0.0000E+00  3.4776E-03  4.9898E-05  0.0000E+00  0.0000E+00  0.0000E+00  1.4879E-03
113  0.0000E+00  5.1602E-04  0.0000E+00  0.0000E+00  0.0000E+00  0.0000E+00  0.0000E+00  0.0000E+00  0.0000E+00
114  0.0000E+00  5.4143E-03  0.0000E+00  0.0000E+00  0.0000E+00  2.9415E-05  4.7130E-04  0.0000E+00  0.0000E+00
115  0.0000E+00  7.5388E-03  0.0000E+00  0.0000E+00  0.0000E+00  0.0000E+00  0.0000E+00  0.0000E+00  0.0000E+00
116  0.0000E+00  2.4545E-02  2.3681E-02  7.5723E-03  0.0000E+00  1.4954E-03  0.0000E+00  0.0000E+00  0.0000E+00
117  0.0000E+00  6.6505E-02  0.0000E+00  0.0000E+00  0.0000E+00  0.0000E+00  5.0200E-02  0.0000E+00  7.3271E-02
118  0.0000E+00  7.0853E-02  2.2210E-01  2.4970E-02  0.0000E+00  0.0000E+00  7.0406E-02  0.0000E+00  3.5149E-02
119  0.0000E+00  2.9921E-01  5.1741E-01  0.0000E+00  0.0000E+00  0.0000E+00  0.0000E+00  0.0000E+00  0.0000E+00
120  0.0000E+00  2.9981E-01  0.0000E+00  4.1923E-01  6.1945E-02  0.0000E+00  1.0987E+00  7.6142E-02  0.0000E+00
121  0.0000E+00  1.3130E-01  0.0000E+00  0.0000E+00  2.2897E-01  0.0000E+00  0.0000E+00  0.0000E+00  0.0000E+00
122  0.0000E+00  3.9480E-01  8.9933E-01  0.0000E+00  0.0000E+00  0.0000E+00  2.1003E-01  0.0000E+00  0.0000E+00
123  0.0000E+00  1.3280E-01  0.0000E+00  0.0000E+00  0.0000E+00  0.0000E+00  0.0000E+00  1.9432E-01  4.1325E-02
124  0.0000E+00  1.0522E-01  0.0000E+00  4.0903E-01  0.0000E+00  0.0000E+00  0.0000E+00  2.4713E-01  2.2134E-01
125  0.0000E+00  1.9722E-01  0.0000E+00  0.0000E+00  0.0000E+00  0.0000E+00  0.0000E+00  0.0000E+00  0.0000E+00
126  0.0000E+00  8.5420E-07  0.0000E+00  0.0000E+00  0.0000E+00  0.0000E+00  0.0000E+00  0.0000E+00  0.0000E+00
127  0.0000E+00  7.3429E-08  0.0000E+00  0.0000E+00  0.0000E+00  0.0000E+00  0.0000E+00  0.0000E+00  0.0000E+00
128  0.0000E+00  1.4589E-06  0.0000E+00  0.0000E+00  0.0000E+00  0.0000E+00  0.0000E+00  0.0000E+00  0.0000E+00
129  0.0000E+00  1.1951E-06  0.0000E+00  0.0000E+00  0.0000E+00  0.0000E+00  0.0000E+00  0.0000E+00  0.0000E+00
130  0.0000E+00  3.7000E-06  0.0000E+00  0.0000E+00  0.0000E+00  0.0000E+00  0.0000E+00  0.0000E+00  0.0000E+00
131  0.0000E+00  3.1687E-06  6.9576E-07  0.0000E+00  0.0000E+00  0.0000E+00  0.0000E+00  0.0000E+00  0.0000E+00
132  0.0000E+00  5.8773E-06  0.0000E+00  0.0000E+00  0.0000E+00  0.0000E+00  0.0000E+00  0.0000E+00  0.0000E+00
133  0.0000E+00  1.6697E-05  0.0000E+00  0.0000E+00  0.0000E+00  0.0000E+00  0.0000E+00  0.0000E+00  0.0000E+00
134  0.0000E+00  4.5063E-05  0.0000E+00  0.0000E+00  0.0000E+00  0.0000E+00  0.0000E+00  0.0000E+00  0.0000E+00
135  0.0000E+00  2.2445E-04  0.0000E+00  0.0000E+00  0.0000E+00  0.0000E+00  0.0000E+00  0.0000E+00  6.0346E-04
136  0.0000E+00  3.8937E-04  1.4119E-03  0.0000E+00  2.7213E-04  0.0000E+00  0.0000E+00  2.8402E-03  0.0000E+00
137  0.0000E+00  5.8287E-04  6.8467E-04  0.0000E+00  5.9047E-03  0.0000E+00  0.0000E+00  2.5236E-03  0.0000E+00
138  0.0000E+00  1.6224E-03  0.0000E+00  0.0000E+00  0.0000E+00  0.0000E+00  0.0000E+00  1.1357E-02  0.0000E+00
139  0.0000E+00  6.4504E-03  0.0000E+00  0.0000E+00  0.0000E+00  1.7284E-03  0.0000E+00  0.0000E+00  9.6010E-03
140  4.4638E-05  1.4961E-01  0.0000E+00  1.8418E-01  1.3936E-01  2.3603E-01  2.1064E-01  1.4063E-01  4.0523E-02
141  2.4265E+00  6.6441E-01  6.6944E-01  1.2025E+00  1.0131E+00  7.6312E-01  6.4040E-01  9.3219E-01  1.0151E+00
142  6.2491E-05  8.9295E-01  1.2298E+00  1.0320E+00  1.0281E+00  8.9064E-01  1.0139E+00  9.1773E-01  1.2179E+00
143  2.0456E-04  2.0930E-01  0.0000E+00  0.0000E+00  4.7107E-01  4.6597E-01  0.0000E+00  0.0000E+00  0.0000E+00
144  0.0000E+00  6.9806E-02  0.0000E+00  0.0000E+00  0.0000E+00  0.0000E+00  6.6659E-02  0.0000E+00  0.0000E+00
145  0.0000E+00  9.4123E-02  0.0000E+00  2.6403E-01  0.0000E+00  0.0000E+00  0.0000E+00  0.0000E+00  0.0000E+00
146  0.0000E+00  1.3593E-01  5.2455E-01  0.0000E+00  1.5524E-01  3.7677E-02  0.0000E+00  9.6143E-01  0.0000E+00
147  0.0000E+00  1.9270E-01  0.0000E+00  0.0000E+00  0.0000E+00  1.0162E+00  1.4316E-01  0.0000E+00  0.0000E+00
148  0.0000E+00  9.8723E-02  0.0000E+00  8.6761E-03  0.0000E+00  0.0000E+00  0.0000E+00  0.0000E+00  1.7425E-01
149  0.0000E+00  2.9481E-01  0.0000E+00  4.3645E-01  0.0000E+00  0.0000E+00  3.9944E-01  0.0000E+00  0.0000E+00
150  0.0000E+00  2.9175E-01  0.0000E+00  0.0000E+00  7.0739E-01  0.0000E+00  0.0000E+00  0.0000E+00  0.0000E+00

# AV, chi2 & Mass for <> & i_chain = 1 ...  7 solutions
AV      -0.0043     -0.0026     -0.0027     -0.0010     -0.0059      0.0011     -0.0038     -0.0035     -0.0033
chi2 2.2483E+00  2.2811E+00  2.2736E+00  2.2691E+00  2.2660E+00  2.2716E+00  2.2749E+00  2.2745E+00  2.2688E+00
Mass 2.4364E-10  2.6086E-10  2.5920E-10  2.5997E-10  2.5587E-10  2.5669E-10  2.6212E-10  2.5898E-10  2.5513E-10
  30.19                                  [v0_min (km/s) before EX0s...]
  47.71                                  [vd_min (km/s) before EX0s...]


## Synthetic spectrum (Best Model) ##l_obs f_obs f_syn wei
 3070    [Nl_obs]
 3359.00    0.00000   0.39657   -2.000
 3360.00    0.00000   0.35596   -2.000
 3361.00    0.08722   0.34531   -1.000
 3362.00    0.19619   0.36786   -1.000
 3363.00    0.22105   0.41040   -1.000
 3364.00    0.24578   0.45006   -1.000
 3365.00    0.25644   0.46665   -1.000
 3366.00    0.25275   0.45831   -1.000
 3367.00    0.24760   0.43657   -1.000
 3368.00    0.24040   0.41350   -1.000
 3369.00    0.22535   0.39695   -1.000
 3370.00    0.21673   0.38389   -1.000
 3371.00    0.22179   0.37293   -1.000
 3372.00    0.22320   0.37018   -1.000
 3373.00    0.23372   0.38387   -1.000
 3374.00    0.25270   0.41263   -1.000
 3375.00    0.27115   0.44902   -1.000
 3376.00    0.28642   0.47945   -1.000
 3377.00    0.29945   0.48930   -1.000
 3378.00    0.30573   0.47389   -1.000
 3379.00    0.29365   0.44609   -1.000
 3380.00    0.28472   0.42508   -1.000
 3381.00    0.28157   0.42132   -1.000
 3382.00    0.29422   0.43327   -1.000
 3383.00    0.30451   0.45038   -1.000
 3384.00    0.29897   0.46383   -1.000
 3385.00    0.31210   0.47481   -1.000
 3386.00    0.32402   0.48031   -1.000
 3387.00    0.32089   0.47777   -1.000
 3388.00    0.32680   0.47490   -1.000
 3389.00    0.34781   0.47690   -1.000
 3390.00    0.37344   0.47904   -1.000
 3391.00    0.38156   0.47461   -1.000
 3392.00    0.36737   0.45972   -1.000
 3393.00    0.35382   0.44537   -1.000
 3394.00    0.35185   0.44619   -1.000
 3395.00    0.36308   0.46413   -1.000
 3396.00    0.38432   0.49095   -1.000
 3397.00    0.40383   0.51663   -1.000
 3398.00    0.42166   0.53692   -1.000
 3399.00    0.43544   0.54694   -1.000
 3400.00    0.43864   0.54393   -1.000
 3401.00    0.44029   0.53183   -1.000
 3402.00    0.43850   0.51300   -1.000
 3403.00    0.42498   0.49546   -1.000
 3404.00    0.41407   0.48496   -1.000
 3405.00    0.40950   0.48033   -1.000
 3406.00    0.39804   0.47564   -1.000
 3407.00    0.39026   0.46801   -1.000
 3408.00    0.38861   0.46152   -1.000
 3409.00    0.39119   0.46142   -1.000
 3410.00    0.40438   0.47010   -1.000
 3411.00    0.41234   0.47712   -1.000
 3412.00    0.40851   0.47204   -1.000
 3413.00    0.39924   0.45707   -1.000
 3414.00    0.38735   0.44380   -1.000
 3415.00    0.38328   0.44398   -1.000
 3416.00    0.38613   0.45629   -1.000
 3417.00    0.40112   0.47546   -1.000
 3418.00    0.42711   0.49774   -1.000
 3419.00    0.44273   0.51890   -1.000
 3420.00    0.45409   0.53341   -1.000
 3421.00    0.45805   0.53398   -1.000
 3422.00    0.44452   0.51984   -1.000
 3423.00    0.43363   0.50235   -1.000
 3424.00    0.43468   0.49356   -1.000
 3425.00    0.44126   0.49527   -1.000
 3426.00    0.44704   0.50051   -1.000
 3427.00    0.45630   0.50745   -1.000
 3428.00    0.45915   0.52231   -1.000
 3429.00    0.46529   0.54412   -1.000
 3430.00    0.48206   0.55777   -1.000
 3431.00    0.49023   0.54885   -1.000
 3432.00    0.47847   0.52472   -1.000
 3433.00    0.46434   0.50487   -1.000
 3434.00    0.46714   0.50398   -1.000
 3435.00    0.47451   0.51747   -1.000
 3436.00    0.47557   0.52575   -1.000
 3437.00    0.46832   0.51880   -1.000
 3438.00    0.44328   0.49866   -1.000
 3439.00    0.41536   0.46855   -1.000
 3440.00    0.39991   0.43390   -1.000
 3441.00    0.38827   0.40397  186.920
 3442.00    0.37912   0.38930  198.688
 3443.00    0.37810   0.39230  203.267
 3444.00    0.38339   0.40712   -1.000
 3445.00    0.40134   0.42750   -1.000
 3446.00    0.42868   0.45206   -1.000
 3447.00    0.44813   0.48057   -1.000
 3448.00    0.45579   0.50811   -1.000
 3449.00    0.47077   0.52911   -1.000
 3450.00    0.49025   0.53509   -1.000
 3451.00    0.49939   0.52184   -1.000
 3452.00    0.48636   0.50075   -1.000
 3453.00    0.46915   0.48895   -1.000
 3454.00    0.47397   0.49200   -1.000
 3455.00    0.48848   0.50210   -1.000
 3456.00    0.49892   0.50683   -1.000
 3457.00    0.49751   0.49936  771.054
 3458.00    0.48605   0.48284  771.054
 3459.00    0.46934   0.46589  771.054
 3460.00    0.45578   0.45212  336.287
 3461.00    0.44276   0.44632  164.282
 3462.00    0.44707   0.45692  165.084
 3463.00    0.47022   0.47935  265.450
 3464.00    0.49319   0.49651  771.054
 3465.00    0.50987   0.49762   -1.000
 3466.00    0.50931   0.49135   -1.000
 3467.00    0.50116   0.49333   -1.000
 3468.00    0.50963   0.50811  771.054
 3469.00    0.53016   0.52759   -1.000
 3470.00    0.54114   0.53948  771.054
 3471.00    0.53948   0.53669   -1.000
 3472.00    0.52945   0.52025   -1.000
 3473.00    0.51281   0.49394   -1.000
 3474.00    0.49401   0.46396   -1.000
 3475.00    0.47276   0.43942   -1.000
 3476.00    0.44748   0.43080   -1.000
 3477.00    0.44739   0.44396  167.260
 3478.00    0.47310   0.47057  169.320
 3479.00    0.49694   0.49696  266.156
 3480.00    0.50825   0.51499   -1.000
 3481.00    0.51903   0.52076  771.054
 3482.00    0.52375   0.51503   -1.000
 3483.00    0.52024   0.50430   -1.000
 3484.00    0.50907   0.49706   -1.000
 3485.00    0.50788   0.50307   -1.000
 3486.00    0.52850   0.52233   -1.000
 3487.00    0.54425   0.53682   -1.000
 3488.00    0.54792   0.53121   -1.000
 3489.00    0.53876   0.50758   -1.000
 3490.00    0.50915   0.48131   -1.000
 3491.00    0.48702   0.46841   -1.000
 3492.00    0.47908   0.47171   -1.000
 3493.00    0.48295   0.48152  771.054
 3494.00    0.49452   0.48669   -1.000
 3495.00    0.50032   0.48149   -1.000
 3496.00    0.49056   0.46954   -1.000
 3497.00    0.48423   0.46691   -1.000
 3498.00    0.49980   0.48319   -1.000
 3499.00    0.53057   0.50955   -1.000
 3500.00    0.56142   0.52898   -1.000
 3501.00    0.58026   0.53679   -1.000
 3502.00    0.58245   0.54187   -1.000
 3503.00    0.57849   0.54741   -1.000
 3504.00    0.57158   0.54777   -1.000
 3505.00    0.55815   0.53949   -1.000
 3506.00    0.55147   0.52750   -1.000
 3507.00    0.55641   0.52034   -1.000
 3508.00    0.55900   0.51885   -1.000
 3509.00    0.56164   0.51607   -1.000
 3510.00    0.56111   0.50845   -1.000
 3511.00    0.54481   0.49834   -1.000
 3512.00    0.52892   0.48739   -1.000
 3513.00    0.52497   0.47490   -1.000
 3514.00    0.51882   0.46750   -1.000
 3515.00    0.51859   0.47731   -1.000
 3516.00    0.53985   0.50713   -1.000
 3517.00    0.56949   0.54183   -1.000
 3518.00    0.58322   0.56061   -1.000
 3519.00    0.57570   0.55369   -1.000
 3520.00    0.54850   0.52950   -1.000
 3521.00    0.53181   0.50346   -1.000
 3522.00    0.51663   0.48340   -1.000
 3523.00    0.49503   0.46547   -1.000
 3524.00    0.47571   0.44615   -1.000
 3525.00    0.45449   0.43162   -1.000
 3526.00    0.44988   0.43442  165.566
 3527.00    0.47220   0.45773  168.730
 3528.00    0.49958   0.49222  259.619
 3529.00    0.53223   0.52318   -1.000
 3530.00    0.55874   0.53991   -1.000
 3531.00    0.56346   0.54109   -1.000
 3532.00    0.55442   0.53534   -1.000
 3533.00    0.55346   0.53394   -1.000
 3534.00    0.56351   0.53977   -1.000
 3535.00    0.56126   0.54736   -1.000
 3536.00    0.56746   0.55325   -1.000
 3537.00    0.57331   0.56010   -1.000
 3538.00    0.57091   0.57136  771.054
 3539.00    0.57817   0.58294  771.054
 3540.00    0.58304   0.58531  771.054
 3541.00    0.57854   0.57797  771.054
 3542.00    0.57427   0.57166   -1.000
 3543.00    0.56814   0.57446   -1.000
 3544.00    0.57000   0.58332   -1.000
 3545.00    0.57511   0.58866   -1.000
 3546.00    0.56429   0.58581   -1.000
 3547.00    0.55175   0.57843   -1.000
 3548.00    0.54826   0.57327   -1.000
 3549.00    0.55449   0.57378   -1.000
 3550.00    0.55456   0.57729   -1.000
 3551.00    0.55838   0.57790   -1.000
 3552.00    0.55729   0.56968   -1.000
 3553.00    0.53636   0.55495   -1.000
 3554.00    0.52271   0.54338   -1.000
 3555.00    0.52234   0.54241   -1.000
 3556.00    0.53323   0.54925   -1.000
 3557.00    0.53636   0.55537   -1.000
 3558.00    0.53549   0.55523   -1.000
 3559.00    0.52638   0.55194   -1.000
 3560.00    0.52595   0.55288   -1.000
 3561.00    0.53840   0.56151   -1.000
 3562.00    0.54559   0.57216   -1.000
 3563.00    0.55097   0.56917   -1.000
 3564.00    0.53419   0.54026  771.054
 3565.00    0.48816   0.49761   -1.000
 3566.00    0.46165   0.46824  370.246
 3567.00    0.45751   0.46227  167.435
 3568.00    0.45554   0.46542  170.940
 3569.00    0.45336   0.45990  169.295
 3570.00    0.44724   0.44751  170.874
 3571.00    0.45079   0.44286  175.764
 3572.00    0.46802   0.45160   -1.000
 3573.00    0.48587   0.46582   -1.000
 3574.00    0.49760   0.47679   -1.000
 3575.00    0.50297   0.48410   -1.000
 3576.00    0.50468   0.49137   -1.000
 3577.00    0.50781   0.49565   -1.000
 3578.00    0.50017   0.49088   -1.000
 3579.00    0.47911   0.47246   -1.000
 3580.00    0.45104   0.44542  389.234
 3581.00    0.42531   0.42151  175.300
 3582.00    0.41313   0.41148  187.749
 3583.00    0.42021   0.41685  194.622
 3584.00    0.41598   0.42062  195.642
 3585.00    0.39622   0.41081   -1.000
 3586.00    0.38736   0.39582  203.584
 3587.00    0.39348   0.39054  208.902
 3588.00    0.41282   0.40359  206.619
 3589.00    0.43637   0.43234  195.852
 3590.00    0.46525   0.46741  185.781
 3591.00    0.50255   0.49864  173.800
 3592.00    0.53024   0.51700   -1.000
 3593.00    0.53721   0.52204   -1.000
 3594.00    0.54524   0.52481   -1.000
 3595.00    0.55246   0.53727   -1.000
 3596.00    0.56566   0.55794   -1.000
 3597.00    0.58492   0.57591   -1.000
 3598.00    0.59781   0.58725   -1.000
 3599.00    0.60191   0.59469   -1.000
 3600.00    0.59471   0.59578  771.054
 3601.00    0.58348   0.58209  771.054
 3602.00    0.56583   0.55518   -1.000
 3603.00    0.54186   0.52634   -1.000
 3604.00    0.52721   0.50783   -1.000
 3605.00    0.52526   0.50400   -1.000
 3606.00    0.52678   0.50614   -1.000
 3607.00    0.52568   0.50270   -1.000
 3608.00    0.51524   0.49003   -1.000
 3609.00    0.49363   0.47753   -1.000
 3610.00    0.49557   0.47798   -1.000
 3611.00    0.51352   0.49209   -1.000
 3612.00    0.52164   0.50860   -1.000
 3613.00    0.52880   0.52135   -1.000
 3614.00    0.53804   0.53453  771.054
 3615.00    0.54518   0.55091   -1.000
 3616.00    0.55197   0.55635  771.054
 3617.00    0.54007   0.53486   -1.000
 3618.00    0.50040   0.49535   -1.000
 3619.00    0.47294   0.46815   -1.000
 3620.00    0.48179   0.47428  387.741
 3621.00    0.51296   0.50620  237.159
 3622.00    0.54118   0.54147  771.054
 3623.00    0.56666   0.56478  771.054
 3624.00    0.58775   0.57973   -1.000
 3625.00    0.60550   0.60047   -1.000
 3626.00    0.62143   0.62789  771.054
 3627.00    0.62749   0.65104   -1.000
 3628.00    0.62941   0.65427   -1.000
 3629.00    0.60475   0.62604   -1.000
 3630.00    0.55443   0.57251   -1.000
 3631.00    0.50669   0.52099   -1.000
 3632.00    0.48469   0.49704   -1.000
 3633.00    0.49121   0.50373   -1.000
 3634.00    0.50461   0.52508   -1.000
 3635.00    0.51845   0.54410   -1.000
 3636.00    0.53747   0.55631   -1.000
 3637.00    0.56385   0.56956   -1.000
 3638.00    0.58599   0.58990  771.054
 3639.00    0.60238   0.61247   -1.000
 3640.00    0.61467   0.62617   -1.000
 3641.00    0.60585   0.62315   -1.000
 3642.00    0.58293   0.60492   -1.000
 3643.00    0.56576   0.58065   -1.000
 3644.00    0.55019   0.55970   -1.000
 3645.00    0.53269   0.54477   -1.000
 3646.00    0.52384   0.53255   -1.000
 3647.00    0.51596   0.52226   -1.000
 3648.00    0.52014   0.51884  771.054
 3649.00    0.53193   0.52444   -1.000
 3650.00    0.55002   0.53952   -1.000
 3651.00    0.57032   0.56298   -1.000
 3652.00    0.59074   0.59022  771.054
 3653.00    0.60880   0.61331  302.323
 3654.00    0.62096   0.62815  120.386
 3655.00    0.62366   0.63749  117.896
 3656.00    0.63255   0.64695  116.699
 3657.00    0.63654   0.65857  115.990
 3658.00    0.64700   0.66777  114.682
 3659.00    0.64700   0.67190  113.229
 3660.00    0.65283   0.67104  111.983
 3661.00    0.65130   0.66372  112.088
 3662.00    0.64322   0.65060  112.501
 3663.00    0.62749   0.63705  113.756
 3664.00    0.61751   0.62968  115.223
 3665.00    0.61847   0.63003  116.844
 3666.00    0.62426   0.63249  116.928
 3667.00    0.62363   0.62979  115.978
 3668.00    0.62109   0.61872  116.871
 3669.00    0.61202   0.60636  118.984
 3670.00    0.60438   0.60478  120.822
 3671.00    0.61029   0.61757  122.573
 3672.00    0.63067   0.63571  120.409
 3673.00    0.64243   0.64769  116.540
 3674.00    0.64607   0.65006  114.877
 3675.00    0.63869   0.64316  114.625
 3676.00    0.62900   0.62664  114.700
 3677.00    0.60957   0.60447  116.052
 3678.00    0.59327   0.58269  119.716
 3679.00    0.59001   0.56781  123.413
 3680.00    0.59244   0.56434   -1.000
 3681.00    0.59842   0.57124   -1.000
 3682.00    0.60163   0.58424  127.562
 3683.00    0.60365   0.59532  124.057
 3684.00    0.60335   0.59511  121.273
 3685.00    0.59335   0.57920  121.512
 3686.00    0.57167   0.55518  125.198
 3687.00    0.55489   0.53946  130.389
 3688.00    0.56309   0.54554  134.773
 3689.00    0.58710   0.57322  135.068
 3690.00    0.61448   0.60923  129.409
 3691.00    0.64340   0.63727  120.761
 3692.00    0.64281   0.64575  114.207
 3693.00    0.63321   0.63898  112.214
 3694.00    0.63293   0.63018  113.861
 3695.00    0.63055   0.62534  116.550
 3696.00    0.63511   0.62460  117.431
 3697.00    0.64395   0.62858  116.709
 3698.00    0.65087   0.64397  115.534
 3699.00    0.67093   0.66829  113.321
 3700.00    0.69434   0.68877  109.838
 3701.00    0.69813   0.69053  107.495
 3702.00    0.66782   0.66248  107.193
 3703.00    0.62270   0.61110  110.209
 3704.00    0.56882   0.55581  116.987
 3705.00    0.53664   0.51751  128.272
 3706.00    0.53520   0.50613   -1.000
 3707.00    0.54254   0.51512   -1.000
 3708.00    0.56255   0.52966   -1.000
 3709.00    0.57533   0.54246   -1.000
 3710.00    0.58599   0.55496   -1.000
 3711.00    0.59718   0.57114   -1.000
 3712.00    0.62810   0.59618   -1.000
 3713.00    0.66501   0.62890   -1.000
 3714.00    0.69508   0.66190   -1.000
 3715.00    0.71035   0.68318   -1.000
 3716.00    0.71219   0.68586   -1.000
 3717.00    0.69776   0.66950   -1.000
 3718.00    0.65482   0.63196  109.973
 3719.00    0.58114   0.57118  116.621
 3720.00    0.51802   0.50211  129.636
 3721.00    0.48064   0.45381   -1.000
 3722.00    0.47912   0.44793   43.819
 3723.00    0.52065   0.48303   22.809
 3724.00    0.58330   0.54291   -1.000
 3725.00    0.63358   0.59699   -1.000
 3726.00    0.65392   0.62213   -1.000
 3727.00    0.63936   0.62438  118.088
 3728.00    0.62930   0.62288  119.989
 3729.00    0.63720   0.62571  123.082
 3730.00    0.64225   0.62491  123.100
 3731.00    0.61971   0.60481  122.028
 3732.00    0.57329   0.55595  124.642
 3733.00    0.51625   0.49079   -1.000
 3734.00    0.46032   0.43099   42.728
 3735.00    0.42492   0.39555   16.820
 3736.00    0.42228   0.39818   18.448
 3737.00    0.45720   0.43712   18.622
 3738.00    0.51816   0.49858   17.413
 3739.00    0.58093   0.56643   22.119
 3740.00    0.63143   0.62062  138.994
 3741.00    0.65385   0.64629  126.902
 3742.00    0.64719   0.64040  121.614
 3743.00    0.61994   0.61279  122.625
 3744.00    0.58574   0.57729  128.411
 3745.00    0.55227   0.54552  136.494
 3746.00    0.52253   0.51889  144.566
 3747.00    0.49625   0.48978  152.556
 3748.00    0.46252   0.45449   44.764
 3749.00    0.43269   0.42698   16.806
 3750.00    0.44242   0.42637   17.633
 3751.00    0.50280   0.46267   24.032
 3752.00    0.57487   0.52418   -1.000
 3753.00    0.63368   0.59263   -1.000
 3754.00    0.68353   0.65106   -1.000
 3755.00    0.71710   0.68418   -1.000
 3756.00    0.70472   0.68165  109.766
 3757.00    0.66619   0.64752  110.056
 3758.00    0.60994   0.60385  118.718
 3759.00    0.57300   0.57810  134.039
 3760.00    0.58645   0.57999  144.574
 3761.00    0.61854   0.59699  141.111
 3762.00    0.64245   0.61185   -1.000
 3763.00    0.65209   0.61808   -1.000
 3764.00    0.65119   0.61904   -1.000
 3765.00    0.64953   0.61417   -1.000
 3766.00    0.64814   0.60240   -1.000
 3767.00    0.62105   0.58737   -1.000
 3768.00    0.60362   0.57116   -1.000
 3769.00    0.59908   0.55624   -1.000
 3770.00    0.59188   0.54361   -1.000
 3771.00    0.59173   0.54466   -1.000
 3772.00    0.61317   0.56875   -1.000
 3773.00    0.66193   0.60554   -1.000
 3774.00    0.68497   0.63738   -1.000
 3775.00    0.68644   0.65758   -1.000
 3776.00    0.70871   0.66993   -1.000
 3777.00    0.72341   0.68311   -1.000
 3778.00    0.73253   0.70244   -1.000
 3779.00    0.74036   0.72571  111.650
 3780.00    0.76046   0.74936  109.419
 3781.00    0.78268   0.76724  106.026
 3782.00    0.78853   0.77689  104.077
 3783.00    0.78976   0.78000  103.423
 3784.00    0.78987   0.77287  102.991
 3785.00    0.76527   0.74897  103.714
 3786.00    0.72380   0.71351  107.022
 3787.00    0.69186   0.67790  113.450
 3788.00    0.66546   0.65177  121.280
 3789.00    0.65827   0.64059  126.222
 3790.00    0.66430   0.64142  127.811
 3791.00    0.66251   0.64503  127.054
 3792.00    0.65602   0.64013  125.018
 3793.00    0.63983   0.62227  124.647
 3794.00    0.60652   0.59436  127.395
 3795.00    0.58573   0.56290  132.159
 3796.00    0.55710   0.53095   -1.000
 3797.00    0.51838   0.49609  141.504
 3798.00    0.49698   0.46971   -1.000
 3799.00    0.51302   0.47406   -1.000
 3800.00    0.57142   0.51459   -1.000
 3801.00    0.63016   0.57646   -1.000
 3802.00    0.67510   0.63816   -1.000
 3803.00    0.71176   0.68229   -1.000
 3804.00    0.73344   0.70619   -1.000
 3805.00    0.72904   0.70941  115.032
 3806.00    0.70788   0.69785  115.071
 3807.00    0.69551   0.69023  117.595
 3808.00    0.70255   0.69956  121.552
 3809.00    0.73217   0.72337  122.334
 3810.00    0.74219   0.74623  118.592
 3811.00    0.74571   0.75196  114.843
 3812.00    0.72965   0.73406  114.569
 3813.00    0.69283   0.69934  117.927
 3814.00    0.65220   0.66159  124.661
 3815.00    0.62596   0.63654  132.375
 3816.00    0.62859   0.63399  139.811
 3817.00    0.64260   0.64626  143.736
 3818.00    0.65645   0.65383  140.247
 3819.00    0.64172   0.63973  136.891
 3820.00    0.60788   0.61340  141.246
 3821.00    0.59591   0.60015  150.717
 3822.00    0.60986   0.60555  155.418
 3823.00    0.61968   0.61141  150.662
 3824.00    0.59227   0.59775  145.987
 3825.00    0.54896   0.56834   -1.000
 3826.00    0.53275   0.54206   50.471
 3827.00    0.52713   0.52846   17.154
 3828.00    0.52666   0.52471   17.382
 3829.00    0.52297   0.52474   17.188
 3830.00    0.51601   0.52079   16.906
 3831.00    0.50194   0.50399   16.756
 3832.00    0.46344   0.47508   17.116
 3833.00    0.43281   0.43844   18.059
 3834.00    0.42018   0.40896   19.296
 3835.00    0.41934   0.39786   19.612
 3836.00    0.43012   0.40239   19.097
 3837.00    0.43807   0.41448   18.409
 3838.00    0.42980   0.42859   18.217
 3839.00    0.43748   0.44475   18.636
 3840.00    0.47407   0.47098   18.883
 3841.00    0.51650   0.51322   18.330
 3842.00    0.57150   0.56447   22.597
 3843.00    0.61858   0.61408  154.776
 3844.00    0.65121   0.64961  141.238
 3845.00    0.66737   0.66892  133.999
 3846.00    0.66852   0.68185  132.251
 3847.00    0.66995   0.69416   -1.000
 3848.00    0.67398   0.70033   -1.000
 3849.00    0.66612   0.69685   -1.000
 3850.00    0.64871   0.69200   -1.000
 3851.00    0.65317   0.69627   -1.000
 3852.00    0.67347   0.71083   -1.000
 3853.00    0.68577   0.72419   -1.000
 3854.00    0.67241   0.72426   -1.000
 3855.00    0.66076   0.71219   -1.000
 3856.00    0.64602   0.69629   -1.000
 3857.00    0.63139   0.67842   -1.000
 3858.00    0.61474   0.65706   -1.000
 3859.00    0.57743   0.63871   -1.000
 3860.00    0.56279   0.63774   16.396
 3861.00    0.59528   0.66025   17.087
 3862.00    0.65634   0.69686   21.390
 3863.00    0.70745   0.72717   -1.000
 3864.00    0.71983   0.73664  133.377
 3865.00    0.70649   0.73175   -1.000
 3866.00    0.69424   0.72555   -1.000
 3867.00    0.69410   0.72285   -1.000
 3868.00    0.68996   0.72079   -1.000
 3869.00    0.66497   0.71273   -1.000
 3870.00    0.62938   0.69312   -1.000
 3871.00    0.60141   0.66664   -1.000
 3872.00    0.58864   0.64470   -1.000
 3873.00    0.60999   0.64008   20.800
 3874.00    0.65162   0.65784  154.729
 3875.00    0.68154   0.68330  140.217
 3876.00    0.68560   0.69119  129.391
 3877.00    0.65578   0.67211  126.753
 3878.00    0.61229   0.64521   -1.000
 3879.00    0.60296   0.63044   -1.000
 3880.00    0.61247   0.62891  150.849
 3881.00    0.60473   0.63191   -1.000
 3882.00    0.58571   0.63078   -1.000
 3883.00    0.59176   0.62644   -1.000
 3884.00    0.62250   0.61719  147.809
 3885.00    0.62168   0.59457   -1.000
 3886.00    0.59039   0.55620   -1.000
 3887.00    0.54384   0.51342   -1.000
 3888.00    0.53012   0.48427   -1.000
 3889.00    0.53855   0.48151   -1.000
 3890.00    0.57764   0.50781   -1.000
 3891.00    0.63477   0.55746   -1.000
 3892.00    0.67682   0.60915   -1.000
 3893.00    0.69849   0.64043   -1.000
 3894.00    0.69564   0.65144   -1.000
 3895.00    0.70263   0.65762   -1.000
 3896.00    0.71120   0.67201   -1.000
 3897.00    0.72931   0.69016   -1.000
 3898.00    0.74693   0.70250   -1.000
 3899.00    0.74231   0.70797   -1.000
 3900.00    0.74308   0.71259   -1.000
 3901.00    0.75207   0.72136   -1.000
 3902.00    0.75147   0.72887  107.639
 3903.00    0.74062   0.72832  107.124
 3904.00    0.73582   0.71800  109.005
 3905.00    0.71688   0.70606  113.339
 3906.00    0.70830   0.70612  116.192
 3907.00    0.72745   0.72425  118.712
 3908.00    0.77136   0.75677  116.196
 3909.00    0.80232   0.78962  109.004
 3910.00    0.81583   0.81114  102.720
 3911.00    0.83128   0.82268  100.715
 3912.00    0.84415   0.82796   99.826
 3913.00    0.83164   0.82619   98.952
 3914.00    0.81981   0.81749   98.768
 3915.00    0.81345   0.80665  100.175
 3916.00    0.79744   0.79848  102.344
 3917.00    0.78837   0.79135  104.518
 3918.00    0.77881   0.77947  105.834
 3919.00    0.75229   0.76074  107.621
 3920.00    0.72784   0.73983  111.170
 3921.00    0.71718   0.72530  116.234
 3922.00    0.72118   0.72353  121.126
 3923.00    0.72926   0.73142  122.744
 3924.00    0.73022   0.73640  121.295
 3925.00    0.71693   0.72807  119.724
 3926.00    0.68053   0.70173   -1.000
 3927.00    0.62242   0.65874   -1.000
 3928.00    0.56297   0.60542   -1.000
 3929.00    0.47421   0.54892   -1.000
 3930.00    0.39106   0.49120   18.645
 3931.00    0.33665   0.42863   21.854
 3932.00    0.27656   0.36249   25.619
 3933.00    0.22848   0.30787   30.261
 3934.00    0.21854   0.28516   34.923
 3935.00    0.24224   0.30737   -1.000
 3936.00    0.29917   0.36516   34.681
 3937.00    0.37518   0.43961   29.715
 3938.00    0.46779   0.51621   24.517
 3939.00    0.54252   0.58156   20.245
 3940.00    0.59645   0.63039   21.683
 3941.00    0.63661   0.66157   -1.000
 3942.00    0.65034   0.67530   -1.000
 3943.00    0.65397   0.68086   -1.000
 3944.00    0.66772   0.69067   -1.000
 3945.00    0.69451   0.71005   -1.000
 3946.00    0.73867   0.73359  128.665
 3947.00    0.76244   0.75020  117.717
 3948.00    0.75442   0.75815  112.127
 3949.00    0.75900   0.76540  111.086
 3950.00    0.78905   0.77500  109.584
 3951.00    0.80185   0.78028  105.582
 3952.00    0.78656   0.77865  102.946
 3953.00    0.77612   0.77900  103.709
 3954.00    0.79424   0.78359  104.561
 3955.00    0.81290   0.78344  102.481
 3956.00    0.79088   0.77408  100.643
 3957.00    0.76931   0.76198  102.335
 3958.00    0.77399   0.75561  105.737
 3959.00    0.78058   0.74806   -1.000
 3960.00    0.74600   0.72059  105.581
 3961.00    0.66957   0.67156  109.792
 3962.00    0.60488   0.61810  122.242
 3963.00    0.56128   0.57382  137.681
 3964.00    0.52270   0.53532  150.764
 3965.00    0.46633   0.48685   59.985
 3966.00    0.38706   0.41829   17.502
 3967.00    0.30507   0.33901   20.732
 3968.00    0.25144   0.27457   25.567
 3969.00    0.23643   0.24571   30.720
 3970.00    0.27032   0.26058   32.759
 3971.00    0.33694   0.31367   29.577
 3972.00    0.41440   0.38684   24.331
 3973.00    0.49082   0.46331   20.071
 3974.00    0.56495   0.53564   20.985
 3975.00    0.63141   0.59832   -1.000
 3976.00    0.68642   0.65278   -1.000
 3977.00    0.73721   0.70116   -1.000
 3978.00    0.77742   0.74475   -1.000
 3979.00    0.82595   0.78338   -1.000
 3980.00    0.86412   0.80899   -1.000
 3981.00    0.85916   0.81851   -1.000
 3982.00    0.84354   0.81743   92.264
 3983.00    0.84144   0.81629   93.167
 3984.00    0.85608   0.82486   94.526
 3985.00    0.88103   0.84143   -1.000
 3986.00    0.88722   0.85894   91.574
 3987.00    0.89444   0.87545   89.833
 3988.00    0.90237   0.88970   88.336
 3989.00    0.91270   0.89854   86.793
 3990.00    0.92553   0.90375   86.198
 3991.00    0.94903   0.91134   -1.000
 3992.00    0.96220   0.92308   -1.000
 3993.00    0.96309   0.93419   83.486
 3994.00    0.96271   0.93594   82.018
 3995.00    0.94663   0.92413   83.267
 3996.00    0.91427   0.90488   85.295
 3997.00    0.90676   0.89175   87.197
 3998.00    0.91113   0.89523   88.688
 3999.00    0.93239   0.91374   88.889
 4000.00    0.96955   0.93756   86.413
 4001.00    0.99012   0.95794   82.577
 4002.00    0.98697   0.96821   80.080
 4003.00    0.99040   0.96211   78.861
 4004.00    0.96017   0.93681   78.223
 4005.00    0.90832   0.90298   80.503
 4006.00    0.89119   0.88594   85.894
 4007.00    0.91807   0.89931   89.367
 4008.00    0.96804   0.93185   -1.000
 4009.00    0.99039   0.96191   82.788
 4010.00    1.00000   0.97865   79.951
 4011.00    1.00795   0.98452   78.985
 4012.00    0.99779   0.98469   78.242
 4013.00    0.98948   0.98487   78.144
 4014.00    1.00088   0.98780   78.705
 4015.00    1.00465   0.99111   78.947
 4016.00    1.00415   0.99169   78.232
 4017.00    0.99182   0.99078   77.417
 4018.00    0.99166   0.99375   78.188
 4019.00    1.00561   1.00124   78.929
 4020.00    1.02117   1.00811   78.361
 4021.00    1.01918   1.00937   77.365
 4022.00    1.00257   1.00489   77.755
 4023.00    0.99096   0.99809   78.809
 4024.00    0.98962   0.99199   79.262
 4025.00    0.99689   0.99245   79.801
 4026.00    1.01468   1.00487   79.967
 4027.00    1.04059   1.02507   77.755
 4028.00    1.04307   1.03493   75.160
 4029.00    1.01925   1.01785   74.046
 4030.00    0.97940   0.97833   75.175
 4031.00    0.93224   0.93622   78.699
 4032.00    0.91268   0.90963   83.843
 4033.00    0.92211   0.90447   86.891
 4034.00    0.93774   0.91861   87.499
 4035.00    0.96598   0.94855   86.025
 4036.00    1.00070   0.98864   82.905
 4037.00    1.04537   1.02890   78.759
 4038.00    1.06761   1.05397   75.065
 4039.00    1.05204   1.05506   72.846
 4040.00    1.03578   1.04132   72.932
 4041.00    1.02917   1.02806   74.573
 4042.00    1.02043   1.01745   76.206
 4043.00    0.99740   0.99313   76.933
 4044.00    0.94606   0.94238   77.825
 4045.00    0.88782   0.88808   82.293
 4046.00    0.87248   0.86911   90.256
 4047.00    0.91783   0.89843   95.397
 4048.00    0.99024   0.95421   -1.000
 4049.00    1.03114   1.00442   81.888
 4050.00    1.03230   1.03123   77.427
 4051.00    1.03219   1.03593   75.491
 4052.00    1.03035   1.02680   74.876
 4053.00    1.00255   1.00947   75.676
 4054.00    0.98591   0.99160   77.794
 4055.00    0.98062   0.97818   79.681
 4056.00    0.97350   0.96715   80.800
 4057.00    0.96849   0.95873   81.412
 4058.00    0.96918   0.96015   82.008
 4059.00    0.98203   0.97653   82.587
 4060.00    1.00346   0.99767   81.229
 4061.00    1.01898   0.99999   78.429
 4062.00    0.98557   0.96985   77.358
 4063.00    0.92070   0.92525   79.419
 4064.00    0.89280   0.89782   85.370
 4065.00    0.92040   0.89763   90.155
 4066.00    0.95039   0.91392   -1.000
 4067.00    0.96243   0.93550   83.962
 4068.00    0.97609   0.95650   81.940
 4069.00    1.01343   0.96903   -1.000
 4070.00    1.00935   0.96203   -1.000
 4071.00    0.95965   0.93826   76.951
 4072.00    0.94369   0.92107   80.200
 4073.00    0.96530   0.92634   -1.000
 4074.00    0.98467   0.94033   -1.000
 4075.00    0.96921   0.93673   79.436
 4076.00    0.91983   0.90799   79.701
 4077.00    0.86219   0.87556   84.133
 4078.00    0.85390   0.86571   90.784
 4079.00    0.89908   0.88873   92.514
 4080.00    0.95811   0.93319   88.775
 4081.00    0.99898   0.97094   82.570
 4082.00    1.00246   0.98189   77.353
 4083.00    0.97943   0.96826   75.616
 4084.00    0.96054   0.94860   77.193
 4085.00    0.95635   0.94159   79.685
 4086.00    0.97347   0.95435   80.506
 4087.00    1.00139   0.97999   79.008
 4088.00    1.03136   1.00378   76.230
 4089.00    1.04788   1.01421   73.354
 4090.00    1.03170   1.00794   71.390
 4091.00    1.01940   0.99221   71.956
 4092.00    1.00505   0.97725   73.469
 4093.00    0.98684   0.96387   74.762
 4094.00    0.98678   0.94758   -1.000
 4095.00    0.94854   0.92387   75.708
 4096.00    0.92246   0.89433   77.435
 4097.00    0.89849   0.86573   80.949
 4098.00    0.87689   0.83784   -1.000
 4099.00    0.85722   0.79977   -1.000
 4100.00    0.79938   0.74363   -1.000
 4101.00    0.73345   0.68843   -1.000
 4102.00    0.69799   0.66349   -1.000
 4103.00    0.74246   0.68465   -1.000
 4104.00    0.83047   0.74389   -1.000
 4105.00    0.89104   0.81137   -1.000
 4106.00    0.93602   0.86188   -1.000
 4107.00    0.94698   0.89152   -1.000
 4108.00    0.95057   0.90416   -1.000
 4109.00    0.93823   0.90643   79.413
 4110.00    0.91888   0.90789   80.315
 4111.00    0.93161   0.91416   81.869
 4112.00    0.95368   0.92810   82.769
 4113.00    0.97460   0.94777   81.553
 4114.00    0.99576   0.96907   79.737
 4115.00    1.00654   0.98640   78.400
 4116.00    1.02078   0.99325   77.258
 4117.00    1.01493   0.98727   76.665
 4118.00    0.99039   0.97317   77.242
 4119.00    0.96755   0.96032   79.063
 4120.00    0.96765   0.95672   81.560
 4121.00    0.97644   0.96233   82.198
 4122.00    0.97195   0.97026   81.128
 4123.00    0.98427   0.97790   80.412
 4124.00    0.99432   0.98673   80.403
 4125.00    1.00135   0.99471   79.433
 4126.00    1.00809   0.99607   78.145
 4127.00    0.99850   0.98922   78.083
 4128.00    0.97284   0.98016   79.263
 4129.00    0.96743   0.97464   80.873
 4130.00    0.96771   0.96768   81.474
 4131.00    0.94771   0.95205   81.952
 4132.00    0.92689   0.93238   83.199
 4133.00    0.92058   0.92223   85.890
 4134.00    0.93228   0.93253   88.305
 4135.00    0.96013   0.96030   88.059
 4136.00    1.00334   0.99303   84.859
 4137.00    1.02418   1.02068   80.699
 4138.00    1.03436   1.04011   78.281
 4139.00    1.04181   1.05117   77.063
 4140.00    1.03435   1.04819   75.968
 4141.00    1.01818   1.02325   75.917
 4142.00    0.98159   0.98030   77.821
 4143.00    0.92363   0.93959   82.311
 4144.00    0.91111   0.92557   89.105
 4145.00    0.94972   0.94468   92.756
 4146.00    0.99204   0.97935   88.837
 4147.00    1.01833   1.00482   83.651
 4148.00    1.01821   1.01049   80.856
 4149.00    0.99431   1.00449   80.357
 4150.00    0.97845   0.99934   82.057
 4151.00    0.98279   0.99851   84.246
 4152.00    0.98131   0.99646   85.058
 4153.00    0.97092   0.98805   84.397
 4154.00    0.95227   0.97638   84.061
 4155.00    0.94569   0.96975   84.961
 4156.00    0.95799   0.97313   85.980
 4157.00    0.96061   0.98524   83.865
 4158.00    0.98322   1.00233   83.406
 4159.00    1.12408   1.02024   -1.000
 4160.00    1.11024   1.03493   -1.000
 4161.00    1.00432   1.04493   -1.000
 4162.00    0.98802   1.05162   -1.000
 4163.00    1.02606   1.05665   78.307
 4164.00    1.04335   1.05807   77.639
 4165.00    1.02253   1.05201   78.238
 4166.00    1.00256   1.03827   79.551
 4167.00    0.99713   1.02437   80.799
 4168.00    0.99542   1.01890   82.589
 4169.00    1.00745   1.01960   83.630
 4170.00    1.00553   1.01320   82.840
 4171.00    0.96443   0.98857   81.606
 4172.00    0.91574   0.95251   -1.000
 4173.00    0.89111   0.92791   -1.000
 4174.00    0.90569   0.92949   92.950
 4175.00    0.93461   0.95054   92.647
 4176.00    0.94447   0.97075   89.182
 4177.00    0.94156   0.98055   -1.000
 4178.00    0.94114   0.98690   -1.000
 4179.00    0.95389   0.99526   -1.000
 4180.00    0.96914   1.00300   -1.000
 4181.00    0.96813   1.00345   -1.000
 4182.00    0.96916   0.99845   84.254
 4183.00    0.97202   1.00058   84.255
 4184.00    0.98482   1.01178   83.230
 4185.00    0.99622   1.01837   81.544
 4186.00    0.97713   1.01050   80.263
 4187.00    0.95157   0.99431   -1.000
 4188.00    0.95221   0.98551   83.498
 4189.00    0.96767   0.98963   85.568
 4190.00    0.97962   0.99903   84.574
 4191.00    0.99149   1.00873   82.741
 4192.00    0.99446   1.01953   82.234
 4193.00    1.00852   1.02924   81.045
 4194.00    1.01322   1.02964   79.321
 4195.00    0.98255   1.01280   78.609
 4196.00    0.95176   0.98364   81.216
 4197.00    0.92761   0.95648   85.454
 4198.00    0.91591   0.94029   88.090
 4199.00    0.92507   0.93375   89.463
 4200.00    0.94016   0.93346   89.493
 4201.00    0.95023   0.93767   88.421
 4202.00    0.94788   0.94325   87.087
 4203.00    0.95301   0.95242   86.871
 4204.00    0.95579   0.96925   86.220
 4205.00    0.96295   0.98983   84.891
 4206.00    0.99120   1.00919   84.220
 4207.00    1.01103   1.02641   82.488
 4208.00    1.01589   1.03793   80.443
 4209.00    1.01876   1.04041   79.000
 4210.00    1.01805   1.03783   78.720
 4211.00    1.01668   1.03763   79.036
 4212.00    1.01901   1.04137   78.811
 4213.00    1.01294   1.03771   78.324
 4214.00    0.99145   1.01765   79.006
 4215.00    0.95078   0.99278   -1.000
 4216.00    0.92921   0.98066   -1.000
 4217.00    0.96072   0.99219   87.318
 4218.00    1.01401   1.02147   83.903
 4219.00    1.05039   1.05055   78.585
 4220.00    1.05678   1.06787   75.276
 4221.00    1.06343   1.06940   73.339
 4222.00    1.05274   1.05154   72.719
 4223.00    0.99829   1.01111   73.625
 4224.00    0.94197   0.94979   76.945
 4225.00    0.88036   0.88026   82.640
 4226.00    0.80909   0.82778   91.171
 4227.00    0.78987   0.82053   -1.000
 4228.00    0.86318   0.86826  110.204
 4229.00    0.96722   0.94542  102.002
 4230.00    1.02291   1.00907   88.245
 4231.00    1.02863   1.03501   79.689
 4232.00    1.02269   1.03077   75.966
 4233.00    1.01109   1.01386   75.688
 4234.00    1.00024   0.99444   77.524
 4235.00    0.98535   0.97933   79.485
 4236.00    0.96083   0.97084   80.289
 4237.00    0.95696   0.96869   82.208
 4238.00    0.95996   0.97605   83.520
 4239.00    0.97058   0.99185   82.701
 4240.00    0.99583   1.01026   80.755
 4241.00    1.01495   1.02710   79.617
 4242.00    1.02145   1.04075   78.091
 4243.00    1.02469   1.05139   77.114
 4244.00    1.02548   1.05988   76.738
 4245.00    1.03156   1.06212   75.345
 4246.00    1.02781   1.04795   73.906
 4247.00    0.97921   1.01759   74.975
 4248.00    0.93754   0.98526   -1.000
 4249.00    0.93152   0.96491   81.444
 4250.00    0.93856   0.96278   83.383
 4251.00    0.96186   0.97593   84.021
 4252.00    1.00007   0.99254   83.721
 4253.00    1.00787   0.99846   81.195
 4254.00    0.97782   0.99226   79.093
 4255.00    0.96780   0.98880   79.791
 4256.00    0.98122   1.00055   81.854
 4257.00    1.01457   1.01630   80.485
 4258.00    1.01270   1.01168   77.388
 4259.00    0.96925   0.98310   77.104
 4260.00    0.93153   0.95538   80.341
 4261.00    0.92202   0.95581   84.734
 4262.00    0.95912   0.98796   86.483
 4263.00    1.01035   1.03212   82.839
 4264.00    1.03932   1.06553   77.638
 4265.00    1.06234   1.07719   74.136
 4266.00    1.04968   1.07146   72.582
 4267.00    1.03442   1.05648   72.560
 4268.00    1.00375   1.03264   73.894
 4269.00    0.97217   0.99853   76.411
 4270.00    0.93529   0.95629   78.757
 4271.00    0.89807   0.91533   81.951
 4272.00    0.86777   0.88984   87.490
 4273.00    0.88062   0.88805   92.620
 4274.00    0.90455   0.90638   93.184
 4275.00    0.92631   0.93650   90.932
 4276.00    0.95816   0.97553   88.528
 4277.00    0.99698   1.01642   84.364
 4278.00    1.01859   1.04039   78.876
 4279.00    1.00328   1.03632   75.481
 4280.00    0.97493   1.01473   75.788
 4281.00    0.95613   0.99744   79.336
 4282.00    0.95193   0.99635   -1.000
 4283.00    0.97252   1.00132   81.928
 4284.00    0.98235   0.99829   80.721
 4285.00    0.95559   0.98654   80.104
 4286.00    0.92648   0.97122   -1.000
 4287.00    0.91468   0.95457   -1.000
 4288.00    0.89990   0.93252   85.810
 4289.00    0.87309   0.90371   87.085
 4290.00    0.85846   0.88338   90.613
 4291.00    0.86241   0.88885   95.010
 4292.00    0.91405   0.91641   94.718
 4293.00    0.94548   0.94472   89.639
 4294.00    0.93998   0.95447   84.052
 4295.00    0.93123   0.94576   82.760
 4296.00    0.90660   0.92759   83.673
 4297.00    0.87351   0.89914   85.114
 4298.00    0.81322   0.85831   -1.000
 4299.00    0.75950   0.81431   -1.000
 4300.00    0.72957   0.78230   -1.000
 4301.00    0.73678   0.77053   -1.000
 4302.00    0.74275   0.77572   -1.000
 4303.00    0.75871   0.78831   -1.000
 4304.00    0.77404   0.80069  103.108
 4305.00    0.78229   0.80605  101.553
 4306.00    0.77567   0.79710  100.412
 4307.00    0.75512   0.77568  101.056
 4308.00    0.72304   0.75458   -1.000
 4309.00    0.69849   0.74966   -1.000
 4310.00    0.71372   0.76738   -1.000
 4311.00    0.74412   0.80009   -1.000
 4312.00    0.78974   0.83673   -1.000
 4313.00    0.82673   0.87509   -1.000
 4314.00    0.87953   0.92250   -1.000
 4315.00    0.94080   0.98169   -1.000
 4316.00    1.02295   1.04496   83.357
 4317.00    1.08237   1.09580   75.974
 4318.00    1.09862   1.11907   70.422
 4319.00    1.08455   1.11615   68.178
 4320.00    1.06592   1.09856   68.338
 4321.00    1.05057   1.07041   69.488
 4322.00    1.01509   1.02769   71.121
 4323.00    0.94434   0.97023   73.625
 4324.00    0.88363   0.90999   77.387
 4325.00    0.83341   0.87137   -1.000
 4326.00    0.84738   0.87700   90.763
 4327.00    0.91657   0.92617   93.837
 4328.00    0.99854   0.99030   87.152
 4329.00    1.04374   1.03586   77.807
 4330.00    1.03245   1.05150   72.499
 4331.00    1.03802   1.05020   71.372
 4332.00    1.05030   1.04915   71.751
 4333.00    1.05397   1.05250   71.280
 4334.00    1.02942   1.05236   69.990
 4335.00    1.03964   1.03695   69.325
 4336.00    1.01106   0.99657   69.246
 4337.00    0.93989   0.92825   70.607
 4338.00    0.85763   0.84310   75.449
 4339.00    0.77644   0.76767   82.964
 4340.00    0.71724   0.72718   90.631
 4341.00    0.74167   0.73448   97.944
 4342.00    0.84578   0.78706   -1.000
 4343.00    0.92140   0.85953   -1.000
 4344.00    0.93478   0.92271   82.664
 4345.00    0.98230   0.96742   77.822
 4346.00    1.01693   0.99842   75.510
 4347.00    1.02101   1.02394   73.488
 4348.00    1.03303   1.04518   72.300
 4349.00    1.04005   1.05164   71.558
 4350.00    1.02107   1.03156   70.378
 4351.00    0.95778   0.99125   70.741
 4352.00    0.90492   0.95845   -1.000
 4353.00    0.93082   0.95789   80.619
 4354.00    0.98380   0.98885   81.346
 4355.00    1.00278   1.02783   77.744
 4356.00    1.02407   1.05481   74.220
 4357.00    1.04928   1.06643   72.019
 4358.00    1.05193   1.06582   70.590
 4359.00    1.02833   1.06087   70.744
 4360.00    1.03011   1.06434   72.385
 4361.00    1.06535   1.08078   73.186
 4362.00    1.09105   1.10164   71.614
 4363.00    1.08539   1.11799   69.393
 4364.00    1.08716   1.12835   68.726
 4365.00    1.10587   1.13074   68.467
 4366.00    1.09253   1.11936   67.668
 4367.00    1.05736   1.09600   67.687
 4368.00    1.03251   1.07410   69.946
 4369.00    1.02510   1.06293   72.516
 4370.00    1.03400   1.05937   73.175
 4371.00    1.04688   1.05531   72.359
 4372.00    1.03868   1.04342   71.939
 4373.00    1.01822   1.02117   71.910
 4374.00    0.99043   0.99444   72.705
 4375.00    0.96551   0.97963   75.851
 4376.00    0.98026   0.99111   78.833
 4377.00    1.03062   1.02383   78.646
 4378.00    1.06274   1.05649   75.181
 4379.00    1.06469   1.07054   71.378
 4380.00    1.07031   1.06017   70.285
 4381.00    1.05658   1.02399   70.817
 4382.00    0.99275   0.96291   72.154
 4383.00    0.89824   0.89547   75.755
 4384.00    0.84896   0.85785   84.547
 4385.00    0.87455   0.87284   94.124
 4386.00    0.94329   0.92630   94.425
 4387.00    1.00851   0.97857   85.153
 4388.00    1.02352   1.00362   77.125
 4389.00    1.01907   1.00677   74.937
 4390.00    1.00667   1.00550   75.142
 4391.00    1.01119   1.01057   76.013
 4392.00    1.03336   1.02129   76.207
 4393.00    1.03809   1.02916   74.612
 4394.00    1.02024   1.02850   72.917
 4395.00    1.00654   1.02805   73.565
 4396.00    1.02880   1.04127   75.288
 4397.00    1.07177   1.06311   74.867
 4398.00    1.08318   1.07335   71.220
 4399.00    1.04893   1.06237   69.239
 4400.00    1.01466   1.04246   70.419
 4401.00    1.02349   1.03132   73.150
 4402.00    1.05210   1.02819   75.284
 4403.00    1.04911   1.01806   74.193
 4404.00    1.00773   0.99431   72.824
 4405.00    0.98220   0.97207   75.667
 4406.00    0.99588   0.97111   80.245
 4407.00    1.01447   0.98851   80.627
 4408.00    1.01412   1.00908   77.706
 4409.00    1.01183   1.03239   76.683
 4410.00    1.06207   1.06577   76.023
 4411.00    1.10363   1.10170   72.964
 4412.00    1.12011   1.11975   69.815
 4413.00    1.12330   1.10826   67.487
 4414.00    1.08842   1.07434   66.783
 4415.00    1.03226   1.03634   68.761
 4416.00    1.00850   1.01915   72.887
 4417.00    1.04306   1.03462   75.415
 4418.00    1.07767   1.06988   74.798
 4419.00    1.10715   1.10447   72.050
 4420.00    1.13124   1.12297   69.029
 4421.00    1.10924   1.11954   67.136
 4422.00    1.08194   1.10342   67.666
 4423.00    1.07145   1.09112   69.549
 4424.00    1.08402   1.08898   70.766
 4425.00    1.07982   1.09119   70.272
 4426.00    1.06521   1.09144   69.934
 4427.00    1.07227   1.09187   70.235
 4428.00    1.08222   1.09475   70.566
 4429.00    1.08749   1.09705   70.031
 4430.00    1.06965   1.09754   69.759
 4431.00    1.07094   1.09826   70.524
 4432.00    1.08417   1.09793   70.732
 4433.00    1.07145   1.08759   69.838
 4434.00    1.03669   1.06431   69.306
 4435.00    1.02095   1.04364   71.778
 4436.00    1.02778   1.04782   75.375
 4437.00    1.07496   1.08199   76.059
 4438.00    1.13164   1.12552   72.828
 4439.00    1.15026   1.15149   68.255
 4440.00    1.13800   1.14638   65.453
 4441.00    1.10603   1.11601   65.396
 4442.00    1.07038   1.08080   67.595
 4443.00    1.03861   1.06335   70.913
 4444.00    1.04409   1.07406   73.893
 4445.00    1.08662   1.10456   74.008
 4446.00    1.11345   1.13565   71.092
 4447.00    1.12156   1.15192   68.045
 4448.00    1.11872   1.15437   66.828
 4449.00    1.11498   1.15282   66.917
 4450.00    1.10365   1.15036   67.046
 4451.00    1.11316   1.14460   67.825
 4452.00    1.12530   1.13365   68.490
 4453.00    1.10177   1.11320   67.915
 4454.00    1.05697   1.08146   68.423
 4455.00    1.03128   1.05039   71.056
 4456.00    1.03417   1.03676   74.378
 4457.00    1.05401   1.04166   75.837
 4458.00    1.05870   1.05154   74.438
 4459.00    1.05011   1.05546   73.110
 4460.00    1.05510   1.05389   73.214
 4461.00    1.05061   1.05380   73.606
 4462.00    1.05381   1.06199   74.398
 4463.00    1.07767   1.08086   75.056
 4464.00    1.10226   1.10341   73.486
 4465.00    1.11285   1.11820   70.529
 4466.00    1.11256   1.12017   68.912
 4467.00    1.11050   1.11270   68.869
 4468.00    1.08812   1.10200   68.920
 4469.00    1.06791   1.09522   69.736
 4470.00    1.06815   1.09991   71.112
 4471.00    1.10153   1.11962   71.505
 4472.00    1.14759   1.14831   70.456
 4473.00    1.16321   1.17418   68.192
 4474.00    1.17858   1.19004   65.824
 4475.00    1.18184   1.19685   64.051
 4476.00    1.17495   1.20141   63.548
 4477.00    1.19157   1.20566   63.689
 4478.00    1.19162   1.20075   63.107
 4479.00    1.16790   1.17736   62.744
 4480.00    1.12181   1.13956   63.341
 4481.00    1.08193   1.10688   65.757
 4482.00    1.07817   1.09841   68.773
 4483.00    1.09375   1.11872   70.683
 4484.00    1.13453   1.15674   69.815
 4485.00    1.17460   1.19212   66.794
 4486.00    1.18441   1.20893   64.280
 4487.00    1.17268   1.20225   62.932
 4488.00    1.14564   1.17837   63.065
 4489.00    1.11400   1.15204   64.545
 4490.00    1.10692   1.13967   67.067
 4491.00    1.12172   1.14752   68.585
 4492.00    1.15355   1.16362   67.784
 4493.00    1.15459   1.16828   65.935
 4494.00    1.13842   1.15510   64.903
 4495.00    1.11518   1.13860   65.925
 4496.00    1.11177   1.13582   67.986
 4497.00    1.13160   1.14898   69.438
 4498.00    1.15403   1.16775   68.635
 4499.00    1.17401   1.18045   66.225
 4500.00    1.17240   1.18208   64.366
 4501.00    1.15676   1.17935   63.739
 4502.00    1.15637   1.18578   64.524
 4503.00    1.19279   1.20509   64.868
 4504.00    1.21062   1.22880   63.152
 4505.00    1.22377   1.24487   60.959
 4506.00    1.22519   1.24675   59.903
 4507.00    1.21442   1.23834   60.334
 4508.00    1.19629   1.22934   61.593
 4509.00    1.19555   1.22634   62.188
 4510.00    1.21745   1.22775   62.228
 4511.00    1.21204   1.22725   61.741
 4512.00    1.19794   1.21902   61.311
 4513.00    1.18079   1.20470   61.846
 4514.00    1.16495   1.19165   63.087
 4515.00    1.16657   1.18401   64.215
 4516.00    1.17213   1.18143   64.605
 4517.00    1.16170   1.18009   64.275
 4518.00    1.15049   1.17750   64.231
 4519.00    1.15330   1.17792   65.028
 4520.00    1.15987   1.18474   65.405
 4521.00    1.17956   1.19199   64.279
 4522.00    1.16541   1.19066   63.003
 4523.00    1.14228   1.17885   63.207
 4524.00    1.13827   1.16271   64.725
 4525.00    1.13656   1.14644   66.039
 4526.00    1.11206   1.12717   66.599
 4527.00    1.08695   1.10285   67.721
 4528.00    1.06495   1.07862   69.810
 4529.00    1.06031   1.06583   71.783
 4530.00    1.07462   1.06971   72.641
 4531.00    1.09228   1.08411   72.106
 4532.00    1.10118   1.09633   70.830
 4533.00    1.09092   1.09435   69.535
 4534.00    1.07061   1.08053   69.195
 4535.00    1.05655   1.07157   71.147
 4536.00    1.07971   1.08598   73.577
 4537.00    1.13593   1.12385   72.619
 4538.00    1.18833   1.16441   68.470
 4539.00    1.18943   1.18730   64.419
 4540.00    1.16346   1.18847   62.682
 4541.00    1.15866   1.18065   63.286
 4542.00    1.16506   1.17660   64.823
 4543.00    1.16190   1.17753   64.765
 4544.00    1.14856   1.17613   64.289
 4545.00    1.13735   1.16791   64.047
 4546.00    1.13367   1.15770   91.659
 4547.00    1.19372   1.14907   30.305
 4548.00    0.61891   1.13753   -1.000
 4549.00   -0.00749   1.12291    0.000
 4550.00   -0.06087   1.11484    0.000
 4551.00    0.53450   1.12097   -1.000
 4552.00    0.63859   1.13374   -1.000
 4553.00    0.41247   1.13749   -1.000
 4554.00    1.10881   1.13060   67.142
 4555.00    1.09238   1.12527   68.186
 4556.00    1.11202   1.13339   68.823
 4557.00    1.15122   1.15720   67.808
 4558.00    1.18626   1.18524   65.340
 4559.00    1.19374   1.20511   62.706
 4560.00    1.19904   1.21506   61.583
 4561.00    1.20784   1.21706   61.907
 4562.00    1.20027   1.21051   61.878
 4563.00    1.17952   1.19458   61.901
 4564.00    1.14788   1.17405   63.322
 4565.00    1.14509   1.16079   64.908
 4566.00    1.15319   1.16405   66.028
 4567.00    1.17663   1.18210   65.335
 4568.00    1.19924   1.20201   63.686
 4569.00    1.19107   1.20964   61.998
 4570.00    1.17492   1.20072   61.356
 4571.00    1.14243   1.18241   62.008
 4572.00    1.13656   1.16872   63.571
 4573.00    1.15982   1.17120   65.250
 4574.00    1.19078   1.18744   64.827
 4575.00    1.20220   1.20270   62.889
 4576.00    1.19585   1.20778   61.964
 4577.00    1.18366   1.20384   61.980
 4578.00    1.18009   1.19253   62.263
 4579.00    1.16623   1.17372   62.624
 4580.00    1.14027   1.15135   63.680
 4581.00    1.12305   1.13396   65.576
 4582.00    1.12430   1.12787   66.952
 4583.00    1.14024   1.13132   66.808
 4584.00    1.13884   1.13661   65.878
 4585.00    1.13856   1.13920   65.377
 4586.00    1.15052   1.14227   65.554
 4587.00    1.16485   1.15271   65.964
 4588.00    1.18607   1.17126   65.092
 4589.00    1.19053   1.18843   63.400
 4590.00    1.17927   1.19462   62.039
 4591.00    1.16460   1.18818   61.908
 4592.00    1.14893   1.17386   62.788
 4593.00    1.14792   1.16042   63.958
 4594.00    1.15195   1.15496   65.084
 4595.00    1.16037   1.15602   65.183
 4596.00    1.16676   1.15924   64.645
 4597.00    1.17033   1.16400   64.133
 4598.00    1.17402   1.16861   63.950
 4599.00    1.16793   1.16977   63.816
 4600.00    1.16040   1.16661   63.672
 4601.00    1.15129   1.16164   64.208
 4602.00    1.15348   1.15900   64.788
 4603.00    1.15815   1.16024   64.986
 4604.00    1.16502   1.16310   64.328
 4605.00    1.18002   1.16670   63.602
 4606.00    1.18261   1.17329   63.675
 4607.00    1.18044   1.18532   63.581
 4608.00    1.20138   1.20193   62.911
 4609.00    1.22494   1.21802   61.685
 4610.00    1.22757   1.22673   60.364
 4611.00    1.21449   1.22369   59.629
 4612.00    1.20044   1.21326   59.856
 4613.00    1.19110   1.20366   60.663
 4614.00    1.19038   1.20002   61.347
 4615.00    1.20581   1.20311   61.756
 4616.00    1.20523   1.20771   61.481
 4617.00    1.19827   1.20887   60.940
 4618.00    1.19363   1.20660   60.681
 4619.00    1.18165   1.20404   61.060
 4620.00    1.19490   1.20545   61.515
 4621.00    1.21346   1.21227   61.481
 4622.00    1.21893   1.22020   60.915
 4623.00    1.21380   1.22298   59.959
 4624.00    1.21108   1.21979   59.895
 4625.00    1.21356   1.21494   60.043
 4626.00    1.21274   1.21097   60.163
 4627.00    1.21794   1.20868   60.697
 4628.00    1.21870   1.20830   60.867
 4629.00    1.20592   1.20897   60.842
 4630.00    1.19675   1.21058   61.215
 4631.00    1.20982   1.21330   61.361
 4632.00    1.22184   1.21499   61.075
 4633.00    1.19510   1.21198   60.384
 4634.00    1.16768   1.20469   60.602
 4635.00    1.19691   1.19720   61.464
 4636.00    1.19711   1.19075   62.158
 4637.00    1.19055   1.18337   62.140
 4638.00    1.18191   1.17583   62.611
 4639.00    1.17671   1.17162   63.429
 4640.00    1.19261   1.17433   63.723
 4641.00    1.21651   1.18499   63.650
 4642.00    1.22156   1.19860   62.620
 4643.00    1.22286   1.20654   61.104
 4644.00    1.21851   1.20236   60.226
 4645.00    1.19516   1.18635   60.413
 4646.00    1.17260   1.16322   61.497
 4647.00    1.15850   1.14227   63.206
 4648.00    1.16845   1.13545   64.964
 4649.00    1.18811   1.14604   -1.000
 4650.00    1.20262   1.16678   64.249
 4651.00    1.20462   1.18662   62.757
 4652.00    1.20128   1.19656   61.859
 4653.00    1.20237   1.19450   61.710
 4654.00    1.17897   1.18360   61.587
 4655.00    1.16560   1.17074   62.268
 4656.00    1.16036   1.16554   63.679
 4657.00    1.17323   1.17454   64.463
 4658.00    1.19977   1.19746   63.988
 4659.00    1.23151   1.22581   62.031
 4660.00    1.24786   1.24536   59.666
 4661.00    1.24241   1.24682   58.264
 4662.00    1.22014   1.23349   58.129
 4663.00    1.20443   1.21472   58.809
 4664.00    1.19885   1.19646   60.215
 4665.00    1.18653   1.17653   61.428
 4666.00    1.15450   1.15011   61.640
 4667.00    1.12039   1.12060   62.590
 4668.00    1.10229   1.10124   65.182
 4669.00    1.12688   1.10536   67.917
 4670.00    1.16544   1.13026   68.177
 4671.00    1.19009   1.15918   66.212
 4672.00    1.20065   1.17880   63.469
 4673.00    1.20285   1.18687   61.685
 4674.00    1.20837   1.19026   61.234
 4675.00    1.21363   1.19644   61.260
 4676.00    1.22467   1.20546   61.206
 4677.00    1.22289   1.20853   60.459
 4678.00    1.20572   1.19883   59.550
 4679.00    1.19627   1.18043   59.763
 4680.00    1.18477   1.16182   61.000
 4681.00    1.17242   1.15010   62.224
 4682.00    1.17526   1.14909   63.266
 4683.00    1.19545   1.15807   -1.000
 4684.00    1.20884   1.17158   -1.000
 4685.00    1.21265   1.18212   61.664
 4686.00    1.21527   1.18610   60.795
 4687.00    1.21064   1.18494   60.932
 4688.00    1.20458   1.18185   60.976
 4689.00    1.20424   1.17893   61.299
 4690.00    1.20187   1.17649   61.331
 4691.00    1.19774   1.17381   61.335
 4692.00    1.19566   1.17280   61.744
 4693.00    1.21053   1.17751   61.901
 4694.00    1.23327   1.18730   -1.000
 4695.00    1.24443   1.19684   -1.000
 4696.00    1.23611   1.20124   59.012
 4697.00    1.22756   1.19626   58.212
 4698.00    1.20592   1.18080   58.420
 4699.00    1.17723   1.16148   60.001
 4700.00    1.17573   1.14659   61.823
 4701.00    1.18891   1.13659   -1.000
 4702.00    1.17158   1.12785   -1.000
 4703.00    1.14374   1.12220   62.605
 4704.00    1.15747   1.12491   63.672
 4705.00    1.17425   1.13529   -1.000
 4706.00    1.18267   1.14397   -1.000
 4707.00    1.16506   1.14268   62.019
 4708.00    1.15556   1.13411   62.733
 4709.00    1.14534   1.12892   63.976
 4710.00    1.15877   1.13496   64.656
 4711.00    1.19399   1.14992   -1.000
 4712.00    1.21320   1.16495   -1.000
 4713.00    1.20886   1.17032   60.881
 4714.00    1.19671   1.16485   60.187
 4715.00    1.18701   1.16025   60.667
 4716.00    1.19936   1.16654   61.776
 4717.00    1.22389   1.18273   -1.000
 4718.00    1.22646   1.20081   60.759
 4719.00    1.24195   1.21405   59.577
 4720.00    1.24740   1.22052   59.139
 4721.00    1.23358   1.22045   58.921
 4722.00    1.23246   1.21605   58.720
 4723.00    1.23698   1.21266   59.156
 4724.00    1.23096   1.21473   59.590
 4725.00    1.23175   1.21757   59.312
 4726.00    1.23644   1.21130   58.689
 4727.00    1.21160   1.19132   58.709
 4728.00    1.17861   1.16390   60.015
 4729.00    1.17830   1.14328   62.235
 4730.00    1.17811   1.13806   63.735
 4731.00    1.17641   1.14435   63.652
 4732.00    1.18657   1.15534   63.028
 4733.00    1.20253   1.16748   62.516
 4734.00    1.21236   1.17732   61.787
 4735.00    1.21034   1.18116   61.229
 4736.00    1.20526   1.17921   60.865
 4737.00    1.20053   1.17615   60.527
 4738.00    1.21013   1.17728   61.079
 4739.00    1.21709   1.18349   61.224
 4740.00    1.21702   1.18926   60.512
 4741.00    1.21213   1.19029   60.449
 4742.00    1.21298   1.19034   60.776
 4743.00    1.22470   1.19340   60.886
 4744.00    1.22803   1.19766   60.453
 4745.00    1.22712   1.20208   59.805
 4746.00    1.23030   1.20838   59.844
 4747.00    1.23041   1.21613   59.911
 4748.00    1.22935   1.22378   59.514
 4749.00    1.23194   1.22971   58.923
 4750.00    1.22927   1.23305   58.748
 4751.00    1.22706   1.23372   58.819
 4752.00    1.22061   1.22988   58.865
 4753.00    1.21922   1.22074   59.252
 4754.00    1.21313   1.20907   59.903
 4755.00    1.20283   1.19959   60.427
 4756.00    1.19619   1.19593   60.850
 4757.00    1.19487   1.19881   60.799
 4758.00    1.20051   1.20556   60.995
 4759.00    1.21399   1.21308   61.428
 4760.00    1.21662   1.21781   61.540
 4761.00    1.20273   1.21407   61.089
 4762.00    1.18212   1.19964   60.929
 4763.00    1.17089   1.17923   61.764
 4764.00    1.16367   1.16172   63.258
 4765.00    1.15891   1.15206   64.167
 4766.00    1.16865   1.14955   64.341
 4767.00    1.19218   1.15498   64.227
 4768.00    1.20683   1.17042   63.810
 4769.00    1.21975   1.19253   62.973
 4770.00    1.22587   1.21127   61.600
 4771.00    1.22486   1.21802   60.677
 4772.00    1.21329   1.21521   60.673
 4773.00    1.20427   1.21330   61.148
 4774.00    1.22411   1.21987   61.691
 4775.00    1.23117   1.23206   61.126
 4776.00    1.23681   1.24089   59.875
 4777.00    1.23881   1.24385   59.355
 4778.00    1.23833   1.24339   59.355
 4779.00    1.23330   1.23973   59.519
 4780.00    1.21611   1.23274   59.883
 4781.00    1.22121   1.22496   60.526
 4782.00    1.21374   1.21814   60.926
 4783.00    1.20265   1.21139   61.101
 4784.00    1.21002   1.20497   61.380
 4785.00    1.20573   1.19999   61.854
 4786.00    1.19575   1.19475   61.896
 4787.00    1.17970   1.18810   62.070
 4788.00    1.18151   1.18389   62.641
 4789.00    1.19267   1.18451   63.039
 4790.00    1.19483   1.18860   63.028
 4791.00    1.20742   1.19652   62.745
 4792.00    1.21424   1.20940   62.366
 4793.00    1.22781   1.22685   61.748
 4794.00    1.24292   1.24641   60.778
 4795.00    1.25313   1.26236   59.464
 4796.00    1.25073   1.26795   58.401
 4797.00    1.24093   1.26075   58.086
 4798.00    1.22326   1.24376   58.573
 4799.00    1.21031   1.22438   59.687
 4800.00    1.20553   1.21307   60.823
 4801.00    1.21113   1.21634   61.602
 4802.00    1.23064   1.23103   61.228
 4803.00    1.23261   1.24581   60.067
 4804.00    1.22952   1.24908   59.151
 4805.00    1.21274   1.23980   59.115
 4806.00    1.20648   1.22658   59.819
 4807.00    1.21245   1.21721   60.598
 4808.00    1.22040   1.21359   61.179
 4809.00    1.21443   1.21526   61.241
 4810.00    1.21323   1.22121   61.100
 4811.00    1.22103   1.22827   60.841
 4812.00    1.22430   1.23329   60.326
 4813.00    1.22702   1.23601   59.875
 4814.00    1.22912   1.23827   59.553
 4815.00    1.24039   1.24219   59.460
 4816.00    1.24830   1.24892   59.330
 4817.00    1.24718   1.25755   59.125
 4818.00    1.24734   1.26506   58.774
 4819.00    1.24611   1.26844   58.407
 4820.00    1.24876   1.26785   58.152
 4821.00    1.23933   1.26310   58.102
 4822.00    1.22480   1.25034   58.103
 4823.00    1.20139   1.22975   58.541
 4824.00    1.19154   1.21036   59.944
 4825.00    1.20015   1.20333   61.165
 4826.00    1.21417   1.21093   61.234
 4827.00    1.23000   1.22264   60.279
 4828.00    1.22621   1.22717   59.317
 4829.00    1.21331   1.22323   59.391
 4830.00    1.21592   1.21605   60.039
 4831.00    1.20815   1.20852   60.468
 4832.00    1.19973   1.20109   60.508
 4833.00    1.21258   1.19782   60.978
 4834.00    1.22581   1.20216   61.158
 4835.00    1.22639   1.21145   60.335
 4836.00    1.22828   1.21891   59.498
 4837.00    1.22753   1.21998   59.193
 4838.00    1.21568   1.21506   59.247
 4839.00    1.19388   1.20535   59.505
 4840.00    1.18282   1.19358   60.239
 4841.00    1.18563   1.18515   61.287
 4842.00    1.18731   1.18241   61.493
 4843.00    1.19303   1.18317   61.378
 4844.00    1.19383   1.18646   61.096
 4845.00    1.20288   1.19418   60.661
 4846.00    1.21371   1.20429   60.077
 4847.00    1.20747   1.20816   59.184
 4848.00    1.18150   1.20055   58.776
 4849.00    1.18071   1.18920   59.734
 4850.00    1.19120   1.18513   60.696
 4851.00    1.19334   1.18798   60.835
 4852.00    1.19293   1.18944   60.107
 4853.00    1.18891   1.18293   59.843
 4854.00    1.16213   1.16481   60.114
 4855.00    1.12658   1.13695   60.603
 4856.00    1.10975   1.11018   62.201
 4857.00    1.11179   1.09331   64.000
 4858.00    1.09599   1.07901   64.183
 4859.00    1.03104   1.04442   63.594
 4860.00    0.92193   0.97390   64.921
 4861.00    0.83330   0.89082   -1.000
 4862.00    0.83690   0.84358   77.769
 4863.00    0.92857   0.86342   -1.000
 4864.00    1.01104   0.93362   -1.000
 4865.00    1.07048   1.00825   -1.000
 4866.00    1.10864   1.06228   -1.000
 4867.00    1.13088   1.09701   64.884
 4868.00    1.14140   1.11876   63.367
 4869.00    1.13859   1.12843   62.664
 4870.00    1.12885   1.12254   62.349
 4871.00    1.10429   1.10189   62.750
 4872.00    1.08432   1.08044   64.314
 4873.00    1.10616   1.07877   65.949
 4874.00    1.14159   1.10122   -1.000
 4875.00    1.15560   1.13017   64.099
 4876.00    1.15460   1.14952   62.847
 4877.00    1.15561   1.15889   62.260
 4878.00    1.16451   1.16760   61.900
 4879.00    1.18554   1.18127   61.671
 4880.00    1.19678   1.19516   60.895
 4881.00    1.18675   1.20092   60.196
 4882.00    1.17055   1.19563   60.517
 4883.00    1.16780   1.18599   61.447
 4884.00    1.17121   1.17825   61.940
 4885.00    1.16456   1.16936   61.830
 4886.00    1.15652   1.15798   62.057
 4887.00    1.15350   1.14991   62.908
 4888.00    1.15258   1.14738   63.371
 4889.00    1.14772   1.14357   63.152
 4890.00    1.13106   1.13124   63.012
 4891.00    1.11754   1.11543   63.754
 4892.00    1.13362   1.11475   65.095
 4893.00    1.18013   1.14250   -1.000
 4894.00    1.22546   1.18987   -1.000
 4895.00    1.24592   1.23477   59.926
 4896.00    1.25626   1.26272   57.962
 4897.00    1.25240   1.27248   56.763
 4898.00    1.24357   1.26889   56.341
 4899.00    1.23088   1.25707   56.393
 4900.00    1.21413   1.24231   57.404
 4901.00    1.21008   1.23084   58.757
 4902.00    1.21174   1.22387   59.557
 4903.00    1.21097   1.21729   59.444
 4904.00    1.20325   1.21190   59.445
 4905.00    1.21388   1.21613   60.057
 4906.00    1.23062   1.23170   59.686
 4907.00    1.24467   1.24436   58.513
 4908.00    1.22743   1.24066   57.891
 4909.00    1.19223   1.22142   58.235
 4910.00    1.16988   1.19660   59.478
 4911.00    1.16922   1.17897   61.156
 4912.00    1.18121   1.17731   62.143
 4913.00    1.20658   1.19046   61.640
 4914.00    1.22529   1.20945   60.567
 4915.00    1.23129   1.22615   59.681
 4916.00    1.23657   1.23412   58.897
 4917.00    1.22454   1.22435   58.325
 4918.00    1.17908   1.19062   58.440
 4919.00    1.12901   1.14024   60.122
 4920.00    1.09402   1.09368   63.191
 4921.00    1.10504   1.07328   66.327
 4922.00    1.13870   1.08523   -1.000
 4923.00    1.15840   1.11336   -1.000
 4924.00    1.16617   1.13696   63.614
 4925.00    1.18122   1.15190   62.380
 4926.00    1.20198   1.16848   62.149
 4927.00    1.21687   1.19172   61.518
 4928.00    1.23244   1.21556   60.070
 4929.00    1.23849   1.23432   58.883
 4930.00    1.23866   1.24669   58.228
 4931.00    1.24736   1.24983   57.802
 4932.00    1.23382   1.23938   57.443
 4933.00    1.19313   1.21548   57.813
 4934.00    1.16611   1.18913   59.180
 4935.00    1.17670   1.17587   61.233
 4936.00    1.19399   1.17657   61.847
 4937.00    1.18220   1.17465   60.986
 4938.00    1.15382   1.15834   60.703
 4939.00    1.14403   1.13942   62.099
 4940.00    1.17115   1.13947   63.863
 4941.00    1.20829   1.16457   -1.000
 4942.00    1.23391   1.20163   61.965
 4943.00    1.24111   1.23137   59.934
 4944.00    1.24077   1.24463   58.648
 4945.00    1.23336   1.24415   57.998
 4946.00    1.22855   1.23754   57.916
 4947.00    1.23417   1.23417   58.253
 4948.00    1.24576   1.23941   58.448
 4949.00    1.25219   1.25050   58.063
 4950.00    1.25198   1.25961   57.404
 4951.00    1.25850   1.26203   57.115
 4952.00    1.25423   1.25876   56.894
 4953.00    1.24532   1.25261   57.069
 4954.00    1.23263   1.24475   57.445
 4955.00    1.22840   1.23029   58.051
 4956.00    1.19824   1.19920   58.765
 4957.00    1.14732   1.15199   60.145
 4958.00    1.13239   1.11459   62.913
 4959.00    1.16953   1.11687   -1.000
 4960.00    1.22411   1.15663   -1.000
 4961.00    1.25014   1.20403   -1.000
 4962.00    1.24787   1.23363   59.501
 4963.00    1.24734   1.24144   58.686
 4964.00    1.23740   1.23492   58.804
 4965.00    1.21934   1.21974   59.234
 4966.00    1.20469   1.20132   59.885
 4967.00    1.20082   1.18762   61.029
 4968.00    1.20423   1.18216   61.949
 4969.00    1.20877   1.18213   62.145
 4970.00    1.21049   1.18656   62.003
 4971.00    1.21577   1.19599   61.608
 4972.00    1.22481   1.20881   60.993
 4973.00    1.22967   1.22231   60.338
 4974.00    1.23852   1.23297   59.633
 4975.00    1.23998   1.23762   59.034
 4976.00    1.23652   1.23527   58.719
 4977.00    1.23099   1.22586   58.975
 4978.00    1.21585   1.21116   59.552
 4979.00    1.20427   1.19611   60.321
 4980.00    1.19328   1.18221   61.268
 4981.00    1.17377   1.16417   62.085
 4982.00    1.14202   1.13689   62.934
 4983.00    1.11509   1.10565   64.721
 4984.00    1.11389   1.08704   66.846
 4985.00    1.13408   1.09268   -1.000
 4986.00    1.17304   1.11860   -1.000
 4987.00    1.20412   1.15226   -1.000
 4988.00    1.21869   1.18106   -1.000
 4989.00    1.21443   1.19466   61.003
 4990.00    1.19825   1.19114   60.673
 4991.00    1.19204   1.18051   61.373
 4992.00    1.19722   1.17462   62.082
 4993.00    1.20086   1.17704   62.259
 4994.00    1.20197   1.18293   61.841
 4995.00    1.20893   1.18868   61.503
 4996.00    1.21685   1.19498   61.419
 4997.00    1.21560   1.19956   61.175
 4998.00    1.21204   1.19614   60.865
 4999.00    1.18443   1.18082   61.066
 5000.00    1.17067   1.15732   61.778
 5001.00    1.16280   1.13805   62.926
 5002.00    1.17132   1.13177   -1.000
 5003.00    1.17866   1.13431   -1.000
 5004.00    1.17653   1.13518   -1.000
 5005.00    1.15703   1.12621   63.153
 5006.00    1.12839   1.10962   63.722
 5007.00    1.13571   1.10012   65.182
 5008.00    1.16301   1.11131   -1.000
 5009.00    1.19279   1.13729   -1.000
 5010.00    1.20041   1.15800   -1.000
 5011.00    1.18286   1.15812   61.870
 5012.00    1.15343   1.13732   62.309
 5013.00    1.12398   1.10838   63.922
 5014.00    1.11476   1.08682   66.211
 5015.00    1.13252   1.08175   -1.000
 5016.00    1.14698   1.09030   -1.000
 5017.00    1.14773   1.10124   -1.000
 5018.00    1.14165   1.10644   65.510
 5019.00    1.15131   1.10932   -1.000
 5020.00    1.16983   1.11746   -1.000
 5021.00    1.17539   1.12796   -1.000
 5022.00    1.17397   1.13366   -1.000
 5023.00    1.17729   1.13635   -1.000
 5024.00    1.18914   1.14338   -1.000
 5025.00    1.19608   1.15534   -1.000
 5026.00    1.18903   1.16324   63.193
 5027.00    1.18473   1.16148   62.702
 5028.00    1.18810   1.15655   62.814
 5029.00    1.19620   1.15819   -1.000
 5030.00    1.20912   1.16862   -1.000
 5031.00    1.21890   1.18399   61.742
 5032.00    1.22956   1.20002   60.781
 5033.00    1.23939   1.21243   59.827
 5034.00    1.23248   1.21392   59.061
 5035.00    1.19703   1.19863   58.953
 5036.00    1.16278   1.17280   60.365
 5037.00    1.15911   1.15170   62.665
 5038.00    1.15794   1.14022   64.104
 5039.00    1.14590   1.12596   64.541
 5040.00    1.10699   1.09753   65.177
 5041.00    1.07360   1.06508   67.267
 5042.00    1.09575   1.05477   -1.000
 5043.00    1.14819   1.08021   -1.000
 5044.00    1.19315   1.12892   -1.000
 5045.00    1.22040   1.17708   -1.000
 5046.00    1.23435   1.20875   61.248
 5047.00    1.22518   1.21873   59.648
 5048.00    1.22517   1.20738   57.642
 5049.00    1.15322   1.18121   58.305
 5050.00    0.46001   1.15362   -1.000
 5051.00    0.04195   1.13723   -1.000
 5052.00    0.00687   1.13697   -1.000
 5053.00    0.39174   1.15134   -1.000
 5054.00    0.97579   1.17485   -1.000
 5055.00    1.23334   1.19806   -1.000
 5056.00    1.24682   1.21303   59.758
 5057.00    1.24541   1.21980   59.052
 5058.00    1.24682   1.22260   58.765
 5059.00    1.24355   1.22520   58.795
 5060.00    1.24352   1.22952   58.907
 5061.00    1.23828   1.23485   58.921
 5062.00    1.23811   1.23674   58.621
 5063.00    1.23535   1.22766   58.530
 5064.00    1.20787   1.20390   59.114
 5065.00    1.17982   1.17427   60.589
 5066.00    1.17801   1.15487   62.654
 5067.00    1.19671   1.15181   -1.000
 5068.00    1.20351   1.15729   -1.000
 5069.00    1.20315   1.16337   -1.000
 5070.00    1.21412   1.16915   -1.000
 5071.00    1.21493   1.17351   -1.000
 5072.00    1.20436   1.17244   61.458
 5073.00    1.19915   1.16685   61.700
 5074.00    1.20589   1.16384   -1.000
 5075.00    1.21374   1.16662   -1.000
 5076.00    1.21365   1.17120   -1.000
 5077.00    1.21014   1.17119   -1.000
 5078.00    1.18923   1.16004   60.968
 5079.00    1.14831   1.13455   61.380
 5080.00    1.12460   1.10469   63.089
 5081.00    1.13933   1.09027   -1.000
 5082.00    1.15535   1.09706   -1.000
 5083.00    1.16536   1.11325   -1.000
 5084.00    1.18756   1.12991   -1.000
 5085.00    1.20655   1.14706   -1.000
 5086.00    1.21956   1.16441   -1.000
 5087.00    1.21811   1.17759   -1.000
 5088.00    1.21904   1.18431   61.212
 5089.00    1.21790   1.18773   61.035
 5090.00    1.22351   1.19192   60.795
 5091.00    1.22918   1.19789   60.390
 5092.00    1.23588   1.20541   60.025
 5093.00    1.24674   1.21382   59.710
 5094.00    1.25937   1.21970   -1.000
 5095.00    1.24535   1.21687   58.548
 5096.00    1.22044   1.20098   58.778
 5097.00    1.21017   1.17460   59.821
 5098.00    1.18097   1.14607   61.112
 5099.00    1.15540   1.12557   62.549
 5100.00    1.17558   1.12304   -1.000
 5101.00    1.20186   1.14023   -1.000
 5102.00    1.21692   1.16515   -1.000
 5103.00    1.22783   1.18144   -1.000
 5104.00    1.22111   1.18340   -1.000
 5105.00    1.20547   1.17626   60.793
 5106.00    1.19641   1.16461   61.477
 5107.00    1.18402   1.14980   62.272
 5108.00    1.17328   1.13538   -1.000
 5109.00    1.17720   1.12670   -1.000
 5110.00    1.18347   1.12688   -1.000
 5111.00    1.19700   1.13656   -1.000
 5112.00    1.21698   1.15393   -1.000
 5113.00    1.22706   1.17292   -1.000
 5114.00    1.22936   1.18727   -1.000
 5115.00    1.22755   1.19686   60.876
 5116.00    1.22778   1.20478   60.270
 5117.00    1.23914   1.21262   59.886
 5118.00    1.25619   1.21881   -1.000
 5119.00    1.25591   1.21945   -1.000
 5120.00    1.23674   1.21161   58.785
 5121.00    1.22471   1.19610   59.387
 5122.00    1.20759   1.17581   60.257
 5123.00    1.17838   1.15322   61.229
 5124.00    1.15769   1.13227   62.636
 5125.00    1.16036   1.11932   -1.000
 5126.00    1.16819   1.11706   -1.000
 5127.00    1.17587   1.12056   -1.000
 5128.00    1.17643   1.12340   -1.000
 5129.00    1.17664   1.12470   -1.000
 5130.00    1.17665   1.12781   -1.000
 5131.00    1.18491   1.13551   -1.000
 5132.00    1.19646   1.14714   -1.000
 5133.00    1.20218   1.15889   -1.000
 5134.00    1.21068   1.16829   -1.000
 5135.00    1.21927   1.17479   -1.000
 5136.00    1.21661   1.17594   -1.000
 5137.00    1.19831   1.16709   60.541
 5138.00    1.16994   1.14857   61.256
 5139.00    1.14955   1.12990   62.652
 5140.00    1.14895   1.12085   63.821
 5141.00    1.16124   1.12135   -1.000
 5142.00    1.15839   1.12322   63.793
 5143.00    1.15188   1.12288   63.936
 5144.00    1.16341   1.12583   -1.000
 5145.00    1.17960   1.13343   -1.000
 5146.00    1.18042   1.13724   -1.000
 5147.00    1.17251   1.13317   -1.000
 5148.00    1.17869   1.12869   -1.000
 5149.00    1.18930   1.13064   -1.000
 5150.00    1.18416   1.13455   -1.000
 5151.00    1.16759   1.13188   63.149
 5152.00    1.16004   1.12330   -1.000
 5153.00    1.16384   1.11671   -1.000
 5154.00    1.17250   1.11727   -1.000
 5155.00    1.18719   1.12611   -1.000
 5156.00    1.20632   1.14324   -1.000
 5157.00    1.22023   1.16480   -1.000
 5158.00    1.22811   1.18346   -1.000
 5159.00    1.23515   1.19458   -1.000
 5160.00    1.23560   1.19799   -1.000
 5161.00    1.22784   1.19498   59.060
 5162.00    1.21686   1.18616   59.200
 5163.00    1.20760   1.17204   59.499
 5164.00    1.19037   1.15092   -1.000
 5165.00    1.14537   1.11551   60.928
 5166.00    1.06875   1.05778   62.816
 5167.00    0.99618   0.98622   67.117
 5168.00    0.97233   0.93318   -1.000
 5169.00    1.00895   0.92655   -1.000
 5170.00    1.05153   0.95521   -1.000
 5171.00    1.04351   0.97309   -1.000
 5172.00    0.98501   0.95347   74.176
 5173.00    0.96373   0.92560   -1.000
 5174.00    1.02993   0.93684   -1.000
 5175.00    1.12540   0.99732   -1.000
 5176.00    1.18987   1.07222   -1.000
 5177.00    1.21629   1.12529   -1.000
 5178.00    1.22945   1.15014   -1.000
 5179.00    1.23071   1.15665   -1.000
 5180.00    1.20859   1.14900   -1.000
 5181.00    1.16398   1.11919   -1.000
 5182.00    1.07796   1.05956   64.736
 5183.00    0.97723   0.98288   68.651
 5184.00    0.94847   0.92681   75.667
 5185.00    1.01590   0.92987   -1.000
 5186.00    1.11112   0.99092   -1.000
 5187.00    1.17101   1.06643   -1.000
 5188.00    1.18460   1.11730   -1.000
 5189.00    1.18158   1.13852   -1.000
 5190.00    1.18120   1.14216   -1.000
 5191.00    1.16742   1.13215   -1.000
 5192.00    1.14353   1.10976   62.977
 5193.00    1.13598   1.08898   -1.000
 5194.00    1.15114   1.08481   -1.000
 5195.00    1.16606   1.09462   -1.000
 5196.00    1.17557   1.10778   -1.000
 5197.00    1.18577   1.12169   -1.000
 5198.00    1.19859   1.13869   -1.000
 5199.00    1.20930   1.15724   -1.000
 5200.00    1.21582   1.17199   -1.000
 5201.00    1.22078   1.17836   -1.000
 5202.00    1.21260   1.17371   -1.000
 5203.00    1.19392   1.15707   -1.000
 5204.00    1.16849   1.12963   -1.000
 5205.00    1.14319   1.09662   -1.000
 5206.00    1.13465   1.06781   -1.000
 5207.00    1.13176   1.05092   -1.000
 5208.00    1.13178   1.04528   -1.000
 5209.00    1.13749   1.04725   -1.000
 5210.00    1.15685   1.06040   -1.000
 5211.00    1.18797   1.08957   -1.000
 5212.00    1.21599   1.12866   -1.000
 5213.00    1.23058   1.16313   -1.000
 5214.00    1.22649   1.17943   -1.000
 5215.00    1.20768   1.17353   59.445
 5216.00    1.18847   1.15524   59.496
 5217.00    1.18783   1.14259   -1.000
 5218.00    1.20668   1.14753   -1.000
 5219.00    1.23277   1.16713   -1.000
 5220.00    1.24689   1.18981   -1.000
 5221.00    1.25265   1.20577   -1.000
 5222.00    1.25426   1.21025   -1.000
 5223.00    1.23861   1.20098   58.531
 5224.00    1.20587   1.17658   58.957
 5225.00    1.15935   1.13726   60.430
 5226.00    1.11617   1.09079   62.731
 5227.00    1.09752   1.05732   65.571
 5228.00    1.12932   1.05670   -1.000
 5229.00    1.17813   1.09004   -1.000
 5230.00    1.21110   1.13567   -1.000
 5231.00    1.22063   1.16574   -1.000
 5232.00    1.20925   1.16896   -1.000
 5233.00    1.19441   1.15317   -1.000
 5234.00    1.18671   1.13686   -1.000
 5235.00    1.19541   1.13729   -1.000
 5236.00    1.21993   1.15660   -1.000
 5237.00    1.24148   1.18370   -1.000
 5238.00    1.24822   1.20557   -1.000
 5239.00    1.24594   1.21599   58.278
 5240.00    1.24259   1.21766   58.037
 5241.00    1.24001   1.21573   58.154
 5242.00    1.24136   1.21315   58.155
 5243.00    1.24261   1.21208   57.885
 5244.00    1.24768   1.21408   57.820
 5245.00    1.25612   1.21562   -1.000
 5246.00    1.24056   1.20803   57.676
 5247.00    1.21498   1.18886   58.402
 5248.00    1.20731   1.16786   60.038
 5249.00    1.20937   1.15451   -1.000
 5250.00    1.21027   1.14823   -1.000
 5251.00    1.20656   1.14623   -1.000
 5252.00    1.20557   1.14993   -1.000
 5253.00    1.20849   1.15770   -1.000
 5254.00    1.21152   1.16293   -1.000
 5255.00    1.21594   1.16444   -1.000
 5256.00    1.22853   1.17099   -1.000
 5257.00    1.24984   1.18957   -1.000
 5258.00    1.26563   1.21350   -1.000
 5259.00    1.26310   1.22818   58.039
 5260.00    1.24687   1.22410   57.155
 5261.00    1.20997   1.20000   57.352
 5262.00    1.17256   1.16065   58.585
 5263.00    1.13781   1.11531   60.785
 5264.00    1.11084   1.07398   63.595
 5265.00    1.10277   1.04527   -1.000
 5266.00    1.10523   1.03513   -1.000
 5267.00    1.11820   1.04087   -1.000
 5268.00    1.12242   1.04647   -1.000
 5269.00    1.10126   1.03568   -1.000
 5270.00    1.08348   1.01622   -1.000
 5271.00    1.11453   1.01617   -1.000
 5272.00    1.16669   1.04930   -1.000
 5273.00    1.18583   1.09487   -1.000
 5274.00    1.18073   1.12380   -1.000
 5275.00    1.18131   1.13285   -1.000
 5276.00    1.19477   1.13952   -1.000
 5277.00    1.22022   1.15851   -1.000
 5278.00    1.24633   1.18763   -1.000
 5279.00    1.25703   1.21020   -1.000
 5280.00    1.24354   1.21203   57.349
 5281.00    1.21851   1.19429   57.212
 5282.00    1.20114   1.16923   58.254
 5283.00    1.19203   1.14881   -1.000
 5284.00    1.19709   1.14245   -1.000
 5285.00    1.22185   1.15665   -1.000
 5286.00    1.25147   1.18763   -1.000
 5287.00    1.27281   1.21944   -1.000
 5288.00    1.25389   1.23822   57.347
 5289.00    1.22885   1.24493   56.419
 5290.00    1.25708   1.24791   56.493
 5291.00    1.27474   1.24986   56.614
 5292.00    1.27263   1.24828   56.389
 5293.00    1.26686   1.24312   56.185
 5294.00    1.25897   1.23601   56.358
 5295.00    1.25021   1.22400   56.830
 5296.00    1.22549   1.20111   57.511
 5297.00    1.19152   1.16826   58.784
 5298.00    1.17537   1.13925   60.825
 5299.00    1.18538   1.13059   -1.000
 5300.00    1.20931   1.14313   -1.000
 5301.00    1.21884   1.16201   -1.000
 5302.00    1.21821   1.17672   -1.000
 5303.00    1.23388   1.19078   -1.000
 5304.00    1.25596   1.21028   -1.000
 5305.00    1.26437   1.23068   57.999
 5306.00    1.26420   1.24118   56.728
 5307.00    1.25874   1.23952   56.266
 5308.00    1.25499   1.23447   56.582
 5309.00    1.26452   1.23556   57.116
 5310.00    1.28101   1.24353   -1.000
 5311.00    1.28308   1.25113   56.520
 5312.00    1.27663   1.25246   56.067
 5313.00    1.26990   1.24764   55.976
 5314.00    1.26355   1.23922   56.207
 5315.00    1.25649   1.22826   56.484
 5316.00    1.24215   1.21546   56.830
 5317.00    1.23486   1.20501   57.342
 5318.00    1.24421   1.20324   -1.000
 5319.00    1.25985   1.21006   -1.000
 5320.00    1.26056   1.21749   -1.000
 5321.00    1.24994   1.21854   57.475
 5322.00    1.23450   1.21113   57.521
 5323.00    1.21611   1.19596   57.866
 5324.00    1.20513   1.17767   58.450
 5325.00    1.20471   1.16261   -1.000
 5326.00    1.19689   1.14757   -1.000
 5327.00    1.15837   1.12027   60.283
 5328.00    1.11399   1.08060   61.278
 5329.00    1.11416   1.05376   -1.000
 5330.00    1.16266   1.06672   -1.000
 5331.00    1.21024   1.11287   -1.000
 5332.00    1.22528   1.15891   -1.000
 5333.00    1.23197   1.18484   -1.000
 5334.00    1.24389   1.19740   -1.000
 5335.00    1.25088   1.20783   -1.000
 5336.00    1.25219   1.21614   -1.000
 5337.00    1.24232   1.21736   57.466
 5338.00    1.23139   1.20970   57.612
 5339.00    1.21912   1.19323   58.003
 5340.00    1.19756   1.17043   58.538
 5341.00    1.18652   1.15200   59.703
 5342.00    1.20459   1.15164   -1.000
 5343.00    1.22829   1.16945   -1.000
 5344.00    1.24460   1.18946   -1.000
 5345.00    1.24410   1.19798   -1.000
 5346.00    1.23407   1.19481   -1.000
 5347.00    1.22917   1.18643   -1.000
 5348.00    1.22138   1.17781   -1.000
 5349.00    1.21326   1.17174   -1.000
 5350.00    1.21845   1.17293   -1.000
 5351.00    1.23896   1.18490   -1.000
 5352.00    1.25062   1.20286   -1.000
 5353.00    1.25144   1.21865   58.026
 5354.00    1.25651   1.22959   57.049
 5355.00    1.26913   1.23946   56.682
 5356.00    1.27806   1.25049   56.354
 5357.00    1.28396   1.25906   55.730
 5358.00    1.28596   1.26216   55.188
 5359.00    1.28153   1.26041   55.067
 5360.00    1.27570   1.25471   55.152
 5361.00    1.26531   1.24465   55.309
 5362.00    1.24929   1.23111   55.786
 5363.00    1.23737   1.21702   56.628
 5364.00    1.22763   1.20444   57.515
 5365.00    1.22015   1.19431   58.088
 5366.00    1.21990   1.18795   58.438
 5367.00    1.22111   1.18568   58.784
 5368.00    1.21636   1.18304   58.813
 5369.00    1.20373   1.17161   58.722
 5370.00    1.18375   1.14804   59.089
 5371.00    1.16612   1.12204   -1.000
 5372.00    1.17468   1.11286   -1.000
 5373.00    1.21107   1.13224   -1.000
 5374.00    1.24691   1.17128   -1.000
 5375.00    1.26908   1.20889   -1.000
 5376.00    1.27863   1.23042   -1.000
 5377.00    1.27446   1.23600   -1.000
 5378.00    1.27087   1.23409   56.014
 5379.00    1.26531   1.23085   56.112
 5380.00    1.25029   1.22650   56.181
 5381.00    1.23728   1.21913   56.424
 5382.00    1.22915   1.20947   56.899
 5383.00    1.22566   1.20157   57.469
 5384.00    1.23200   1.19982   57.864
 5385.00    1.24663   1.20566   -1.000
 5386.00    1.25923   1.21551   -1.000
 5387.00    1.25932   1.22244   57.262
 5388.00    1.25273   1.22158   56.935
 5389.00    1.24597   1.21260   57.063
 5390.00    1.23608   1.19876   57.510
 5391.00    1.23388   1.18540   -1.000
 5392.00    1.23576   1.17580   -1.000
 5393.00    1.22561   1.16978   -1.000
 5394.00    1.21579   1.16618   -1.000
 5395.00    1.21377   1.16146   -1.000
 5396.00    1.20289   1.15017   -1.000
 5397.00    1.18646   1.13440   -1.000
 5398.00    1.18783   1.12674   -1.000
 5399.00    1.20764   1.13663   -1.000
 5400.00    1.22581   1.15846   -1.000
 5401.00    1.22996   1.17853   -1.000
 5402.00    1.22614   1.18747   58.410
 5403.00    1.20984   1.18074   58.383
 5404.00    1.18020   1.15677   58.716
 5405.00    1.16146   1.12367   59.971
 5406.00    1.16508   1.10037   -1.000
 5407.00    1.18627   1.10084   -1.000
 5408.00    1.20736   1.11820   -1.000
 5409.00    1.20594   1.13326   -1.000
 5410.00    1.19381   1.13763   -1.000
 5411.00    1.20062   1.14199   -1.000
 5412.00    1.22323   1.15810   -1.000
 5413.00    1.23823   1.18028   -1.000
 5414.00    1.23645   1.19507   -1.000
 5415.00    1.22879   1.19972   57.887
 5416.00    1.23657   1.20327   57.687
 5417.00    1.25054   1.21166   -1.000
 5418.00    1.24917   1.21948   57.493
 5419.00    1.24261   1.21990   57.082
 5420.00    1.23809   1.21418   57.074
 5421.00    1.23656   1.20807   57.529
 5422.00    1.23593   1.20402   57.980
 5423.00    1.22646   1.19883   57.975
 5424.00    1.21471   1.19066   57.720
 5425.00    1.22021   1.18683   58.097
 5426.00    1.24038   1.19535   -1.000
 5427.00    1.24766   1.20946   -1.000
 5428.00    1.22965   1.21011   57.742
 5429.00    1.20213   1.18908   57.427
 5430.00    1.19042   1.16218   58.472
 5431.00    1.20234   1.15077   -1.000
 5432.00    1.21770   1.15599   -1.000
 5433.00    1.21482   1.16072   -1.000
 5434.00    1.19645   1.15379   -1.000
 5435.00    1.19059   1.14289   -1.000
 5436.00    1.20353   1.14332   -1.000
 5437.00    1.22575   1.16151   -1.000
 5438.00    1.25154   1.19109   -1.000
 5439.00    1.27265   1.21962   -1.000
 5440.00    1.28301   1.23864   -1.000
 5441.00    1.27520   1.24781   56.743
 5442.00    1.26260   1.25069   56.152
 5443.00    1.25548   1.24810   55.912
 5444.00    1.23874   1.23568   55.886
 5445.00    1.21113   1.20897   56.226
 5446.00    1.18872   1.17261   57.366
 5447.00    1.18614   1.14322   -1.000
 5448.00    1.20981   1.13786   -1.000
 5449.00    1.23986   1.15843   -1.000
 5450.00    1.25577   1.18932   -1.000
 5451.00    1.26308   1.21199   -1.000
 5452.00    1.26355   1.21865   -1.000
 5453.00    1.24690   1.21015   -1.000
 5454.00    1.21760   1.18855   58.000
 5455.00    1.19534   1.16009   59.004
 5456.00    1.19571   1.14042   -1.000
 5457.00    1.22101   1.14559   -1.000
 5458.00    1.25215   1.17400   -1.000
 5459.00    1.26513   1.20493   -1.000
 5460.00    1.26036   1.21919   -1.000
 5461.00    1.24611   1.21357   57.695
 5462.00    1.22445   1.19594   57.994
 5463.00    1.21043   1.17798   58.952
 5464.00    1.21394   1.17045   -1.000
 5465.00    1.22780   1.17653   -1.000
 5466.00    1.23807   1.18943   -1.000
 5467.00    1.24336   1.20056   -1.000
 5468.00    1.24771   1.20735   -1.000
 5469.00    1.25012   1.21040   -1.000
 5470.00    1.25312   1.20930   -1.000
 5471.00    1.24950   1.20425   -1.000
 5472.00    1.24107   1.19734   -1.000
 5473.00    1.23299   1.18981   -1.000
 5474.00    1.22062   1.18016   -1.000
 5475.00    1.19817   1.16546   59.933
 5476.00    1.17301   1.14544   60.696
 5477.00    1.16920   1.12850   -1.000
 5478.00    1.19142   1.12863   -1.000
 5479.00    1.21994   1.14760   -1.000
 5480.00    1.22860   1.16789   -1.000
 5481.00    1.22109   1.17343   -1.000
 5482.00    1.21756   1.16823   -1.000
 5483.00    1.22638   1.16817   -1.000
 5484.00    1.23936   1.18105   -1.000
 5485.00    1.24322   1.19933   -1.000
 5486.00    1.24150   1.20953   58.956
 5487.00    1.23785   1.20575   58.132
 5488.00    1.22888   1.19432   58.255
 5489.00    1.22133   1.18647   59.024
 5490.00    1.22774   1.18756   -1.000
 5491.00    1.23440   1.19437   -1.000
 5492.00    1.23870   1.20076   -1.000
 5493.00    1.24019   1.20323   59.043
 5494.00    1.23256   1.20249   58.733
 5495.00    1.23248   1.20107   58.719
 5496.00    1.23685   1.19850   -1.000
 5497.00    1.23258   1.19321   -1.000
 5498.00    1.22909   1.18913   -1.000
 5499.00    1.23483   1.19142   -1.000
 5500.00    1.23642   1.19576   -1.000
 5501.00    1.22391   1.19242   58.935
 5502.00    1.21135   1.18119   58.879
 5503.00    1.21894   1.17260   -1.000
 5504.00    1.23694   1.17246   -1.000
 5505.00    1.23769   1.17377   -1.000
 5506.00    1.22074   1.16894   -1.000
 5507.00    1.21122   1.16170   -1.000
 5508.00    1.22091   1.16182   -1.000
 5509.00    1.23235   1.17143   -1.000
 5510.00    1.22750   1.18080   -1.000
 5511.00    1.21454   1.17961   59.250
 5512.00    1.21130   1.16748   -1.000
 5513.00    1.20546   1.15262   -1.000
 5514.00    1.20210   1.14518   -1.000
 5515.00    1.21711   1.14951   -1.000
 5516.00    1.23958   1.16216   -1.000
 5517.00    1.25011   1.17778   -1.000
 5518.00    1.25226   1.19335   -1.000
 5519.00    1.26228   1.20681   -1.000
 5520.00    1.26141   1.21531   -1.000
 5521.00    1.25298   1.21731   57.352
 5522.00    1.25102   1.21541   57.376
 5523.00    1.25157   1.21365   -1.000
 5524.00    1.24444   1.21214   57.648
 5525.00    1.23192   1.20663   57.798
 5526.00    1.21753   1.19259   58.026
 5527.00    1.19253   1.17040   58.625
 5528.00    1.17143   1.14861   59.745
 5529.00    1.17903   1.14014   -1.000
 5530.00    1.20899   1.15121   -1.000
 5531.00    1.23167   1.17369   -1.000
 5532.00    1.23737   1.19179   -1.000
 5533.00    1.23269   1.19684   58.800
 5534.00    1.22465   1.19187   58.553
 5535.00    1.22155   1.18471   58.947
 5536.00    1.22649   1.18152   -1.000
 5537.00    1.23427   1.18408   -1.000
 5538.00    1.24212   1.18996   -1.000
 5539.00    1.24814   1.19666   -1.000
 5540.00    1.25097   1.20437   -1.000
 5541.00    1.25157   1.21186   -1.000
 5542.00    1.24768   1.21421   57.546
 5543.00    1.23741   1.20912   57.354
 5544.00    1.23166   1.20099   57.707
 5545.00    1.23124   1.19613   58.328
 5546.00    1.23229   1.19673   58.682
 5547.00    1.24070   1.20110   -1.000
 5548.00    1.25078   1.20865   -1.000
 5549.00    1.25788   1.21882   -1.000
 5550.00    1.26091   1.22754   57.732
 5551.00    1.25822   1.23080   57.196
 5552.00    1.25659   1.22808   56.906
 5553.00    1.25274   1.22074   57.023
 5554.00    1.23989   1.21181   57.453
 5555.00    1.23275   1.20601   58.048
 5556.00    1.23636   1.20564   58.520
 5557.00    1.23954   1.20816   58.585
 5558.00    1.24384   1.21005   58.428
 5559.00    1.24734   1.21099   58.284
 5560.00    1.24895   1.21200   58.203
 5561.00    1.24201   1.21120   58.137
 5562.00    1.23015   1.20598   58.173
 5563.00    1.22317   1.19778   58.400
 5564.00    1.21759   1.19063   58.864
 5565.00    1.21616   1.18657   59.383
 5566.00    1.21584   1.18441   59.657
 5567.00    1.21879   1.18245   59.789
 5568.00    1.21783   1.18075   59.878
 5569.00    1.21170   1.17988   59.838
 5570.00    1.21297   1.18010   59.702
 5571.00    1.21450   1.18041   59.733
 5572.00    1.20655   1.17884   59.811
 5573.00    1.20058   1.17601   59.779
 5574.00    1.20809   1.17614   59.878
 5575.00    1.21409   1.18193   59.839
 5576.00    1.19826   1.18995   59.356
 5577.00    1.11548   1.19574   -1.000
 5578.00    0.89769   1.19986   -1.000
 5579.00    0.61224   1.20424   -1.000
 5580.00    0.50026   1.20770   -1.000
 5581.00    0.70318   1.20823   -1.000
 5582.00    1.03523   1.20582   -1.000
 5583.00    1.20570   1.20223   60.055
 5584.00    1.22511   1.19811   59.307
 5585.00    1.21642   1.18970   58.930
 5586.00    1.19546   1.17169   59.072
 5587.00    1.16489   1.14556   59.935
 5588.00    1.14918   1.12159   61.427
 5589.00    1.15588   1.11076   -1.000
 5590.00    1.17435   1.11628   -1.000
 5591.00    1.19472   1.13264   -1.000
 5592.00    1.20349   1.14943   -1.000
 5593.00    1.19982   1.15864   -1.000
 5594.00    1.19823   1.16140   61.075
 5595.00    1.20391   1.16579   -1.000
 5596.00    1.21588   1.17598   -1.000
 5597.00    1.22148   1.18479   -1.000
 5598.00    1.20976   1.18261   59.723
 5599.00    1.19637   1.17088   59.788
 5600.00    1.19133   1.15804   60.661
 5601.00    1.18872   1.14738   -1.000
 5602.00    1.18350   1.13921   -1.000
 5603.00    1.18687   1.13899   -1.000
 5604.00    1.20898   1.15314   -1.000
 5605.00    1.23209   1.17965   -1.000
 5606.00    1.24664   1.20736   -1.000
 5607.00    1.24817   1.22576   58.912
 5608.00    1.25057   1.23323   57.910
 5609.00    1.25489   1.23428   57.541
 5610.00    1.25417   1.23407   57.554
 5611.00    1.25653   1.23534   57.667
 5612.00    1.25467   1.23605   57.698
 5613.00    1.24229   1.22876   57.567
 5614.00    1.21291   1.20671   57.606
 5615.00    1.17736   1.17377   58.365
 5616.00    1.17010   1.14742   60.043
 5617.00    1.19619   1.14399   -1.000
 5618.00    1.22303   1.16064   -1.000
 5619.00    1.23205   1.18048   -1.000
 5620.00    1.23191   1.19303   -1.000
 5621.00    1.23668   1.20022   59.488
 5622.00    1.23698   1.20412   59.323
 5623.00    1.22415   1.20051   59.027
 5624.00    1.21059   1.18728   59.004
 5625.00    1.20554   1.17226   59.746
 5626.00    1.21656   1.16752   -1.000
 5627.00    1.23122   1.17682   -1.000
 5628.00    1.24184   1.19263   -1.000
 5629.00    1.25046   1.20668   -1.000
 5630.00    1.25329   1.21677   58.887
 5631.00    1.25433   1.22296   58.337
 5632.00    1.25188   1.22455   58.053
 5633.00    1.24354   1.22156   57.870
 5634.00    1.23620   1.21535   57.775
 5635.00    1.23375   1.20732   58.050
 5636.00    1.22817   1.19850   58.512
 5637.00    1.22181   1.19039   58.902
 5638.00    1.22457   1.18547   -1.000
 5639.00    1.22515   1.18489   -1.000
 5640.00    1.22024   1.18596   59.933
 5641.00    1.21922   1.18496   59.878
 5642.00    1.22159   1.18248   -1.000
 5643.00    1.22431   1.18266   -1.000
 5644.00    1.22698   1.18680   -1.000
 5645.00    1.23175   1.19219   -1.000
 5646.00    1.23254   1.19673   59.501
 5647.00    1.23373   1.19991   59.261
 5648.00    1.23927   1.20081   -1.000
 5649.00    1.23894   1.19883   -1.000
 5650.00    1.23778   1.19603   -1.000
 5651.00    1.23923   1.19628   -1.000
 5652.00    1.23833   1.20016   -1.000
 5653.00    1.22980   1.20319   58.558
 5654.00    1.21791   1.20115   58.210
 5655.00    1.21508   1.19441   58.264
 5656.00    1.21002   1.18447   58.631
 5657.00    1.19364   1.16971   59.163
 5658.00    1.17644   1.15059   60.009
 5659.00    1.17200   1.13604   61.542
 5660.00    1.18391   1.13599   -1.000
 5661.00    1.20182   1.14782   -1.000
 5662.00    1.20175   1.15914   -1.000
 5663.00    1.19821   1.16542   60.978
 5664.00    1.21003   1.17308   60.984
 5665.00    1.22164   1.18435   -1.000
 5666.00    1.22319   1.19220   59.899
 5667.00    1.21778   1.19126   59.332
 5668.00    1.21876   1.18505   59.404
 5669.00    1.22030   1.18096   -1.000
 5670.00    1.22120   1.18257   -1.000
 5671.00    1.22860   1.18872   -1.000
 5672.00    1.23426   1.19753   59.661
 5673.00    1.23748   1.20703   59.195
 5674.00    1.23744   1.21417   58.634
 5675.00    1.23937   1.21710   58.051
 5676.00    1.23949   1.21726   57.767
 5677.00    1.23766   1.21717   57.908
 5678.00    1.23818   1.21674   57.931
 5679.00    1.23882   1.21377   57.763
 5680.00    1.23545   1.20762   57.864
 5681.00    1.22713   1.19912   58.159
 5682.00    1.21324   1.18827   58.439
 5683.00    1.20060   1.17678   58.954
 5684.00    1.19939   1.16995   59.675
 5685.00    1.20136   1.17060   60.113
 5686.00    1.19922   1.17428   59.975
 5687.00    1.19679   1.17478   59.633
 5688.00    1.19744   1.17191   59.634
 5689.00    1.20381   1.17109   60.156
 5690.00    1.21695   1.17663   -1.000
 5691.00    1.22905   1.18741   -1.000
 5692.00    1.23575   1.19864   -1.000
 5693.00    1.23763   1.20636   58.579
 5694.00    1.22935   1.20947   58.153
 5695.00    1.23018   1.20933   57.915
 5696.00    1.23498   1.20772   57.912
 5697.00    1.23182   1.20472   57.982
 5698.00    1.22856   1.19926   58.080
 5699.00    1.21990   1.19109   58.445
 5700.00    1.20319   1.18208   59.103
 5701.00    1.19181   1.17417   59.717
 5702.00    1.18858   1.16920   60.284
 5703.00    1.20011   1.16991   60.772
 5704.00    1.21046   1.17529   60.679
 5705.00    1.20337   1.17891   60.088
 5706.00    1.19039   1.17508   59.673
 5707.00    1.18102   1.16397   59.819
 5708.00    1.16697   1.14963   60.466
 5709.00    1.14845   1.13621   61.482
 5710.00    1.14252   1.12720   62.564
 5711.00    1.15141   1.12591   63.240
 5712.00    1.17206   1.13369   -1.000
 5713.00    1.19078   1.14989   -1.000
 5714.00    1.20934   1.17083   -1.000
 5715.00    1.22261   1.18890   60.477
 5716.00    1.22503   1.19938   59.228
 5717.00    1.22330   1.20452   58.686
 5718.00    1.22697   1.20802   58.563
 5719.00    1.23009   1.21173   58.410
 5720.00    1.23592   1.21655   58.175
 5721.00    1.24383   1.22208   57.839
 5722.00    1.24570   1.22711   57.506
 5723.00    1.24259   1.23080   57.306
 5724.00    1.24052   1.23256   57.200
 5725.00    1.23905   1.23078   57.124
 5726.00    1.23522   1.22409   57.149
 5727.00    1.22753   1.21482   57.460
 5728.00    1.22229   1.20882   58.029
 5729.00    1.22883   1.20898   58.582
 5730.00    1.22993   1.21163   58.680
 5731.00    1.22003   1.21175   58.285
 5732.00    1.22103   1.20991   58.169
 5733.00    1.23092   1.21124   58.433
 5734.00    1.23526   1.21791   58.505
 5735.00    1.23484   1.22549   58.082
 5736.00    1.23488   1.22815   57.581
 5737.00    1.23530   1.22561   57.423
 5738.00    1.23286   1.22182   57.514
 5739.00    1.22845   1.21972   57.627
 5740.00    1.22576   1.21943   57.752
 5741.00    1.22535   1.21909   57.819
 5742.00    1.22586   1.21764   57.937
 5743.00    1.22231   1.21656   58.039
 5744.00    1.22385   1.21828   58.055
 5745.00    1.23504   1.22249   57.930
 5746.00    1.23460   1.22486   57.719
 5747.00    1.22179   1.22160   57.311
 5748.00    1.21850   1.21530   57.291
 5749.00    1.22376   1.21286   57.771
 5750.00    1.22625   1.21628   58.207
 5751.00    1.21599   1.21850   58.145
 5752.00    1.20158   1.21156   57.832
 5753.00    1.19031   1.19639   57.952
 5754.00    1.19416   1.18348   58.571
 5755.00    1.20475   1.18330   59.245
 5756.00    1.21650   1.19651   59.560
 5757.00    1.23019   1.21434   59.167
 5758.00    1.23663   1.22670   58.202
 5759.00    1.23070   1.22871   57.272
 5760.00    1.21666   1.22104   57.002
 5761.00    1.20137   1.20792   57.447
 5762.00    1.20022   1.19496   58.173
 5763.00    1.20552   1.18849   58.956
 5764.00    1.21102   1.19375   59.543
 5765.00    1.22341   1.20918   59.386
 5766.00    1.23659   1.22549   58.488
 5767.00    1.24002   1.23465   57.560
 5768.00    1.24043   1.23680   57.114
 5769.00    1.23824   1.23531   57.028
 5770.00    1.22868   1.23220   56.958
 5771.00    1.22204   1.22835   56.948
 5772.00    1.21980   1.22411   57.115
 5773.00    1.21910   1.21946   57.364
 5774.00    1.21626   1.21512   57.710
 5775.00    1.20802   1.21257   57.979
 5776.00    1.20675   1.21296   58.073
 5777.00    1.21142   1.21548   58.058
 5778.00    1.21149   1.21579   57.848
 5779.00    1.20341   1.20902   57.645
 5780.00    1.18586   1.19429   57.712
 5781.00    1.16755   1.17600   58.190
 5782.00    1.16125   1.16148   59.291
 5783.00    1.16097   1.15551   60.431
 5784.00    1.16535   1.15623   60.786
 5785.00    1.17768   1.15888   60.557
 5786.00    1.18910   1.16357   60.327
 5787.00    1.20227   1.17381   60.111
 5788.00    1.21125   1.18754   59.699
 5789.00    1.21008   1.19763   58.942
 5790.00    1.20892   1.20049   58.291
 5791.00    1.20566   1.19844   58.085
 5792.00    1.20734   1.19763   58.271
 5793.00    1.22207   1.20280   58.401
 5794.00    1.22226   1.21255   58.117
 5795.00    1.21689   1.22147   57.643
 5796.00    1.21933   1.22481   57.278
 5797.00    1.20993   1.22123   57.061
 5798.00    1.20880   1.21532   57.204
 5799.00    1.21463   1.21484   57.586
 5800.00    1.22386   1.22222   57.688
 5801.00    1.23485   1.23225   57.169
 5802.00    1.23580   1.23810   56.385
 5803.00    1.22759   1.23634   55.873
 5804.00    1.22043   1.22815   56.039
 5805.00    1.21623   1.21865   56.540
 5806.00    1.21293   1.21347   56.980
 5807.00    1.21542   1.21420   57.364
 5808.00    1.21735   1.21838   57.443
 5809.00    1.21760   1.22303   57.247
 5810.00    1.22823   1.22701   57.047
 5811.00    1.22471   1.23034   56.949
 5812.00    1.22556   1.23219   56.938
 5813.00    1.22886   1.23118   56.812
 5814.00    1.22759   1.22649   56.604
 5815.00    1.21895   1.21873   56.556
 5816.00    1.21431   1.21138   56.835
 5817.00    1.21766   1.20990   57.252
 5818.00    1.22800   1.21689   57.270
 5819.00    1.23905   1.22788   56.893
 5820.00    1.24219   1.23609   56.531
 5821.00    1.23874   1.23890   56.241
 5822.00    1.24107   1.23782   56.001
 5823.00    1.23896   1.23555   55.933
 5824.00    1.23313   1.23386   56.089
 5825.00    1.23540   1.23332   56.174
 5826.00    1.24104   1.23379   56.055
 5827.00    1.24403   1.23489   55.969
 5828.00    1.24284   1.23636   55.881
 5829.00    1.23962   1.23809   55.860
 5830.00    1.23619   1.23942   55.920
 5831.00    1.23421   1.23949   55.951
 5832.00    1.23320   1.23821   55.869
 5833.00    1.22960   1.23582   55.862
 5834.00    1.23148   1.23231   55.849
 5835.00    1.23879   1.22885   56.084
 5836.00    1.24309   1.22774   56.369
 5837.00    1.23875   1.22908   56.322
 5838.00    1.23187   1.23062   56.145
 5839.00    1.23295   1.23186   56.159
 5840.00    1.23730   1.23455   56.344
 5841.00    1.24256   1.23868   56.344
 5842.00    1.24153   1.24186   56.045
 5843.00    1.23882   1.24219   55.662
 5844.00    1.23778   1.23939   55.503
 5845.00    1.23009   1.23413   55.607
 5846.00    1.21919   1.22711   55.817
 5847.00    1.21349   1.21999   56.096
 5848.00    1.22025   1.21537   56.449
 5849.00    1.22623   1.21463   56.718
 5850.00    1.23108   1.21541   56.867
 5851.00    1.22428   1.21313   56.833
 5852.00    1.21104   1.20545   57.033
 5853.00    1.20333   1.19537   57.390
 5854.00    1.20129   1.18827   57.830
 5855.00    1.20077   1.18506   58.308
 5856.00    1.19407   1.18052   58.489
 5857.00    1.18474   1.17023   58.563
 5858.00    1.18134   1.15915   58.831
 5859.00    1.19228   1.15741   59.464
 5860.00    1.20669   1.16716   -1.000
 5861.00    1.20977   1.18090   59.008
 5862.00    1.21911   1.19106   58.345
 5863.00    1.21740   1.19659   58.000
 5864.00    1.21259   1.19998   57.809
 5865.00    1.21396   1.20147   57.617
 5866.00    1.20938   1.19918   57.645
 5867.00    1.20626   1.19503   57.839
 5868.00    1.20968   1.19455   58.074
 5869.00    1.21488   1.20042   58.237
 5870.00    1.22303   1.20907   57.957
 5871.00    1.22551   1.21524   57.390
 5872.00    1.22286   1.21682   57.007
 5873.00    1.22588   1.21512   56.867
 5874.00    1.22907   1.21305   56.937
 5875.00    1.22943   1.21182   57.049
 5876.00    1.22405   1.21066   57.006
 5877.00    1.22167   1.20798   57.008
 5878.00    1.22095   1.20278   57.230
 5879.00    1.21957   1.19553   57.420
 5880.00    1.21824   1.18825   57.625
 5881.00    1.21551   1.18320   58.085
 5882.00    1.21014   1.18081   58.309
 5883.00    1.20451   1.17891   58.218
 5884.00    1.20199   1.17573   58.102
 5885.00    1.20179   1.17221   58.216
 5886.00    1.19534   1.16729   58.414
 5887.00    1.17626   1.15133   58.501
 5888.00    1.12672   1.11173   58.907
 5889.00    1.04511   1.05047   60.173
 5890.00    0.95482   0.99320   63.106
 5891.00    0.88491   0.97175   -1.000
 5892.00    0.86831   0.99222   -1.000
 5893.00    0.91718   1.02755   -1.000
 5894.00    0.98919   1.04535   67.888
 5895.00    1.02528   1.03510   65.598
 5896.00    1.01324   1.01397   65.210
 5897.00    0.98394   1.01045   66.546
 5898.00    0.99051   1.03645   67.768
 5899.00    1.03984   1.07644   66.681
 5900.00    1.11086   1.11096   64.454
 5901.00    1.17042   1.13588   -1.000
 5902.00    1.19151   1.15370   -1.000
 5903.00    1.19458   1.16529   59.482
 5904.00    1.19970   1.17150   58.706
 5905.00    1.20117   1.17422   58.555
 5906.00    1.19977   1.17575   58.525
 5907.00    1.20875   1.17820   58.554
 5908.00    1.21319   1.18199   58.613
 5909.00    1.20848   1.18588   58.540
 5910.00    1.20634   1.18861   58.412
 5911.00    1.20149   1.18971   58.394
 5912.00    1.19655   1.18782   58.590
 5913.00    1.19364   1.18101   58.649
 5914.00    1.18118   1.16996   58.768
 5915.00    1.17597   1.15982   59.232
 5916.00    1.18336   1.15607   60.010
 5917.00    1.19147   1.15962   60.203
 5918.00    1.19583   1.16750   59.951
 5919.00    1.19995   1.17601   59.629
 5920.00    1.19708   1.18185   59.420
 5921.00    1.19645   1.18390   59.202
 5922.00    1.19934   1.18356   59.046
 5923.00    1.20158   1.18308   58.900
 5924.00    1.20153   1.18429   58.962
 5925.00    1.20348   1.18722   58.912
 5926.00    1.19541   1.19066   58.662
 5927.00    1.18693   1.19243   58.516
 5928.00    1.18355   1.19008   58.438
 5929.00    1.17961   1.18334   58.455
 5930.00    1.17727   1.17639   58.693
 5931.00    1.18702   1.17512   59.165
 5932.00    1.19813   1.17983   59.444
 5933.00    1.19512   1.18399   59.145
 5934.00    1.18952   1.18280   58.622
 5935.00    1.19109   1.17949   58.639
 5936.00    1.18460   1.18000   59.135
 5937.00    1.18515   1.18553   59.420
 5938.00    1.19798   1.19181   59.314
 5939.00    1.20265   1.19408   58.847
 5940.00    1.20354   1.19080   58.438
 5941.00    1.19636   1.18363   58.401
 5942.00    1.19207   1.17676   58.793
 5943.00    1.19106   1.17455   59.342
 5944.00    1.19160   1.17807   59.502
 5945.00    1.19034   1.18417   59.320
 5946.00    1.19029   1.18810   58.942
 5947.00    1.18297   1.18659   58.641
 5948.00    1.17043   1.18008   58.559
 5949.00    1.16787   1.17377   58.892
 5950.00    1.17369   1.17270   59.489
 5951.00    1.18063   1.17542   59.954
 5952.00    1.17732   1.17636   59.878
 5953.00    1.17711   1.17453   59.562
 5954.00    1.18211   1.17392   59.485
 5955.00    1.17867   1.17560   59.610
 5956.00    1.17638   1.17576   59.508
 5957.00    1.18317   1.17333   59.438
 5958.00    1.19000   1.17229   59.544
 5959.00    1.19598   1.17623   59.761
 5960.00    1.19845   1.18413   59.715
 5961.00    1.19600   1.19218   59.295
 5962.00    1.19737   1.19761   58.603
 5963.00    1.20347   1.19938   58.173
 5964.00    1.19901   1.19769   58.034
 5965.00    1.18883   1.19361   58.050
 5966.00    1.18887   1.18935   58.269
 5967.00    1.19211   1.18776   58.568
 5968.00    1.20024   1.18976   58.752
 5969.00    1.20255   1.19335   58.854
 5970.00    1.19895   1.19685   58.569
 5971.00    1.20079   1.20014   58.195
 5972.00    1.19860   1.20239   58.136
 5973.00    1.19369   1.20220   58.091
 5974.00    1.19035   1.19862   57.969
 5975.00    1.18133   1.19110   58.042
 5976.00    1.17678   1.18088   58.450
 5977.00    1.17099   1.17227   58.919
 5978.00    1.17358   1.16958   59.355
 5979.00    1.17946   1.17367   59.724
 5980.00    1.18655   1.18157   59.797
 5981.00    1.18584   1.18787   59.388
 5982.00    1.17842   1.18755   58.955
 5983.00    1.16773   1.17956   58.886
 5984.00    1.16520   1.16838   59.176
 5985.00    1.16814   1.16151   59.707
 5986.00    1.17231   1.16316   60.156
 5987.00    1.17552   1.17072   60.259
 5988.00    1.17985   1.17862   59.852
 5989.00    1.18971   1.18407   59.272
 5990.00    1.18846   1.18652   59.006
 5991.00    1.18202   1.18635   58.791
 5992.00    1.18238   1.18626   58.613
 5993.00    1.19043   1.18981   58.766
 5994.00    1.18810   1.19599   58.762
 5995.00    1.17994   1.19910   58.357
 5996.00    1.17993   1.19587   57.957
 5997.00    1.17592   1.18869   58.015
 5998.00    1.17476   1.18255   58.480
 5999.00    1.17429   1.18105   58.829
 6000.00    1.17757   1.18339   59.028
 6001.00    1.17644   1.18546   59.066
 6002.00    1.17022   1.18410   58.986
 6003.00    1.17119   1.18035   59.160
 6004.00    1.16980   1.17779   59.496
 6005.00    1.17011   1.17763   59.599
 6006.00    1.16912   1.17558   59.512
 6007.00    1.16179   1.16831   59.399
 6008.00    1.15739   1.15997   59.588
 6009.00    1.16035   1.15875   60.115
 6010.00    1.17223   1.16702   60.545
 6011.00    1.17789   1.17724   60.246
 6012.00    1.17405   1.18039   59.507
 6013.00    1.16684   1.17666   59.110
 6014.00    1.15946   1.17248   59.342
 6015.00    1.16199   1.17117   59.795
 6016.00    1.16404   1.17126   59.895
 6017.00    1.16211   1.17046   59.617
 6018.00    1.16692   1.16908   59.739
 6019.00    1.16574   1.16691   59.981
 6020.00    1.15642   1.16293   59.994
 6021.00    1.14685   1.15908   59.912
 6022.00    1.14758   1.15877   60.203
 6023.00    1.15846   1.16205   60.416
 6024.00    1.15663   1.16683   60.053
 6025.00    1.15794   1.17267   59.721
 6026.00    1.16635   1.17943   59.643
 6027.00    1.17319   1.18542   59.481
 6028.00    1.16754   1.18993   59.144
 6029.00    1.16846   1.19424   58.936
 6030.00    1.17283   1.19796   58.568
 6031.00    1.17643   1.20016   58.386
 6032.00    1.18544   1.20182   58.351
 6033.00    1.18722   1.20386   58.412
 6034.00    1.18286   1.20589   58.490
 6035.00    1.18084   1.20737   58.305
 6036.00    1.18228   1.20824   58.065
 6037.00    1.18093   1.20785   57.970
 6038.00    1.18205   1.20575   57.932
 6039.00    1.17894   1.20219   57.862
 6040.00    1.17208   1.19807   58.028
 6041.00    1.16899   1.19474   58.326
 6042.00    1.16821   1.19265   58.433
 6043.00    1.16861   1.19188   58.541
 6044.00    1.17289   1.19464   58.388
 6045.00    1.17227   1.20124   58.257
 6046.00    1.17792   1.20730   57.879
 6047.00    1.18036   1.21044   57.547
 6048.00    1.17906   1.21205   57.637
 6049.00    1.17649   1.21319   57.606
 6050.00    1.17774   1.21363   57.544
 6051.00    1.17536   1.21299   57.664
 6052.00    1.17440   1.21079   57.860
 6053.00    1.16718   1.20690   57.955
 6054.00    1.16029   1.20164   58.017
 6055.00    1.15746   1.19589   58.173
 6056.00    1.16014   1.19110   58.409
 6057.00    1.16357   1.18928   58.619
 6058.00    1.16829   1.19140   58.924
 6059.00    1.17005   1.19594   59.001
 6060.00    1.17045   1.20016   58.810
 6061.00    1.16632   1.20181   58.479
 6062.00    1.16625   1.19893   58.289
 6063.00    1.16381   1.19080   58.419
 6064.00    1.15795   1.17916   58.749
 6065.00    1.08153   1.16907   -1.000
 6066.00    0.87153   1.16729   -1.000
 6067.00    1.06476   1.17673   -1.000
 6068.00    1.01125   1.19194   -1.000
 6069.00    0.33858   1.20453   -1.000
 6070.00    0.30151   1.21141   -1.000
 6071.00    0.90641   1.21425   -1.000
 6072.00    1.15328   1.21470   58.062
 6073.00    1.06036   1.21342   -1.000
 6074.00    0.97638   1.21201   -1.000
 6075.00    0.46922   1.21192   -1.000
 6076.00    0.79440   1.20958   -1.000
 6077.00    1.20721   1.20300   57.916
 6078.00    1.13925   1.19466   58.159
 6079.00    1.14446   1.18806   58.480
 6080.00    1.14858   1.18468   58.850
 6081.00    1.14969   1.18242   59.296
 6082.00    1.14582   1.17939   59.555
 6083.00    1.14198   1.17711   59.557
 6084.00    1.14026   1.17707   59.651
 6085.00    1.14069   1.17833   59.789
 6086.00    1.14855   1.18008   59.751
 6087.00    1.15327   1.18271   59.701
 6088.00    1.15317   1.18533   59.606
 6089.00    1.14911   1.18521   59.402
 6090.00    1.13808   1.18147   59.251
 6091.00    1.13840   1.17672   59.474
 6092.00    1.14364   1.17452   59.830
 6093.00    1.14664   1.17649   59.992
 6094.00    1.15240   1.18159   59.837
 6095.00    1.15944   1.18755   59.439
 6096.00    1.16080   1.19193   59.147
 6097.00    1.15681   1.19440   58.826
 6098.00    1.15268   1.19652   58.653
 6099.00    1.15128   1.19793   58.737
 6100.00    1.14446   1.19408   58.866
 6101.00    1.13091   1.17997   58.881
 6102.00    1.11888   1.15772   59.063
 6103.00    1.10656   1.13956   60.043
 6104.00    1.11191   1.13820   61.467
 6105.00    1.13259   1.15236   62.013
 6106.00    1.14232   1.16970   61.225
 6107.00    1.14034   1.18107   60.057
 6108.00    1.13789   1.18667   59.366
 6109.00    1.14535   1.19039   59.343
 6110.00    1.14565   1.19335   59.588
 6111.00    1.14549   1.19406   59.676
 6112.00    1.14100   1.19345   59.608
 6113.00    1.14060   1.19442   59.435
 6114.00    1.14750   1.19712   59.222
 6115.00    1.14076   1.19867   59.165
 6116.00    1.14242   1.19762   58.853
 6117.00    1.13713   1.19551   58.829
 6118.00    1.13488   1.19293   59.136
 6119.00    1.13076   1.18634   59.465
 6120.00    1.12149   1.17294   59.561
 6121.00    1.10907   1.15529   60.021
 6122.00    1.09764   1.14033   60.935
 6123.00    1.10306   1.13656   61.654
 6124.00    1.12068   1.14599   62.088
 6125.00    1.13395   1.15989   61.817
 6126.00    1.12839   1.16935   60.757
 6127.00    1.13411   1.17275   60.200
 6128.00    1.13057   1.17356   60.351
 6129.00    1.12821   1.17604   60.630
 6130.00    1.13263   1.18197   60.486
 6131.00    1.13407   1.18971   60.267
 6132.00    1.13244   1.19600   59.714
 6133.00    1.12880   1.19719   -1.000
 6134.00    1.11701   1.18868   -1.000
 6135.00    1.09957   1.16675   -1.000
 6136.00    1.08279   1.13550   60.277
 6137.00    1.06587   1.10999   61.831
 6138.00    1.07026   1.10565   63.640
 6139.00    1.08669   1.12184   64.866
 6140.00    1.10080   1.14209   64.460
 6141.00    1.10848   1.15282   62.617
 6142.00    1.10461   1.15634   61.101
 6143.00    1.10454   1.16267   60.728
 6144.00    1.11336   1.17390   60.906
 6145.00    1.12497   1.18374   60.825
 6146.00    1.12415   1.18728   60.102
 6147.00    1.11939   1.18511   -1.000
 6148.00    1.10805   1.17985   -1.000
 6149.00    1.10868   1.17388   -1.000
 6150.00    1.12058   1.16917   60.328
 6151.00    1.12314   1.16759   60.750
 6152.00    1.12419   1.16970   61.013
 6153.00    1.11510   1.17266   60.925
 6154.00    1.10853   1.17217   -1.000
 6155.00    1.10556   1.16789   60.269
 6156.00    1.10412   1.16365   60.373
 6157.00    1.10882   1.16160   60.904
 6158.00    1.10405   1.15953   61.122
 6159.00    1.09744   1.15242   61.187
 6160.00    1.08021   1.13445   61.561
 6161.00    1.06103   1.10551   62.377
 6162.00    1.04985   1.07674   63.783
 6163.00    1.05132   1.06329   65.785
 6164.00    1.06171   1.07056   67.385
 6165.00    1.07817   1.09002   67.509
 6166.00    1.09046   1.10915   66.141
 6167.00    1.08690   1.11972   64.419
 6168.00    1.07787   1.11902   63.698
 6169.00    1.06707   1.10987   63.590
 6170.00    1.05786   1.10234   63.947
 6171.00    1.06850   1.10646   64.818
 6172.00    1.08501   1.12054   65.184
 6173.00    1.09127   1.13507   64.398
 6174.00    1.09373   1.14439   63.150
 6175.00    1.09153   1.14924   62.530
 6176.00    1.09594   1.15138   62.694
 6177.00    1.10291   1.15264   62.680
 6178.00    1.09967   1.15497   62.511
 6179.00    1.09467   1.15804   -1.000
 6180.00    1.09251   1.16068   -1.000
 6181.00    1.09484   1.16365   -1.000
 6182.00    1.10399   1.16779   -1.000
 6183.00    1.11143   1.17116   61.455
 6184.00    1.11165   1.17132   61.185
 6185.00    1.10618   1.16766   61.109
 6186.00    1.09772   1.16083   -1.000
 6187.00    1.09622   1.15259   61.567
 6188.00    1.09095   1.14481   62.133
 6189.00    1.08369   1.13657   62.825
 6190.00    1.07750   1.12514   63.455
 6191.00    1.06960   1.11284   64.022
 6192.00    1.07130   1.10838   64.546
 6193.00    1.08248   1.11747   65.358
 6194.00    1.09157   1.13473   65.462
 6195.00    1.09560   1.15065   64.402
 6196.00    1.10021   1.16052   62.823
 6197.00    1.10251   1.16362   62.020
 6198.00    1.09640   1.15999   -1.000
 6199.00    1.09496   1.15149   61.806
 6200.00    1.08990   1.14410   62.338
 6201.00    1.08956   1.14421   63.053
 6202.00    1.09554   1.15193   63.411
 6203.00    1.09734   1.16162   -1.000
 6204.00    1.09933   1.16865   -1.000
 6205.00    1.09461   1.17191   -1.000
 6206.00    1.09966   1.17313   -1.000
 6207.00    1.10309   1.17413   -1.000
 6208.00    1.10108   1.17493   -1.000
 6209.00    1.09886   1.17408   -1.000
 6210.00    1.09214   1.17009   -1.000
 6211.00    1.08961   1.16217   -1.000
 6212.00    1.08388   1.15008   -1.000
 6213.00    1.07258   1.13497   -1.000
 6214.00    1.06757   1.12130   63.352
 6215.00    1.07086   1.11407   64.065
 6216.00    1.07258   1.11422   65.023
 6217.00    1.07332   1.11825   65.525
 6218.00    1.07301   1.12071   65.432
 6219.00    1.07083   1.11902   64.553
 6220.00    1.06710   1.11623   64.498
 6221.00    1.06943   1.11734   64.939
 6222.00    1.07978   1.12340   64.533
 6223.00    1.08173   1.13029   64.215
 6224.00    1.09188   1.13459   65.557
 6225.00    1.08747   1.13673   69.667
 6226.00    1.08920   1.13782   66.126
 6227.00    1.08576   1.13675   63.651
 6228.00    1.07432   1.13037   63.902
 6229.00    1.07002   1.11664   63.968
 6230.00    1.05116   1.09915   64.480
 6231.00    1.04275   1.08690   65.460
 6232.00    1.04645   1.08728   66.518
 6233.00    1.06334   1.09966   67.111
 6234.00    1.07243   1.11745   66.549
 6235.00    1.07553   1.13279   65.467
 6236.00    1.08087   1.14024   64.231
 6237.00    1.06601   1.13872   -1.000
 6238.00    1.06118   1.13128   -1.000
 6239.00    1.05782   1.12225   -1.000
 6240.00    1.04509   1.11476   -1.000
 6241.00    1.05049   1.10989   -1.000
 6242.00    1.04859   1.10591   -1.000
 6243.00    1.04215   1.10047   -1.000
 6244.00    1.03192   1.09422   -1.000
 6245.00    1.03452   1.09025   -1.000
 6246.00    1.04911   1.09146   66.862
 6247.00    1.04426   1.09957   66.688
 6248.00    1.05105   1.11281   -1.000
 6249.00    1.05914   1.12486   -1.000
 6250.00    1.05295   1.12916   -1.000
 6251.00    1.05124   1.12278   -1.000
 6252.00    1.03888   1.10875   -1.000
 6253.00    1.02259   1.09451   -1.000
 6254.00    1.02593   1.08613   -1.000
 6255.00    1.02504   1.08343   -1.000
 6256.00    1.02553   1.08223   -1.000
 6257.00    1.02442   1.07992   -1.000
 6258.00    1.02938   1.07831   67.444
 6259.00    1.02777   1.08139   -1.000
 6260.00    1.04018   1.09068   68.577
 6261.00    1.04841   1.10416   -1.000
 6262.00    1.05119   1.11807   -1.000
 6263.00    1.05888   1.12840   -1.000
 6264.00    1.05364   1.13240   -1.000
 6265.00    1.05205   1.13144   -1.000
 6266.00    1.05853   1.13058   -1.000
 6267.00    1.05625   1.13268   -1.000
 6268.00    1.06021   1.13527   -1.000
 6269.00    1.05975   1.13482   -1.000
 6270.00    1.05328   1.13245   -1.000
 6271.00    1.04652   1.13177   -1.000
 6272.00    1.05027   1.13370   -1.000
 6273.00    1.06033   1.13566   -1.000
 6274.00    1.06222   1.13418   -1.000
 6275.00    1.05633   1.12787   -1.000
 6276.00    1.05007   1.11795   -1.000
 6277.00    1.04205   1.10651   -1.000
 6278.00    1.02863   1.09516   -1.000
 6279.00    1.00698   1.08564   -1.000
 6280.00    0.98532   1.08011   -1.000
 6281.00    0.97244   1.08145   -1.000
 6282.00    0.97722   1.09016   -1.000
 6283.00    0.98882   1.10357   -1.000
 6284.00    0.99156   1.11749   -1.000
 6285.00    0.99530   1.12870   -1.000
 6286.00    1.00346   1.13671   -1.000
 6287.00    1.01097   1.14248   -1.000
 6288.00    1.02085   1.14579   -1.000
 6289.00    1.02856   1.14513   -1.000
 6290.00    1.03316   1.14007   -1.000
 6291.00    1.03001   1.13325   -1.000
 6292.00    1.02455   1.12794   -1.000
 6293.00    1.02830   1.12545   -1.000
 6294.00    1.03725   1.12443   -1.000
 6295.00    1.03890   1.12188   -1.000
 6296.00    1.03031   1.11599   -1.000
 6297.00    1.02026   1.10872   -1.000
 6298.00    1.00997   1.10405   -1.000
 6299.00    1.01332   1.10281   -1.000
 6300.00    1.00516   1.10174   -1.000
 6301.00    0.97610   1.09864   -1.000
 6302.00    0.95717   1.09655   -1.000
 6303.00    0.95087   1.10032   -1.000
 6304.00    0.96904   1.11017   -1.000
 6305.00    1.00772   1.12155   -1.000
 6306.00    1.03617   1.13113   -1.000
 6307.00    1.03832   1.13849   -1.000
 6308.00    1.03167   1.14335   -1.000
 6309.00    1.03383   1.14442   -1.000
 6310.00    1.03139   1.14208   -1.000
 6311.00    1.02354   1.13819   -1.000
 6312.00    1.02383   1.13426   -1.000
 6313.00    1.02697   1.13001   -1.000
 6314.00    1.02356   1.12416   -1.000
 6315.00    1.01604   1.11713   -1.000
 6316.00    1.01725   1.11116   -1.000
 6317.00    1.00986   1.10730   -1.000
 6318.00    1.00579   1.10559   -1.000
 6319.00    1.00794   1.10805   -1.000
 6320.00    1.01903   1.11580   -1.000
 6321.00    1.02772   1.12545   -1.000
 6322.00    1.02691   1.13322   -1.000
 6323.00    1.03120   1.13959   -1.000
 6324.00    1.04080   1.14598   -1.000
 6325.00    1.04879   1.15125   -1.000
 6326.00    1.05081   1.15362   -1.000
 6327.00    1.05493   1.15358   -1.000
 6328.00    1.05400   1.15293   -1.000
 6329.00    1.05212   1.15258   -1.000
 6330.00    1.04874   1.15259   -1.000
 6331.00    1.04249   1.15365   -1.000
 6332.00    1.04046   1.15562   -1.000
 6333.00    1.03318   1.15483   -1.000
 6334.00    1.03319   1.14708   -1.000
 6335.00    1.03038   1.13360   -1.000
 6336.00    1.01804   1.12165   -1.000
 6337.00    1.02796   1.11813   -1.000
 6338.00    0.98817   1.12346   -1.000
 6339.00    0.95107   1.13309   -1.000
 6340.00    1.05589   1.14266   -1.000
 6341.00    1.04556   1.14917   -1.000
 6342.00    1.05323   1.15038   -1.000
 6343.00    1.05233   1.14664   -1.000
 6344.00    1.04349   1.14194   -1.000
 6345.00    1.05018   1.14080   -1.000
 6346.00    1.05663   1.14443   -1.000
 6347.00    1.04947   1.15091   -1.000
 6348.00    1.05351   1.15784   -1.000
 6349.00    1.05633   1.16391   -1.000
 6350.00    1.06076   1.16817   -1.000
 6351.00    1.05494   1.16980   -1.000
 6352.00    1.05982   1.16802   -1.000
 6353.00    1.05891   1.16240   -1.000
 6354.00    1.04964   1.15433   -1.000
 6355.00    1.05286   1.14695   -1.000
 6356.00    1.04445   1.14226   -1.000
 6357.00    1.03068   1.13843   -1.000
 6358.00    1.02164   1.13287   -1.000
 6359.00    1.02742   1.12633   -1.000
 6360.00    1.02843   1.12098   -1.000
 6361.00    1.02998   1.11710   -1.000
 6362.00    1.03080   1.11450   -1.000
 6363.00    1.02545   1.11449   -1.000
 6364.00    1.02951   1.11829   -1.000
 6365.00    1.02298   1.12533   -1.000
 6366.00    1.02131   1.13375   -1.000
 6367.00    1.02801   1.14191   -1.000
 6368.00    1.03069   1.14829   -1.000
 6369.00    1.04531   1.15183   -1.000
 6370.00    1.04563   1.15327   -1.000
 6371.00    1.04500   1.15494   -1.000
 6372.00    1.04824   1.15798   -1.000
 6373.00    1.05461   1.16165   -1.000
 6374.00    1.05502   1.16427   -1.000
 6375.00    1.05610   1.16455   -1.000
 6376.00    1.05191   1.16251   -1.000
 6377.00    1.04044   1.15895   -1.000
 6378.00    1.04174   1.15463   -1.000
 6379.00    1.03610   1.15046   -1.000
 6380.00    1.04016   1.14731   -1.000
 6381.00    1.03652   1.14567   -1.000
 6382.00    1.03129   1.14564   -1.000
 6383.00    1.03464   1.14659   -1.000
 6384.00    1.03084   1.14781   -1.000
 6385.00    1.02359   1.14949   -1.000
 6386.00    1.02989   1.15209   -1.000
 6387.00    1.02653   1.15496   -1.000
 6388.00    1.01668   1.15674   -1.000
 6389.00    1.01114   1.15669   -1.000
 6390.00    1.00964   1.15407   -1.000
 6391.00    1.00037   1.14711   -1.000
 6392.00    0.99078   1.13562   -1.000
 6393.00    0.97684   1.12432   -1.000
 6394.00    0.96909   1.12087   -1.000
 6395.00    0.97281   1.12814   -1.000
 6396.00    0.98507   1.14037   -1.000
 6397.00    0.98491   1.14769   -1.000
 6398.00    0.97036   1.14432   -1.000
 6399.00    0.95761   1.13223   -1.000
 6400.00    0.93719   1.12108   -1.000
 6401.00    0.93790   1.12101   -1.000
 6402.00    0.94430   1.13301   -1.000
 6403.00    0.95026   1.14897   -1.000
 6404.00    0.94579   1.15985   -1.000
 6405.00    0.93604   1.16215   -1.000
 6406.00    0.93214   1.15672   -1.000
 6407.00    0.92535   1.14733   -1.000
 6408.00    0.91151   1.13937   -1.000
 6409.00    0.90846   1.13656   -1.000
 6410.00    0.90227   1.13739   -1.000
 6411.00    0.89983   1.13783   -1.000
 6412.00    0.89281   1.13763   -1.000
 6413.00    0.88524   1.13934   -1.000
 6414.00    0.88431   1.14306   -1.000
 6415.00    0.88515   1.14706   -1.000
 6416.00    0.87816   1.14991   -1.000
 6417.00    0.87297   1.15049   -1.000
 6418.00    0.86374   1.14726   -1.000
 6419.00    0.85284   1.13942   -1.000
 6420.00    0.83069   1.12982   -1.000
 6421.00    0.81628   1.12481   -1.000
 6422.00    0.82379   1.12910   -1.000
 6423.00    0.82477   1.14093   -1.000
 6424.00    0.83049   1.15341   -1.000
 6425.00    0.82267   1.16199   -1.000
 6426.00    0.81044   1.16716   -1.000
 6427.00    0.80322   1.16937   -1.000
 6428.00    0.79876   1.16624   -1.000
