###################################################################
## OUTPUT of StarlightChains_v04.for    [Cid@UFSC - 01/Apr/2007] ##
###################################################################

## Some input info
NGC6553_a_1.cxt                          [arq_obs]
Base.BC03.S                              [arq_base]
NGC6553_a_1.msk                          [arq_masks]
StCv04.C11.config                        [arq_config]
  150                                    [N_base]
    0                                    [N_YAV_components = # of components with extra extinction!]
    0                                    [i_FitPowerLaw (1/0 = Yes/No)]
-9.99                                    [alpha_PowerLaw]
CCM                                      [red_law_option]
 1.458241                                [q_norm = A(l_norm)/A(V)]

## (Re)Sampling Parameters
 3359.00                                 [l_ini (A)]
 6428.00                                 [l_fin (A)]
    1.00                                 [dl    (A)]     (OBS: dl_cushion =    50.00 A)

## Normalization info
 4020.00                                 [l_norm (A) - for base]
 4010.00                                 [llow_norm (A) - window for f_obs]
 4060.00                                 [lupp_norm (A) - window for f_obs]
3.120735E-15                             [fobs_norm (in input units)]

## S/N
 4730.00                                 [llow_SN (A) - window for S/N]
 4780.00                                 [lupp_SN (A) - window for S/N]
  23.083                                 [S/N in S/N window]
  11.394                                 [S/N in norm. window]
 239.013                                 [S/N_err in S/N window]
 117.980                                 [S/N_err in norm. window]
  1.0000                                 [fscale_chi2]

## etc...
  2147483599                             [idum_orig]
  3066                                   [NOl_eff]
  1724                                   [Nl_eff]
  1342    NSIGMA                         [Ntot_cliped & clip_method]
  3011050                                [Nglobal_steps]
   7                                     [N_chains]
  46                                     [NEX0s_base = N_base in EX0s-fits]
 0   0   1       98   2.0   2.803E+02    [Clip-Bug, RC-Crash & Burn-In warning-flags, n_censored_weights, wei_nsig_threshold & wei_limit]
   103    103.578    103.562      0.016  [idt_all, wdt_TotTime, wdt_UsrTime & wdt_SysTime (sec)]

## Synthesis Results - Best model ##

 2.43981E+00                             [chi2/Nl_eff]
     2.24792                             [adev (%)]

    96.00374                             [sum-of-x (%)]
 8.39710E-14                             [Flux_tot (units of input spectrum!)]
 5.66639E-09                             [Mini_tot (???)]
 2.84091E-09                             [Mcor_tot (???)]

 -21.04                                  [v0_min  (km/s)]
   0.00                                  [vd_min  (km/s)]
 2.4817                                  [AV_min  (mag)]
 0.0000                                  [YAV_min (mag)]

# j     x_j(%)      Mini_j(%)     Mcor_j(%)     age_j(yr)     Z_j      (L/M)_j    YAV?  Mstars   component_j        a/Fe...       SSP_chi2r SSP_adev(%)   SSP_AV   SSP_x(%)
  1      3.0555     5.7799E-03    1.1528E-02    1.000000E+06  0.00010  8.160E-03    0   1.0000   age020_m22            0.0000     2.1750E+03    47.9036   4.0000   114.0448
  2      4.3890     1.4236E-03    2.8394E-03    3.160000E+06  0.00010  4.759E-02    0   1.0000   age045_m22            0.0000     1.6263E+02    10.1191   4.0000   102.7316
  3     14.4040     1.1508E-02    2.1995E-02    5.010000E+06  0.00010  1.932E-02    0   0.9582   age055_m22            0.0000     2.5240E+02    12.8363   4.0000    99.0089
  4      2.6894     4.1626E-03    7.7190E-03    6.610000E+06  0.00010  9.973E-03    0   0.9297   age061_m22            0.0000     2.1985E+03    47.2435   4.0000   117.5282
  5      2.7299     5.4797E-03    9.8695E-03    8.710000E+06  0.00010  7.690E-03    0   0.9030   age067_m22            0.0000     2.1669E+03    47.0478   4.0000   117.9255
  6      3.5310     8.5497E-03    1.5181E-02    1.000000E+07  0.00010  6.375E-03    0   0.8902   age070_m22            0.0000     2.1741E+03    47.2085   4.0000   118.0954
  7      1.2275     3.8876E-03    6.6601E-03    1.445000E+07  0.00010  4.874E-03    0   0.8589   age078_m22            0.0000     1.7985E+03    43.7788   4.0000   119.8911
  8      0.5031     1.8927E-03    3.0859E-03    2.512000E+07  0.00010  4.103E-03    0   0.8174   age090_m22            0.0000     1.1646E+03    36.0412   4.0000   121.8713
  9      0.0000     0.0000E+00    0.0000E+00    4.000000E+07  0.00010  3.654E-03    0   0.7830   age104_m22            0.0000     8.6251E+02    30.3302   4.0000   121.7922
 10      0.0000     0.0000E+00    0.0000E+00    5.500000E+07  0.00010  3.093E-03    0   0.7597   age110_m22            0.0000     7.6981E+02    28.4205   4.0000   121.3366
 11      0.0000     0.0000E+00    0.0000E+00    1.015200E+08  0.00010  2.431E-03    0   0.7138   age116_m22            0.0000     5.3794E+02    22.9731   4.0000   117.5736
 12      0.0000     0.0000E+00    0.0000E+00    1.609000E+08  0.00010  1.319E-03    0   0.6775   age120_m22            0.0000     3.0813E+02    16.0327   4.0000   109.6310
 13      0.0000     0.0000E+00    0.0000E+00    2.861200E+08  0.00010  1.075E-03    0   0.6412   age125_m22            0.0000     4.5490E+02    20.0558   4.0000   113.0341
 14      0.0000     0.0000E+00    0.0000E+00    5.088000E+08  0.00010  7.183E-04    0   0.6083   age130_m22            0.0000     4.3017E+02    18.0130   4.0000   108.9283
 15      0.0000     0.0000E+00    0.0000E+00    9.047900E+08  0.00010  4.524E-04    0   0.5785   age135_m22            0.0000     4.0575E+02    15.7692   4.0000   105.2671
 16      0.0000     0.0000E+00    0.0000E+00    1.278050E+09  0.00010  3.018E-04    0   0.5588   age138_m22            0.0000     2.8023E+02    12.1626   3.5683   102.2263
 17      0.0000     0.0000E+00    0.0000E+00    1.434000E+09  0.00010  2.691E-04    0   0.5532   age139_m22            0.0000     2.5639E+02    11.7282   3.4080   101.9763
 18      0.0000     0.0000E+00    0.0000E+00    2.500000E+09  0.00010  1.582E-04    0   0.5296   age150_m22            0.0000     2.4474E+02    11.2732   3.2883   103.3013
 19      0.0000     0.0000E+00    0.0000E+00    4.250000E+09  0.00010  1.007E-04    0   0.5110   age158_m22            0.0000     1.9768E+02    10.4506   3.1054   102.7607
 20      0.0000     0.0000E+00    0.0000E+00    6.250000E+09  0.00010  6.869E-05    0   0.4985   age166_m22            0.0000     1.5709E+02     9.6307   3.0133   101.2036
 21      0.0000     0.0000E+00    0.0000E+00    7.500000E+09  0.00010  5.873E-05    0   0.4931   age171_m22            0.0000     1.5205E+02     9.3243   2.9992   100.9524
 22      0.0000     0.0000E+00    0.0000E+00    1.000000E+10  0.00010  4.481E-05    0   0.4854   age181_m22            0.0000     1.4935E+02     9.3123   2.9594   100.6074
 23      0.0000     0.0000E+00    0.0000E+00    1.300000E+10  0.00010  3.489E-05    0   0.4791   age193_m22            0.0000     1.4321E+02     9.2607   2.9001   100.0897
 24      0.0002     8.6115E-05    8.1862E-05    1.500000E+10  0.00010  3.035E-05    0   0.4766   age201_m22            0.0000     1.3890E+02     9.1734   2.8594    99.9781
 25      0.0000     0.0000E+00    0.0000E+00    1.800000E+10  0.00010  2.510E-05    0   0.4735   age213_m22            0.0000     1.2954E+02     8.9588   2.7872    99.5485
 26      1.4908     2.7208E-03    5.4269E-03    1.000000E+06  0.00040  8.458E-03    0   1.0000   age020_m32            0.0000     2.2192E+03    48.1232   4.0000   114.9886
 27      0.1028     3.9926E-05    7.9635E-05    3.160000E+06  0.00040  3.973E-02    0   1.0000   age045_m32            0.0000     1.0378E+03    33.9325   4.0000   120.6351
 28      0.0000     0.0000E+00    0.0000E+00    5.010000E+06  0.00040  1.935E-02    0   0.9532   age055_m32            0.0000     1.4360E+03    38.6578   4.0000   117.8639
 29      1.0203     1.3081E-03    2.4116E-03    6.610000E+06  0.00040  1.204E-02    0   0.9243   age061_m32            0.0000     1.9127E+03    44.6128   4.0000   118.7377
 30      0.9833     1.6091E-03    2.8888E-03    8.710000E+06  0.00040  9.433E-03    0   0.9001   age067_m32            0.0000     1.8428E+03    44.0302   4.0000   119.4479
 31      1.1628     2.2288E-03    3.9463E-03    1.000000E+07  0.00040  8.053E-03    0   0.8877   age070_m32            0.0000     1.7751E+03    43.3494   4.0000   119.6365
 32      0.0000     0.0000E+00    0.0000E+00    1.445000E+07  0.00040  7.027E-03    0   0.8578   age078_m32            0.0000     1.0258E+03    33.3012   4.0000   118.9599
 33      0.0000     0.0000E+00    0.0000E+00    2.512000E+07  0.00040  4.707E-03    0   0.8166   age090_m32            0.0000     7.0775E+02    27.4940   4.0000   118.0491
 34      0.0000     0.0000E+00    0.0000E+00    4.000000E+07  0.00040  3.714E-03    0   0.7827   age104_m32            0.0000     5.6025E+02    23.6844   4.0000   117.2364
 35      0.0000     0.0000E+00    0.0000E+00    5.500000E+07  0.00040  2.982E-03    0   0.7593   age110_m32            0.0000     5.2936E+02    22.8307   4.0000   116.9209
 36      0.0000     0.0000E+00    0.0000E+00    1.015200E+08  0.00040  2.188E-03    0   0.7143   age116_m32            0.0000     4.4170E+02    20.6112   4.0000   114.6308
 37      0.0000     0.0000E+00    0.0000E+00    1.609000E+08  0.00040  1.690E-03    0   0.6856   age120_m32            0.0000     4.1256E+02    18.8428   4.0000   112.4212
 38      0.0000     0.0000E+00    0.0000E+00    2.861200E+08  0.00040  1.152E-03    0   0.6509   age125_m32            0.0000     3.9776E+02    17.1170   4.0000   108.2900
 39      0.0000     0.0000E+00    0.0000E+00    5.088000E+08  0.00040  7.331E-04    0   0.6182   age130_m32            0.0000     3.8901E+02    15.6339   4.0000   104.8011
 40      0.0000     0.0000E+00    0.0000E+00    9.047900E+08  0.00040  3.960E-04    0   0.5890   age135_m32            0.0000     2.8845E+02    13.0028   3.6375   101.5353
 41      0.0000     0.0000E+00    0.0000E+00    1.278050E+09  0.00040  2.854E-04    0   0.5687   age138_m32            0.0000     2.6055E+02    11.9353   3.3482   104.0327
 42      0.0000     0.0000E+00    0.0000E+00    1.434000E+09  0.00040  2.531E-04    0   0.5632   age139_m32            0.0000     2.5549E+02    11.6987   3.2920   104.0118
 43      0.0734     7.6191E-03    8.1850E-03    2.500000E+09  0.00040  1.488E-04    0   0.5386   age150_m32            0.0000     2.1664E+02    11.0348   3.0229   102.7446
 44      0.0000     0.0000E+00    0.0000E+00    4.250000E+09  0.00040  9.082E-05    0   0.5199   age158_m32            0.0000     1.4936E+02     9.6797   2.8795   101.1519
 45      0.0004     9.6439E-05    9.7640E-05    6.250000E+09  0.00040  6.362E-05    0   0.5076   age166_m32            0.0000     1.0794E+02     8.4122   2.8019    99.3759
 46      0.0000     0.0000E+00    0.0000E+00    7.500000E+09  0.00040  5.289E-05    0   0.5027   age171_m32            0.0000     9.9642E+01     8.2936   2.7561    98.3387
 47      0.0000     0.0000E+00    0.0000E+00    1.000000E+10  0.00040  3.972E-05    0   0.4948   age181_m32            0.0000     9.3503E+01     8.3327   2.6881    96.9996
 48      0.0000     0.0000E+00    0.0000E+00    1.300000E+10  0.00040  3.283E-05    0   0.4870   age193_m32            0.0000     1.1003E+02     8.8326   2.6680    98.9118
 49      0.0000     0.0000E+00    0.0000E+00    1.500000E+10  0.00040  2.925E-05    0   0.4854   age201_m32            0.0000     1.2203E+02     9.1292   2.6644   100.0098
 50      0.0000     0.0000E+00    0.0000E+00    1.800000E+10  0.00040  2.469E-05    0   0.4819   age213_m32            0.0000     1.2523E+02     9.1753   2.6328   100.2810
 51      3.3311     4.6157E-03    9.2064E-03    1.000000E+06  0.00400  1.114E-02    0   1.0000   age020_m42            0.0000     2.0690E+03    46.8110   4.0000   115.0782
 52      0.0000     0.0000E+00    0.0000E+00    3.160000E+06  0.00400  4.073E-02    0   0.9999   age045_m42            0.0000     6.8691E+02    27.7273   4.0000   118.1927
 53      0.0000     0.0000E+00    0.0000E+00    5.010000E+06  0.00400  2.534E-02    0   0.9488   age055_m42            0.0000     1.1637E+03    36.0084   4.0000   118.3120
 54      0.0000     0.0000E+00    0.0000E+00    6.610000E+06  0.00400  2.583E-02    0   0.9220   age061_m42            0.0000     5.5281E+02    24.3887   4.0000   115.6052
 55      0.0000     0.0000E+00    0.0000E+00    8.710000E+06  0.00400  1.706E-02    0   0.8983   age067_m42            0.0000     4.2591E+02    20.6321   4.0000   111.6736
 56      0.0000     0.0000E+00    0.0000E+00    1.000000E+07  0.00400  1.271E-02    0   0.8862   age070_m42            0.0000     4.3122E+02    20.1599   4.0000   110.8302
 57      0.0000     0.0000E+00    0.0000E+00    1.445000E+07  0.00400  7.666E-03    0   0.8571   age078_m42            0.0000     7.6145E+02    28.5394   4.0000   114.2184
 58      0.0000     0.0000E+00    0.0000E+00    2.512000E+07  0.00400  5.070E-03    0   0.8174   age090_m42            0.0000     3.2756E+02    17.3607   4.0000   110.0140
 59      0.0000     0.0000E+00    0.0000E+00    4.000000E+07  0.00400  3.505E-03    0   0.7851   age104_m42            0.0000     1.6852E+02    11.2990   4.0000   105.7828
 60      0.0000     0.0000E+00    0.0000E+00    5.500000E+07  0.00400  3.059E-03    0   0.7629   age110_m42            0.0000     2.5238E+02    14.7050   4.0000   109.8513
 61      0.0000     0.0000E+00    0.0000E+00    1.015200E+08  0.00400  2.268E-03    0   0.7207   age116_m42            0.0000     3.4597E+02    17.2135   4.0000   111.3032
 62      0.0000     0.0000E+00    0.0000E+00    1.609000E+08  0.00400  1.720E-03    0   0.6930   age120_m42            0.0000     3.2732E+02    15.9336   4.0000   109.0908
 63      0.0000     0.0000E+00    0.0000E+00    2.861200E+08  0.00400  1.079E-03    0   0.6613   age125_m42            0.0000     2.9837E+02    12.2781   3.9402   102.6135
 64      0.1111     2.7398E-03    3.4499E-03    5.088000E+08  0.00400  6.261E-04    0   0.6313   age130_m42            0.0000     3.2144E+02    12.6984   3.7524   105.1975
 65      0.1331     5.8107E-03    6.9817E-03    9.047900E+08  0.00400  3.535E-04    0   0.6024   age135_m42            0.0000     2.4250E+02    11.6659   3.3267   106.4566
 66      0.7950     4.5841E-02    5.3370E-02    1.278050E+09  0.00400  2.677E-04    0   0.5837   age138_m42            0.0000     1.3481E+02    10.2995   2.6297   104.3212
 67      0.0000     0.0000E+00    0.0000E+00    1.434000E+09  0.00400  1.910E-04    0   0.5716   age139_m42            0.0000     1.5721E+02    10.7538   2.7909   105.1486
 68      0.0008     1.1842E-04    1.2903E-04    2.500000E+09  0.00400  9.818E-05    0   0.5463   age150_m42            0.0000     9.3471E+01     9.9876   2.4679   101.7805
 69      0.0000     0.0000E+00    0.0000E+00    4.250000E+09  0.00400  5.491E-05    0   0.5269   age158_m42            0.0000     6.9604E+01     9.1552   2.3332    99.6659
 70      0.0000     0.0000E+00    0.0000E+00    6.250000E+09  0.00400  3.857E-05    0   0.5151   age166_m42            0.0000     6.6608E+01     9.4031   2.2003    98.3346
 71      0.0000     0.0000E+00    0.0000E+00    7.500000E+09  0.00400  3.243E-05    0   0.5110   age171_m42            0.0000     6.8695E+01     9.6388   2.1226    97.6726
 72      0.0000     0.0000E+00    0.0000E+00    1.000000E+10  0.00400  2.424E-05    0   0.5028   age181_m42            0.0000     7.2954E+01     9.9505   2.0445    96.9275
 73      0.3943     3.2325E-01    3.1766E-01    1.300000E+10  0.00400  1.883E-05    0   0.4927   age193_m42            0.0000     7.6170E+01    10.0495   2.0075    96.5894
 74      0.8412     7.7059E-01    7.5605E-01    1.500000E+10  0.00400  1.685E-05    0   0.4919   age201_m42            0.0000     7.4371E+01     9.8508   2.0162    96.5914
 75      1.2599     1.3393E+00    1.3021E+00    1.800000E+10  0.00400  1.452E-05    0   0.4874   age213_m42            0.0000     7.1495E+01     9.5319   2.0363    96.8821
 76      0.0000     0.0000E+00    0.0000E+00    1.000000E+06  0.00800  1.286E-02    0   1.0000   age020_m52            0.0000     2.0064E+03    46.2593   4.0000   117.0107
 77      0.0000     0.0000E+00    0.0000E+00    3.160000E+06  0.00800  3.147E-02    0   0.9966   age045_m52            0.0000     1.8847E+03    44.7650   4.0000   118.3737
 78      0.0000     0.0000E+00    0.0000E+00    5.010000E+06  0.00800  2.664E-02    0   0.9443   age055_m52            0.0000     1.3225E+03    38.4461   4.0000   118.9383
 79      0.0000     0.0000E+00    0.0000E+00    6.610000E+06  0.00800  2.151E-02    0   0.9177   age061_m52            0.0000     1.5848E+02    11.6100   4.0000   103.8563
 80      0.0000     0.0000E+00    0.0000E+00    8.710000E+06  0.00800  1.628E-02    0   0.8948   age067_m52            0.0000     3.8810E+02    19.6035   4.0000   111.8441
 81      0.0000     0.0000E+00    0.0000E+00    1.000000E+07  0.00800  1.215E-02    0   0.8827   age070_m52            0.0000     6.8022E+02    26.7778   4.0000   116.1794
 82      0.0000     0.0000E+00    0.0000E+00    1.445000E+07  0.00800  8.739E-03    0   0.8552   age078_m52            0.0000     7.2202E+02    27.7072   4.0000   117.8759
 83      0.0000     0.0000E+00    0.0000E+00    2.512000E+07  0.00800  5.676E-03    0   0.8162   age090_m52            0.0000     4.4363E+02    19.8174   4.0000   115.2855
 84      0.0000     0.0000E+00    0.0000E+00    4.000000E+07  0.00800  3.939E-03    0   0.7841   age104_m52            0.0000     3.6314E+02    17.4198   4.0000   113.7195
 85      0.0000     0.0000E+00    0.0000E+00    5.500000E+07  0.00800  3.155E-03    0   0.7627   age110_m52            0.0000     3.6557E+02    17.8437   4.0000   114.1093
 86      0.0000     0.0000E+00    0.0000E+00    1.015200E+08  0.00800  2.206E-03    0   0.7226   age116_m52            0.0000     3.3172E+02    17.1908   4.0000   112.8125
 87      0.0000     0.0000E+00    0.0000E+00    1.609000E+08  0.00800  1.596E-03    0   0.6963   age120_m52            0.0000     3.0064E+02    15.0697   4.0000   109.0943
 88      0.0000     0.0000E+00    0.0000E+00    2.861200E+08  0.00800  1.002E-03    0   0.6665   age125_m52            0.0000     3.2777E+02    13.2652   3.9881   104.1665
 89      0.0000     0.0000E+00    0.0000E+00    5.088000E+08  0.00800  5.759E-04    0   0.6377   age130_m52            0.0000     3.2952E+02    13.8766   3.6393   107.4728
 90      0.0002     1.1639E-05    1.4128E-05    9.047900E+08  0.00800  2.972E-04    0   0.6086   age135_m52            0.0000     2.3543E+02    13.3104   3.0652   106.9076
 91      0.5491     3.7807E-02    4.4544E-02    1.278050E+09  0.00800  2.242E-04    0   0.5907   age138_m52            0.0000     1.3449E+02    11.3095   2.4369   106.8252
 92      0.0007     6.6507E-05    7.6766E-05    1.434000E+09  0.00800  1.645E-04    0   0.5787   age139_m52            0.0000     1.2752E+02    11.0022   2.5721   106.7174
 93      0.0000     0.0000E+00    0.0000E+00    2.500000E+09  0.00800  7.723E-05    0   0.5519   age150_m52            0.0000     9.0212E+01    10.7437   2.1893   104.1332
 94      1.0864     4.0400E-01    4.2869E-01    4.250000E+09  0.00800  4.151E-05    0   0.5320   age158_m52            0.0000     8.0694E+01    10.6790   2.1034   102.0447
 95      2.6197     1.3434E+00    1.3926E+00    6.250000E+09  0.00800  3.010E-05    0   0.5197   age166_m52            0.0000     8.3607E+01    11.2497   1.9010   100.6579
 96      0.5967     3.7338E-01    3.8272E-01    7.500000E+09  0.00800  2.467E-05    0   0.5139   age171_m52            0.0000     8.6520E+01    11.4519   1.8595   100.1819
 97      7.6232     6.3197E+00    6.3706E+00    1.000000E+10  0.00800  1.862E-05    0   0.5054   age181_m52            0.0000     9.9198E+01    12.1790   1.7257    99.6084
 98      2.5995     2.8001E+00    2.7858E+00    1.300000E+10  0.00800  1.433E-05    0   0.4988   age193_m52            0.0000     1.1317E+02    12.7248   1.6303   100.0669
 99      0.0000     0.0000E+00    0.0000E+00    1.500000E+10  0.00800  1.244E-05    0   0.4936   age201_m52            0.0000     1.1930E+02    12.8507   1.6051   100.4153
100      0.0000     0.0000E+00    0.0000E+00    1.800000E+10  0.00800  1.070E-05    0   0.4888   age213_m52            0.0000     1.2510E+02    12.9998   1.5741   100.1488
101      0.0000     0.0000E+00    0.0000E+00    1.000000E+06  0.02000  1.989E-02    0   1.0000   age020_m62            0.0000     2.0061E+03    46.0039   4.0000   116.0152
102      0.0000     0.0000E+00    0.0000E+00    3.160000E+06  0.02000  3.772E-02    0   0.9858   age045_m62            0.0000     1.7793E+03    43.5684   4.0000   117.7054
103      0.0000     0.0000E+00    0.0000E+00    5.010000E+06  0.02000  3.227E-02    0   0.9342   age055_m62            0.0000     9.8634E+02    33.2874   4.0000   119.3892
104      0.0000     0.0000E+00    0.0000E+00    6.610000E+06  0.02000  2.387E-02    0   0.9090   age061_m62            0.0000     7.7423E+02    28.2654   4.0000   116.1671
105      0.1758     2.4632E-04    4.3534E-04    8.710000E+06  0.02000  1.102E-02    0   0.8861   age067_m62            0.0000     5.7614E+02    19.4775   4.0000   108.5609
106      0.0000     0.0000E+00    0.0000E+00    1.000000E+07  0.02000  1.011E-02    0   0.8751   age070_m62            0.0000     5.1142E+02    20.0968   4.0000   110.1371
107      0.0000     0.0000E+00    0.0000E+00    1.445000E+07  0.02000  7.331E-03    0   0.8472   age078_m62            0.0000     4.6530E+02    20.6683   4.0000   110.6951
108      0.0000     0.0000E+00    0.0000E+00    2.512000E+07  0.02000  4.206E-03    0   0.8099   age090_m62            0.0000     3.9177E+02    18.8362   4.0000   108.4780
109      0.0000     0.0000E+00    0.0000E+00    4.000000E+07  0.02000  3.373E-03    0   0.7799   age104_m62            0.0000     2.9109E+02    15.8642   4.0000   111.5240
110      0.0000     0.0000E+00    0.0000E+00    5.500000E+07  0.02000  2.747E-03    0   0.7595   age110_m62            0.0000     3.0472E+02    15.9448   4.0000   112.7049
111      0.0000     0.0000E+00    0.0000E+00    1.015200E+08  0.02000  1.878E-03    0   0.7221   age116_m62            0.0000     3.4158E+02    16.7027   4.0000   113.2820
112      0.0000     0.0000E+00    0.0000E+00    1.609000E+08  0.02000  1.378E-03    0   0.6978   age120_m62            0.0000     3.5386E+02    16.0878   4.0000   111.5359
113      0.0000     0.0000E+00    0.0000E+00    2.861200E+08  0.02000  8.869E-04    0   0.6700   age125_m62            0.0000     3.8639E+02    13.2242   3.9881   106.2977
114      0.0000     0.0000E+00    0.0000E+00    5.088000E+08  0.02000  4.834E-04    0   0.6430   age130_m62            0.0000     3.4701E+02    14.0190   3.5204   108.4408
115      0.0000     0.0000E+00    0.0000E+00    9.047900E+08  0.02000  2.312E-04    0   0.6152   age135_m62            0.0000     2.1447E+02    12.6887   2.8736   109.0778
116      0.0000     0.0000E+00    0.0000E+00    1.278050E+09  0.02000  1.387E-04    0   0.5927   age138_m62            0.0000     1.3007E+02    11.2310   2.4493   106.3187
117      0.0000     0.0000E+00    0.0000E+00    1.434000E+09  0.02000  1.168E-04    0   0.5865   age139_m62            0.0000     1.1736E+02    11.1214   2.4081   105.1150
118      0.0000     0.0000E+00    0.0000E+00    2.500000E+09  0.02000  5.505E-05    0   0.5610   age150_m62            0.0000     9.5242E+01    11.3104   2.0111   102.7437
119      0.0000     0.0000E+00    0.0000E+00    4.250000E+09  0.02000  3.070E-05    0   0.5407   age158_m62            0.0000     1.1894E+02    12.6221   1.7170   102.1583
120      0.0007     5.1826E-04    5.4549E-04    6.250000E+09  0.02000  2.104E-05    0   0.5277   age166_m62            0.0000     1.3665E+02    13.2189   1.5877   102.3459
121      0.0000     0.0000E+00    0.0000E+00    7.500000E+09  0.02000  1.770E-05    0   0.5223   age171_m62            0.0000     1.4862E+02    13.5931   1.5013   102.5479
122      0.1991     2.3699E-01    2.4206E-01    1.000000E+10  0.02000  1.297E-05    0   0.5121   age181_m62            0.0000     1.7585E+02    14.2898   1.3502   102.6333
123      2.2756     3.6246E+00    3.6487E+00    1.300000E+10  0.02000  9.691E-06    0   0.5047   age193_m62            0.0000     1.9657E+02    14.6376   1.2780   102.6423
124      7.4583     1.3771E+01    1.3731E+01    1.500000E+10  0.02000  8.360E-06    0   0.4999   age201_m62            0.0000     2.1562E+02    15.0502   1.2131   102.6013
125      5.9660     1.3325E+01    1.3146E+01    1.800000E+10  0.02000  6.911E-06    0   0.4946   age213_m62            0.0000     2.4053E+02    15.6404   1.1433   102.5394
126      0.0000     0.0000E+00    0.0000E+00    1.000000E+06  0.05000  2.651E-02    0   0.9998   age020_m72            0.0000     1.9623E+03    45.9140   4.0000   117.2454
127      0.0001     3.2606E-08    6.2283E-08    3.160000E+06  0.05000  4.817E-02    0   0.9577   age045_m72            0.0000     1.4763E+03    40.6292   4.0000   119.9211
128      0.0000     0.0000E+00    0.0000E+00    5.010000E+06  0.05000  3.101E-02    0   0.9147   age055_m72            0.0000     1.0207E+03    33.5439   4.0000   118.8300
129      0.0000     0.0000E+00    0.0000E+00    6.610000E+06  0.05000  1.472E-02    0   0.8877   age061_m72            0.0000     6.7361E+02    23.9838   4.0000   112.3946
130      0.0000     0.0000E+00    0.0000E+00    8.710000E+06  0.05000  1.050E-02    0   0.8638   age067_m72            0.0000     1.0106E+03    32.5354   4.0000   117.5249
131      0.0000     0.0000E+00    0.0000E+00    1.000000E+07  0.05000  8.954E-03    0   0.8524   age070_m72            0.0000     1.2706E+03    37.9918   4.0000   120.3559
132      0.0000     0.0000E+00    0.0000E+00    1.445000E+07  0.05000  6.392E-03    0   0.8262   age078_m72            0.0000     1.1717E+03    36.8679   4.0000   120.6758
133      0.0000     0.0000E+00    0.0000E+00    2.512000E+07  0.05000  4.207E-03    0   0.7902   age090_m72            0.0000     7.3294E+02    29.2633   4.0000   119.6025
134      0.0000     0.0000E+00    0.0000E+00    4.000000E+07  0.05000  3.198E-03    0   0.7618   age104_m72            0.0000     4.3312E+02    20.5784   4.0000   117.1134
135      0.0000     0.0000E+00    0.0000E+00    5.500000E+07  0.05000  2.593E-03    0   0.7432   age110_m72            0.0000     4.2811E+02    19.9058   4.0000   117.1274
136      0.0000     0.0000E+00    0.0000E+00    1.015200E+08  0.05000  1.716E-03    0   0.7092   age116_m72            0.0000     4.0126E+02    18.4151   4.0000   115.1310
137      0.0000     0.0000E+00    0.0000E+00    1.609000E+08  0.05000  1.218E-03    0   0.6876   age120_m72            0.0000     3.7438E+02    16.2510   4.0000   110.9310
138      0.0000     0.0000E+00    0.0000E+00    2.861200E+08  0.05000  7.047E-04    0   0.6618   age125_m72            0.0000     3.6844E+02    13.4827   3.7775   106.2700
139      0.0000     0.0000E+00    0.0000E+00    5.088000E+08  0.05000  3.590E-04    0   0.6356   age130_m72            0.0000     2.9955E+02    13.4985   3.1800   108.8180
140      0.0000     0.0000E+00    0.0000E+00    9.047900E+08  0.05000  1.484E-04    0   0.6088   age135_m72            0.0000     1.5189E+02    12.2251   2.3679   104.6826
141      0.0000     0.0000E+00    0.0000E+00    1.278050E+09  0.05000  9.435E-05    0   0.5924   age138_m72            0.0000     1.3366E+02    12.9377   1.9276   102.3632
142      0.0000     0.0000E+00    0.0000E+00    1.434000E+09  0.05000  7.827E-05    0   0.5847   age139_m72            0.0000     1.2452E+02    12.6802   1.9335   102.0757
143      0.0000     0.0000E+00    0.0000E+00    2.500000E+09  0.05000  3.759E-05    0   0.5583   age150_m72            0.0000     1.3716E+02    13.3622   1.5950   101.5435
144      0.9609     8.0521E-01    8.6309E-01    4.250000E+09  0.05000  1.842E-05    0   0.5374   age158_m72            0.0000     1.7624E+02    13.4531   1.3282   100.0561
145      0.8997     1.1505E+00    1.2030E+00    6.250000E+09  0.05000  1.207E-05    0   0.5242   age166_m72            0.0000     2.2624E+02    14.4850   1.1063    98.9604
146      4.3084     6.6552E+00    6.8800E+00    7.500000E+09  0.05000  9.993E-06    0   0.5183   age171_m72            0.0000     2.3551E+02    14.5912   1.0679    98.7409
147      1.1208     2.3728E+00    2.4047E+00    1.000000E+10  0.05000  7.291E-06    0   0.5081   age181_m72            0.0000     2.7811E+02    15.4222   0.9615    97.9136
148      6.9536     2.0191E+01    2.0209E+01    1.300000E+10  0.05000  5.316E-06    0   0.5018   age193_m72            0.0000     3.4610E+02    16.6506   0.7975    96.8383
149      3.3028     1.1337E+01    1.1243E+01    1.500000E+10  0.05000  4.497E-06    0   0.4972   age201_m72            0.0000     3.8154E+02    17.2677   0.7340    96.6067
150      3.0764     1.2700E+01    1.2473E+01    1.800000E+10  0.05000  3.739E-06    0   0.4924   age213_m72            0.0000     4.2571E+02    18.1593   0.6337    96.2546


## Synthesis Results - Average & Chains ##

# j      x_j: min, <> & last-chain-values for 1 ...  7 chains
  1      3.0555      5.3539      5.3462      5.3017      5.4130      5.2869      5.2924      5.3705      5.3236
  2      4.3890      1.3142      1.4795      1.3777      1.8560      1.4371      1.3361      1.3664      1.4643
  3     14.4040     10.9957     11.6040     11.1360     11.1365     10.8061     11.0604     11.2470     11.3093
  4      2.6894      2.0961      2.0994      2.1129      2.1402      2.0183      2.4493      2.0219      2.1622
  5      2.7299      2.1540      2.1854      2.1550      2.1794      2.1823      1.9654      2.0902      2.2776
  6      3.5310      2.2633      2.2838      2.2499      2.2741      2.3170      2.2365      2.4304      2.3005
  7      1.2275      0.7438      0.7707      0.8686      0.7979      0.7837      0.7654      0.7581      0.6949
  8      0.5031      0.0814      0.0000      0.0000      0.0000      0.1335      0.1798      0.4006      0.1659
  9      0.0000      0.1125      0.1624      0.0991      0.3231      0.1374      0.3224      0.0000      0.0000
 10      0.0000      0.0941      0.0000      0.3956      0.1051      0.1564      0.0000      0.1237      0.0000
 11      0.0000      0.0609      0.0000      0.0000      0.0982      0.2199      0.0380      0.0000      0.0000
 12      0.0000      0.0205      0.0000      0.1090      0.0000      0.0209      0.0000      0.0000      0.0000
 13      0.0000      0.0209      0.1349      0.0000      0.0000      0.0000      0.0567      0.0000      0.0000
 14      0.0000      0.0132      0.0000      0.0000      0.0000      0.0051      0.0000      0.0000      0.0485
 15      0.0000      0.0196      0.0183      0.0000      0.0000      0.0000      0.0487      0.0000      0.0000
 16      0.0000      0.0415      0.0000      0.3618      0.0438      0.0000      0.0117      0.0000      0.0000
 17      0.0000      0.0247      0.0000      0.0313      0.0000      0.0000      0.0000      0.0000      0.0000
 18      0.0000      0.0297      0.0000      0.0000      0.0000      0.0000      0.1950      0.0000      0.0448
 19      0.0000      0.0486      0.0683      0.1424      0.0070      0.0000      0.1713      0.0000      0.0000
 20      0.0000      0.0631      0.0000      0.0000      0.3096      0.1965      0.0956      0.0000      0.5723
 21      0.0000      0.0709      0.0000      0.0000      0.0000      0.0000      0.0000      0.0143      0.0000
 22      0.0000      0.0745      0.0000      0.0000      0.0174      0.0000      0.0000      0.0000      0.0000
 23      0.0000      0.0735      0.0000      0.0282      0.0000      0.7549      0.0000      0.0000      0.0240
 24      0.0002      0.0768      0.0000      0.0000      0.0145      0.0000      0.0425      0.2337      0.0000
 25      0.0000      0.1017      0.0000      0.0723      0.2990      0.0000      0.0000      0.0000      0.0000
 26      1.4908      2.1977      2.2798      2.2098      2.2256      2.0787      2.2287      2.2078      2.0687
 27      0.1028      0.1326      0.1334      0.4430      0.0000      0.2037      0.0808      0.1939      0.0000
 28      0.0000      0.3161      0.3232      0.1705      0.3164      0.4018      0.5020      0.1640      0.3185
 29      1.0203      0.7692      0.7550      0.7796      0.7262      0.9030      0.6625      0.8862      0.8004
 30      0.9833      0.6756      0.4915      0.6600      0.7045      0.6499      0.6851      0.8917      0.9016
 31      1.1628      0.8764      0.8587      1.0975      0.7732      0.9249      0.9117      0.9078      0.8901
 32      0.0000      0.0445      0.0000      0.0000      0.2417      0.0000      0.0000      0.0000      0.2548
 33      0.0000      0.0471      0.0000      0.0000      0.0000      0.0000      0.0894      0.1434      0.2590
 34      0.0000      0.0245      0.0000      0.1562      0.0000      0.0000      0.0000      0.0000      0.0000
 35      0.0000      0.0742      0.0470      0.0000      0.2148      0.0000      0.0000      0.0000      0.2533
 36      0.0000      0.0549      0.0000      0.0000      0.0176      0.0000      0.0000      0.0000      0.0000
 37      0.0000      0.0232      0.0000      0.1959      0.0000      0.0000      0.0827      0.0000      0.0626
 38      0.0000      0.0260      0.0000      0.0000      0.0000      0.0000      0.0000      0.0721      0.0187
 39      0.0000      0.0366      0.0000      0.0000      0.0000      0.0098      0.0000      0.0000      0.0745
 40      0.0000      0.0235      0.1074      0.0000      0.1881      0.0000      0.0000      0.0000      0.0554
 41      0.0000      0.0415      0.0000      0.0000      0.0000      0.0804      0.0000      0.0000      0.0000
 42      0.0000      0.0403      0.0000      0.2065      0.0000      0.0000      0.0000      0.0000      0.0102
 43      0.0734      0.1876      0.1467      0.0662      0.3128      0.0702      0.3167      0.5013      0.5273
 44      0.0000      0.1390      0.4225      0.4826      0.3155      0.0000      0.0000      0.0951      0.0000
 45      0.0004      1.8858      1.8304      1.7685      1.3189      0.8614      1.7175      1.5918      1.8367
 46      0.0000      0.1743      0.0000      0.0415      0.0145      0.0351      0.0117      0.0000      0.0000
 47      0.0000      0.0656      0.0000      0.0000      0.0000      0.0000      0.0000      0.0000      0.0000
 48      0.0000      0.1171      0.0000      0.0000      0.0000      0.0462      0.0000      0.0000      0.0000
 49      0.0000      0.1070      0.0000      0.1913      0.0337      0.2796      0.0000      0.0105      0.0000
 50      0.0000      0.1027      0.0547      0.1687      0.0000      0.1460      0.0000      0.0000      0.0914
 51      3.3311      4.3044      4.2719      4.2296      4.2650      4.3300      4.3260      4.1572      4.3085
 52      0.0000      0.1083      0.2277      0.0914      0.2813      0.1583      0.1426      0.0923      0.1002
 53      0.0000      0.0506      0.0606      0.0595      0.0000      0.0000      0.0000      0.0391      0.0000
 54      0.0000      0.0535      0.1163      0.0984      0.0000      0.0000      0.0827      0.1380      0.0908
 55      0.0000      0.0390      0.0658      0.0000      0.0000      0.0759      0.1550      0.0500      0.0000
 56      0.0000      0.0497      0.0000      0.0733      0.0000      0.0000      0.2016      0.0329      0.0228
 57      0.0000      0.0185      0.1001      0.0000      0.0000      0.0000      0.0000      0.0000      0.0000
 58      0.0000      0.0289      0.0000      0.0000      0.0206      0.0000      0.0000      0.0000      0.0042
 59      0.0000      0.0447      0.1434      0.0000      0.2881      0.0000      0.0402      0.0000      0.0642
 60      0.0000      0.0229      0.0445      0.0000      0.0000      0.1669      0.0000      0.0000      0.0832
 61      0.0000      0.0434      0.3110      0.1524      0.0000      0.0811      0.0000      0.0000      0.0000
 62      0.0000      0.0385      0.1659      0.0000      0.0039      0.0000      0.0411      0.0924      0.0000
 63      0.0000      0.0235      0.0000      0.0000      0.0000      0.0203      0.0000      0.0000      0.0000
 64      0.1111      0.0448      0.1494      0.0000      0.0220      0.0136      0.1979      0.2838      0.0000
 65      0.1331      0.0447      0.0000      0.0000      0.0176      0.0000      0.0000      0.2283      0.1815
 66      0.7950      0.1105      0.2649      0.2609      0.3181      0.0000      0.0000      0.2749      0.2208
 67      0.0000      0.0639      0.0000      0.0000      0.1635      0.2025      0.1920      0.0000      0.0000
 68      0.0008      0.0795      0.0211      0.0000      0.0000      0.0000      0.2705      0.3072      0.2272
 69      0.0000      0.1419      0.0000      0.0000      0.0383      0.1058      0.0000      0.0000      0.0000
 70      0.0000      0.0989      0.0000      0.0000      0.1034      0.0000      0.1014      0.0253      0.0502
 71      0.0000      0.1229      0.0000      0.0366      0.0000      0.0542      0.0000      0.0000      0.1361
 72      0.0000      0.1703      0.0000      0.0000      0.0000      0.3994      0.2270      0.0789      0.1536
 73      0.3943      0.1718      0.0948      0.0842      0.6537      0.0000      0.1234      0.2817      0.3539
 74      0.8412      0.1835      0.3409      0.7054      0.1138      0.0656      0.2534      0.3553      0.1624
 75      1.2599      0.2371      1.2773      0.0864      0.1545      0.3845      0.6640      0.4839      0.3225
 76      0.0000      0.0249      0.0000      0.0000      0.0000      0.0000      0.1123      0.0000      0.0637
 77      0.0000      0.0401      0.0000      0.0000      0.0504      0.0652      0.0000      0.0708      0.0000
 78      0.0000      0.0278      0.0000      0.0000      0.0082      0.0000      0.0000      0.0000      0.0000
 79      0.0000      0.0385      0.0000      0.0000      0.0000      0.0000      0.0000      0.0000      0.0000
 80      0.0000      0.0327      0.0000      0.0000      0.0000      0.2085      0.0000      0.0000      0.0629
 81      0.0000      0.0206      0.0495      0.0000      0.0000      0.0000      0.0000      0.0065      0.0000
 82      0.0000      0.0224      0.0560      0.0000      0.0217      0.0000      0.0000      0.0000      0.0000
 83      0.0000      0.0164      0.0000      0.0000      0.0000      0.0000      0.0000      0.0000      0.0000
 84      0.0000      0.0295      0.0000      0.0068      0.0000      0.1074      0.0000      0.0000      0.0000
 85      0.0000      0.0656      0.0000      0.0341      0.0000      0.0000      0.0233      0.0000      0.0000
 86      0.0000      0.0202      0.0000      0.0000      0.0000      0.2909      0.0000      0.0000      0.0000
 87      0.0000      0.0423      0.1672      0.0000      0.0000      0.0000      0.0068      0.0000      0.0000
 88      0.0000      0.0198      0.0729      0.0000      0.0000      0.0000      0.0000      0.0000      0.0000
 89      0.0000      0.0296      0.1052      0.1283      0.0000      0.0000      0.0000      0.0000      0.0000
 90      0.0002      0.0337      0.0000      0.0000      0.0248      0.0099      0.0000      0.2244      0.0000
 91      0.5491      0.1212      0.1057      0.0000      0.0000      0.0000      0.3435      0.3476      0.0482
 92      0.0007      0.0770      0.0000      0.2769      0.0000      0.6591      0.0000      0.2465      0.0000
 93      0.0000      0.0927      0.2850      0.0000      0.1132      0.0247      0.0000      0.0000      0.3056
 94      1.0864      0.2017      0.1302      0.8889      0.4444      0.2469      0.8242      1.0819      0.3098
 95      2.6197      2.1138      2.0252      2.3758      2.2147      2.5655      2.5013      2.1465      2.1081
 96      0.5967      0.8224      0.9740      0.9895      0.6784      0.9617      0.8292      0.8752      0.9782
 97      7.6232      8.6991      8.5032      8.7057      8.5795      8.6076      8.5247      8.4557      8.7436
 98      2.5995      4.3270      4.1303      4.2364      4.5307      4.1785      4.0629      4.1693      4.0743
 99      0.0000      0.0887      0.3366      0.0000      0.0143      0.0141      0.0000      0.0234      0.0000
100      0.0000      0.0313      0.0029      0.0000      0.2302      0.0000      0.0000      0.0000      0.1913
101      0.0000      0.0258      0.0000      0.0000      0.0000      0.1333      0.0000      0.0000      0.0845
102      0.0000      0.0221      0.0000      0.1260      0.0000      0.0000      0.0000      0.0000      0.0000
103      0.0000      0.0202      0.0000      0.0000      0.0000      0.0000      0.0000      0.0000      0.0000
104      0.0000      0.0503      0.0020      0.0000      0.0000      0.0000      0.0481      0.1013      0.0000
105      0.1758      0.6473      0.6185      0.5372      0.6998      0.7827      0.6750      0.6164      0.4364
106      0.0000      0.1242      0.0000      0.1589      0.1144      0.2768      0.0000      0.1082      0.2235
107      0.0000      0.0234      0.0306      0.0000      0.0000      0.0000      0.0000      0.0000      0.0000
108      0.0000      0.0127      0.0000      0.0000      0.0000      0.0000      0.0000      0.1014      0.0000
109      0.0000      0.0189      0.0000      0.0000      0.0000      0.0199      0.0483      0.0115      0.0000
110      0.0000      0.0122      0.0000      0.0000      0.0000      0.0000      0.0000      0.0001      0.0000
111      0.0000      0.0182      0.1877      0.0000      0.0000      0.0000      0.0000      0.0000      0.0277
112      0.0000      0.0246      0.0000      0.0000      0.0132      0.0210      0.0000      0.0000      0.0000
113      0.0000      0.0394      0.0000      0.0000      0.0000      0.0000      0.0653      0.0897      0.0000
114      0.0000      0.0260      0.0000      0.0000      0.0856      0.0000      0.0000      0.0044      0.1772
115      0.0000      0.0432      0.0000      0.0000      0.0000      0.1844      0.0000      0.0000      0.0527
116      0.0000      0.0484      0.0000      0.0000      0.0562      0.2570      0.0000      0.0000      0.0000
117      0.0000      0.0514      0.1246      0.0000      0.0907      0.1070      0.0000      0.0000      0.2527
118      0.0000      0.0505      0.0582      0.0000      0.0000      0.0618      0.0440      0.0000      0.0001
119      0.0000      0.0673      0.0000      0.0961      0.0212      0.0000      0.0000      0.0000      0.0000
120      0.0007      0.0757      0.0465      0.0247      0.0000      0.0000      0.5363      0.2246      0.0000
121      0.0000      0.0583      0.0305      0.0000      0.0000      0.0521      0.0000      0.0000      0.0546
122      0.1991      0.6867      0.0000      0.5866      0.7557      0.6162      0.7413      0.6578      0.2633
123      2.2756      2.0930      2.2067      2.0835      2.1422      2.2290      2.0718      2.0733      2.0748
124      7.4583      6.7887      7.1246      6.7755      6.6283      6.7979      6.7985      6.5747      6.7925
125      5.9660      5.4406      5.4303      5.4291      5.4499      5.4036      5.5042      5.3944      5.7951
126      0.0000      0.0147      0.0000      0.0000      0.0000      0.0000      0.0000      0.0000      0.0000
127      0.0001      1.1533      1.0794      1.1502      1.0089      1.1571      1.0480      1.1613      1.0190
128      0.0000      0.0245      0.1109      0.0000      0.0000      0.0000      0.0000      0.0000      0.0000
129      0.0000      0.0151      0.0000      0.0000      0.0000      0.0000      0.0170      0.0000      0.0000
130      0.0000      0.0161      0.0000      0.0000      0.1422      0.0000      0.0000      0.0113      0.0000
131      0.0000      0.0183      0.1200      0.0000      0.0000      0.0605      0.0000      0.0012      0.0000
132      0.0000      0.0081      0.0000      0.0000      0.0000      0.0000      0.0000      0.0785      0.0000
133      0.0000      0.0119      0.0000      0.0000      0.0000      0.0000      0.0555      0.0000      0.0000
134      0.0000      0.0200      0.0000      0.0000      0.0000      0.0000      0.0354      0.0000      0.0000
135      0.0000      0.0205      0.0353      0.0000      0.0000      0.0000      0.2378      0.0000      0.0022
136      0.0000      0.0189      0.0000      0.0112      0.0000      0.0000      0.0000      0.0000      0.0000
137      0.0000      0.0176      0.0000      0.0000      0.0485      0.0000      0.0000      0.0000      0.1202
138      0.0000      0.0093      0.0000      0.0000      0.0000      0.0000      0.0000      0.0832      0.0000
139      0.0000      0.0232      0.0000      0.0000      0.3145      0.1306      0.0043      0.0000      0.1231
140      0.0000      0.0653      0.0491      0.0000      0.2781      0.0000      0.0000      0.0123      0.0000
141      0.0000      0.0251      0.0000      0.0000      0.0000      0.0000      0.0000      0.0000      0.0000
142      0.0000      0.0288      0.0000      0.0000      0.0000      0.0000      0.0000      0.0000      0.0000
143      0.0000      0.0253      0.0000      0.0000      0.0000      0.1982      0.0062      0.0356      0.0000
144      0.9609      0.2475      0.5151      0.0426      0.2856      0.1856      0.3519      0.2306      0.0000
145      0.8997      0.4590      0.5852      0.4114      0.2910      0.4710      0.4213      0.4304      0.5838
146      4.3084      3.9484      3.6992      3.9177      3.9575      4.1634      3.9449      4.0564      3.9485
147      1.1208      1.2547      1.2444      1.0170      1.1880      1.3157      1.0950      1.2989      1.2934
148      6.9536      7.2526      7.2932      7.3764      7.4420      6.9992      7.1338      7.1218      7.0295
149      3.3028      3.7089      3.6507      3.6164      3.5712      3.5995      3.7031      3.6016      3.7824
150      3.0764      3.7070      3.5858      4.0610      3.6790      3.6770      3.6109      3.6618      3.7319

# j      m_j: min, <> & last-chain-values for 1 ...  7 chains
  1  1.1528E-02  1.9576E-02  1.9599E-02  1.9293E-02  1.9879E-02  1.9492E-02  1.9495E-02  1.9902E-02  1.9493E-02
  2  2.8394E-03  8.2394E-04  9.3003E-04  8.5963E-04  1.1687E-03  9.0848E-04  8.4387E-04  8.6822E-04  9.1935E-04
  3  2.1995E-02  1.6271E-02  1.7216E-02  1.6400E-02  1.6552E-02  1.6124E-02  1.6488E-02  1.6868E-02  1.6759E-02
  4  7.7190E-03  5.8300E-03  5.8547E-03  5.8489E-03  5.9787E-03  5.6604E-03  6.8630E-03  5.6999E-03  6.0225E-03
  5  9.8695E-03  7.5466E-03  7.6769E-03  7.5142E-03  7.6691E-03  7.7096E-03  6.9371E-03  7.4221E-03  7.9910E-03
  6  1.5181E-02  9.4294E-03  9.5401E-03  9.3290E-03  9.5163E-03  9.7340E-03  9.3873E-03  1.0263E-02  9.5986E-03
  7  6.6601E-03  3.9108E-03  4.0627E-03  4.5450E-03  4.2134E-03  4.1549E-03  4.0541E-03  4.0397E-03  3.6591E-03
  8  3.0859E-03  4.8404E-04  0.0000E+00  0.0000E+00  0.0000E+00  8.0030E-04  1.0764E-03  2.4132E-03  9.8780E-04
  9  0.0000E+00  7.1945E-04  1.0412E-03  6.3051E-04  2.0747E-03  8.8606E-04  2.0766E-03  0.0000E+00  0.0000E+00
 10  0.0000E+00  6.8972E-04  0.0000E+00  2.8854E-03  7.7341E-04  1.1556E-03  0.0000E+00  9.1914E-04  0.0000E+00
 11  0.0000E+00  5.3359E-04  0.0000E+00  0.0000E+00  8.6396E-04  1.9425E-03  3.3520E-04  0.0000E+00  0.0000E+00
 12  0.0000E+00  3.1395E-04  0.0000E+00  1.6630E-03  0.0000E+00  3.2281E-04  0.0000E+00  0.0000E+00  0.0000E+00
 13  0.0000E+00  3.7140E-04  2.4073E-03  0.0000E+00  0.0000E+00  0.0000E+00  1.0171E-03  0.0000E+00  0.0000E+00
 14  0.0000E+00  3.3292E-04  0.0000E+00  0.0000E+00  0.0000E+00  1.3114E-04  0.0000E+00  0.0000E+00  1.2282E-03
 15  0.0000E+00  7.4634E-04  6.9972E-04  0.0000E+00  0.0000E+00  0.0000E+00  1.8729E-03  0.0000E+00  0.0000E+00
 16  0.0000E+00  2.2898E-03  0.0000E+00  1.9890E-02  2.4328E-03  0.0000E+00  6.4953E-04  0.0000E+00  0.0000E+00
 17  0.0000E+00  1.5140E-03  0.0000E+00  1.9079E-03  0.0000E+00  0.0000E+00  0.0000E+00  0.0000E+00  0.0000E+00
 18  0.0000E+00  2.9627E-03  0.0000E+00  0.0000E+00  0.0000E+00  0.0000E+00  1.9621E-02  0.0000E+00  4.4763E-03
 19  0.0000E+00  7.3607E-03  1.0361E-02  2.1460E-02  1.0720E-03  0.0000E+00  2.6129E-02  0.0000E+00  0.0000E+00
 20  0.0000E+00  1.3658E-02  0.0000E+00  0.0000E+00  6.7331E-02  4.2912E-02  2.0849E-02  0.0000E+00  1.2409E-01
 21  0.0000E+00  1.7769E-02  0.0000E+00  0.0000E+00  0.0000E+00  0.0000E+00  0.0000E+00  3.6184E-03  0.0000E+00
 22  0.0000E+00  2.4070E-02  0.0000E+00  0.0000E+00  5.6588E-03  0.0000E+00  0.0000E+00  0.0000E+00  0.0000E+00
 23  0.0000E+00  3.0102E-02  0.0000E+00  1.1482E-02  0.0000E+00  3.1188E-01  0.0000E+00  0.0000E+00  9.8487E-03
 24  8.1862E-05  3.5981E-02  0.0000E+00  0.0000E+00  6.8370E-03  0.0000E+00  2.0044E-02  1.1099E-01  0.0000E+00
 25  0.0000E+00  5.7269E-02  0.0000E+00  4.0472E-02  1.6901E-01  0.0000E+00  0.0000E+00  0.0000E+00  0.0000E+00
 26  5.4269E-03  7.7523E-03  8.0635E-03  7.7581E-03  7.8854E-03  7.3939E-03  7.9206E-03  7.8937E-03  7.3081E-03
 27  7.9635E-05  9.9584E-05  1.0048E-04  3.3109E-04  0.0000E+00  1.5427E-04  6.1100E-05  1.4761E-04  0.0000E+00
 28  0.0000E+00  4.6460E-04  4.7625E-04  2.4935E-04  4.6709E-04  5.9544E-04  7.4324E-04  2.4427E-04  4.6879E-04
 29  2.4116E-03  1.7619E-03  1.7339E-03  1.7772E-03  1.6707E-03  2.0855E-03  1.5287E-03  2.0573E-03  1.8359E-03
 30  2.8888E-03  1.9234E-03  1.4029E-03  1.8701E-03  2.0144E-03  1.8656E-03  1.9650E-03  2.5730E-03  2.5706E-03
 31  3.9463E-03  2.8823E-03  2.8316E-03  3.5925E-03  2.5540E-03  3.0673E-03  3.0209E-03  3.0261E-03  2.9318E-03
 32  0.0000E+00  1.6213E-04  0.0000E+00  0.0000E+00  8.8420E-04  0.0000E+00  0.0000E+00  0.0000E+00  9.2953E-04
 33  0.0000E+00  2.4355E-04  0.0000E+00  0.0000E+00  0.0000E+00  0.0000E+00  4.6625E-04  7.5238E-04  1.3427E-03
 34  0.0000E+00  1.5425E-04  0.0000E+00  9.7774E-04  0.0000E+00  0.0000E+00  0.0000E+00  0.0000E+00  0.0000E+00
 35  0.0000E+00  5.6392E-04  3.5768E-04  0.0000E+00  1.6389E-03  0.0000E+00  0.0000E+00  0.0000E+00  1.9274E-03
 36  0.0000E+00  5.3482E-04  0.0000E+00  0.0000E+00  1.7264E-04  0.0000E+00  0.0000E+00  0.0000E+00  0.0000E+00
 37  0.0000E+00  2.8040E-04  0.0000E+00  2.3598E-03  0.0000E+00  0.0000E+00  1.0089E-03  0.0000E+00  7.5873E-04
 38  0.0000E+00  4.3828E-04  0.0000E+00  0.0000E+00  0.0000E+00  0.0000E+00  0.0000E+00  1.2326E-03  3.1566E-04
 39  0.0000E+00  9.2076E-04  0.0000E+00  0.0000E+00  0.0000E+00  2.4759E-04  0.0000E+00  0.0000E+00  1.8781E-03
 40  0.0000E+00  1.0410E-03  4.7773E-03  0.0000E+00  8.3862E-03  0.0000E+00  0.0000E+00  0.0000E+00  2.4631E-03
 41  0.0000E+00  2.4652E-03  0.0000E+00  0.0000E+00  0.0000E+00  4.8209E-03  0.0000E+00  0.0000E+00  0.0000E+00
 42  0.0000E+00  2.6784E-03  0.0000E+00  1.3645E-02  0.0000E+00  0.0000E+00  0.0000E+00  0.0000E+00  6.7574E-04
 43  8.1850E-03  2.0258E-02  1.5888E-02  7.1158E-03  3.3928E-02  7.6413E-03  3.4457E-02  5.4876E-02  5.7033E-02
 44  0.0000E+00  2.3740E-02  7.2351E-02  8.2027E-02  5.4123E-02  0.0000E+00  0.0000E+00  1.6454E-02  0.0000E+00
 45  9.7640E-05  4.4891E-01  4.3687E-01  4.1899E-01  3.1534E-01  2.0678E-01  4.1190E-01  3.8407E-01  4.3786E-01
 46  0.0000E+00  4.9440E-02  0.0000E+00  1.1702E-02  4.1199E-03  1.0040E-02  3.3517E-03  0.0000E+00  0.0000E+00
 47  0.0000E+00  2.4369E-02  0.0000E+00  0.0000E+00  0.0000E+00  0.0000E+00  0.0000E+00  0.0000E+00  0.0000E+00
 48  0.0000E+00  5.1829E-02  0.0000E+00  0.0000E+00  0.0000E+00  2.0620E-02  0.0000E+00  0.0000E+00  0.0000E+00
 49  0.0000E+00  5.3000E-02  0.0000E+00  9.4256E-02  1.6746E-02  1.3957E-01  0.0000E+00  5.2711E-03  0.0000E+00
 50  0.0000E+00  5.9830E-02  3.1927E-02  9.7775E-02  0.0000E+00  8.5760E-02  0.0000E+00  0.0000E+00  5.3299E-02
 51  9.2064E-03  1.1528E-02  1.1472E-02  1.1274E-02  1.1473E-02  1.1694E-02  1.1672E-02  1.1285E-02  1.1556E-02
 52  0.0000E+00  7.9290E-05  1.6723E-04  6.6648E-05  2.0691E-04  1.1692E-04  1.0521E-04  6.8531E-05  7.3518E-05
 53  0.0000E+00  5.6505E-05  6.7902E-05  6.6145E-05  0.0000E+00  0.0000E+00  0.0000E+00  4.4293E-05  0.0000E+00
 54  0.0000E+00  5.6969E-05  1.2419E-04  1.0430E-04  0.0000E+00  0.0000E+00  8.8741E-05  1.4899E-04  9.6844E-05
 55  0.0000E+00  6.1344E-05  1.0364E-04  0.0000E+00  0.0000E+00  1.2030E-04  2.4532E-04  7.9552E-05  0.0000E+00
 56  0.0000E+00  1.0347E-04  0.0000E+00  1.5167E-04  0.0000E+00  0.0000E+00  4.2255E-04  6.9373E-05  4.7580E-05
 57  0.0000E+00  6.1834E-05  3.3490E-04  0.0000E+00  0.0000E+00  0.0000E+00  0.0000E+00  0.0000E+00  0.0000E+00
 58  0.0000E+00  1.3918E-04  0.0000E+00  0.0000E+00  9.9724E-05  0.0000E+00  0.0000E+00  0.0000E+00  2.0402E-05
 59  0.0000E+00  2.9884E-04  9.6070E-04  0.0000E+00  1.9338E-03  0.0000E+00  2.7061E-04  0.0000E+00  4.2985E-04
 60  0.0000E+00  1.7051E-04  3.3221E-04  0.0000E+00  0.0000E+00  1.2526E-03  0.0000E+00  0.0000E+00  6.1971E-04
 61  0.0000E+00  4.1111E-04  2.9568E-03  1.4376E-03  0.0000E+00  7.7561E-04  0.0000E+00  0.0000E+00  0.0000E+00
 62  0.0000E+00  4.6240E-04  2.0000E-03  0.0000E+00  4.6878E-05  0.0000E+00  4.9823E-04  1.1259E-03  0.0000E+00
 63  0.0000E+00  4.2955E-04  0.0000E+00  0.0000E+00  0.0000E+00  3.7519E-04  0.0000E+00  0.0000E+00  0.0000E+00
 64  3.4499E-03  1.3473E-03  4.5051E-03  0.0000E+00  6.6387E-04  4.1188E-04  5.9972E-03  8.6537E-03  0.0000E+00
 65  6.9817E-03  2.2744E-03  0.0000E+00  0.0000E+00  8.9874E-04  0.0000E+00  0.0000E+00  1.1763E-02  9.2399E-03
 66  5.3370E-02  7.1914E-03  1.7280E-02  1.6890E-02  2.0784E-02  0.0000E+00  0.0000E+00  1.8127E-02  1.4386E-02
 67  0.0000E+00  5.7050E-03  0.0000E+00  0.0000E+00  1.4665E-02  1.8236E-02  1.7268E-02  0.0000E+00  0.0000E+00
 68  1.2903E-04  1.3201E-02  3.5095E-03  0.0000E+00  0.0000E+00  0.0000E+00  4.5237E-02  5.1686E-02  3.7766E-02
 69  0.0000E+00  4.0622E-02  0.0000E+00  0.0000E+00  1.1027E-02  3.0533E-02  0.0000E+00  0.0000E+00  0.0000E+00
 70  0.0000E+00  3.9406E-02  0.0000E+00  0.0000E+00  4.1371E-02  0.0000E+00  4.0722E-02  1.0220E-02  2.0041E-02
 71  0.0000E+00  5.7776E-02  0.0000E+00  1.7126E-02  0.0000E+00  2.5688E-02  0.0000E+00  0.0000E+00  6.4099E-02
 72  0.0000E+00  1.0541E-01  0.0000E+00  0.0000E+00  0.0000E+00  2.4924E-01  1.4151E-01  4.9488E-02  9.5222E-02
 73  3.1766E-01  1.3412E-01  7.4229E-02  6.5448E-02  5.1253E-01  0.0000E+00  9.7087E-02  2.2293E-01  2.7665E-01
 74  7.5605E-01  1.5984E-01  2.9768E-01  6.1145E-01  9.9571E-02  5.7657E-02  2.2235E-01  3.1366E-01  1.4162E-01
 75  1.3021E+00  2.3744E-01  1.2827E+00  8.6083E-02  1.5543E-01  3.8834E-01  6.7000E-01  4.9121E-01  3.2348E-01
 76  0.0000E+00  5.7728E-05  0.0000E+00  0.0000E+00  0.0000E+00  0.0000E+00  2.6238E-04  0.0000E+00  1.4793E-04
 77  0.0000E+00  3.7862E-05  0.0000E+00  0.0000E+00  4.7835E-05  6.2158E-05  0.0000E+00  6.7765E-05  0.0000E+00
 78  0.0000E+00  2.9354E-05  0.0000E+00  0.0000E+00  8.7110E-06  0.0000E+00  0.0000E+00  0.0000E+00  0.0000E+00
 79  0.0000E+00  4.9040E-05  0.0000E+00  0.0000E+00  0.0000E+00  0.0000E+00  0.0000E+00  0.0000E+00  0.0000E+00
 80  0.0000E+00  5.3637E-05  0.0000E+00  0.0000E+00  0.0000E+00  3.4475E-04  0.0000E+00  0.0000E+00  1.0325E-04
 81  0.0000E+00  4.4654E-05  1.0765E-04  0.0000E+00  0.0000E+00  0.0000E+00  0.0000E+00  1.4272E-05  0.0000E+00
 82  0.0000E+00  6.5303E-05  1.6390E-04  0.0000E+00  6.3621E-05  0.0000E+00  0.0000E+00  0.0000E+00  0.0000E+00
 83  0.0000E+00  7.0538E-05  0.0000E+00  0.0000E+00  0.0000E+00  0.0000E+00  0.0000E+00  0.0000E+00  0.0000E+00
 84  0.0000E+00  1.7526E-04  0.0000E+00  4.0434E-05  0.0000E+00  6.4347E-04  0.0000E+00  0.0000E+00  0.0000E+00
 85  0.0000E+00  4.7347E-04  0.0000E+00  2.4445E-04  0.0000E+00  0.0000E+00  1.6943E-04  0.0000E+00  0.0000E+00
 86  0.0000E+00  1.9697E-04  0.0000E+00  0.0000E+00  0.0000E+00  2.8670E-03  0.0000E+00  0.0000E+00  0.0000E+00
 87  0.0000E+00  5.5046E-04  2.1819E-03  0.0000E+00  0.0000E+00  0.0000E+00  8.9663E-05  0.0000E+00  0.0000E+00
 88  0.0000E+00  3.9344E-04  1.4497E-03  0.0000E+00  0.0000E+00  0.0000E+00  0.0000E+00  0.0000E+00  0.0000E+00
 89  0.0000E+00  9.7663E-04  3.4848E-03  4.2184E-03  0.0000E+00  0.0000E+00  0.0000E+00  0.0000E+00  0.0000E+00
 90  1.4128E-05  2.0612E-03  0.0000E+00  0.0000E+00  1.5205E-03  6.1284E-04  0.0000E+00  1.3893E-02  0.0000E+00
 91  4.4544E-02  9.5252E-03  8.3346E-03  0.0000E+00  0.0000E+00  0.0000E+00  2.7203E-02  2.7696E-02  3.7943E-03
 92  7.6766E-05  8.0847E-03  0.0000E+00  2.8921E-02  0.0000E+00  6.9757E-02  0.0000E+00  2.6224E-02  0.0000E+00
 93  0.0000E+00  1.9764E-02  6.0924E-02  0.0000E+00  2.4234E-02  5.3118E-03  0.0000E+00  0.0000E+00  6.5251E-02
 94  4.2869E-01  7.7143E-02  4.9916E-02  3.3830E-01  1.7068E-01  9.5211E-02  3.1752E-01  4.1929E-01  1.1863E-01
 95  1.3926E+00  1.0889E+00  1.0460E+00  1.2181E+00  1.1459E+00  1.3326E+00  1.2981E+00  1.1207E+00  1.0875E+00
 96  3.8272E-01  5.1112E-01  6.0694E-01  6.1209E-01  4.2346E-01  6.0273E-01  5.1920E-01  5.5134E-01  6.0883E-01
 97  6.3706E+00  7.0449E+00  6.9044E+00  7.0166E+00  6.9785E+00  7.0290E+00  6.9550E+00  6.9405E+00  7.0911E+00
 98  2.7858E+00  4.4937E+00  4.3008E+00  4.3787E+00  4.7259E+00  4.3758E+00  4.2509E+00  4.3886E+00  4.2374E+00
 99  0.0000E+00  1.0507E-01  3.9960E-01  0.0000E+00  1.6964E-02  1.6887E-02  0.0000E+00  2.8131E-02  0.0000E+00
100  0.0000E+00  4.2698E-02  3.9493E-03  0.0000E+00  3.1512E-01  0.0000E+00  0.0000E+00  0.0000E+00  2.6117E-01
101  0.0000E+00  3.8719E-05  0.0000E+00  0.0000E+00  0.0000E+00  2.0163E-04  0.0000E+00  0.0000E+00  1.2701E-04
102  0.0000E+00  1.7207E-05  0.0000E+00  9.7808E-05  0.0000E+00  0.0000E+00  0.0000E+00  0.0000E+00  0.0000E+00
103  0.0000E+00  1.7462E-05  0.0000E+00  0.0000E+00  0.0000E+00  0.0000E+00  0.0000E+00  0.0000E+00  0.0000E+00
104  0.0000E+00  5.7098E-05  2.2936E-06  0.0000E+00  0.0000E+00  0.0000E+00  5.5055E-05  1.1666E-04  0.0000E+00
105  4.3534E-04  1.5529E-03  1.4878E-03  1.2827E-03  1.6862E-03  1.8935E-03  1.6314E-03  1.4987E-03  1.0485E-03
106  0.0000E+00  3.2068E-04  0.0000E+00  4.0846E-04  2.9662E-04  7.2095E-04  0.0000E+00  2.8329E-04  5.7803E-04
107  0.0000E+00  8.0826E-05  1.0570E-04  0.0000E+00  0.0000E+00  0.0000E+00  0.0000E+00  0.0000E+00  0.0000E+00
108  0.0000E+00  7.3123E-05  0.0000E+00  0.0000E+00  0.0000E+00  0.0000E+00  0.0000E+00  5.9045E-04  0.0000E+00
109  0.0000E+00  1.3053E-04  0.0000E+00  0.0000E+00  0.0000E+00  1.3843E-04  3.3574E-04  8.0616E-05  0.0000E+00
110  0.0000E+00  1.0066E-04  0.0000E+00  0.0000E+00  0.0000E+00  0.0000E+00  0.0000E+00  4.4262E-07  0.0000E+00
111  0.0000E+00  2.0838E-04  2.1588E-03  0.0000E+00  0.0000E+00  0.0000E+00  0.0000E+00  0.0000E+00  3.1806E-04
112  0.0000E+00  3.7141E-04  0.0000E+00  0.0000E+00  2.0088E-04  3.1960E-04  0.0000E+00  0.0000E+00  0.0000E+00
113  0.0000E+00  8.8806E-04  0.0000E+00  0.0000E+00  0.0000E+00  0.0000E+00  1.4834E-03  2.0480E-03  0.0000E+00
114  0.0000E+00  1.0307E-03  0.0000E+00  0.0000E+00  3.4112E-03  0.0000E+00  0.0000E+00  1.7600E-04  7.0423E-03
115  0.0000E+00  3.4287E-03  0.0000E+00  0.0000E+00  0.0000E+00  1.4762E-02  0.0000E+00  0.0000E+00  4.1865E-03
116  0.0000E+00  6.1709E-03  0.0000E+00  0.0000E+00  7.2023E-03  3.3040E-02  0.0000E+00  0.0000E+00  0.0000E+00
117  0.0000E+00  7.7006E-03  1.8720E-02  0.0000E+00  1.3651E-02  1.6167E-02  0.0000E+00  0.0000E+00  3.7909E-02
118  0.0000E+00  1.5368E-02  1.7729E-02  0.0000E+00  0.0000E+00  1.8949E-02  1.3489E-02  0.0000E+00  3.3608E-05
119  0.0000E+00  3.5371E-02  0.0000E+00  5.0281E-02  1.1176E-02  0.0000E+00  0.0000E+00  0.0000E+00  0.0000E+00
120  5.4549E-04  5.6614E-02  3.4918E-02  1.8383E-02  0.0000E+00  0.0000E+00  4.0432E-01  1.7036E-01  0.0000E+00
121  0.0000E+00  5.1326E-02  2.6884E-02  0.0000E+00  0.0000E+00  4.6263E-02  0.0000E+00  0.0000E+00  4.8159E-02
122  2.4206E-01  8.0890E-01  0.0000E+00  6.8779E-01  8.9415E-01  7.3200E-01  8.7982E-01  7.8542E-01  3.1061E-01
123  3.6487E+00  3.2522E+00  3.4380E+00  3.2220E+00  3.3433E+00  3.4925E+00  3.2432E+00  3.2652E+00  3.2285E+00
124  1.3731E+01  1.2112E+01  1.2745E+01  1.2031E+01  1.1877E+01  1.2229E+01  1.2220E+01  1.1889E+01  1.2136E+01
125  1.3146E+01  1.1617E+01  1.1626E+01  1.1537E+01  1.1688E+01  1.1635E+01  1.1841E+01  1.1675E+01  1.2392E+01
126  0.0000E+00  1.6519E-05  0.0000E+00  0.0000E+00  0.0000E+00  0.0000E+00  0.0000E+00  0.0000E+00  0.0000E+00
127  6.2283E-08  6.8414E-04  6.4196E-04  6.7902E-04  6.0111E-04  6.9212E-04  6.2632E-04  6.9821E-04  6.0535E-04
128  0.0000E+00  2.1573E-05  9.7836E-05  0.0000E+00  0.0000E+00  0.0000E+00  0.0000E+00  0.0000E+00  0.0000E+00
129  0.0000E+00  2.7155E-05  0.0000E+00  0.0000E+00  0.0000E+00  0.0000E+00  3.0837E-05  0.0000E+00  0.0000E+00
130  0.0000E+00  3.9478E-05  0.0000E+00  0.0000E+00  3.5044E-04  0.0000E+00  0.0000E+00  2.8143E-05  0.0000E+00
131  0.0000E+00  5.1894E-05  3.4179E-04  0.0000E+00  0.0000E+00  1.7331E-04  0.0000E+00  3.3967E-06  0.0000E+00
132  0.0000E+00  3.1065E-05  0.0000E+00  0.0000E+00  0.0000E+00  0.0000E+00  0.0000E+00  3.0696E-04  0.0000E+00
133  0.0000E+00  6.6561E-05  0.0000E+00  0.0000E+00  0.0000E+00  0.0000E+00  3.1361E-04  0.0000E+00  0.0000E+00
134  0.0000E+00  1.4180E-04  0.0000E+00  0.0000E+00  0.0000E+00  0.0000E+00  2.5372E-04  0.0000E+00  0.0000E+00
135  0.0000E+00  1.7503E-04  3.0238E-04  0.0000E+00  0.0000E+00  0.0000E+00  2.0484E-03  0.0000E+00  1.8858E-05
136  0.0000E+00  2.3339E-04  0.0000E+00  1.3758E-04  0.0000E+00  0.0000E+00  0.0000E+00  0.0000E+00  0.0000E+00
137  0.0000E+00  2.9702E-04  0.0000E+00  0.0000E+00  8.2101E-04  0.0000E+00  0.0000E+00  0.0000E+00  2.0283E-03
138  0.0000E+00  2.6117E-04  0.0000E+00  0.0000E+00  0.0000E+00  0.0000E+00  0.0000E+00  2.3637E-03  0.0000E+00
139  0.0000E+00  1.2230E-03  0.0000E+00  0.0000E+00  1.6685E-02  6.9545E-03  2.3064E-04  0.0000E+00  6.5106E-03
140  0.0000E+00  7.9874E-03  6.0234E-03  0.0000E+00  3.4195E-02  0.0000E+00  0.0000E+00  1.5201E-03  0.0000E+00
141  0.0000E+00  4.6940E-03  0.0000E+00  0.0000E+00  0.0000E+00  0.0000E+00  0.0000E+00  0.0000E+00  0.0000E+00
142  0.0000E+00  6.4201E-03  0.0000E+00  0.0000E+00  0.0000E+00  0.0000E+00  0.0000E+00  0.0000E+00  0.0000E+00
143  0.0000E+00  1.1198E-02  0.0000E+00  0.0000E+00  0.0000E+00  8.8556E-02  2.7500E-03  1.5985E-02  0.0000E+00
144  8.6309E-01  2.1544E-01  4.4952E-01  3.6940E-02  2.4967E-01  1.6288E-01  3.0858E-01  2.0342E-01  0.0000E+00
145  1.2030E+00  5.9476E-01  7.6025E-01  5.3061E-01  3.7869E-01  6.1539E-01  5.4998E-01  5.6531E-01  7.5757E-01
146  6.8800E+00  6.1101E+00  5.7396E+00  6.0338E+00  6.1510E+00  6.4966E+00  6.1501E+00  6.3622E+00  6.1191E+00
147  2.4047E+00  2.6088E+00  2.5942E+00  2.1044E+00  2.4810E+00  2.7584E+00  2.2936E+00  2.7372E+00  2.6933E+00
148  2.0209E+01  2.0426E+01  2.0595E+01  2.0676E+01  2.1051E+01  1.9877E+01  2.0241E+01  2.0329E+01  1.9826E+01
149  1.1243E+01  1.2235E+01  1.2075E+01  1.1873E+01  1.1832E+01  1.1973E+01  1.2307E+01  1.2042E+01  1.2495E+01
150  1.2473E+01  1.4565E+01  1.4127E+01  1.5881E+01  1.4519E+01  1.4568E+01  1.4294E+01  1.4583E+01  1.4685E+01

# AV, chi2 & Mass for <> & i_chain = 1 ...  7 solutions
AV       2.4817      2.4583      2.4677      2.4622      2.4661      2.4680      2.4629      2.4712      2.4665
chi2 2.4398E+00  2.5781E+00  2.5577E+00  2.5667E+00  2.5576E+00  2.5657E+00  2.5624E+00  2.5532E+00  2.5612E+00
Mass 2.8409E-09  2.8409E-09  2.8693E-09  2.8694E-09  2.8582E-09  2.8542E-09  2.8373E-09  2.8516E-09  2.8679E-09
 -21.04                                  [v0_min (km/s) before EX0s...]
   0.00                                  [vd_min (km/s) before EX0s...]


## Synthetic spectrum (Best Model) ##l_obs f_obs f_syn wei
 3070    [Nl_obs]
 3359.00    0.00000   0.48821   -2.000
 3360.00    0.16961   0.47744   -1.000
 3361.00    0.31588   0.48263   -1.000
 3362.00    0.33110   0.50278   -1.000
 3363.00    0.30074   0.52516   -1.000
 3364.00    0.30274   0.53830   -1.000
 3365.00    0.29882   0.53413   -1.000
 3366.00    0.33880   0.51805   -1.000
 3367.00    0.32936   0.50219   -1.000
 3368.00    0.36956   0.48943   -1.000
 3369.00    0.33951   0.48489   -1.000
 3370.00    0.29419   0.48379   -1.000
 3371.00    0.32881   0.48236   -1.000
 3372.00    0.40463   0.48541   -1.000
 3373.00    0.44645   0.49927   58.269
 3374.00    0.40387   0.51967   -1.000
 3375.00    0.38657   0.54061   -1.000
 3376.00    0.36557   0.55025   -1.000
 3377.00    0.30475   0.54285   -1.000
 3378.00    0.30980   0.52685   -1.000
 3379.00    0.39962   0.51465   -1.000
 3380.00    0.43560   0.51284   -1.000
 3381.00    0.40264   0.52186   -1.000
 3382.00    0.39636   0.53230   -1.000
 3383.00    0.37368   0.54053   -1.000
 3384.00    0.42233   0.54511   -1.000
 3385.00    0.45852   0.55223   -1.000
 3386.00    0.43942   0.55600   -1.000
 3387.00    0.40275   0.55699   -1.000
 3388.00    0.40090   0.55585   -1.000
 3389.00    0.38440   0.55300   -1.000
 3390.00    0.40660   0.54868   -1.000
 3391.00    0.41882   0.54000   -1.000
 3392.00    0.43707   0.53385   -1.000
 3393.00    0.41719   0.53579   -1.000
 3394.00    0.41446   0.54767   -1.000
 3395.00    0.42142   0.56137   -1.000
 3396.00    0.43735   0.56981   -1.000
 3397.00    0.46867   0.57751   -1.000
 3398.00    0.41044   0.58220   -1.000
 3399.00    0.40940   0.57832   -1.000
 3400.00    0.47625   0.57240   -1.000
 3401.00    0.51639   0.56586   32.853
 3402.00    0.52456   0.55511   34.043
 3403.00    0.53429   0.54785   34.656
 3404.00    0.52795   0.54438   35.205
 3405.00    0.56971   0.54111   35.844
 3406.00    0.57989   0.53615   36.443
 3407.00    0.50262   0.53286   36.704
 3408.00    0.46653   0.53425   37.199
 3409.00    0.39888   0.53959   -1.000
 3410.00    0.43732   0.54542   -1.000
 3411.00    0.54507   0.54085   36.408
 3412.00    0.57078   0.53160   35.940
 3413.00    0.53227   0.52263   37.089
 3414.00    0.46604   0.51939   37.989
 3415.00    0.45201   0.52679   38.071
 3416.00    0.46951   0.53909   37.304
 3417.00    0.53557   0.55589   35.839
 3418.00    0.53278   0.56998   34.173
 3419.00    0.49339   0.58253   32.467
 3420.00    0.48831   0.58542   32.000
 3421.00    0.55243   0.57893   31.805
 3422.00    0.53934   0.56575   31.907
 3423.00    0.50279   0.55987   32.680
 3424.00    0.51498   0.55917   33.474
 3425.00    0.46967   0.56137   32.887
 3426.00    0.49970   0.56426   31.996
 3427.00    0.55863   0.56976   31.675
 3428.00    0.53859   0.58303   -1.000
 3429.00    0.50649   0.59628   -1.000
 3430.00    0.47049   0.59283   -1.000
 3431.00    0.49987   0.57997   -1.000
 3432.00    0.46146   0.56411   -1.000
 3433.00    0.46583   0.55891   -1.000
 3434.00    0.52550   0.56569   31.601
 3435.00    0.50414   0.57248   -1.000
 3436.00    0.49257   0.57141   -1.000
 3437.00    0.52381   0.56095   40.127
 3438.00    0.55225   0.54320   32.667
 3439.00    0.49589   0.51988   34.536
 3440.00    0.48949   0.49905   37.132
 3441.00    0.48803   0.48742   38.977
 3442.00    0.44818   0.49045   39.384
 3443.00    0.45819   0.50160   39.265
 3444.00    0.50388   0.51320   38.013
 3445.00    0.51162   0.52053   36.052
 3446.00    0.50392   0.53069   34.059
 3447.00    0.48695   0.54287   32.718
 3448.00    0.48566   0.55987   -1.000
 3449.00    0.54752   0.57251   -1.000
 3450.00    0.55431   0.56774   -1.000
 3451.00    0.56915   0.55386   -1.000
 3452.00    0.56839   0.54502   -1.000
 3453.00    0.54791   0.54544  280.321
 3454.00    0.56434   0.55418   -1.000
 3455.00    0.59199   0.55876   -1.000
 3456.00    0.53745   0.55394   -1.000
 3457.00    0.50401   0.54161   -1.000
 3458.00    0.51847   0.52654  280.321
 3459.00    0.57264   0.51829   40.308
 3460.00    0.54728   0.51404   31.963
 3461.00    0.55120   0.51944   31.899
 3462.00    0.59676   0.53651   -1.000
 3463.00    0.55479   0.55747  280.321
 3464.00    0.52719   0.55520   -1.000
 3465.00    0.50446   0.55098   -1.000
 3466.00    0.51832   0.55047   -1.000
 3467.00    0.54736   0.55622  280.321
 3468.00    0.58028   0.56774   -1.000
 3469.00    0.59662   0.57698   -1.000
 3470.00    0.54049   0.57824   -1.000
 3471.00    0.52558   0.56604   -1.000
 3472.00    0.49715   0.55244   -1.000
 3473.00    0.47497   0.53783   -1.000
 3474.00    0.51802   0.52224  280.321
 3475.00    0.57008   0.51059   40.676
 3476.00    0.52079   0.51082   32.810
 3477.00    0.45910   0.51745   32.539
 3478.00    0.49995   0.52872  100.096
 3479.00    0.51308   0.54030   -1.000
 3480.00    0.54009   0.54984  273.299
 3481.00    0.57512   0.55141   -1.000
 3482.00    0.56589   0.54320   -1.000
 3483.00    0.57552   0.53462   -1.000
 3484.00    0.58898   0.53785   -1.000
 3485.00    0.64592   0.55426   -1.000
 3486.00    0.63221   0.56845   -1.000
 3487.00    0.65155   0.57429   -1.000
 3488.00    0.65408   0.56560   -1.000
 3489.00    0.54680   0.54768  274.925
 3490.00    0.48582   0.53208   -1.000
 3491.00    0.48822   0.53037   -1.000
 3492.00    0.50444   0.53997   -1.000
 3493.00    0.52258   0.54898   -1.000
 3494.00    0.58526   0.55258   -1.000
 3495.00    0.55758   0.54518   -1.000
 3496.00    0.53266   0.53641  280.321
 3497.00    0.53030   0.54142  280.321
 3498.00    0.52980   0.56164   -1.000
 3499.00    0.57604   0.58158  270.468
 3500.00    0.62761   0.58432   -1.000
 3501.00    0.63510   0.58295   -1.000
 3502.00    0.63071   0.58891   -1.000
 3503.00    0.62452   0.59318   -1.000
 3504.00    0.59258   0.58846  250.383
 3505.00    0.57826   0.57724  254.506
 3506.00    0.58517   0.57055   -1.000
 3507.00    0.58702   0.57101   -1.000
 3508.00    0.61674   0.56997   -1.000
 3509.00    0.59911   0.56207   -1.000
 3510.00    0.61570   0.55399   -1.000
 3511.00    0.62220   0.54573   -1.000
 3512.00    0.56847   0.53714   -1.000
 3513.00    0.53430   0.52886   -1.000
 3514.00    0.55682   0.52945   -1.000
 3515.00    0.57225   0.54572   -1.000
 3516.00    0.56586   0.57144  273.837
 3517.00    0.61041   0.58871   -1.000
 3518.00    0.59025   0.59292  251.139
 3519.00    0.56332   0.58143   -1.000
 3520.00    0.59011   0.56391   -1.000
 3521.00    0.58483   0.54541   -1.000
 3522.00    0.53279   0.53324  280.321
 3523.00    0.49613   0.52168   -1.000
 3524.00    0.51854   0.51251   40.505
 3525.00    0.55713   0.50782   32.482
 3526.00    0.54679   0.51926   32.596
 3527.00    0.54646   0.54052   99.973
 3528.00    0.59841   0.56492   -1.000
 3529.00    0.63559   0.57939   -1.000
 3530.00    0.60790   0.58152   -1.000
 3531.00    0.58931   0.57654   -1.000
 3532.00    0.55605   0.57688   -1.000
 3533.00    0.56338   0.58117   -1.000
 3534.00    0.58888   0.58683  263.515
 3535.00    0.56963   0.59119   -1.000
 3536.00    0.55681   0.59096   -1.000
 3537.00    0.57781   0.59172   -1.000
 3538.00    0.56052   0.59880   -1.000
 3539.00    0.58683   0.60316   -1.000
 3540.00    0.58138   0.60221   -1.000
 3541.00    0.57900   0.59587   -1.000
 3542.00    0.55015   0.59392   -1.000
 3543.00    0.55019   0.59894   -1.000
 3544.00    0.61009   0.60583  252.883
 3545.00    0.62226   0.60798   -1.000
 3546.00    0.61145   0.60211  254.784
 3547.00    0.56195   0.59896   -1.000
 3548.00    0.56685   0.59928   -1.000
 3549.00    0.57683   0.59984   -1.000
 3550.00    0.56907   0.59672   -1.000
 3551.00    0.53240   0.59018   -1.000
 3552.00    0.49968   0.58187   -1.000
 3553.00    0.51735   0.57424   -1.000
 3554.00    0.52364   0.57270   -1.000
 3555.00    0.56892   0.57597  280.321
 3556.00    0.58304   0.57858  277.087
 3557.00    0.58574   0.57956  276.539
 3558.00    0.55416   0.57642   -1.000
 3559.00    0.53073   0.57594   -1.000
 3560.00    0.54800   0.58197   -1.000
 3561.00    0.56792   0.59243   -1.000
 3562.00    0.59438   0.59741  275.399
 3563.00    0.57904   0.58420  275.626
 3564.00    0.52369   0.55871   -1.000
 3565.00    0.51140   0.53546   40.985
 3566.00    0.50666   0.52964   32.925
 3567.00    0.53530   0.53002   32.956
 3568.00    0.51702   0.52798   32.721
 3569.00    0.48802   0.51834   33.524
 3570.00    0.50085   0.50914   34.274
 3571.00    0.48951   0.50966   33.595
 3572.00    0.47714   0.52252   32.189
 3573.00    0.52929   0.53202   97.604
 3574.00    0.54481   0.53752   -1.000
 3575.00    0.54705   0.54119  280.321
 3576.00    0.52687   0.54111   -1.000
 3577.00    0.54331   0.53231   -1.000
 3578.00    0.54401   0.51801   -1.000
 3579.00    0.50063   0.49871   42.448
 3580.00    0.47866   0.48616   34.968
 3581.00    0.46806   0.48068   37.109
 3582.00    0.50370   0.48346   37.779
 3583.00    0.49709   0.48849   37.951
 3584.00    0.48192   0.48832   38.716
 3585.00    0.47708   0.48212   39.926
 3586.00    0.46870   0.47875   40.674
 3587.00    0.47736   0.48350   39.219
 3588.00    0.48856   0.49591   37.145
 3589.00    0.51213   0.51668   35.306
 3590.00    0.53123   0.53979   32.468
 3591.00    0.53363   0.55651   96.011
 3592.00    0.52515   0.55924   -1.000
 3593.00    0.50801   0.56003   -1.000
 3594.00    0.53840   0.56639   -1.000
 3595.00    0.54823   0.58030   -1.000
 3596.00    0.56744   0.59517   -1.000
 3597.00    0.58640   0.60334   -1.000
 3598.00    0.58767   0.61141   -1.000
 3599.00    0.59111   0.61976   -1.000
 3600.00    0.57816   0.61898   -1.000
 3601.00    0.60284   0.60325  248.825
 3602.00    0.59847   0.58183   -1.000
 3603.00    0.58999   0.56042   -1.000
 3604.00    0.53960   0.55004  280.321
 3605.00    0.53573   0.54929  280.321
 3606.00    0.57443   0.54901   -1.000
 3607.00    0.53858   0.54204  280.321
 3608.00    0.50662   0.53304   -1.000
 3609.00    0.53632   0.53160   -1.000
 3610.00    0.57884   0.53998   -1.000
 3611.00    0.57476   0.55390   -1.000
 3612.00    0.53752   0.56377   -1.000
 3613.00    0.51540   0.57168   -1.000
 3614.00    0.56235   0.58051   -1.000
 3615.00    0.61971   0.58757   -1.000
 3616.00    0.64333   0.58103   -1.000
 3617.00    0.60788   0.55672   -1.000
 3618.00    0.54092   0.52925   -1.000
 3619.00    0.50779   0.52713   40.630
 3620.00    0.51775   0.54299   95.078
 3621.00    0.55420   0.57281   -1.000
 3622.00    0.60860   0.59673   -1.000
 3623.00    0.61042   0.60949  249.589
 3624.00    0.61726   0.62054  245.853
 3625.00    0.62053   0.63979   -1.000
 3626.00    0.62893   0.65938   -1.000
 3627.00    0.68466   0.66704   -1.000
 3628.00    0.72986   0.65263   -1.000
 3629.00    0.69478   0.61818   -1.000
 3630.00    0.60058   0.57651   -1.000
 3631.00    0.54787   0.55365  280.321
 3632.00    0.55555   0.54833   -1.000
 3633.00    0.55973   0.56142  280.321
 3634.00    0.55679   0.57927   -1.000
 3635.00    0.56214   0.59158   -1.000
 3636.00    0.55593   0.59494   -1.000
 3637.00    0.58615   0.60641   -1.000
 3638.00    0.62913   0.62426  239.129
 3639.00    0.61978   0.63798   -1.000
 3640.00    0.60329   0.64411   -1.000
 3641.00    0.60955   0.63725   -1.000
 3642.00    0.66911   0.62077   -1.000
 3643.00    0.68692   0.60147   -1.000
 3644.00    0.65513   0.58445   -1.000
 3645.00    0.62122   0.57252   -1.000
 3646.00    0.57568   0.56222   -1.000
 3647.00    0.58845   0.55398   -1.000
 3648.00    0.60719   0.55681   -1.000
 3649.00    0.60504   0.56933   -1.000
 3650.00    0.57616   0.59043   -1.000
 3651.00    0.57731   0.61225   -1.000
 3652.00    0.60903   0.63246   -1.000
 3653.00    0.62614   0.64033   -1.000
 3654.00    0.67686   0.64575   -1.000
 3655.00    0.71190   0.65272   -1.000
 3656.00    0.64305   0.66278   -1.000
 3657.00    0.64722   0.67424   -1.000
 3658.00    0.68711   0.68011  217.734
 3659.00    0.67372   0.68177  217.018
 3660.00    0.67606   0.67695  217.077
 3661.00    0.70727   0.66763   -1.000
 3662.00    0.67220   0.65570  221.289
 3663.00    0.64503   0.64998  224.753
 3664.00    0.65976   0.64905  226.995
 3665.00    0.67021   0.65092   -1.000
 3666.00    0.68295   0.64964   -1.000
 3667.00    0.64991   0.64101  228.373
 3668.00    0.60644   0.62966   -1.000
 3669.00    0.60977   0.62437   -1.000
 3670.00    0.64965   0.63323   -1.000
 3671.00    0.64938   0.64807  229.448
 3672.00    0.61901   0.65887   -1.000
 3673.00    0.62246   0.66259   -1.000
 3674.00    0.65756   0.66034  221.986
 3675.00    0.65952   0.65168  222.366
 3676.00    0.64642   0.63686  227.727
 3677.00    0.65662   0.61713   -1.000
 3678.00    0.64523   0.59908   -1.000
 3679.00    0.63915   0.58978   -1.000
 3680.00    0.68051   0.59411   -1.000
 3681.00    0.62997   0.60793   -1.000
 3682.00    0.63322   0.62160  237.319
 3683.00    0.64291   0.62604   -1.000
 3684.00    0.62757   0.61605  237.819
 3685.00    0.58444   0.59697   -1.000
 3686.00    0.58652   0.57564  256.874
 3687.00    0.59197   0.57147   -1.000
 3688.00    0.58998   0.58643  258.358
 3689.00    0.59647   0.61800   -1.000
 3690.00    0.64410   0.64792  227.209
 3691.00    0.68672   0.66409   -1.000
 3692.00    0.67348   0.65894  218.108
 3693.00    0.65066   0.64540  223.159
 3694.00    0.69454   0.63595   -1.000
 3695.00    0.70250   0.63356   -1.000
 3696.00    0.64701   0.63875  225.170
 3697.00    0.65190   0.65031  222.584
 3698.00    0.67660   0.66881  216.328
 3699.00    0.69061   0.68408  210.429
 3700.00    0.72192   0.69055   -1.000
 3701.00    0.70980   0.67661   -1.000
 3702.00    0.67989   0.64355   -1.000
 3703.00    0.73456   0.59727   -1.000
 3704.00    0.69645   0.56038   -1.000
 3705.00    0.58722   0.53902   -1.000
 3706.00    0.58143   0.54179   -1.000
 3707.00    0.54967   0.55064  270.216
 3708.00    0.53848   0.56027   -1.000
 3709.00    0.57636   0.57330  259.125
 3710.00    0.65126   0.59349   -1.000
 3711.00    0.71235   0.61617   -1.000
 3712.00    0.70346   0.64113   -1.000
 3713.00    0.70165   0.66234   -1.000
 3714.00    0.69778   0.67341   -1.000
 3715.00    0.68456   0.67157  204.692
 3716.00    0.66164   0.65504  208.657
 3717.00    0.66133   0.62445   -1.000
 3718.00    0.63764   0.58405   -1.000
 3719.00    0.55339   0.53569   -1.000
 3720.00    0.49561   0.49494  280.321
 3721.00    0.47547   0.48851   41.778
 3722.00    0.47759   0.50909   95.016
 3723.00    0.53135   0.54787   -1.000
 3724.00    0.58677   0.58845  244.229
 3725.00    0.61013   0.61149  230.531
 3726.00    0.63866   0.60978   -1.000
 3727.00    0.66020   0.60365   -1.000
 3728.00    0.61831   0.60668   -1.000
 3729.00    0.61583   0.61041  236.615
 3730.00    0.64472   0.60406   -1.000
 3731.00    0.61904   0.57610   -1.000
 3732.00    0.56633   0.53024   -1.000
 3733.00    0.52113   0.48808   40.914
 3734.00    0.51806   0.45525   34.268
 3735.00    0.47943   0.44799   36.302
 3736.00    0.45101   0.46680   35.247
 3737.00    0.48196   0.50746   32.280
 3738.00    0.52787   0.55310   91.707
 3739.00    0.58258   0.59928   -1.000
 3740.00    0.63533   0.62348   -1.000
 3741.00    0.63265   0.62400  235.043
 3742.00    0.63177   0.60212   -1.000
 3743.00    0.61715   0.57460   -1.000
 3744.00    0.56525   0.54974   -1.000
 3745.00    0.53555   0.53546  280.321
 3746.00    0.54308   0.51778   -1.000
 3747.00    0.52013   0.49399   41.672
 3748.00    0.48469   0.47224   33.480
 3749.00    0.47467   0.46426   34.306
 3750.00    0.50594   0.48637  100.526
 3751.00    0.53923   0.53053  280.321
 3752.00    0.56738   0.57593  250.495
 3753.00    0.62590   0.61638  230.083
 3754.00    0.66393   0.64747   -1.000
 3755.00    0.68675   0.65068   -1.000
 3756.00    0.68659   0.62665   -1.000
 3757.00    0.64331   0.58803   -1.000
 3758.00    0.60103   0.55980   -1.000
 3759.00    0.58531   0.55863   -1.000
 3760.00    0.60964   0.57034   -1.000
 3761.00    0.63078   0.58308   -1.000
 3762.00    0.60297   0.58974   -1.000
 3763.00    0.56953   0.59064   -1.000
 3764.00    0.57923   0.58852  240.040
 3765.00    0.57449   0.58140  242.077
 3766.00    0.56902   0.57135  247.468
 3767.00    0.56823   0.56609  251.062
 3768.00    0.56808   0.56394  248.681
 3769.00    0.59588   0.56246   -1.000
 3770.00    0.64005   0.56348   -1.000
 3771.00    0.67185   0.57668   -1.000
 3772.00    0.66415   0.60052   -1.000
 3773.00    0.66612   0.62440   -1.000
 3774.00    0.67976   0.63665   -1.000
 3775.00    0.70842   0.64259   -1.000
 3776.00    0.67739   0.64747   -1.000
 3777.00    0.66050   0.65560  217.276
 3778.00    0.70741   0.66737   -1.000
 3779.00    0.72202   0.67920   -1.000
 3780.00    0.71901   0.69015   -1.000
 3781.00    0.75177   0.69730   -1.000
 3782.00    0.71114   0.70190  199.748
 3783.00    0.71253   0.70027  199.537
 3784.00    0.70731   0.68636   -1.000
 3785.00    0.68428   0.66092   -1.000
 3786.00    0.64038   0.63177  227.284
 3787.00    0.63538   0.60654   -1.000
 3788.00    0.58877   0.59287  246.463
 3789.00    0.58713   0.59448  247.412
 3790.00    0.61560   0.60273   -1.000
 3791.00    0.60853   0.60853  241.002
 3792.00    0.63748   0.60443   -1.000
 3793.00    0.62563   0.58646   -1.000
 3794.00    0.59448   0.56460   -1.000
 3795.00    0.55628   0.54216   -1.000
 3796.00    0.57093   0.51798   -1.000
 3797.00    0.59493   0.49323   -1.000
 3798.00    0.53352   0.48429   -1.000
 3799.00    0.52573   0.50574   -1.000
 3800.00    0.54235   0.55247  265.350
 3801.00    0.57986   0.59834   -1.000
 3802.00    0.61535   0.63425   -1.000
 3803.00    0.61541   0.65270   -1.000
 3804.00    0.61136   0.65742   -1.000
 3805.00    0.58959   0.64709   -1.000
 3806.00    0.58392   0.63186   -1.000
 3807.00    0.58890   0.62801   -1.000
 3808.00    0.58579   0.64129   -1.000
 3809.00    0.61519   0.65914   -1.000
 3810.00    0.65793   0.66860  221.327
 3811.00    0.65042   0.65955  224.012
 3812.00    0.60630   0.63443   -1.000
 3813.00    0.57373   0.60607   -1.000
 3814.00    0.57540   0.58105  263.508
 3815.00    0.54940   0.57032   -1.000
 3816.00    0.54340   0.57212   -1.000
 3817.00    0.55261   0.57705   -1.000
 3818.00    0.53154   0.56840   -1.000
 3819.00    0.52516   0.54724   -1.000
 3820.00    0.53400   0.53509  280.321
 3821.00    0.53232   0.54057  280.321
 3822.00    0.51855   0.55658   -1.000
 3823.00    0.52729   0.55674   -1.000
 3824.00    0.52825   0.53925  280.321
 3825.00    0.47757   0.52229   43.330
 3826.00    0.44179   0.51408   33.557
 3827.00    0.43848   0.51900   33.515
 3828.00    0.44444   0.52693   33.028
 3829.00    0.47942   0.53039   32.485
 3830.00    0.47732   0.52564   32.656
 3831.00    0.45532   0.50810   33.881
 3832.00    0.45524   0.48270   36.312
 3833.00    0.46885   0.45751   37.894
 3834.00    0.43353   0.44260   37.600
 3835.00    0.44379   0.44223   36.250
 3836.00    0.47664   0.45471   35.286
 3837.00    0.47822   0.46845   35.662
 3838.00    0.48317   0.47857   36.513
 3839.00    0.45450   0.49195   36.239
 3840.00    0.45654   0.51218   34.491
 3841.00    0.51223   0.54281   97.711
 3842.00    0.53023   0.57498   -1.000
 3843.00    0.53109   0.60508   -1.000
 3844.00    0.55845   0.62069   -1.000
 3845.00    0.59556   0.62634   -1.000
 3846.00    0.62128   0.62566  256.105
 3847.00    0.62724   0.62428  256.434
 3848.00    0.58923   0.61747   -1.000
 3849.00    0.54886   0.61026   -1.000
 3850.00    0.52734   0.60699   -1.000
 3851.00    0.56842   0.61494   -1.000
 3852.00    0.59173   0.62346   -1.000
 3853.00    0.55562   0.62211   -1.000
 3854.00    0.52613   0.61129   -1.000
 3855.00    0.53725   0.59945   -1.000
 3856.00    0.55920   0.58888   -1.000
 3857.00    0.54984   0.57383   -1.000
 3858.00    0.53517   0.56081   41.135
 3859.00    0.53126   0.55822   32.732
 3860.00    0.51608   0.56900   32.700
 3861.00    0.54234   0.59521   -1.000
 3862.00    0.55455   0.61893   -1.000
 3863.00    0.59348   0.62817   -1.000
 3864.00    0.62779   0.62267  251.183
 3865.00    0.60576   0.61478  255.464
 3866.00    0.58483   0.61235   -1.000
 3867.00    0.56786   0.61318   -1.000
 3868.00    0.56307   0.61117   -1.000
 3869.00    0.56046   0.60233   -1.000
 3870.00    0.54234   0.58603   -1.000
 3871.00    0.52009   0.57612   41.778
 3872.00    0.50429   0.57676   -1.000
 3873.00    0.56673   0.59460   -1.000
 3874.00    0.61210   0.61994  259.146
 3875.00    0.61319   0.63573   -1.000
 3876.00    0.61549   0.62220  249.502
 3877.00    0.57791   0.59928   -1.000
 3878.00    0.54164   0.58746   -1.000
 3879.00    0.53371   0.58749   -1.000
 3880.00    0.54617   0.59408   -1.000
 3881.00    0.55229   0.59719   -1.000
 3882.00    0.55212   0.59878   -1.000
 3883.00    0.57669   0.60365   -1.000
 3884.00    0.61023   0.59933   -1.000
 3885.00    0.59426   0.57132   -1.000
 3886.00    0.53702   0.53464  266.104
 3887.00    0.50392   0.50336  272.391
 3888.00    0.53527   0.49732   -1.000
 3889.00    0.58686   0.51892   -1.000
 3890.00    0.60829   0.56563   -1.000
 3891.00    0.65171   0.61870   -1.000
 3892.00    0.67025   0.65637   -1.000
 3893.00    0.67745   0.66617  213.410
 3894.00    0.68435   0.66218   -1.000
 3895.00    0.68044   0.66373   -1.000
 3896.00    0.69248   0.67032   -1.000
 3897.00    0.70352   0.67653   -1.000
 3898.00    0.69912   0.67645   -1.000
 3899.00    0.70823   0.67281   -1.000
 3900.00    0.72100   0.67659   -1.000
 3901.00    0.73713   0.68325   -1.000
 3902.00    0.72192   0.68398   -1.000
 3903.00    0.71291   0.67674   -1.000
 3904.00    0.69733   0.66686   -1.000
 3905.00    0.68504   0.66216   -1.000
 3906.00    0.67997   0.66810   -1.000
 3907.00    0.69008   0.69147  218.075
 3908.00    0.72140   0.72009  203.714
 3909.00    0.74468   0.73974  196.646
 3910.00    0.74072   0.74746  194.207
 3911.00    0.74336   0.75495  192.396
 3912.00    0.73132   0.75695   -1.000
 3913.00    0.75315   0.75264  192.492
 3914.00    0.76481   0.74473   -1.000
 3915.00    0.74767   0.73794  200.597
 3916.00    0.75735   0.72939   -1.000
 3917.00    0.72802   0.71671  206.373
 3918.00    0.69257   0.69730  211.590
 3919.00    0.67798   0.67253  220.195
 3920.00    0.67583   0.65321   -1.000
 3921.00    0.66630   0.64292   -1.000
 3922.00    0.65233   0.64651  236.523
 3923.00    0.63352   0.65302   -1.000
 3924.00    0.64032   0.65563  232.908
 3925.00    0.64822   0.64872  242.081
 3926.00    0.59788   0.62560   -1.000
 3927.00    0.57117   0.59509   -1.000
 3928.00    0.53881   0.56187   46.103
 3929.00    0.49106   0.53523   39.181
 3930.00    0.44081   0.50870   45.867
 3931.00    0.42194   0.47218   54.103
 3932.00    0.40115   0.42358   63.512
 3933.00    0.40105   0.38669   70.748
 3934.00    0.37556   0.40128   70.174
 3935.00    0.39362   0.44803   62.352
 3936.00    0.40330   0.49344   -1.000
 3937.00    0.44160   0.53551   -1.000
 3938.00    0.50000   0.57687   35.826
 3939.00    0.55955   0.60641   -1.000
 3940.00    0.60430   0.62928   -1.000
 3941.00    0.61531   0.63857   -1.000
 3942.00    0.61953   0.63437  268.937
 3943.00    0.60606   0.63337   -1.000
 3944.00    0.62386   0.64457   -1.000
 3945.00    0.65958   0.66272  236.835
 3946.00    0.68526   0.68381  221.072
 3947.00    0.70904   0.69713   -1.000
 3948.00    0.71000   0.70667  214.340
 3949.00    0.71652   0.72089  208.027
 3950.00    0.74170   0.73370  200.962
 3951.00    0.76817   0.73458   -1.000
 3952.00    0.76613   0.73396   -1.000
 3953.00    0.74545   0.73933  200.536
 3954.00    0.77338   0.74409   -1.000
 3955.00    0.79869   0.73889   -1.000
 3956.00    0.75673   0.72577   -1.000
 3957.00    0.75691   0.71656   -1.000
 3958.00    0.76519   0.71365   -1.000
 3959.00    0.73180   0.69902   -1.000
 3960.00    0.69214   0.66167   -1.000
 3961.00    0.64236   0.62225   -1.000
 3962.00    0.59382   0.58958  280.321
 3963.00    0.57125   0.57079  280.321
 3964.00    0.54547   0.55125   43.608
 3965.00    0.51543   0.51581   36.887
 3966.00    0.46953   0.46143   44.852
 3967.00    0.41381   0.39407   55.037
 3968.00    0.35751   0.34923   62.654
 3969.00    0.36102   0.34851   60.908
 3970.00    0.41410   0.38393   51.619
 3971.00    0.46119   0.43805   42.421
 3972.00    0.49884   0.50124   35.340
 3973.00    0.54491   0.56007   93.803
 3974.00    0.58602   0.61351   -1.000
 3975.00    0.65210   0.65625  238.335
 3976.00    0.70349   0.69435  218.444
 3977.00    0.72824   0.72747  204.542
 3978.00    0.76699   0.75762  193.505
 3979.00    0.80914   0.78379   -1.000
 3980.00    0.83644   0.79341   -1.000
 3981.00    0.84117   0.79351   -1.000
 3982.00    0.84549   0.78595   -1.000
 3983.00    0.85119   0.78432   -1.000
 3984.00    0.86630   0.79556   -1.000
 3985.00    0.87341   0.80979   -1.000
 3986.00    0.86625   0.81965   -1.000
 3987.00    0.87547   0.83095   -1.000
 3988.00    0.91664   0.84469   -1.000
 3989.00    0.92618   0.84650   -1.000
 3990.00    0.90718   0.84948   -1.000
 3991.00    0.91961   0.85903   -1.000
 3992.00    0.93114   0.87152   -1.000
 3993.00    0.94823   0.87661   -1.000
 3994.00    0.93671   0.86875   -1.000
 3995.00    0.88427   0.85133   -1.000
 3996.00    0.86827   0.83618   -1.000
 3997.00    0.87635   0.83659   -1.000
 3998.00    0.89031   0.85117   -1.000
 3999.00    0.95371   0.87421   -1.000
 4000.00    0.99135   0.89329   -1.000
 4001.00    0.99870   0.90803   -1.000
 4002.00    1.00590   0.90892   -1.000
 4003.00    0.98632   0.89091   -1.000
 4004.00    0.93477   0.85437   -1.000
 4005.00    0.90137   0.82811   -1.000
 4006.00    0.88191   0.83044   -1.000
 4007.00    0.92340   0.86060   -1.000
 4008.00    0.97791   0.89425   -1.000
 4009.00    0.97308   0.90931   -1.000
 4010.00    0.97192   0.91725   -1.000
 4011.00    0.99256   0.92333   -1.000
 4012.00    1.02044   0.92685   -1.000
 4013.00    0.98853   0.93385   -1.000
 4014.00    1.01610   0.94040   -1.000
 4015.00    1.06318   0.94093   -1.000
 4016.00    1.02641   0.93910   -1.000
 4017.00    0.99724   0.93998   -1.000
 4018.00    1.00000   0.94715   -1.000
 4019.00    0.99470   0.95559   -1.000
 4020.00    1.02671   0.95798   -1.000
 4021.00    1.05296   0.95041   -1.000
 4022.00    1.04137   0.94102   -1.000
 4023.00    1.03295   0.92803   -1.000
 4024.00    1.02557   0.91508   -1.000
 4025.00    1.03062   0.91399   -1.000
 4026.00    1.02056   0.93511   -1.000
 4027.00    1.04675   0.96215   -1.000
 4028.00    1.06512   0.96718   -1.000
 4029.00    1.03887   0.93295   -1.000
 4030.00    0.97011   0.88010   -1.000
 4031.00    0.89612   0.83804   -1.000
 4032.00    0.87479   0.81938   -1.000
 4033.00    0.90115   0.82536   -1.000
 4034.00    0.91751   0.85309   -1.000
 4035.00    0.93758   0.90071   -1.000
 4036.00    0.97201   0.95222  148.289
 4037.00    1.06047   0.99273   -1.000
 4038.00    1.10383   1.00485   -1.000
 4039.00    1.05516   0.99351   -1.000
 4040.00    0.99833   0.97635  146.359
 4041.00    1.02300   0.96882   -1.000
 4042.00    1.05335   0.94810   -1.000
 4043.00    0.99195   0.89951   -1.000
 4044.00    0.91869   0.83275   -1.000
 4045.00    0.83030   0.78886   -1.000
 4046.00    0.81089   0.80753  180.094
 4047.00    0.89258   0.87030  164.783
 4048.00    0.96060   0.93385   -1.000
 4049.00    1.02032   0.97762   -1.000
 4050.00    1.05747   0.99342   -1.000
 4051.00    1.06078   0.99370   -1.000
 4052.00    1.03175   0.98093   -1.000
 4053.00    1.01363   0.96095   -1.000
 4054.00    0.99863   0.94357   -1.000
 4055.00    0.98831   0.93028   -1.000
 4056.00    0.93933   0.91765   -1.000
 4057.00    0.88301   0.91047   -1.000
 4058.00    0.89340   0.92131   -1.000
 4059.00    0.95511   0.94196  153.971
 4060.00    1.01356   0.95115   -1.000
 4061.00    1.00634   0.92467   -1.000
 4062.00    0.93472   0.87325   -1.000
 4063.00    0.85128   0.83920  171.732
 4064.00    0.83404   0.82882  172.799
 4065.00    0.90051   0.84380   -1.000
 4066.00    0.96172   0.88245   -1.000
 4067.00    0.99841   0.91645   -1.000
 4068.00    1.04228   0.93506   -1.000
 4069.00    1.04672   0.93258   -1.000
 4070.00    1.01185   0.90359   -1.000
 4071.00    0.96473   0.87513   -1.000
 4072.00    0.94584   0.87940   -1.000
 4073.00    0.98198   0.90520   -1.000
 4074.00    1.00915   0.92157   -1.000
 4075.00    0.98166   0.89879   -1.000
 4076.00    0.89961   0.85980   -1.000
 4077.00    0.85643   0.84588  178.674
 4078.00    0.87007   0.86870  175.544
 4079.00    0.92521   0.92380  164.892
 4080.00    1.00670   0.97601   -1.000
 4081.00    1.07216   1.00231   -1.000
 4082.00    1.07403   0.99170   -1.000
 4083.00    1.02521   0.96824   -1.000
 4084.00    1.02332   0.95403   -1.000
 4085.00    1.00635   0.96496   -1.000
 4086.00    1.04218   0.99760   -1.000
 4087.00    1.11766   1.03323   -1.000
 4088.00    1.12345   1.05680   -1.000
 4089.00    1.11332   1.05704   -1.000
 4090.00    1.11030   1.03927   -1.000
 4091.00    1.10272   1.02106   -1.000
 4092.00    1.06113   1.01242   -1.000
 4093.00    1.06615   0.99957   -1.000
 4094.00    1.07818   0.97839   -1.000
 4095.00    1.02331   0.94496   -1.000
 4096.00    0.94742   0.91019   -1.000
 4097.00    0.95041   0.88940   -1.000
 4098.00    0.96080   0.86487   -1.000
 4099.00    0.95830   0.82248   -1.000
 4100.00    0.90058   0.77113   -1.000
 4101.00    0.84630   0.73808   -1.000
 4102.00    0.82582   0.74628   -1.000
 4103.00    0.85887   0.80261   -1.000
 4104.00    0.91397   0.87378   -1.000
 4105.00    0.97756   0.93231   -1.000
 4106.00    0.99762   0.96441   -1.000
 4107.00    1.00399   0.97705   -1.000
 4108.00    1.03679   0.97317   -1.000
 4109.00    1.01667   0.96099   -1.000
 4110.00    0.96985   0.95329  159.916
 4111.00    0.95940   0.95855  159.039
 4112.00    0.97784   0.97308  155.802
 4113.00    1.00212   0.99551  152.887
 4114.00    1.00560   1.01724  150.473
 4115.00    1.02697   1.02846  148.786
 4116.00    1.05735   1.02187   -1.000
 4117.00    1.02961   1.00194   -1.000
 4118.00    0.98323   0.97961  156.205
 4119.00    0.98018   0.96921  158.974
 4120.00    0.98158   0.97396  157.937
 4121.00    1.00099   0.98320  156.172
 4122.00    1.00270   0.99013  155.875
 4123.00    0.99728   1.00132  154.689
 4124.00    1.01173   1.01672  152.191
 4125.00    1.06727   1.02615   -1.000
 4126.00    1.06446   1.01823   -1.000
 4127.00    1.02424   1.00010   -1.000
 4128.00    1.01197   0.98435   -1.000
 4129.00    1.01165   0.97417   -1.000
 4130.00    0.99580   0.95741   -1.000
 4131.00    0.95397   0.93275  164.213
 4132.00    0.92340   0.91141  169.452
 4133.00    0.92605   0.91746  171.191
 4134.00    0.96761   0.94937  167.047
 4135.00    1.01371   0.99088   -1.000
 4136.00    1.02908   1.02532  153.299
 4137.00    1.01162   1.04647   -1.000
 4138.00    1.01674   1.05553   -1.000
 4139.00    1.02812   1.05754   -1.000
 4140.00    1.03998   1.03818  148.907
 4141.00    1.00251   0.98920  155.529
 4142.00    0.95146   0.92616   -1.000
 4143.00    0.87313   0.89121   -1.000
 4144.00    0.87662   0.90173   -1.000
 4145.00    0.94609   0.94977  165.628
 4146.00    1.00481   0.99575  158.433
 4147.00    1.03305   1.01135  155.710
 4148.00    1.00304   1.00471  157.512
 4149.00    0.99889   0.99283  161.623
 4150.00    0.97109   0.98890   -1.000
 4151.00    0.95844   0.98996   -1.000
 4152.00    1.00193   0.98713  162.896
 4153.00    0.98433   0.97968  163.781
 4154.00    0.95269   0.97287   -1.000
 4155.00    0.96550   0.97336  163.827
 4156.00    0.95022   0.98599   -1.000
 4157.00    0.98747   1.00649   -1.000
 4158.00    1.19292   1.03188   -1.000
 4159.00    1.34575   1.05459   -1.000
 4160.00    0.93556   1.06791   -1.000
 4161.00    0.78971   1.07925   -1.000
 4162.00    1.02834   1.08848   -1.000
 4163.00    1.09218   1.08815  150.972
 4164.00    1.05754   1.07377   -1.000
 4165.00    1.00583   1.05149   -1.000
 4166.00    0.95458   1.02971   -1.000
 4167.00    0.94616   1.02361   -1.000
 4168.00    0.97749   1.02999   -1.000
 4169.00    0.98269   1.03848   -1.000
 4170.00    0.99882   1.02434   -1.000
 4171.00    0.97964   0.98587  166.620
 4172.00    0.94645   0.94991  176.872
 4173.00    0.90795   0.93767   -1.000
 4174.00    0.90820   0.95470   -1.000
 4175.00    0.93106   0.97600   -1.000
 4176.00    0.93786   0.98667   -1.000
 4177.00    0.94216   0.99337   -1.000
 4178.00    0.95305   1.00539   -1.000
 4179.00    0.93964   1.01757   -1.000
 4180.00    0.96840   1.02209   -1.000
 4181.00    1.01248   1.01850  163.303
 4182.00    1.02019   1.01982  162.055
 4183.00    1.05988   1.03754  159.155
 4184.00    1.07561   1.05425  156.216
 4185.00    1.07773   1.05180   -1.000
 4186.00    1.04313   1.02806  159.647
 4187.00    0.97623   1.00859   -1.000
 4188.00    0.98032   1.01208   -1.000
 4189.00    1.03604   1.02697  161.428
 4190.00    1.00935   1.03802   -1.000
 4191.00    0.99383   1.04686   -1.000
 4192.00    1.03413   1.05941   -1.000
 4193.00    1.04251   1.06863   -1.000
 4194.00    1.03550   1.05296   -1.000
 4195.00    1.01102   1.01190  162.477
 4196.00    0.96253   0.97372  168.769
 4197.00    0.92718   0.94807   -1.000
 4198.00    0.91865   0.93639   -1.000
 4199.00    0.92948   0.93088  172.083
 4200.00    0.95563   0.93505  169.507
 4201.00    0.94696   0.94653  168.450
 4202.00    0.95305   0.96426  167.553
 4203.00    0.98992   0.99362  165.295
 4204.00    1.01509   1.02980   -1.000
 4205.00    1.03387   1.06123   -1.000
 4206.00    1.10436   1.08551  157.223
 4207.00    1.11304   1.10284  153.925
 4208.00    1.10464   1.10458  152.595
 4209.00    1.08569   1.09644  152.900
 4210.00    1.06153   1.08938   -1.000
 4211.00    1.06469   1.09120   -1.000
 4212.00    1.08158   1.08966  152.307
 4213.00    1.04678   1.06627   -1.000
 4214.00    0.99802   1.03070   -1.000
 4215.00    0.99198   1.01420   -1.000
 4216.00    1.01939   1.03188  165.192
 4217.00    1.07749   1.08330  155.732
 4218.00    1.13251   1.12776  148.002
 4219.00    1.16563   1.15159  143.293
 4220.00    1.21968   1.15024   -1.000
 4221.00    1.22139   1.12692   -1.000
 4222.00    1.15485   1.07501   -1.000
 4223.00    1.10051   1.00015   -1.000
 4224.00    1.00892   0.90823   -1.000
 4225.00    0.89297   0.83261   -1.000
 4226.00    0.77309   0.79806   -1.000
 4227.00    0.77725   0.83691   -1.000
 4228.00    0.88728   0.92828   -1.000
 4229.00    1.02701   1.02777  159.682
 4230.00    1.12095   1.08076   -1.000
 4231.00    1.13870   1.09410   -1.000
 4232.00    1.13006   1.07942   -1.000
 4233.00    1.10684   1.05723   -1.000
 4234.00    1.09075   1.03772   -1.000
 4235.00    1.08601   1.03015   -1.000
 4236.00    1.07153   1.03172   -1.000
 4237.00    1.06595   1.04568  160.867
 4238.00    1.08998   1.06877  157.684
 4239.00    1.11035   1.09221  155.041
 4240.00    1.14426   1.11341   -1.000
 4241.00    1.19128   1.13695   -1.000
 4242.00    1.19967   1.16293   -1.000
 4243.00    1.20021   1.19213  146.920
 4244.00    1.21353   1.21134  143.927
 4245.00    1.22309   1.20493  144.241
 4246.00    1.18358   1.16585  149.631
 4247.00    1.14533   1.11079   -1.000
 4248.00    1.09075   1.06465   -1.000
 4249.00    1.03194   1.04316  162.349
 4250.00    1.01874   1.04603   -1.000
 4251.00    1.06432   1.06452  158.975
 4252.00    1.10184   1.07627  154.395
 4253.00    1.09310   1.06913  153.918
 4254.00    1.05741   1.05937  157.351
 4255.00    1.04450   1.07971   -1.000
 4256.00    1.06860   1.11923   -1.000
 4257.00    1.11112   1.13042   -1.000
 4258.00    1.10826   1.09413  153.229
 4259.00    1.05438   1.04361  161.168
 4260.00    0.99788   1.02929   -1.000
 4261.00    0.99385   1.06918   -1.000
 4262.00    1.07216   1.14001   -1.000
 4263.00    1.18749   1.20494  145.788
 4264.00    1.23159   1.23559  141.516
 4265.00    1.24521   1.23559  140.449
 4266.00    1.23830   1.21616  142.105
 4267.00    1.19001   1.18129  146.252
 4268.00    1.15647   1.12991   -1.000
 4269.00    1.10771   1.06833   -1.000
 4270.00    1.02788   1.00472   -1.000
 4271.00    0.95058   0.95979  176.087
 4272.00    0.91090   0.94794   -1.000
 4273.00    0.91669   0.96800   -1.000
 4274.00    0.93515   1.00464   -1.000
 4275.00    0.98061   1.05719   -1.000
 4276.00    1.08013   1.12585   -1.000
 4277.00    1.16266   1.18127   -1.000
 4278.00    1.19347   1.19209  146.356
 4279.00    1.18162   1.16930  151.258
 4280.00    1.14348   1.14227  157.053
 4281.00    1.11476   1.14019   -1.000
 4282.00    1.10246   1.15081   -1.000
 4283.00    1.12355   1.15119   -1.000
 4284.00    1.12903   1.14228  156.569
 4285.00    1.10811   1.12981  160.579
 4286.00    1.09321   1.11643   -1.000
 4287.00    1.08064   1.09534  167.667
 4288.00    1.06101   1.05579  173.025
 4289.00    1.00851   1.01431  181.263
 4290.00    0.96826   1.00481   -1.000
 4291.00    1.01007   1.03990   -1.000
 4292.00    1.08456   1.08775  166.113
 4293.00    1.12631   1.11028  161.005
 4294.00    1.09860   1.10373  161.416
 4295.00    1.07126   1.08583  163.849
 4296.00    1.07988   1.06132   -1.000
 4297.00    1.04369   1.01732   -1.000
 4298.00    0.95260   0.96048  188.185
 4299.00    0.85231   0.91503   -1.000
 4300.00    0.80500   0.89986   -1.000
 4301.00    0.82076   0.91064   -1.000
 4302.00    0.88367   0.92834   -1.000
 4303.00    0.93011   0.94069  197.682
 4304.00    0.92504   0.94824  195.130
 4305.00    0.90386   0.93855   -1.000
 4306.00    0.88599   0.90662  200.412
 4307.00    0.84330   0.87016   -1.000
 4308.00    0.80682   0.85745   -1.000
 4309.00    0.82407   0.88167   -1.000
 4310.00    0.87522   0.93164   -1.000
 4311.00    0.92184   0.98880   -1.000
 4312.00    0.99424   1.04456   -1.000
 4313.00    1.06672   1.10641   -1.000
 4314.00    1.15034   1.18353   -1.000
 4315.00    0.95276   1.26813   -1.000
 4316.00    0.75760   1.34294   -1.000
 4317.00    1.17475   1.38002   -1.000
 4318.00    1.38999   1.37490  132.208
 4319.00    1.37503   1.35038  133.812
 4320.00    1.33571   1.32051  136.643
 4321.00    1.29419   1.27271  140.901
 4322.00    1.23711   1.20047   -1.000
 4323.00    1.14208   1.10675   -1.000
 4324.00    1.04072   1.02687  170.890
 4325.00    0.96107   1.01141   -1.000
 4326.00    0.99128   1.07761   -1.000
 4327.00    1.11263   1.19296   -1.000
 4328.00    1.23145   1.28932   -1.000
 4329.00    1.30881   1.33065   -1.000
 4330.00    1.30861   1.33466   -1.000
 4331.00    1.31067   1.33235   -1.000
 4332.00    1.33742   1.34779  136.344
 4333.00    1.35938   1.36431  134.667
 4334.00    1.36820   1.36291  134.115
 4335.00    1.38710   1.32593   -1.000
 4336.00    1.34122   1.24332   -1.000
 4337.00    1.21896   1.12732   -1.000
 4338.00    1.11137   1.01978   -1.000
 4339.00    1.02078   0.96651   -1.000
 4340.00    0.97230   0.97237  192.341
 4341.00    1.01827   1.03787   -1.000
 4342.00    1.10206   1.13046   -1.000
 4343.00    1.18121   1.21129   -1.000
 4344.00    1.23170   1.26059   -1.000
 4345.00    1.31082   1.29582  143.553
 4346.00    1.35600   1.32784   -1.000
 4347.00    1.37060   1.35896  139.067
 4348.00    1.40909   1.37623   -1.000
 4349.00    1.39252   1.35025   -1.000
 4350.00    1.32317   1.28152   -1.000
 4351.00    1.22494   1.21202  152.568
 4352.00    1.16146   1.18806   -1.000
 4353.00    1.18782   1.22177   -1.000
 4354.00    1.28031   1.27808  145.840
 4355.00    1.32666   1.32294  140.806
 4356.00    1.34065   1.34363  137.554
 4357.00    1.37040   1.34719  136.888
 4358.00    1.35246   1.33807  139.181
 4359.00    1.33751   1.33832  141.297
 4360.00    1.34133   1.36049  139.671
 4361.00    1.38326   1.39082  135.706
 4362.00    1.42037   1.41367  133.505
 4363.00    1.39572   1.42966   -1.000
 4364.00    1.45228   1.44199  131.528
 4365.00    1.50046   1.43745   -1.000
 4366.00    1.43342   1.40274   -1.000
 4367.00    1.36922   1.35811  138.869
 4368.00    1.35360   1.33602  141.343
 4369.00    1.34744   1.33500  140.631
 4370.00    1.35908   1.33590   -1.000
 4371.00    1.37769   1.32253   -1.000
 4372.00    1.36335   1.29198   -1.000
 4373.00    1.31574   1.24899   -1.000
 4374.00    1.24048   1.21371   -1.000
 4375.00    1.20445   1.21635  152.473
 4376.00    1.26131   1.26062  147.644
 4377.00    1.33465   1.31337  140.430
 4378.00    1.39005   1.33768   -1.000
 4379.00    1.39119   1.32243   -1.000
 4380.00    1.35270   1.26746   -1.000
 4381.00    1.28422   1.17517   -1.000
 4382.00    1.15089   1.06308   -1.000
 4383.00    0.98774   0.99132  176.193
 4384.00    0.92602   1.00073   -1.000
 4385.00    1.03968   1.08804   -1.000
 4386.00    1.17488   1.18268  153.821
 4387.00    1.24372   1.23043  146.406
 4388.00    1.27925   1.23691   -1.000
 4389.00    1.28073   1.23377   -1.000
 4390.00    1.25108   1.24141  147.485
 4391.00    1.26088   1.25946  145.439
 4392.00    1.32112   1.28001   -1.000
 4393.00    1.32803   1.28892   -1.000
 4394.00    1.30697   1.29279  144.781
 4395.00    1.31983   1.31682  145.249
 4396.00    1.38779   1.36118   -1.000
 4397.00    1.42278   1.39189   -1.000
 4398.00    1.40513   1.37869   -1.000
 4399.00    1.39512   1.33823   -1.000
 4400.00    1.34139   1.31122   -1.000
 4401.00    1.31313   1.29683  144.332
 4402.00    1.32983   1.27071   -1.000
 4403.00    1.27700   1.21475   -1.000
 4404.00    1.17948   1.15469  152.626
 4405.00    1.16173   1.14624  155.942
 4406.00    1.20172   1.18556  152.166
 4407.00    1.23459   1.23605  149.102
 4408.00    1.25963   1.28363   -1.000
 4409.00    1.31350   1.34305   -1.000
 4410.00    1.38515   1.41211   -1.000
 4411.00    1.45058   1.45503  132.019
 4412.00    1.49576   1.43866   -1.000
 4413.00    1.45674   1.37921   -1.000
 4414.00    1.35825   1.30649   -1.000
 4415.00    1.27478   1.26646  144.579
 4416.00    1.26748   1.29398   -1.000
 4417.00    1.33695   1.36633   -1.000
 4418.00    1.42487   1.43610  135.377
 4419.00    1.48647   1.46956  131.085
 4420.00    1.47724   1.46030  130.734
 4421.00    1.41677   1.41965  133.595
 4422.00    1.33716   1.38255   -1.000
 4423.00    1.29397   1.37290   -1.000
 4424.00    1.31684   1.38502   -1.000
 4425.00    1.35964   1.39291   -1.000
 4426.00    1.38538   1.39522  136.482
 4427.00    1.38083   1.40216   -1.000
 4428.00    1.37018   1.40660   -1.000
 4429.00    1.35100   1.40560   -1.000
 4430.00    1.34406   1.40319   -1.000
 4431.00    1.36082   1.40624   -1.000
 4432.00    1.36320   1.40272   -1.000
 4433.00    1.32647   1.36966   -1.000
 4434.00    1.26101   1.32591   -1.000
 4435.00    1.23504   1.31819   -1.000
 4436.00    1.30429   1.37106   -1.000
 4437.00    1.41693   1.45490   -1.000
 4438.00    1.49922   1.51451  128.272
 4439.00    1.53458   1.51782  126.659
 4440.00    1.48852   1.47220  129.635
 4441.00    1.39453   1.41518   -1.000
 4442.00    1.33288   1.38549   -1.000
 4443.00    1.33248   1.40617   -1.000
 4444.00    1.40430   1.46555   -1.000
 4445.00    1.50278   1.52551   -1.000
 4446.00    1.54415   1.55379  130.074
 4447.00    1.54107   1.55221  129.537
 4448.00    1.53004   1.54642  129.781
 4449.00    1.52384   1.54615   -1.000
 4450.00    1.51673   1.54077   -1.000
 4451.00    1.49866   1.52438   -1.000
 4452.00    1.50901   1.49113  132.223
 4453.00    1.47615   1.43286   -1.000
 4454.00    1.40135   1.36830   -1.000
 4455.00    1.30987   1.33427   -1.000
 4456.00    1.30040   1.33897   -1.000
 4457.00    1.34197   1.35874   -1.000
 4458.00    1.35671   1.36575  141.719
 4459.00    1.36290   1.35984  142.341
 4460.00    1.35624   1.35526  143.652
 4461.00    1.35253   1.36792  145.010
 4462.00    1.37849   1.40627   -1.000
 4463.00    1.41609   1.45728   -1.000
 4464.00    1.45276   1.49301   -1.000
 4465.00    1.49195   1.50296  133.380
 4466.00    1.48761   1.49489  133.454
 4467.00    1.50154   1.48202  134.608
 4468.00    1.51056   1.46989   -1.000
 4469.00    1.47626   1.46435  138.297
 4470.00    1.47257   1.48242  137.039
 4471.00    1.51738   1.52660  133.275
 4472.00    1.58335   1.57436  128.720
 4473.00    1.63240   1.60741  124.971
 4474.00    1.64553   1.62371  123.322
 4475.00    1.63336   1.63593  123.264
 4476.00    1.66355   1.65375  122.545
 4477.00    1.68649   1.66274  121.707
 4478.00    1.66812   1.63351   -1.000
 4479.00    1.60338   1.56470   -1.000
 4480.00    1.53381   1.49387   -1.000
 4481.00    1.47990   1.47241  135.899
 4482.00    1.49003   1.50818  135.726
 4483.00    1.54836   1.57812   -1.000
 4484.00    1.63269   1.64799  125.770
 4485.00    1.68159   1.68855  122.559
 4486.00    1.71288   1.68214   -1.000
 4487.00    1.70486   1.63574   -1.000
 4488.00    1.65082   1.57863   -1.000
 4489.00    1.58606   1.54709   -1.000
 4490.00    1.53605   1.55739   -1.000
 4491.00    1.55984   1.59028   -1.000
 4492.00    1.61651   1.60327  126.213
 4493.00    1.60103   1.57581  127.098
 4494.00    1.53116   1.53595  130.562
 4495.00    1.49977   1.52669   -1.000
 4496.00    1.51362   1.55879   -1.000
 4497.00    1.56592   1.60803   -1.000
 4498.00    1.64330   1.64330  125.588
 4499.00    1.67491   1.65194  123.738
 4500.00    1.65121   1.64318  124.527
 4501.00    1.62733   1.64718  125.471
 4502.00    1.64753   1.68063   -1.000
 4503.00    1.72629   1.73557  119.168
 4504.00    1.80674   1.77811   -1.000
 4505.00    1.82713   1.79421   -1.000
 4506.00    1.80858   1.77695   -1.000
 4507.00    1.78603   1.75355   -1.000
 4508.00    1.77555   1.74535   -1.000
 4509.00    1.77724   1.74906   -1.000
 4510.00    1.77289   1.75614  118.958
 4511.00    1.76193   1.74896  119.483
 4512.00    1.72385   1.71864  121.534
 4513.00    1.67483   1.68522  123.800
 4514.00    1.68246   1.66868  124.950
 4515.00    1.70059   1.67141   -1.000
 4516.00    1.70078   1.67866   -1.000
 4517.00    1.67928   1.67731  125.519
 4518.00    1.68802   1.67651  126.500
 4519.00    1.73404   1.69382   -1.000
 4520.00    1.77631   1.72258   -1.000
 4521.00    1.78382   1.73581   -1.000
 4522.00    1.75323   1.72090   -1.000
 4523.00    1.70592   1.68456   -1.000
 4524.00    1.67323   1.64616   -1.000
 4525.00    1.62721   1.60632  130.581
 4526.00    1.56870   1.55313  134.124
 4527.00    1.49367   1.49794  138.046
 4528.00    1.46629   1.46208  140.300
 4529.00    1.45663   1.45983  139.955
 4530.00    1.48002   1.49080  137.820
 4531.00    1.53847   1.52980  135.298
 4532.00    1.57314   1.54993  134.150
 4533.00    1.56524   1.53902   -1.000
 4534.00    1.52203   1.51590  141.281
 4535.00    1.50273   1.51836  141.222
 4536.00    1.55343   1.57272  134.635
 4537.00    1.68558   1.65408   -1.000
 4538.00    1.74553   1.70942   -1.000
 4539.00    1.71293   1.71242  122.202
 4540.00    1.69709   1.68112  124.766
 4541.00    1.68267   1.66072  125.520
 4542.00    1.69819   1.66697   -1.000
 4543.00    1.71916   1.67932   -1.000
 4544.00    1.69209   1.68076  159.296
 4545.00    1.66946   1.66776   71.603
 4546.00    1.55349   1.65912   -1.000
 4547.00    0.56176   1.65835   -1.000
 4548.00   -0.18689   1.64956    0.000
 4549.00   -0.20559   1.63869    0.000
 4550.00    0.67001   1.64515   -1.000
 4551.00    0.61297   1.66758   -1.000
 4552.00    0.90490   1.67480   -1.000
 4553.00    1.49216   1.65536   -1.000
 4554.00    1.64880   1.63250  133.009
 4555.00    1.65733   1.63725  131.860
 4556.00    1.70987   1.68265   -1.000
 4557.00    1.76859   1.75092  122.655
 4558.00    1.83886   1.80439   -1.000
 4559.00    1.86968   1.82603   -1.000
 4560.00    1.85106   1.83582  119.875
 4561.00    1.85346   1.82782   -1.000
 4562.00    1.83545   1.80197   -1.000
 4563.00    1.77960   1.75818   -1.000
 4564.00    1.71323   1.72041  127.374
 4565.00    1.67776   1.71398   -1.000
 4566.00    1.72979   1.74660  124.127
 4567.00    1.80212   1.79765  120.842
 4568.00    1.84608   1.83702  119.087
 4569.00    1.86063   1.83283   -1.000
 4570.00    1.80982   1.79898  122.359
 4571.00    1.73158   1.76024  125.588
 4572.00    1.74417   1.75452  125.832
 4573.00    1.81335   1.78856   -1.000
 4574.00    1.84636   1.82529   -1.000
 4575.00    1.85385   1.84067  120.000
 4576.00    1.83762   1.83470  120.452
 4577.00    1.80578   1.81818  121.120
 4578.00    1.76967   1.78387  122.819
 4579.00    1.72197   1.73323  126.097
 4580.00    1.64564   1.69176   -1.000
 4581.00    1.62198   1.68621   -1.000
 4582.00    1.69582   1.70351  128.035
 4583.00    1.73154   1.72526  126.826
 4584.00    1.70648   1.72890  126.857
 4585.00    1.69692   1.71974  127.565
 4586.00    1.70644   1.72665  126.510
 4587.00    1.76733   1.76285  123.563
 4588.00    1.82465   1.81180  120.740
 4589.00    1.83709   1.83862  119.910
 4590.00    1.83701   1.83197  121.171
 4591.00    1.81163   1.80038  123.337
 4592.00    1.77810   1.76231  125.551
 4593.00    1.73423   1.74091  126.247
 4594.00    1.72010   1.73362  125.462
 4595.00    1.72168   1.73261  124.432
 4596.00    1.72107   1.73905  123.923
 4597.00    1.72828   1.75439  123.655
 4598.00    1.74573   1.76741  123.382
 4599.00    1.74277   1.77198  124.090
 4600.00    1.73477   1.76681   -1.000
 4601.00    1.75333   1.76288  125.793
 4602.00    1.76854   1.76791  124.909
 4603.00    1.75684   1.77095  123.496
 4604.00    1.73871   1.76681  123.257
 4605.00    1.76400   1.77016  123.194
 4606.00    1.79983   1.79564  122.157
 4607.00    1.86431   1.83994   -1.000
 4608.00    1.94460   1.89371   -1.000
 4609.00    1.96521   1.93662   -1.000
 4610.00    1.93989   1.93820  115.787
 4611.00    1.91548   1.91624  117.118
 4612.00    1.90069   1.88687  118.528
 4613.00    1.89069   1.87243   -1.000
 4614.00    1.91202   1.88296   -1.000
 4615.00    1.94946   1.90658   -1.000
 4616.00    1.95157   1.92250   -1.000
 4617.00    1.93992   1.92608  118.069
 4618.00    1.91765   1.92450  118.946
 4619.00    1.89657   1.92163  119.113
 4620.00    1.92189   1.92496  118.238
 4621.00    1.95622   1.93559   -1.000
 4622.00    1.95382   1.94462  115.986
 4623.00    1.94283   1.94286  116.221
 4624.00    1.92703   1.93466  116.473
 4625.00    1.91488   1.92357  117.310
 4626.00    1.91639   1.91081  117.835
 4627.00    1.93169   1.90624   -1.000
 4628.00    1.90622   1.90954  118.383
 4629.00    1.89299   1.91512  118.796
 4630.00    1.93214   1.92035  118.426
 4631.00    1.95981   1.92848   -1.000
 4632.00    1.94363   1.92849  117.236
 4633.00    1.92578   1.91233  118.656
 4634.00    1.90963   1.88969   -1.000
 4635.00    1.87024   1.87483  120.392
 4636.00    1.83948   1.85948  121.039
 4637.00    1.81928   1.83720  122.496
 4638.00    1.79925   1.81335  123.326
 4639.00    1.81188   1.80011  123.320
 4640.00    1.84475   1.81017   -1.000
 4641.00    1.88025   1.84073   -1.000
 4642.00    1.90889   1.86982   -1.000
 4643.00    1.90135   1.87511   -1.000
 4644.00    1.86253   1.84264  118.621
 4645.00    1.79985   1.79086  121.686
 4646.00    1.73297   1.73241  125.102
 4647.00    1.68402   1.70780  126.458
 4648.00    1.70907   1.73019  124.930
 4649.00    1.79730   1.78384  122.149
 4650.00    1.85458   1.84601  120.133
 4651.00    1.88390   1.88950  119.543
 4652.00    1.92233   1.90508  119.331
 4653.00    1.90728   1.89417  120.281
 4654.00    1.83477   1.86661  122.729
 4655.00    1.78556   1.84456   -1.000
 4656.00    1.80232   1.85291   -1.000
 4657.00    1.90468   1.89771  120.965
 4658.00    2.01333   1.96878   -1.000
 4659.00    2.08140   2.02934   -1.000
 4660.00    2.07585   2.05061   -1.000
 4661.00    1.99742   2.02031  113.595
 4662.00    1.92172   1.97295   -1.000
 4663.00    1.88830   1.92589   -1.000
 4664.00    1.87989   1.88191  119.353
 4665.00    1.84447   1.83005  120.800
 4666.00    1.75622   1.76471  125.121
 4667.00    1.65677   1.71023   -1.000
 4668.00    1.64639   1.70477   -1.000
 4669.00    1.71495   1.75403   -1.000
 4670.00    1.82506   1.82889  123.983
 4671.00    1.89433   1.88490  120.094
 4672.00    1.90585   1.90865  118.705
 4673.00    1.88883   1.90379  118.619
 4674.00    1.89038   1.90701  118.569
 4675.00    1.90368   1.92488  117.414
 4676.00    1.95700   1.94570  115.682
 4677.00    1.97307   1.94688   -1.000
 4678.00    1.94704   1.91757   -1.000
 4679.00    1.89119   1.87730  120.053
 4680.00    1.83870   1.84476  122.144
 4681.00    1.81325   1.83271  123.555
 4682.00    1.84451   1.84344  122.763
 4683.00    1.92000   1.87144   -1.000
 4684.00    1.97129   1.89582   -1.000
 4685.00    1.95220   1.90272   -1.000
 4686.00    1.92005   1.89907  118.092
 4687.00    1.89382   1.89088  118.584
 4688.00    1.90942   1.88999  118.792
 4689.00    1.93459   1.89588   -1.000
 4690.00    1.92716   1.89956   -1.000
 4691.00    1.90902   1.89741  119.848
 4692.00    1.91417   1.90322  118.878
 4693.00    1.93683   1.92557  117.174
 4694.00    1.98462   1.95429   -1.000
 4695.00    2.02363   1.97473   -1.000
 4696.00    2.03052   1.97658   -1.000
 4697.00    2.00312   1.94836   -1.000
 4698.00    1.92991   1.90176   -1.000
 4699.00    1.86378   1.86132  121.080
 4700.00    1.86084   1.84567  120.731
 4701.00    1.87634   1.83648   -1.000
 4702.00    1.85548   1.82859   -1.000
 4703.00    1.87007   1.83409   -1.000
 4704.00    1.89140   1.85852   -1.000
 4705.00    1.89925   1.88512  120.439
 4706.00    1.91993   1.88958   -1.000
 4707.00    1.89154   1.86922   -1.000
 4708.00    1.85385   1.84915  125.017
 4709.00    1.86481   1.85668  124.861
 4710.00    1.89976   1.88759  121.981
 4711.00    1.97282   1.92145   -1.000
 4712.00    2.01809   1.93429   -1.000
 4713.00    1.95308   1.92115   -1.000
 4714.00    1.90213   1.90331  119.223
 4715.00    1.92186   1.91295  119.890
 4716.00    1.97553   1.95297   -1.000
 4717.00    2.03820   2.00572   -1.000
 4718.00    2.10704   2.04918   -1.000
 4719.00    2.13624   2.07346   -1.000
 4720.00    2.15349   2.08607   -1.000
 4721.00    2.10485   2.08143   -1.000
 4722.00    2.05668   2.06720  115.269
 4723.00    2.06438   2.06413  115.012
 4724.00    2.08965   2.07655  113.895
 4725.00    2.07970   2.07333  113.658
 4726.00    2.02904   2.03256  115.705
 4727.00    1.91746   1.95660   -1.000
 4728.00    1.81425   1.88187   -1.000
 4729.00    1.79836   1.85415   -1.000
 4730.00    1.83278   1.86505   -1.000
 4731.00    1.88503   1.90283  121.242
 4732.00    1.94162   1.94490  119.928
 4733.00    1.96700   1.97841  118.762
 4734.00    1.99693   1.99343  117.994
 4735.00    2.01931   1.99300   -1.000
 4736.00    1.99214   1.98830  118.055
 4737.00    1.97452   1.99438  118.565
 4738.00    2.03798   2.01408   -1.000
 4739.00    2.10526   2.03641   -1.000
 4740.00    2.09354   2.04131   -1.000
 4741.00    2.04081   2.03156  117.902
 4742.00    2.03746   2.03102  117.257
 4743.00    2.06499   2.03815   -1.000
 4744.00    2.09015   2.04698   -1.000
 4745.00    2.12671   2.06416   -1.000
 4746.00    2.13850   2.08297   -1.000
 4747.00    2.13505   2.10263   -1.000
 4748.00    2.14473   2.11523   -1.000
 4749.00    2.15132   2.12394   -1.000
 4750.00    2.12744   2.12792  113.997
 4751.00    2.11153   2.11866  114.608
 4752.00    2.10191   2.09477  115.794
 4753.00    2.04385   2.06557  116.875
 4754.00    1.98863   2.03894   -1.000
 4755.00    1.98085   2.03049   -1.000
 4756.00    2.01126   2.03731  118.048
 4757.00    2.04633   2.05162  118.821
 4758.00    2.05798   2.06666  119.176
 4759.00    2.06022   2.07887  118.489
 4760.00    2.02340   2.07809   -1.000
 4761.00    1.95450   2.05344   -1.000
 4762.00    1.90732   2.01183   -1.000
 4763.00    1.88197   1.96631   -1.000
 4764.00    1.86363   1.93337   -1.000
 4765.00    1.84210   1.91497   -1.000
 4766.00    1.85265   1.90806   -1.000
 4767.00    1.89967   1.93040   -1.000
 4768.00    1.95574   1.98566   -1.000
 4769.00    2.02474   2.04724   -1.000
 4770.00    2.05197   2.07349   -1.000
 4771.00    2.02635   2.06459   -1.000
 4772.00    2.00532   2.04955   -1.000
 4773.00    2.02293   2.06488   -1.000
 4774.00    2.08111   2.10643   -1.000
 4775.00    2.10848   2.14008   -1.000
 4776.00    2.13194   2.15335   -1.000
 4777.00    2.14951   2.15368  115.218
 4778.00    2.12828   2.14909   -1.000
 4779.00    2.07341   2.13594   -1.000
 4780.00    2.02861   2.11749   -1.000
 4781.00    2.03291   2.09466   -1.000
 4782.00    2.03810   2.06609   -1.000
 4783.00    2.01195   2.03669   -1.000
 4784.00    2.01288   2.02567  119.896
 4785.00    2.02494   2.03016  120.148
 4786.00    2.01187   2.03347   -1.000
 4787.00    2.00908   2.03120   -1.000
 4788.00    2.01322   2.03495   -1.000
 4789.00    2.02559   2.04187  121.619
 4790.00    2.02434   2.05425   -1.000
 4791.00    2.04105   2.08009   -1.000
 4792.00    2.07822   2.12442   -1.000
 4793.00    2.14327   2.18475   -1.000
 4794.00    2.21841   2.24063  113.399
 4795.00    2.25672   2.27390  112.548
 4796.00    2.23965   2.26590  113.257
 4797.00    2.19005   2.22147   -1.000
 4798.00    2.12580   2.16296   -1.000
 4799.00    2.08902   2.12410   -1.000
 4800.00    2.09805   2.12341  118.761
 4801.00    2.14786   2.16214  116.701
 4802.00    2.20085   2.21489  114.800
 4803.00    2.21043   2.24704   -1.000
 4804.00    2.16378   2.22707   -1.000
 4805.00    2.12691   2.18401   -1.000
 4806.00    2.11798   2.14730   -1.000
 4807.00    2.07479   2.12540   -1.000
 4808.00    2.06313   2.11892   -1.000
 4809.00    2.09007   2.13699   -1.000
 4810.00    2.09950   2.16508   -1.000
 4811.00    2.12972   2.18380   -1.000
 4812.00    2.15349   2.19090   -1.000
 4813.00    2.14926   2.19182   -1.000
 4814.00    2.14365   2.19865   -1.000
 4815.00    2.14763   2.21629   -1.000
 4816.00    2.19729   2.23947   -1.000
 4817.00    2.22914   2.26337   -1.000
 4818.00    2.23376   2.28450   -1.000
 4819.00    2.24230   2.29802   -1.000
 4820.00    2.23694   2.29733   -1.000
 4821.00    2.20317   2.26952   -1.000
 4822.00    2.14617   2.21524   -1.000
 4823.00    2.10102   2.15581   -1.000
 4824.00    2.10360   2.12783   -1.000
 4825.00    2.15059   2.15044  117.049
 4826.00    2.18914   2.19643  115.129
 4827.00    2.19357   2.22005   -1.000
 4828.00    2.16887   2.20582   -1.000
 4829.00    2.15988   2.18597   -1.000
 4830.00    2.14648   2.17287   -1.000
 4831.00    2.10922   2.15396   -1.000
 4832.00    2.09414   2.13626   -1.000
 4833.00    2.12494   2.14708  117.128
 4834.00    2.16916   2.18240  115.440
 4835.00    2.18314   2.22071   -1.000
 4836.00    2.19109   2.23715   -1.000
 4837.00    2.19736   2.23193   -1.000
 4838.00    2.17508   2.20924   -1.000
 4839.00    2.12943   2.17812   -1.000
 4840.00    2.11814   2.15722   -1.000
 4841.00    2.12790   2.15228  118.910
 4842.00    2.13100   2.15458  118.410
 4843.00    2.11250   2.15699   -1.000
 4844.00    2.11833   2.17477   -1.000
 4845.00    2.17238   2.21570   -1.000
 4846.00    2.19652   2.24817   -1.000
 4847.00    2.15594   2.24286   -1.000
 4848.00    2.11575   2.21358   -1.000
 4849.00    2.13568   2.19708   -1.000
 4850.00    2.18324   2.21224  116.638
 4851.00    2.19515   2.22971   -1.000
 4852.00    2.15903   2.22944   -1.000
 4853.00    2.11847   2.19827   -1.000
 4854.00    2.07978   2.14053   -1.000
 4855.00    2.01906   2.08195   -1.000
 4856.00    2.00713   2.05315   -1.000
 4857.00    2.02986   2.05835   -1.000
 4858.00    1.99164   2.03888   -1.000
 4859.00    1.89257   1.94061   -1.000
 4860.00    1.76153   1.77765  148.438
 4861.00    1.66963   1.65334   -1.000
 4862.00    1.66641   1.66357  154.130
 4863.00    1.75362   1.78687   -1.000
 4864.00    1.86860   1.92267   -1.000
 4865.00    1.97597   2.01993   -1.000
 4866.00    2.04967   2.08759   -1.000
 4867.00    2.07740   2.13055   -1.000
 4868.00    2.09333   2.14820   -1.000
 4869.00    2.09547   2.13292   -1.000
 4870.00    2.03362   2.07407   -1.000
 4871.00    1.93138   1.99158   -1.000
 4872.00    1.88227   1.95943   -1.000
 4873.00    1.94950   2.01184   -1.000
 4874.00    2.03987   2.09909   -1.000
 4875.00    2.05662   2.15915   -1.000
 4876.00    2.05329   2.18564   -1.000
 4877.00    2.11709   2.20949   -1.000
 4878.00    2.15605   2.24486   -1.000
 4879.00    2.15465   2.27678   -1.000
 4880.00    2.14382   2.28436   -1.000
 4881.00    2.08363   2.25789   -1.000
 4882.00    2.06164   2.22826   -1.000
 4883.00    2.08852   2.21775   -1.000
 4884.00    2.09179   2.20534   -1.000
 4885.00    2.04442   2.16640   -1.000
 4886.00    2.00763   2.12720   -1.000
 4887.00    2.03752   2.12058   -1.000
 4888.00    2.04912   2.12934   -1.000
 4889.00    2.03500   2.11105   -1.000
 4890.00    1.99771   2.05823   -1.000
 4891.00    1.97538   2.01809   -1.000
 4892.00    2.05096   2.06403  122.213
 4893.00    2.17849   2.19464  116.690
 4894.00    2.31262   2.34113  112.625
 4895.00    2.39459   2.44467   -1.000
 4896.00    2.42184   2.47921   -1.000
 4897.00    2.41522   2.47930   -1.000
 4898.00    2.36629   2.45427   -1.000
 4899.00    2.31540   2.41060   -1.000
 4900.00    2.28380   2.36899   -1.000
 4901.00    2.26596   2.35085   -1.000
 4902.00    2.25568   2.33761   -1.000
 4903.00    2.25533   2.31966   -1.000
 4904.00    2.27508   2.32236   -1.000
 4905.00    2.30350   2.36932   -1.000
 4906.00    2.33915   2.42560   -1.000
 4907.00    2.34095   2.43568   -1.000
 4908.00    2.27068   2.38431   -1.000
 4909.00    2.18788   2.30957   -1.000
 4910.00    2.14677   2.25140   -1.000
 4911.00    2.16510   2.24504   -1.000
 4912.00    2.22208   2.28732   -1.000
 4913.00    2.28508   2.34210   -1.000
 4914.00    2.34509   2.39104   -1.000
 4915.00    2.39764   2.42600  113.066
 4916.00    2.41526   2.42349  113.123
 4917.00    2.32915   2.35187  116.008
 4918.00    2.15135   2.20459   -1.000
 4919.00    1.98711   2.04187   -1.000
 4920.00    1.92638   1.95137  130.785
 4921.00    1.99336   1.97476  128.254
 4922.00    2.12256   2.08191   -1.000
 4923.00    2.19315   2.18146  120.989
 4924.00    2.21996   2.23675  120.374
 4925.00    2.25205   2.26723  119.305
 4926.00    2.28209   2.32336  116.656
 4927.00    2.34490   2.39359   -1.000
 4928.00    2.41311   2.45645  112.877
 4929.00    2.44902   2.50789   -1.000
 4930.00    2.47203   2.52960   -1.000
 4931.00    2.47130   2.51141  111.855
 4932.00    2.39130   2.45139   -1.000
 4933.00    2.29626   2.37503   -1.000
 4934.00    2.27290   2.32703   -1.000
 4935.00    2.31071   2.33705  118.332
 4936.00    2.30554   2.34628  117.568
 4937.00    2.23899   2.29166   -1.000
 4938.00    2.14974   2.20688   -1.000
 4939.00    2.15281   2.17685  123.716
 4940.00    2.26772   2.24286   -1.000
 4941.00    2.37225   2.35602   -1.000
 4942.00    2.40254   2.44672   -1.000
 4943.00    2.43181   2.49503   -1.000
 4944.00    2.45638   2.50417   -1.000
 4945.00    2.45487   2.49168  112.746
 4946.00    2.44993   2.47949  113.180
 4947.00    2.47302   2.49452  112.553
 4948.00    2.53066   2.53128  111.301
 4949.00    2.56501   2.56390  110.647
 4950.00    2.57220   2.58004  110.233
 4951.00    2.57074   2.58280  110.473
 4952.00    2.54021   2.56879  111.188
 4953.00    2.49123   2.54103   -1.000
 4954.00    2.44301   2.49512   -1.000
 4955.00    2.36495   2.40161   -1.000
 4956.00    2.21784   2.25549   -1.000
 4957.00    2.09032   2.10651  126.697
 4958.00    2.11078   2.06619   -1.000
 4959.00    2.24366   2.18115   -1.000
 4960.00    2.35876   2.33667  115.584
 4961.00    2.41228   2.43645  113.728
 4962.00    2.41602   2.46014   -1.000
 4963.00    2.39049   2.44258   -1.000
 4964.00    2.35289   2.40155   -1.000
 4965.00    2.29634   2.34055   -1.000
 4966.00    2.24285   2.29407   -1.000
 4967.00    2.23156   2.28155   -1.000
 4968.00    2.25808   2.29078   -1.000
 4969.00    2.27944   2.31575   -1.000
 4970.00    2.32738   2.35802  118.237
 4971.00    2.35939   2.40436   -1.000
 4972.00    2.39309   2.45332   -1.000
 4973.00    2.43514   2.48673   -1.000
 4974.00    2.44100   2.50046   -1.000
 4975.00    2.41324   2.49829   -1.000
 4976.00    2.39868   2.47603   -1.000
 4977.00    2.37261   2.43359   -1.000
 4978.00    2.31609   2.38664   -1.000
 4979.00    2.26608   2.34875   -1.000
 4980.00    2.22657   2.31162   -1.000
 4981.00    2.15700   2.24640   -1.000
 4982.00    2.06474   2.15167   -1.000
 4983.00    2.04115   2.08724   -1.000
 4984.00    2.08523   2.09717  128.795
 4985.00    2.17982   2.17404  125.528
 4986.00    2.27901   2.27417  121.670
 4987.00    2.33714   2.36560  118.373
 4988.00    2.35917   2.41321   -1.000
 4989.00    2.34786   2.40771   -1.000
 4990.00    2.32282   2.37736   -1.000
 4991.00    2.32997   2.36481   -1.000
 4992.00    2.37633   2.37685  119.855
 4993.00    2.39794   2.39543  119.153
 4994.00    2.36772   2.40559   -1.000
 4995.00    2.35334   2.41539   -1.000
 4996.00    2.37980   2.43508   -1.000
 4997.00    2.39495   2.44220   -1.000
 4998.00    2.34611   2.40479   -1.000
 4999.00    2.25565   2.32684   -1.000
 5000.00    2.20506   2.24828   -1.000
 5001.00    2.20504   2.22244  124.098
 5002.00    2.22789   2.23588  123.314
 5003.00    2.25129   2.24946  122.369
 5004.00    2.23541   2.23457  123.284
 5005.00    2.15893   2.18503  126.013
 5006.00    2.11843   2.14428  127.567
 5007.00    2.17469   2.16354  125.648
 5008.00    2.24897   2.24597  122.010
 5009.00    2.28848   2.32838   -1.000
 5010.00    2.29111   2.34868   -1.000
 5011.00    2.23680   2.30475   -1.000
 5012.00    2.13967   2.22040   -1.000
 5013.00    2.07737   2.14114   -1.000
 5014.00    2.07201   2.10508   -1.000
 5015.00    2.12990   2.12881  129.848
 5016.00    2.18402   2.17622  127.051
 5017.00    2.16981   2.21089   -1.000
 5018.00    2.19131   2.23171   -1.000
 5019.00    2.24426   2.25620  124.738
 5020.00    2.25406   2.28191  123.569
 5021.00    2.20911   2.28183   -1.000
 5022.00    2.18137   2.26731   -1.000
 5023.00    2.21826   2.27669   -1.000
 5024.00    2.30781   2.32361  122.474
 5025.00    2.36053   2.36969  121.489
 5026.00    2.31931   2.37823   -1.000
 5027.00    2.27453   2.35023   -1.000
 5028.00    2.30398   2.33694  121.654
 5029.00    2.36333   2.36670  119.719
 5030.00    2.39931   2.42593  117.819
 5031.00    2.42995   2.49164   -1.000
 5032.00    2.48702   2.54594   -1.000
 5033.00    2.51917   2.57233   -1.000
 5034.00    2.47768   2.53842   -1.000
 5035.00    2.38089   2.45459   -1.000
 5036.00    2.30215   2.37291   -1.000
 5037.00    2.29778   2.34130   -1.000
 5038.00    2.28514   2.32182   -1.000
 5039.00    2.18054   2.24933   -1.000
 5040.00    2.04140   2.13568   -1.000
 5041.00    2.01681   2.07346   -1.000
 5042.00    2.14938   2.13568  132.563
 5043.00    2.33679   2.29114   -1.000
 5044.00    2.48744   2.45337   -1.000
 5045.00    2.56446   2.57086  115.654
 5046.00    2.58797   2.60842  111.876
 5047.00    2.55600   2.57687  112.722
 5048.00    1.88400   2.48822   -1.000
 5049.00    0.51511   2.38904   -1.000
 5050.00   -0.11144   2.32506    0.000
 5051.00    0.47296   2.32492   -1.000
 5052.00    1.93750   2.36362   -1.000
 5053.00    2.52992   2.42938   -1.000
 5054.00    2.51228   2.50076  115.845
 5055.00    2.54277   2.54739  114.424
 5056.00    2.55456   2.56633  113.832
 5057.00    2.58073   2.58133  113.862
 5058.00    2.61742   2.59886   -1.000
 5059.00    2.63066   2.62547  114.119
 5060.00    2.63986   2.65665  113.574
 5061.00    2.64916   2.68045  113.354
 5062.00    2.59162   2.66760   -1.000
 5063.00    2.48899   2.59338   -1.000
 5064.00    2.39165   2.48492   -1.000
 5065.00    2.35411   2.40141   -1.000
 5066.00    2.37651   2.38600  122.925
 5067.00    2.40018   2.40563  121.141
 5068.00    2.42659   2.42463  120.278
 5069.00    2.45878   2.44679  119.788
 5070.00    2.48386   2.47192  119.065
 5071.00    2.46499   2.47635  119.453
 5072.00    2.43530   2.45815  120.433
 5073.00    2.45300   2.45485  119.735
 5074.00    2.51322   2.47604   -1.000
 5075.00    2.52202   2.49327   -1.000
 5076.00    2.49749   2.49596  118.084
 5077.00    2.48721   2.47758  118.828
 5078.00    2.42436   2.41595  122.006
 5079.00    2.30381   2.31726  127.365
 5080.00    2.22259   2.24928  130.381
 5081.00    2.23264   2.25308  128.932
 5082.00    2.29877   2.29695  126.130
 5083.00    2.34677   2.34216  124.114
 5084.00    2.40031   2.39117  121.997
 5085.00    2.47688   2.44510   -1.000
 5086.00    2.51123   2.49559  118.584
 5087.00    2.51684   2.52363  118.215
 5088.00    2.54562   2.53743  117.769
 5089.00    2.58081   2.54883   -1.000
 5090.00    2.59068   2.56240   -1.000
 5091.00    2.60601   2.58720   -1.000
 5092.00    2.64205   2.62599   -1.000
 5093.00    2.67109   2.65971  113.430
 5094.00    2.65950   2.66122  113.799
 5095.00    2.60485   2.60812  115.773
 5096.00    2.51965   2.51974  118.273
 5097.00    2.43339   2.44144  121.041
 5098.00    2.35424   2.38170  123.718
 5099.00    2.33464   2.35893  124.825
 5100.00    2.38945   2.39786  122.831
 5101.00    2.49438   2.47556   -1.000
 5102.00    2.55353   2.53365  117.551
 5103.00    2.54522   2.54226  117.717
 5104.00    2.50534   2.51907  119.017
 5105.00    2.48011   2.49097  120.559
 5106.00    2.45516   2.45898  122.051
 5107.00    2.37854   2.42401   -1.000
 5108.00    2.33581   2.39690   -1.000
 5109.00    2.35083   2.39229   -1.000
 5110.00    2.38331   2.41255  122.459
 5111.00    2.43851   2.45444  120.978
 5112.00    2.51740   2.50450  119.398
 5113.00    2.56803   2.54341   -1.000
 5114.00    2.61474   2.57788   -1.000
 5115.00    2.65137   2.61723   -1.000
 5116.00    2.66037   2.65436  114.975
 5117.00    2.67848   2.68519  113.922
 5118.00    2.69028   2.69802  113.843
 5119.00    2.66296   2.67564  114.980
 5120.00    2.60952   2.62457  116.659
 5121.00    2.55233   2.56360  118.536
 5122.00    2.47415   2.49112  121.235
 5123.00    2.39056   2.41669  124.744
 5124.00    2.35683   2.36873  126.568
 5125.00    2.36636   2.35806  126.041
 5126.00    2.39506   2.37768  125.230
 5127.00    2.40746   2.39531  124.534
 5128.00    2.39614   2.39971  124.412
 5129.00    2.40113   2.40472  124.410
 5130.00    2.44767   2.42824   -1.000
 5131.00    2.52475   2.47922   -1.000
 5132.00    2.56122   2.53452   -1.000
 5133.00    2.57578   2.56912  118.878
 5134.00    2.62536   2.59251   -1.000
 5135.00    2.64611   2.61049   -1.000
 5136.00    2.61225   2.60561  118.595
 5137.00    2.53472   2.55295  121.287
 5138.00    2.45754   2.47922  123.572
 5139.00    2.42647   2.44526  124.308
 5140.00    2.45950   2.45610  123.574
 5141.00    2.50969   2.47306   -1.000
 5142.00    2.49857   2.47015   -1.000
 5143.00    2.48042   2.46423   -1.000
 5144.00    2.48710   2.47998  123.971
 5145.00    2.48118   2.48721  122.982
 5146.00    2.43478   2.45499  123.651
 5147.00    2.40849   2.42776  124.262
 5148.00    2.44294   2.44261  123.306
 5149.00    2.48005   2.47306  122.315
 5150.00    2.47210   2.47603  123.129
 5151.00    2.43912   2.44478  125.188
 5152.00    2.40082   2.41221  126.503
 5153.00    2.39740   2.39981  126.310
 5154.00    2.44355   2.41351   -1.000
 5155.00    2.52349   2.47440   -1.000
 5156.00    2.62143   2.56842   -1.000
 5157.00    2.69451   2.65366   -1.000
 5158.00    2.72095   2.69759   -1.000
 5159.00    2.72967   2.71206   -1.000
 5160.00    2.72066   2.70721   -1.000
 5161.00    2.69496   2.68411   -1.000
 5162.00    2.64977   2.63773   -1.000
 5163.00    2.58471   2.57031   -1.000
 5164.00    2.46777   2.47449  121.623
 5165.00    2.26861   2.32117   -1.000
 5166.00    2.00935   2.09485   -1.000
 5167.00    1.80701   1.89941   -1.000
 5168.00    1.80632   1.85657   -1.000
 5169.00    1.94833   1.95044  147.855
 5170.00    2.01219   2.03432   -1.000
 5171.00    1.88969   1.97937   -1.000
 5172.00    1.73610   1.84796   -1.000
 5173.00    1.77061   1.83563   -1.000
 5174.00    2.00097   1.99341  144.179
 5175.00    2.26728   2.22766   -1.000
 5176.00    2.41335   2.39935  124.249
 5177.00    2.45871   2.46620  121.884
 5178.00    2.49557   2.48841  121.321
 5179.00    2.48311   2.47282  122.074
 5180.00    2.37078   2.40271   -1.000
 5181.00    2.16835   2.24439   -1.000
 5182.00    1.90894   2.01978   -1.000
 5183.00    1.72931   1.83963   -1.000
 5184.00    1.78231   1.83478   -1.000
 5185.00    2.06739   2.03674   -1.000
 5186.00    2.37785   2.30249   -1.000
 5187.00    2.54925   2.47876   -1.000
 5188.00    2.62813   2.56683   -1.000
 5189.00    2.66943   2.59236   -1.000
 5190.00    2.62800   2.57138   -1.000
 5191.00    2.50512   2.48590   -1.000
 5192.00    2.38161   2.38400  128.747
 5193.00    2.36840   2.35016   -1.000
 5194.00    2.46947   2.40201   -1.000
 5195.00    2.51994   2.45799   -1.000
 5196.00    2.53927   2.51138   -1.000
 5197.00    2.59266   2.58002   -1.000
 5198.00    2.68028   2.65124   -1.000
 5199.00    2.71373   2.69832   -1.000
 5200.00    2.71287   2.71537  117.321
 5201.00    2.71229   2.69800   -1.000
 5202.00    2.66684   2.64511   -1.000
 5203.00    2.59153   2.55792   -1.000
 5204.00    2.48332   2.43066   -1.000
 5205.00    2.37356   2.29703   -1.000
 5206.00    2.32771   2.22093   -1.000
 5207.00    2.29971   2.19364   -1.000
 5208.00    2.28489   2.19349   -1.000
 5209.00    2.32355   2.22339   -1.000
 5210.00    2.45076   2.32611   -1.000
 5211.00    2.62798   2.48718   -1.000
 5212.00    2.77345   2.65118   -1.000
 5213.00    2.85148   2.74684   -1.000
 5214.00    2.81189   2.74939   -1.000
 5215.00    2.69464   2.68732   -1.000
 5216.00    2.64893   2.63673   -1.000
 5217.00    2.69258   2.65308   -1.000
 5218.00    2.75629   2.73053   -1.000
 5219.00    2.83773   2.81641   -1.000
 5220.00    2.91344   2.87383   -1.000
 5221.00    2.93529   2.88934   -1.000
 5222.00    2.87418   2.85855   -1.000
 5223.00    2.75590   2.77148  117.091
 5224.00    2.63018   2.63416  121.569
 5225.00    2.47878   2.47723  127.085
 5226.00    2.34860   2.36298  131.425
 5227.00    2.40088   2.35312   -1.000
 5228.00    2.58876   2.47998   -1.000
 5229.00    2.74478   2.67175   -1.000
 5230.00    2.84483   2.80191   -1.000
 5231.00    2.85443   2.81525   -1.000
 5232.00    2.78202   2.74457   -1.000
 5233.00    2.72315   2.66263   -1.000
 5234.00    2.71552   2.65015   -1.000
 5235.00    2.76481   2.72931   -1.000
 5236.00    2.85022   2.83868   -1.000
 5237.00    2.96915   2.93054   -1.000
 5238.00    3.02203   2.96501   -1.000
 5239.00    2.98219   2.95814   -1.000
 5240.00    2.92118   2.93901  112.627
 5241.00    2.91846   2.92228   -1.000
 5242.00    2.94356   2.92101   -1.000
 5243.00    2.95977   2.94130   -1.000
 5244.00    2.98438   2.96385   -1.000
 5245.00    2.96151   2.93777   -1.000
 5246.00    2.83653   2.84912  116.367
 5247.00    2.72830   2.75085  119.416
 5248.00    2.72219   2.70451   -1.000
 5249.00    2.72837   2.70443   -1.000
 5250.00    2.70168   2.70218   -1.000
 5251.00    2.71597   2.71153   -1.000
 5252.00    2.77020   2.74986   -1.000
 5253.00    2.79342   2.78107   -1.000
 5254.00    2.78628   2.78373   -1.000
 5255.00    2.79181   2.78911   -1.000
 5256.00    2.87360   2.85132   -1.000
 5257.00    3.00665   2.96417   -1.000
 5258.00    3.06651   3.04547   -1.000
 5259.00    3.03879   3.04942   -1.000
 5260.00    2.96770   2.97809   -1.000
 5261.00    2.83837   2.84747   -1.000
 5262.00    2.67717   2.69067  123.340
 5263.00    2.55054   2.53442   -1.000
 5264.00    2.44877   2.41943   -1.000
 5265.00    2.38948   2.36446   -1.000
 5266.00    2.43104   2.37450   -1.000
 5267.00    2.49134   2.41336   -1.000
 5268.00    2.44503   2.39313   -1.000
 5269.00    2.32459   2.28729   -1.000
 5270.00    2.32415   2.24036   -1.000
 5271.00    2.51436   2.35461   -1.000
 5272.00    2.71257   2.57031   -1.000
 5273.00    2.81872   2.72571   -1.000
 5274.00    2.83238   2.74555   -1.000
 5275.00    2.83964   2.75842   -1.000
 5276.00    2.91139   2.81604   -1.000
 5277.00    3.01994   2.93073   -1.000
 5278.00    3.12030   3.03552   -1.000
 5279.00    3.10844   3.04938   -1.000
 5280.00    3.01449   2.98486   -1.000
 5281.00    2.92352   2.88397   -1.000
 5282.00    2.86420   2.79123   -1.000
 5283.00    2.81802   2.74753   -1.000
 5284.00    2.87541   2.80389   -1.000
 5285.00    3.03181   2.94598   -1.000
 5286.00    3.15087   3.09204   -1.000
 5287.00    3.18126   3.16613   -1.000
 5288.00    3.20152   3.16692   16.377
 5289.00    3.21928   3.15810   10.965
 5290.00    3.23042   3.16754   10.919
 5291.00    3.22970   3.17742   10.881
 5292.00    3.18789   3.16519   10.918
 5293.00    3.16644   3.14252   11.011
 5294.00    3.16643   3.11566   11.145
 5295.00    3.08039   3.04864   11.399
 5296.00    2.92329   2.91376   11.800
 5297.00    2.78545   2.76605   12.165
 5298.00    2.76317   2.71144   12.213
 5299.00    2.87091   2.76575   11.967
 5300.00    2.95670   2.86212   11.714
 5301.00    2.98686   2.92111   11.595
 5302.00    3.05467   2.97119   11.478
 5303.00    3.16491   3.05414   11.219
 5304.00    3.28220   3.16248   10.978
 5305.00    3.32753   3.23173   10.897
 5306.00    3.27672   3.22452   10.964
 5307.00    3.22954   3.18642   11.066
 5308.00    3.24570   3.18049   11.047
 5309.00    3.29456   3.21031   10.941
 5310.00    3.31565   3.24445   10.856
 5311.00    3.31614   3.24590   10.842
 5312.00    3.29186   3.22176   10.889
 5313.00    3.27699   3.19551   10.942
 5314.00    3.26937   3.16886   11.011
 5315.00    3.24207   3.14343   11.111
 5316.00    3.21570   3.11584   11.215
 5317.00    3.20236   3.10508   11.249
 5318.00    3.20491   3.11677   11.190
 5319.00    3.21303   3.12735   11.129
 5320.00    3.22423   3.12949   11.143
 5321.00    3.19483   3.11620   11.212
 5322.00    3.14237   3.07312   11.328
 5323.00    3.10324   3.00147   11.507
 5324.00    3.05821   2.93381   11.646
 5325.00    3.02083   2.88968   11.675
 5326.00    2.95488   2.80139   11.887
 5327.00    2.77737   2.63385   12.519
 5328.00    2.63381   2.48987   13.066
 5329.00    2.68032   2.50537   12.837
 5330.00    2.89686   2.71057   12.130
 5331.00    3.08644   2.92847   11.629
 5332.00    3.15191   3.02676   11.434
 5333.00    3.17996   3.07419   11.327
 5334.00    3.23941   3.12643   11.203
 5335.00    3.28093   3.18484   11.127
 5336.00    3.27667   3.21144   11.163
 5337.00    3.25159   3.18780   11.238
 5338.00    3.21277   3.12311   11.345
 5339.00    3.11796   3.01770   11.581
 5340.00    3.00466   2.91092   11.818
 5341.00    3.00076   2.88165   11.815
 5342.00    3.09944   2.96710   11.557
 5343.00    3.18181   3.06653   11.311
 5344.00    3.20399   3.10372   11.249
 5345.00    3.19003   3.09244   11.304
 5346.00    3.15773   3.06332   11.379
 5347.00    3.12744   3.03482   11.440
 5348.00    3.12097   3.00410   11.528
 5349.00    3.14419   2.99095   11.581
 5350.00    3.20212   3.03845   11.465
 5351.00    3.27076   3.13290   11.221
 5352.00    3.32658   3.22012   11.041
 5353.00    3.37699   3.28079   10.976
 5354.00    3.44073   3.31793   10.909
 5355.00    3.51369   3.36649   10.784
 5356.00    3.52175   3.40308   10.684
 5357.00    3.52602   3.41387   10.666
 5358.00    3.50400   3.40878   10.683
 5359.00    3.44819   3.38992   10.715
 5360.00    3.39839   3.34766   10.813
 5361.00    3.34563   3.29034   10.980
 5362.00    3.29736   3.24072   11.150
 5363.00    3.24769   3.20580   11.255
 5364.00    3.19944   3.17381   11.323
 5365.00    3.15444   3.14373   11.390
 5366.00    3.17789   3.12953   11.388
 5367.00    3.23681   3.12862   11.373
 5368.00    3.20501   3.10257   11.453
 5369.00    3.05260   3.00171   11.688
 5370.00    2.93479   2.86041   12.028
 5371.00    2.91221   2.78427   12.172
 5372.00    3.01562   2.84503   11.867
 5373.00    3.20891   3.02710   11.342
 5374.00    3.35000   3.20520   10.985
 5375.00    3.39720   3.30603   10.850
 5376.00    3.42327   3.31100   10.852
 5377.00    3.42496   3.29442   10.868
 5378.00    3.42227   3.30330   10.883
 5379.00    3.41432   3.31963   10.933
 5380.00    3.38358   3.31293   11.028
 5381.00    3.35827   3.27380   11.139
 5382.00    3.33286   3.22792   11.211
 5383.00    3.30744   3.20743   11.221
 5384.00    3.34508   3.21632   11.181
 5385.00    3.40826   3.25323   11.081
 5386.00    3.41133   3.28878   11.026
 5387.00    3.37202   3.29092   11.056
 5388.00    3.31217   3.24817   11.147
 5389.00    3.25680   3.18085   11.300
 5390.00    3.21245   3.11877   11.443
 5391.00    3.17251   3.08471   11.517
 5392.00    3.15374   3.07832   11.535
 5393.00    3.15753   3.08095   11.560
 5394.00    3.14081   3.07330   11.631
 5395.00    3.09964   3.02924   11.765
 5396.00    3.04149   2.95346   11.979
 5397.00    3.01082   2.89849   12.065
 5398.00    3.06303   2.94080   11.812
 5399.00    3.16897   3.05475   11.459
 5400.00    3.24868   3.14725   11.309
 5401.00    3.28084   3.19488   11.310
 5402.00    3.25957   3.18547   11.380
 5403.00    3.14708   3.10455   11.646
 5404.00    2.96567   2.95758   12.027
 5405.00    2.86011   2.81775   12.276
 5406.00    2.89725   2.78186   12.236
 5407.00    2.97930   2.87256   12.007
 5408.00    3.03888   2.95364   11.853
 5409.00    3.07307   2.96905   11.896
 5410.00    3.10207   2.96350   11.896
 5411.00    3.18464   3.02393   11.655
 5412.00    3.31157   3.14062   11.365
 5413.00    3.36317   3.22528   11.202
 5414.00    3.35670   3.25370   11.174
 5415.00    3.38417   3.27893   11.183
 5416.00    3.42871   3.33038   11.127
 5417.00    3.46478   3.38088   11.049
 5418.00    3.45175   3.38622   11.059
 5419.00    3.37584   3.34868   11.152
 5420.00    3.33084   3.31007   11.235
 5421.00    3.35532   3.29349   11.223
 5422.00    3.37559   3.29576   11.175
 5423.00    3.36036   3.27469   11.268
 5424.00    3.32352   3.24443   11.395
 5425.00    3.33272   3.27768   11.342
 5426.00    3.42670   3.36029   11.165
 5427.00    3.46414   3.39241   11.128
 5428.00    3.34146   3.30463   11.356
 5429.00    3.18665   3.14526   11.714
 5430.00    3.16168   3.05903   11.848
 5431.00    3.23960   3.08908   11.697
 5432.00    3.24435   3.13410   11.620
 5433.00    3.16945   3.11517   11.740
 5434.00    3.14395   3.04727   11.891
 5435.00    3.14292   3.02411   11.902
 5436.00    3.20045   3.09131   11.720
 5437.00    3.34024   3.21796   11.418
 5438.00    3.49266   3.35010   11.153
 5439.00    3.56752   3.44580   10.975
 5440.00    3.62265   3.50652   10.867
 5441.00    3.63266   3.53037   10.828
 5442.00    3.60641   3.54075   10.824
 5443.00    3.56539   3.51688   10.902
 5444.00    3.48825   3.42249   11.142
 5445.00    3.30001   3.25403   11.556
 5446.00    3.10760   3.08130   11.975
 5447.00    3.08312   3.00092   12.035
 5448.00    3.22282   3.06360   11.724
 5449.00    3.34331   3.19708   11.373
 5450.00    3.37514   3.30370   11.201
 5451.00    3.36991   3.32258   11.175
 5452.00    3.35130   3.29135   11.244
 5453.00    3.28725   3.21967   11.457
 5454.00    3.16771   3.10407   11.773
 5455.00    3.08256   2.99680   12.057
 5456.00    3.13997   2.99973   12.016
 5457.00    3.30772   3.12494   11.659
 5458.00    3.43374   3.28491   11.307
 5459.00    3.43515   3.35982   11.170
 5460.00    3.38748   3.33536   11.248
 5461.00    3.32104   3.26160   11.441
 5462.00    3.25313   3.18764   11.618
 5463.00    3.22622   3.16362   11.709
 5464.00    3.27954   3.19357   11.625
 5465.00    3.38268   3.25162   11.480
 5466.00    3.44312   3.30051   11.402
 5467.00    3.44354   3.33285   11.300
 5468.00    3.41404   3.34621   11.225
 5469.00    3.37342   3.33424   11.286
 5470.00    3.35393   3.30009   11.405
 5471.00    3.37616   3.26996   11.471
 5472.00    3.38302   3.25433   11.521
 5473.00    3.34506   3.23486   11.622
 5474.00    3.28438   3.18964   11.774
 5475.00    3.19045   3.11673   12.002
 5476.00    3.11297   3.04089   12.214
 5477.00    3.13014   3.02692   12.195
 5478.00    3.24466   3.12299   11.891
 5479.00    3.31795   3.22967   11.614
 5480.00    3.28842   3.23505   11.611
 5481.00    3.21970   3.17816   11.748
 5482.00    3.22569   3.15074   11.780
 5483.00    3.31359   3.22308   11.624
 5484.00    3.41066   3.33902   11.391
 5485.00    3.46063   3.40060   11.249
 5486.00    3.40358   3.38577   11.298
 5487.00    3.30364   3.31528   11.451
 5488.00    3.27781   3.26754   11.550
 5489.00    3.33939   3.27495   11.569
 5490.00    3.40068   3.32257   11.511
 5491.00    3.44648   3.36304   11.426
 5492.00    3.45881   3.37359   11.371
 5493.00    3.43096   3.36573   11.376
 5494.00    3.43626   3.35729   11.390
 5495.00    3.46542   3.35239   11.389
 5496.00    3.44788   3.33322   11.445
 5497.00    3.43949   3.31124   11.530
 5498.00    3.47787   3.32678   11.512
 5499.00    3.51017   3.36897   11.398
 5500.00    3.45474   3.37015   11.418
 5501.00    3.39819   3.31702   11.581
 5502.00    3.40358   3.26364   11.656
 5503.00    3.39785   3.25714   11.590
 5504.00    3.38731   3.27671   11.540
 5505.00    3.35488   3.25473   11.643
 5506.00    3.31304   3.20911   11.778
 5507.00    3.34474   3.21152   11.738
 5508.00    3.40166   3.27698   11.566
 5509.00    3.42578   3.34509   11.471
 5510.00    3.40745   3.34366   11.513
 5511.00    3.33933   3.26898   11.696
 5512.00    3.26736   3.18082   11.907
 5513.00    3.24406   3.12872   12.039
 5514.00    3.26898   3.14250   11.971
 5515.00    3.31588   3.18924   11.773
 5516.00    3.39718   3.25235   11.585
 5517.00    3.50970   3.33154   11.381
 5518.00    3.58871   3.41840   11.183
 5519.00    3.59990   3.48325   11.106
 5520.00    3.58566   3.50700   11.115
 5521.00    3.59389   3.49297   11.137
 5522.00    3.60057   3.48456   11.170
 5523.00    3.57775   3.48749   11.196
 5524.00    3.53978   3.48411   11.248
 5525.00    3.50601   3.44647   11.376
 5526.00    3.42172   3.36145   11.608
 5527.00    3.31311   3.25885   11.902
 5528.00    3.29242   3.19751   12.047
 5529.00    3.34947   3.23871   11.879
 5530.00    3.46082   3.34674   11.571
 5531.00    3.53836   3.42543   11.371
 5532.00    3.54680   3.44410   11.346
 5533.00    3.52137   3.41945   11.432
 5534.00    3.48621   3.39635   11.507
 5535.00    3.49289   3.38449   11.496
 5536.00    3.51509   3.38598   11.415
 5537.00    3.52008   3.40080   11.364
 5538.00    3.53824   3.42596   11.324
 5539.00    3.59180   3.46729   11.231
 5540.00    3.65916   3.51839   11.134
 5541.00    3.70347   3.54134   11.110
 5542.00    3.66264   3.52234   11.194
 5543.00    3.58719   3.48241   11.312
 5544.00    3.55453   3.45738   11.368
 5545.00    3.55576   3.45724   11.352
 5546.00    3.56860   3.46794   11.323
 5547.00    3.62225   3.49399   11.266
 5548.00    3.69549   3.54834   11.165
 5549.00    3.73222   3.60338   11.065
 5550.00    3.77704   3.62237   11.019
 5551.00    3.75956   3.61279   11.054
 5552.00    3.69659   3.58064   11.141
 5553.00    3.66503   3.53722   11.261
 5554.00    3.63957   3.50398   11.340
 5555.00    3.65534   3.49809   11.343
 5556.00    3.67462   3.50520   11.311
 5557.00    3.64370   3.50849   11.286
 5558.00    3.63832   3.50689   11.271
 5559.00    3.65682   3.51288   11.258
 5560.00    3.64350   3.51716   11.271
 5561.00    3.60288   3.49907   11.320
 5562.00    3.56313   3.46417   11.418
 5563.00    3.57174   3.44168   11.512
 5564.00    3.59172   3.43527   11.558
 5565.00    3.54649   3.42823   11.583
 5566.00    3.49945   3.41194   11.599
 5567.00    3.52666   3.40372   11.585
 5568.00    3.56164   3.40561   11.559
 5569.00    3.56920   3.41411   11.575
 5570.00    3.59757   3.43014   11.582
 5571.00    3.60117   3.44100   11.578
 5572.00    3.57376   3.43014   11.603
 5573.00    3.59159   3.41789   11.580
 5574.00    3.76929   3.43857   -1.000
 5575.00    4.42148   3.49121   -1.000
 5576.00    5.87225   3.52448   -1.000
 5577.00    6.74903   3.53316   -1.000
 5578.00    5.02612   3.55415   -1.000
 5579.00    1.75534   3.57903   -1.000
 5580.00    0.47049   3.58245   -1.000
 5581.00    1.53290   3.56937   -1.000
 5582.00    2.82438   3.54227   -1.000
 5583.00    3.43493   3.51639   11.411
 5584.00    3.60181   3.49161   11.453
 5585.00    3.55430   3.41882   11.651
 5586.00    3.41957   3.30695   11.944
 5587.00    3.33902   3.19623   12.224
 5588.00    3.33010   3.14015   12.373
 5589.00    3.38453   3.17093   -1.000
 5590.00    3.42108   3.24469   12.088
 5591.00    3.43387   3.32474   11.901
 5592.00    3.48000   3.36533   11.825
 5593.00    3.49684   3.37836   11.852
 5594.00    3.49695   3.40491   11.821
 5595.00    3.58592   3.46729   11.676
 5596.00    3.67650   3.52693   11.553
 5597.00    3.63817   3.51376   11.601
 5598.00    3.53421   3.42950   11.783
 5599.00    3.47792   3.35205   11.937
 5600.00    3.45147   3.30511   11.968
 5601.00    3.43054   3.28436   12.008
 5602.00    3.44981   3.28244   12.073
 5603.00    3.52311   3.32977   -1.000
 5604.00    3.64216   3.44568   11.656
 5605.00    3.74862   3.57489   11.369
 5606.00    3.77816   3.65259   11.196
 5607.00    3.76174   3.68610   11.142
 5608.00    3.75531   3.68523   11.150
 5609.00    3.75908   3.67759   11.173
 5610.00    3.77691   3.68275   11.172
 5611.00    3.80099   3.70918   11.143
 5612.00    3.78753   3.71251   11.168
 5613.00    3.70900   3.64014   11.346
 5614.00    3.56377   3.48108   11.698
 5615.00    3.43479   3.31979   12.021
 5616.00    3.44499   3.28445   12.034
 5617.00    3.54346   3.35876   11.790
 5618.00    3.60574   3.45242   11.583
 5619.00    3.61774   3.49504   11.519
 5620.00    3.67122   3.51530   11.480
 5621.00    3.71567   3.55853   11.423
 5622.00    3.70607   3.57587   11.438
 5623.00    3.65119   3.51135   11.613
 5624.00    3.55892   3.41589   11.841
 5625.00    3.50416   3.36739   11.874
 5626.00    3.54877   3.41638   11.709
 5627.00    3.62613   3.50796   11.525
 5628.00    3.70456   3.56808   11.383
 5629.00    3.75018   3.61148   11.285
 5630.00    3.77258   3.64321   11.239
 5631.00    3.81111   3.65827   11.200
 5632.00    3.80770   3.65571   11.193
 5633.00    3.76352   3.63606   11.260
 5634.00    3.74077   3.60838   11.346
 5635.00    3.70333   3.56992   11.420
 5636.00    3.64925   3.52863   11.500
 5637.00    3.63112   3.50695   11.581
 5638.00    3.66331   3.51186   11.606
 5639.00    3.68596   3.52481   11.595
 5640.00    3.66564   3.51849   11.618
 5641.00    3.64058   3.49542   11.637
 5642.00    3.64691   3.48789   11.605
 5643.00    3.67502   3.51277   11.551
 5644.00    3.71353   3.54481   11.522
 5645.00    3.74321   3.56891   11.462
 5646.00    3.72949   3.59038   11.412
 5647.00    3.71729   3.60036   11.384
 5648.00    3.74241   3.59435   11.363
 5649.00    3.75519   3.58233   11.377
 5650.00    3.75139   3.59404   11.387
 5651.00    3.78332   3.63626   11.323
 5652.00    3.82413   3.67200   11.270
 5653.00    3.80092   3.66698   11.294
 5654.00    3.74129   3.63068   11.373
 5655.00    3.68234   3.60022   11.479
 5656.00    3.60124   3.56128   11.666
 5657.00    3.51511   3.48035   11.989
 5658.00    3.46742   3.38559   12.245
 5659.00    3.49510   3.36334   12.177
 5660.00    3.58450   3.42889   11.923
 5661.00    3.62560   3.49075   11.807
 5662.00    3.62233   3.48566   11.816
 5663.00    3.68417   3.49817   11.732
 5664.00    3.75382   3.56485   11.570
 5665.00    3.76654   3.62326   11.486
 5666.00    3.73011   3.63336   11.519
 5667.00    3.68304   3.59891   11.590
 5668.00    3.68360   3.56920   11.621
 5669.00    3.69476   3.57184   11.603
 5670.00    3.70950   3.58925   11.540
 5671.00    3.75408   3.62384   11.445
 5672.00    3.82878   3.68076   11.334
 5673.00    3.90137   3.73389   11.223
 5674.00    3.91208   3.75347   11.191
 5675.00    3.88988   3.75539   11.223
 5676.00    3.91582   3.75832   11.211
 5677.00    3.95671   3.77050   11.185
 5678.00    3.92059   3.76781   11.220
 5679.00    3.89255   3.73875   11.272
 5680.00    3.86522   3.70045   11.332
 5681.00    3.79394   3.65866   11.445
 5682.00    3.72410   3.60657   11.584
 5683.00    3.73336   3.58298   11.644
 5684.00    3.76181   3.61700   11.601
 5685.00    3.76995   3.65594   11.540
 5686.00    3.75068   3.63879   11.563
 5687.00    3.71762   3.59554   11.679
 5688.00    3.74093   3.57472   11.752
 5689.00    3.80269   3.61005   -1.000
 5690.00    3.85329   3.68192   11.471
 5691.00    3.89484   3.74777   11.327
 5692.00    3.92212   3.79643   11.249
 5693.00    3.93017   3.80787   11.214
 5694.00    3.94784   3.79570   11.220
 5695.00    3.96376   3.77763   -1.000
 5696.00    3.92434   3.75974   11.256
 5697.00    3.86324   3.72621   11.344
 5698.00    3.81371   3.67828   11.473
 5699.00    3.77673   3.63681   11.585
 5700.00    3.76388   3.61015   11.701
 5701.00    3.71069   3.57829   11.779
 5702.00    3.65045   3.57130   11.731
 5703.00    3.67259   3.61365   11.613
 5704.00    3.69965   3.65278   11.554
 5705.00    3.66270   3.64720   11.604
 5706.00    3.60784   3.58844   11.746
 5707.00    3.57936   3.51257   11.954
 5708.00    3.54764   3.46136   12.154
 5709.00    3.53774   3.43034   12.259
 5710.00    3.54287   3.43430   12.256
 5711.00    3.55958   3.46826   12.155
 5712.00    3.63915   3.53073   11.939
 5713.00    3.78536   3.63043   11.652
 5714.00    3.90934   3.72324   -1.000
 5715.00    3.94447   3.76485   11.361
 5716.00    3.93565   3.79140   11.337
 5717.00    3.94412   3.80561   11.305
 5718.00    3.96798   3.81630   11.255
 5719.00    3.98896   3.83479   11.187
 5720.00    4.02558   3.86766   11.127
 5721.00    4.06909   3.90549   11.094
 5722.00    4.10494   3.93451   11.075
 5723.00    4.12225   3.95136   11.061
 5724.00    4.09639   3.94536   11.075
 5725.00    4.02184   3.89896   11.150
 5726.00    3.96352   3.82852   11.264
 5727.00    3.94897   3.78694   11.364
 5728.00    3.95809   3.79898   11.348
 5729.00    3.98819   3.84262   11.275
 5730.00    3.97833   3.85260   11.276
 5731.00    3.93618   3.82913   11.330
 5732.00    3.95906   3.82541   11.319
 5733.00    4.02047   3.87253   11.224
 5734.00    4.06228   3.93341   11.139
 5735.00    4.09094   3.94730   11.126
 5736.00    4.10143   3.92374   11.142
 5737.00    4.08063   3.89432   -1.000
 5738.00    4.05361   3.88152   11.186
 5739.00    4.04573   3.88977   11.204
 5740.00    4.03279   3.89530   11.224
 5741.00    4.01056   3.89317   11.247
 5742.00    3.99936   3.88381   11.236
 5743.00    4.02691   3.89383   11.218
 5744.00    4.07353   3.93573   11.158
 5745.00    4.09728   3.97266   11.088
 5746.00    4.07480   3.96577   11.113
 5747.00    4.00937   3.91135   11.214
 5748.00    3.99078   3.87294   11.280
 5749.00    4.04086   3.90594   11.244
 5750.00    4.06811   3.94969   11.195
 5751.00    4.04309   3.94193   11.247
 5752.00    3.98223   3.85553   11.375
 5753.00    3.93367   3.76106   -1.000
 5754.00    3.95153   3.75473   -1.000
 5755.00    4.02218   3.83563   -1.000
 5756.00    4.12294   3.95209   11.224
 5757.00    4.18516   4.02327   11.066
 5758.00    4.17177   4.02536   11.053
 5759.00    4.09844   3.96478   11.156
 5760.00    3.98330   3.86987   11.300
 5761.00    3.86631   3.78537   11.453
 5762.00    3.83545   3.74143   11.542
 5763.00    3.92189   3.77918   11.468
 5764.00    4.04409   3.88934   11.280
 5765.00    4.11385   3.99640   11.120
 5766.00    4.12373   4.03290   11.057
 5767.00    4.15139   4.04250   11.043
 5768.00    4.16572   4.04168   11.027
 5769.00    4.14912   4.02625   11.036
 5770.00    4.11307   4.00356   11.070
 5771.00    4.06737   3.98460   11.125
 5772.00    4.01226   3.96479   11.193
 5773.00    3.99097   3.95033   11.234
 5774.00    3.98218   3.93698   11.250
 5775.00    3.97843   3.93368   11.238
 5776.00    3.97316   3.95235   11.190
 5777.00    3.93329   3.96761   11.164
 5778.00    3.83761   3.94678   11.187
 5779.00    3.64962   3.87292   11.312
 5780.00    3.46644   3.76123   11.545
 5781.00    3.45198   3.66522   11.735
 5782.00    3.53394   3.62763   11.763
 5783.00    3.63943   3.64516   11.718
 5784.00    3.70994   3.65276   11.674
 5785.00    3.72886   3.65443   11.632
 5786.00    3.80096   3.71393   11.529
 5787.00    3.91043   3.81097   11.380
 5788.00    3.97872   3.87885   11.272
 5789.00    4.01896   3.90374   11.256
 5790.00    4.01546   3.88762   11.299
 5791.00    4.02119   3.87876   11.305
 5792.00    4.08178   3.91440   11.232
 5793.00    4.11429   3.99493   11.147
 5794.00    4.11612   4.07181   11.078
 5795.00    4.10963   4.09031   11.052
 5796.00    4.04359   4.05249   11.097
 5797.00    3.98383   3.98987   11.170
 5798.00    4.04504   3.97873   11.156
 5799.00    4.19452   4.03622   11.036
 5800.00    4.30620   4.12628   -1.000
 5801.00    4.30898   4.18945   10.819
 5802.00    4.26816   4.18182   10.878
 5803.00    4.25437   4.12320   10.970
 5804.00    4.23102   4.05393   -1.000
 5805.00    4.17748   4.02510   11.120
 5806.00    4.15139   4.03214   11.117
 5807.00    4.15739   4.05518   11.077
 5808.00    4.17053   4.07852   11.041
 5809.00    4.19567   4.09690   11.031
 5810.00    4.21853   4.11134   11.025
 5811.00    4.24602   4.11454   10.992
 5812.00    4.22659   4.10274   10.955
 5813.00    4.18876   4.07504   10.961
 5814.00    4.14367   4.02771   11.032
 5815.00    4.11516   3.97351   11.099
 5816.00    4.13803   3.95322   -1.000
 5817.00    4.18338   4.00494   11.000
 5818.00    4.25004   4.08896   10.935
 5819.00    4.31404   4.14574   10.880
 5820.00    4.33650   4.16292   10.838
 5821.00    4.29462   4.15140   10.839
 5822.00    4.25336   4.12512   10.873
 5823.00    4.24128   4.10499   10.873
 5824.00    4.27239   4.10949   10.853
 5825.00    4.30671   4.12425   -1.000
 5826.00    4.30308   4.14119   10.821
 5827.00    4.30526   4.15092   10.820
 5828.00    4.32421   4.16100   10.836
 5829.00    4.35277   4.17443   -1.000
 5830.00    4.35338   4.18273   10.823
 5831.00    4.34153   4.18026   10.815
 5832.00    4.34281   4.17001   10.824
 5833.00    4.33281   4.14891   -1.000
 5834.00    4.29019   4.12111   10.920
 5835.00    4.26110   4.10831   10.898
 5836.00    4.26802   4.12196   10.869
 5837.00    4.25427   4.12633   10.888
 5838.00    4.23453   4.11874   10.918
 5839.00    4.28264   4.13213   10.902
 5840.00    4.35551   4.16864   -1.000
 5841.00    4.37139   4.21025   10.767
 5842.00    4.36371   4.23479   10.752
 5843.00    4.35266   4.22478   10.780
 5844.00    4.29772   4.19275   10.821
 5845.00    4.24597   4.14566   10.884
 5846.00    4.22310   4.09903   10.946
 5847.00    4.18743   4.06397   10.999
 5848.00    4.17599   4.05347   11.008
 5849.00    4.19384   4.05865   11.013
 5850.00    4.18641   4.05750   11.064
 5851.00    4.13851   4.01898   11.133
 5852.00    4.09380   3.96198   11.230
 5853.00    4.07751   3.93279   11.304
 5854.00    4.07413   3.93884   11.332
 5855.00    4.07226   3.94057   11.345
 5856.00    4.03184   3.88086   11.428
 5857.00    3.97529   3.80118   11.543
 5858.00    3.97184   3.78532   -1.000
 5859.00    4.03358   3.84821   -1.000
 5860.00    4.11714   3.94022   11.278
 5861.00    4.18694   3.98576   -1.000
 5862.00    4.21347   3.98930   -1.000
 5863.00    4.21122   3.98605   -1.000
 5864.00    4.22121   3.98818   -1.000
 5865.00    4.22655   3.98035   -1.000
 5866.00    4.20931   3.95044   -1.000
 5867.00    4.20477   3.94182   -1.000
 5868.00    4.19430   3.99439   -1.000
 5869.00    4.20423   4.06110   11.091
 5870.00    4.20460   4.09390   11.030
 5871.00    4.20678   4.09405   11.015
 5872.00    4.22324   4.07092   11.036
 5873.00    4.22322   4.05265   11.048
 5874.00    4.21970   4.04729   11.036
 5875.00    4.19972   4.05315   11.052
 5876.00    4.17142   4.04408   11.097
 5877.00    4.17166   4.01013   11.124
 5878.00    4.18321   3.96445   -1.000
 5879.00    4.17974   3.91994   -1.000
 5880.00    4.14403   3.89437   -1.000
 5881.00    4.10374   3.89984   -1.000
 5882.00    4.10163   3.92252   11.255
 5883.00    4.09727   3.91476   11.290
 5884.00    4.12314   3.89193   -1.000
 5885.00    4.14325   3.88363   -1.000
 5886.00    4.11736   3.82404   -1.000
 5887.00    4.04439   3.61572   -1.000
 5888.00    3.98941   3.23730   -1.000
 5889.00    3.99155   2.85352   -1.000
 5890.00    3.72127   2.71384   -1.000
 5891.00    2.83683   2.86279   13.512
 5892.00    1.96703   3.13806   -1.000
 5893.00    2.01106   3.28085   -1.000
 5894.00    2.68216   3.18982   -1.000
 5895.00    3.27843   3.00147   -1.000
 5896.00    3.46734   2.93982   -1.000
 5897.00    3.18950   3.14648   12.800
 5898.00    2.83939   3.41943   -1.000
 5899.00    2.96850   3.59784   -1.000
 5900.00    3.48708   3.72980   11.688
 5901.00    3.90531   3.82626   11.464
 5902.00    4.06917   3.88593   11.359
 5903.00    4.11974   3.91832   -1.000
 5904.00    4.15803   3.92313   -1.000
 5905.00    4.16618   3.91787   -1.000
 5906.00    4.14653   3.91917   -1.000
 5907.00    4.13285   3.94446   11.331
 5908.00    4.12651   3.97759   11.305
 5909.00    4.14618   3.99913   11.324
 5910.00    4.18857   4.01791   11.351
 5911.00    4.20275   4.02078   11.362
 5912.00    4.18646   3.98849   -1.000
 5913.00    4.14925   3.92099   -1.000
 5914.00    4.09813   3.85608   -1.000
 5915.00    4.07780   3.83395   -1.000
 5916.00    4.06763   3.86063   -1.000
 5917.00    4.04934   3.91168   11.539
 5918.00    4.06657   3.96967   11.494
 5919.00    4.13433   4.00648   11.460
 5920.00    4.17478   4.01765   11.423
 5921.00    4.18740   4.00407   11.411
 5922.00    4.19065   3.98499   -1.000
 5923.00    4.15401   3.98676   11.394
 5924.00    4.16807   4.01291   11.352
 5925.00    4.21317   4.04617   11.328
 5926.00    4.22059   4.06850   11.316
 5927.00    4.18446   4.06148   11.329
 5928.00    4.12818   4.01917   11.394
 5929.00    4.10333   3.97601   11.484
 5930.00    4.14413   3.97014   11.505
 5931.00    4.23445   4.01669   -1.000
 5932.00    4.30115   4.05519   -1.000
 5933.00    4.28474   4.03856   -1.000
 5934.00    4.18976   4.00269   -1.000
 5935.00    4.12469   3.99609   11.511
 5936.00    4.14446   4.04166   11.463
 5937.00    4.20489   4.09264   11.369
 5938.00    4.24545   4.11114   11.308
 5939.00    4.25219   4.09903   11.327
 5940.00    4.20484   4.05417   11.424
 5941.00    4.16886   4.00427   11.508
 5942.00    4.20676   3.99081   -1.000
 5943.00    4.25844   4.03378   -1.000
 5944.00    4.28796   4.09222   -1.000
 5945.00    4.32595   4.12719   -1.000
 5946.00    4.32173   4.12729   -1.000
 5947.00    4.24454   4.08807   11.439
 5948.00    4.17946   4.03369   11.558
 5949.00    4.17547   4.01128   11.614
 5950.00    4.20801   4.03513   11.576
 5951.00    4.25677   4.04260   -1.000
 5952.00    4.26279   4.02586   -1.000
 5953.00    4.23533   4.02045   -1.000
 5954.00    4.21296   4.03928   11.519
 5955.00    4.18576   4.04347   11.514
 5956.00    4.12965   4.01372   11.549
 5957.00    4.11103   3.98957   11.577
 5958.00    4.15582   4.01559   11.549
 5959.00    4.22088   4.07806   11.440
 5960.00    4.27727   4.13913   11.319
 5961.00    4.31073   4.18063   11.257
 5962.00    4.32018   4.18772   11.237
 5963.00    4.30707   4.17450   11.253
 5964.00    4.26682   4.14684   11.306
 5965.00    4.25545   4.11693   11.353
 5966.00    4.28354   4.11189   11.392
 5967.00    4.31186   4.14767   11.387
 5968.00    4.34392   4.18599   11.315
 5969.00    4.37381   4.20659   11.266
 5970.00    4.39700   4.22494   -1.000
 5971.00    4.40528   4.23855   11.242
 5972.00    4.37120   4.23467   11.225
 5973.00    4.31701   4.21480   11.264
 5974.00    4.28765   4.17651   11.349
 5975.00    4.28141   4.11749   11.437
 5976.00    4.28026   4.06552   -1.000
 5977.00    4.25390   4.04527   -1.000
 5978.00    4.21683   4.05933   11.560
 5979.00    4.21787   4.10834   11.470
 5980.00    4.27315   4.15622   11.408
 5981.00    4.30395   4.16695   11.417
 5982.00    4.25573   4.11633   11.493
 5983.00    4.16933   4.03848   11.595
 5984.00    4.12497   3.99496   11.666
 5985.00    4.17668   4.02255   11.653
 5986.00    4.26356   4.09805   -1.000
 5987.00    4.32426   4.14868   -1.000
 5988.00    4.34152   4.17500   -1.000
 5989.00    4.33701   4.19160   11.368
 5990.00    4.32453   4.19384   11.362
 5991.00    4.30071   4.19380   11.390
 5992.00    4.31896   4.22531   11.359
 5993.00    4.36178   4.28278   11.271
 5994.00    4.38350   4.31355   11.219
 5995.00    4.39601   4.29071   11.266
 5996.00    4.35567   4.22525   11.350
 5997.00    4.29580   4.17012   11.408
 5998.00    4.29403   4.15745   11.439
 5999.00    4.30509   4.17687   11.431
 6000.00    4.31847   4.19492   11.430
 6001.00    4.32908   4.19386   11.482
 6002.00    4.32980   4.17447   11.533
 6003.00    4.34145   4.16502   -1.000
 6004.00    4.33980   4.18834   11.515
 6005.00    4.27386   4.19418   11.509
 6006.00    4.18254   4.13641   11.571
 6007.00    4.14787   4.06418   11.681
 6008.00    4.16483   4.05229   11.719
 6009.00    4.19592   4.12683   11.619
 6010.00    4.23300   4.21582   11.489
 6011.00    4.26498   4.22380   11.456
 6012.00    4.23230   4.18042   11.525
 6013.00    4.20953   4.14421   11.598
 6014.00    4.27345   4.14714   11.576
 6015.00    4.32114   4.16900   11.550
 6016.00    4.30573   4.15675   11.589
 6017.00    4.28956   4.14062   11.622
 6018.00    4.27517   4.14827   11.607
 6019.00    4.24381   4.13921   11.619
 6020.00    4.23467   4.12177   11.685
 6021.00    4.26523   4.13336   11.680
 6022.00    4.31658   4.16263   -1.000
 6023.00    4.37091   4.19133   -1.000
 6024.00    4.39885   4.22270   -1.000
 6025.00    4.39327   4.25978   11.495
 6026.00    4.41492   4.29271   11.446
 6027.00    4.46731   4.31879   11.388
 6028.00    4.50847   4.35321   -1.000
 6029.00    4.52014   4.37952   11.304
 6030.00    4.50771   4.38018   11.303
 6031.00    4.53649   4.38217   -1.000
 6032.00    4.58581   4.39857   -1.000
 6033.00    4.58878   4.42473   -1.000
 6034.00    4.57775   4.45214   11.238
 6035.00    4.55323   4.46062   11.227
 6036.00    4.49362   4.45105   11.212
 6037.00    4.44555   4.43350   11.213
 6038.00    4.44895   4.41335   11.262
 6039.00    4.44895   4.39476   11.301
 6040.00    4.41308   4.38469   11.330
 6041.00    4.43743   4.38462   11.326
 6042.00    4.51111   4.38553   11.305
 6043.00    4.56071   4.41449   11.261
 6044.00    4.61288   4.46712   11.179
 6045.00    4.64151   4.49856   11.153
 6046.00    4.61782   4.51102   11.163
 6047.00    4.58616   4.51393   11.150
 6048.00    4.58011   4.51328   11.151
 6049.00    4.58741   4.51173   11.183
 6050.00    4.59043   4.51796   11.213
 6051.00    4.58578   4.51446   11.227
 6052.00    4.59221   4.48059   11.245
 6053.00    4.58038   4.43781   11.284
 6054.00    4.53550   4.40684   11.323
 6055.00    4.50821   4.37364   11.376
 6056.00    4.47468   4.34948   11.422
 6057.00    4.46597   4.35922   11.418
 6058.00    4.52259   4.39349   11.368
 6059.00    4.57770   4.43726   11.307
 6060.00    4.60318   4.46335   11.298
 6061.00    4.59651   4.44907   -1.000
 6062.00    4.53109   4.39539   11.441
 6063.00    4.43300   4.31955   11.654
 6064.00    4.33937   4.25818   11.464
 6065.00    4.29462   4.25024   15.006
 6066.00    4.42533   4.32990    5.154
 6067.00    4.21647   4.44238    5.903
 6068.00    2.63177   4.52277   -1.000
 6069.00    2.31763   4.55572   -1.000
 6070.00    3.77435   4.57149   -1.000
 6071.00    4.68325   4.58457   10.914
 6072.00    4.23059   4.58482   11.033
 6073.00    2.13974   4.57376   -1.000
 6074.00    2.60755   4.57018   -1.000
 6075.00    4.34642   4.55383   11.232
 6076.00    4.66645   4.51428   -1.000
 6077.00    4.58671   4.46066   11.349
 6078.00    4.49856   4.41296   11.430
 6079.00    4.44398   4.39182   11.507
 6080.00    4.46969   4.37736   11.533
 6081.00    4.50177   4.34822   -1.000
 6082.00    4.48028   4.33437   -1.000
 6083.00    4.45624   4.35762   11.577
 6084.00    4.49241   4.38097   11.569
 6085.00    4.50335   4.39629   11.558
 6086.00    4.49613   4.41971   11.531
 6087.00    4.53831   4.43766   11.488
 6088.00    4.55087   4.42763   11.487
 6089.00    4.48649   4.38556   11.545
 6090.00    4.45804   4.34058   11.603
 6091.00    4.48354   4.33285   -1.000
 6092.00    4.51945   4.35846   -1.000
 6093.00    4.56259   4.40326   -1.000
 6094.00    4.61142   4.45421   -1.000
 6095.00    4.65411   4.48474   -1.000
 6096.00    4.64935   4.48844   -1.000
 6097.00    4.62560   4.48892   -1.000
 6098.00    4.62075   4.51517   11.402
 6099.00    4.61408   4.52274   11.404
 6100.00    4.56374   4.45520   11.495
 6101.00    4.44064   4.30872   11.736
 6102.00    4.32350   4.16788   -1.000
 6103.00    4.31999   4.17511   -1.000
 6104.00    4.42574   4.29150   11.771
 6105.00    4.55844   4.39709   -1.000
 6106.00    4.62847   4.44946   -1.000
 6107.00    4.61119   4.46349   -1.000
 6108.00    4.58273   4.48663   11.550
 6109.00    4.58866   4.51158   11.555
 6110.00    4.58629   4.50484   11.535
 6111.00    4.57795   4.49278   11.492
 6112.00    4.57873   4.51675   11.472
 6113.00    4.60651   4.55922   11.433
 6114.00    4.63276   4.58190   11.391
 6115.00    4.62515   4.55765   11.413
 6116.00    4.61463   4.52566   11.482
 6117.00    4.59617   4.52244   11.519
 6118.00    4.56135   4.49142   11.558
 6119.00    4.49191   4.40430   11.691
 6120.00    4.40432   4.27747   11.855
 6121.00    4.33046   4.16608   -1.000
 6122.00    4.34298   4.17261   -1.000
 6123.00    4.46544   4.28332   -1.000
 6124.00    4.55167   4.39417   -1.000
 6125.00    4.55604   4.43777   11.665
 6126.00    4.53844   4.42976   11.716
 6127.00    4.51966   4.41115   11.732
 6128.00    4.52021   4.41615   11.706
 6129.00    4.57036   4.47772   11.634
 6130.00    4.63472   4.55801   11.525
 6131.00    4.68317   4.60970   11.472
 6132.00    4.68035   4.61046   11.483
 6133.00    4.63221   4.54364   11.564
 6134.00    4.52635   4.39368   11.778
 6135.00    4.35285   4.18115   -1.000
 6136.00    4.19990   4.02106   -1.000
 6137.00    4.16863   4.04486   12.562
 6138.00    4.29633   4.21667   12.351
 6139.00    4.48688   4.37848   12.000
 6140.00    4.56881   4.44070   11.797
 6141.00    4.57568   4.42445   -1.000
 6142.00    4.61814   4.45688   -1.000
 6143.00    4.67991   4.53571   -1.000
 6144.00    4.68583   4.59079   11.588
 6145.00    4.66597   4.60240   11.529
 6146.00    4.62411   4.57784   11.565
 6147.00    4.52572   4.52344   11.634
 6148.00    4.44957   4.45731   11.716
 6149.00    4.44371   4.41539   11.790
 6150.00    4.44612   4.41216   11.813
 6151.00    4.46610   4.45221   11.782
 6152.00    4.49679   4.48877   11.711
 6153.00    4.48725   4.47832   11.672
 6154.00    4.44801   4.43469   11.736
 6155.00    4.43042   4.40119   11.815
 6156.00    4.41300   4.39234   11.838
 6157.00    4.35820   4.37529   11.872
 6158.00    4.27717   4.32498   11.974
 6159.00    4.16297   4.19751   12.172
 6160.00    4.01395   3.99658   12.500
 6161.00    3.89167   3.79822   12.876
 6162.00    3.83655   3.71089   13.084
 6163.00    3.85773   3.79120   12.985
 6164.00    3.97022   3.94171   12.667
 6165.00    4.09404   4.07703   12.414
 6166.00    4.16309   4.15173   12.323
 6167.00    4.15844   4.15112   12.332
 6168.00    4.10388   4.06714   12.453
 6169.00    4.04986   3.99463   12.598
 6170.00    4.08286   4.02277   12.577
 6171.00    4.13743   4.13446   12.372
 6172.00    4.15635   4.23215   12.171
 6173.00    4.18088   4.25979   12.125
 6174.00    4.21110   4.26735   12.144
 6175.00    4.23450   4.26999   12.126
 6176.00    4.23516   4.27358   12.099
 6177.00    4.23552   4.29762   12.070
 6178.00    4.27035   4.33543   12.019
 6179.00    4.28467   4.36200   11.968
 6180.00    4.26818   4.37946   11.930
 6181.00    4.31779   4.40755   11.880
 6182.00    4.38541   4.42504   11.840
 6183.00    4.37906   4.41411   11.848
 6184.00    4.34508   4.37872   11.886
 6185.00    4.30023   4.32141   11.964
 6186.00    4.22509   4.25436   12.086
 6187.00    4.17583   4.20607   12.215
 6188.00    4.15721   4.17091   12.334
 6189.00    4.13947   4.11499   12.432
 6190.00    4.09528   4.02979   12.570
 6191.00    4.07493   3.99295   12.683
 6192.00    4.12952   4.06427   12.610
 6193.00    4.22239   4.18115   12.342
 6194.00    4.29064   4.27704   12.098
 6195.00    4.30660   4.33575   11.989
 6196.00    4.30225   4.36669   11.958
 6197.00    4.29230   4.34799   12.007
 6198.00    4.26633   4.28204   12.131
 6199.00    4.21578   4.22529   12.247
 6200.00    4.20489   4.24869   12.270
 6201.00    4.24032   4.31912   12.177
 6202.00    4.26219   4.38165   12.028
 6203.00    4.27001   4.42071   11.955
 6204.00    4.27529   4.43143   11.951
 6205.00    4.30060   4.43893   11.939
 6206.00    4.35187   4.44941   11.930
 6207.00    4.39614   4.46139   11.962
 6208.00    4.41688   4.46058   11.980
 6209.00    4.40992   4.43408   12.011
 6210.00    4.37521   4.38925   12.106
 6211.00    4.29911   4.32526   12.209
 6212.00    4.19907   4.22705   12.319
 6213.00    4.13610   4.11951   12.487
 6214.00    4.14823   4.05516   12.638
 6215.00    4.32574   4.04619   -1.000
 6216.00    4.62317   4.08423   -1.000
 6217.00    4.65648   4.12740   -1.000
 6218.00    4.54241   4.13647   -1.000
 6219.00    4.51020   4.11142   -1.000
 6220.00    4.46765   4.11002   -1.000
 6221.00    4.68696   4.13944   -1.000
 6222.00    4.76681   4.15935   -1.000
 6223.00    4.45223   4.16482   -1.000
 6224.00    3.89468   4.17623   12.567
 6225.00    3.48324   4.19473   -1.000
 6226.00    3.87694   4.21109   -1.000
 6227.00    4.22693   4.19794   12.422
 6228.00    4.17142   4.13275   12.562
 6229.00    4.10422   4.01849   12.764
 6230.00    4.04471   3.92664   12.945
 6231.00    4.06797   3.93390   12.961
 6232.00    4.16058   4.01892   12.807
 6233.00    4.28528   4.14166   12.579
 6234.00    4.40937   4.25623   12.360
 6235.00    4.44511   4.31691   12.257
 6236.00    4.38778   4.30038   12.299
 6237.00    4.26376   4.24084   12.416
 6238.00    4.12338   4.16983   12.544
 6239.00    4.04488   4.11322   12.675
 6240.00    4.05613   4.08693   12.757
 6241.00    4.07660   4.08063   12.767
 6242.00    4.05162   4.05840   12.824
 6243.00    4.00932   4.02724   12.918
 6244.00    4.02886   4.02722   12.940
 6245.00    4.08691   4.06046   12.878
 6246.00    4.12023   4.13031   12.763
 6247.00    4.20855   4.22385   12.610
 6248.00    4.29127   4.28812   12.467
 6249.00    4.28966   4.30377   12.416
 6250.00    4.23452   4.26447   12.493
 6251.00    4.17135   4.17731   12.691
 6252.00    4.12986   4.09286   12.881
 6253.00    4.08106   4.06819   12.988
 6254.00    4.05556   4.07386   13.039
 6255.00    4.06534   4.06573   13.046
 6256.00    4.07968   4.01575   13.120
 6257.00    4.09007   3.96336   13.245
 6258.00    4.09590   3.97577   13.247
 6259.00    4.10105   4.04694   13.088
 6260.00    4.11014   4.15149   12.885
 6261.00    4.14673   4.26288   12.705
 6262.00    4.23202   4.34692   12.517
 6263.00    4.32493   4.37120   12.407
 6264.00    4.32623   4.34651   12.457
 6265.00    4.29894   4.31856   12.553
 6266.00    4.31399   4.32193   12.543
 6267.00    4.28923   4.33934   12.457
 6268.00    4.21799   4.33527   12.453
 6269.00    4.19275   4.32736   12.517
 6270.00    4.22644   4.34476   12.528
 6271.00    4.30208   4.37979   12.490
 6272.00    4.34854   4.40495   12.455
 6273.00    4.32963   4.40147   12.467
 6274.00    4.30139   4.36786   12.541
 6275.00    4.26663   4.32529   12.641
 6276.00    4.20571   4.28036   12.809
 6277.00    4.11558   4.23602   13.097
 6278.00    4.00631   4.19421   13.374
 6279.00    3.88576   4.16116   13.508
 6280.00    3.81251   4.15991   -1.000
 6281.00    3.76133   4.19910   -1.000
 6282.00    3.70427   4.27216   -1.000
 6283.00    3.69630   4.34753   -1.000
 6284.00    3.75981   4.39992   -1.000
 6285.00    3.90357   4.44537   -1.000
 6286.00    4.08607   4.49368   -1.000
 6287.00    4.25638   4.53949   12.398
 6288.00    4.37110   4.56203   12.353
 6289.00    4.37484   4.53772   12.389
 6290.00    4.29836   4.48651   12.485
 6291.00    4.27813   4.43634   12.584
 6292.00    4.31417   4.40887   12.633
 6293.00    4.34756   4.40130   12.647
 6294.00    4.36016   4.39631   12.666
 6295.00    4.35021   4.35226   12.738
 6296.00    4.32583   4.28867   12.831
 6297.00    4.31423   4.28027   12.872
 6298.00    4.35321   4.31702   12.864
 6299.00    4.38902   4.33860   12.821
 6300.00    4.35445   4.32712   12.763
 6301.00    4.26607   4.29849   12.812
 6302.00    4.19324   4.30798   12.954
 6303.00    4.21110   4.35410   12.938
 6304.00    4.32009   4.39990   12.755
 6305.00    4.43987   4.44397   12.579
 6306.00    4.54556   4.50388   12.457
 6307.00    4.57822   4.57083   12.348
 6308.00    4.51285   4.60670   12.294
 6309.00    4.40318   4.58478   12.326
 6310.00    4.31701   4.54028   12.403
 6311.00    4.32483   4.50705   12.465
 6312.00    4.40159   4.49148   12.513
 6313.00    4.43070   4.47710   12.539
 6314.00    4.38222   4.44095   12.616
 6315.00    4.31245   4.40861   12.693
 6316.00    4.29020   4.38885   12.699
 6317.00    4.29444   4.36389   12.686
 6318.00    4.32386   4.36032   12.693
 6319.00    4.38816   4.41833   12.671
 6320.00    4.48314   4.49496   12.553
 6321.00    4.56910   4.53680   12.415
 6322.00    4.56364   4.57046   12.342
 6323.00    4.51559   4.61374   12.302
 6324.00    4.52544   4.64708   12.245
 6325.00    4.59530   4.65475   12.195
 6326.00    4.66513   4.65493   12.178
 6327.00    4.71227   4.66270   12.138
 6328.00    4.73733   4.67646   12.120
 6329.00    4.74208   4.68121   12.134
 6330.00    4.72488   4.68289   12.142
 6331.00    4.65905   4.71735   12.117
 6332.00    4.58056   4.74670   12.085
 6333.00    4.54264   4.70807   12.100
 6334.00    4.49714   4.61182   12.134
 6335.00    4.46595   4.51340   12.323
 6336.00    4.43791   4.49173   12.461
 6337.00    4.48051   4.54031   12.391
 6338.00    4.57273   4.60352   12.268
 6339.00    4.61515   4.66989   12.136
 6340.00    4.66940   4.71527   12.049
 6341.00    4.69571   4.71027   11.993
 6342.00    4.65916   4.65823   11.977
 6343.00    4.60986   4.59232   12.052
 6344.00    4.58485   4.56892   12.108
 6345.00    4.63169   4.62149   12.088
 6346.00    4.72622   4.69403   12.033
 6347.00    4.76643   4.75635   11.954
 6348.00    4.76381   4.80151   11.894
 6349.00    4.76982   4.82597   11.880
 6350.00    4.75386   4.83115   11.867
 6351.00    4.71623   4.81824   11.863
 6352.00    4.70523   4.78348   11.901
 6353.00    4.69874   4.72125   11.956
 6354.00    4.67038   4.66006   12.063
 6355.00    4.63837   4.64007   12.184
 6356.00    4.63411   4.62463   12.225
 6357.00    4.58785   4.57141   12.245
 6358.00    4.47747   4.50220   12.348
 6359.00    4.39029   4.45335   12.439
 6360.00    4.35767   4.42387   12.423
 6361.00    4.38556   4.40652   12.375
 6362.00    4.41960   4.41591   12.354
 6363.00    4.47158   4.46191   12.324
 6364.00    4.55208   4.53058   12.255
 6365.00    4.58948   4.60391   12.174
 6366.00    4.59770   4.67526   12.104
 6367.00    4.65226   4.74442   12.032
 6368.00    4.75756   4.79183   11.953
 6369.00    4.81629   4.80275   11.903
 6370.00    4.82440   4.81499   11.899
 6371.00    4.83691   4.84184   11.879
 6372.00    4.85799   4.87645   11.832
 6373.00    4.87063   4.89656   11.834
 6374.00    4.85890   4.89509   11.855
 6375.00    4.83305   4.89132   11.873
 6376.00    4.78384   4.88094   11.911
 6377.00    4.74033   4.83441   11.967
 6378.00    4.74703   4.77599   12.041
 6379.00    4.76702   4.74840   12.102
 6380.00    4.75874   4.74675   12.123
 6381.00    4.74723   4.76736   12.139
 6382.00    4.75573   4.79225   12.147
 6383.00    4.77173   4.80695   12.124
 6384.00    4.77556   4.81062   12.145
 6385.00    4.82457   4.82672   12.188
 6386.00    4.87242   4.85184   12.191
 6387.00    4.83953   4.86514   12.208
 6388.00    4.81588   4.86911   12.249
 6389.00    4.77802   4.86915   12.327
 6390.00    4.70183   4.84201   12.428
 6391.00    4.63993   4.76447   12.553
 6392.00    4.55824   4.66571   12.729
 6393.00    4.51330   4.61808   12.872
 6394.00    4.57833   4.68530   12.886
 6395.00    4.65010   4.80713   12.745
 6396.00    4.65084   4.88324   12.652
 6397.00    4.63004   4.87448   12.700
 6398.00    4.60218   4.77405   12.852
 6399.00    4.52797   4.66327   13.114
 6400.00    4.45853   4.64359   13.295
 6401.00    4.49690   4.75464   13.240
 6402.00    4.59907   4.89209   13.047
 6403.00    4.64890   4.96860   12.924
 6404.00    4.63567   4.98393   12.927
 6405.00    4.58406   4.94232   12.988
 6406.00    4.51644   4.86993   13.132
 6407.00    4.44408   4.81396   13.336
 6408.00    4.40827   4.81949   -1.000
 6409.00    4.40525   4.84346   -1.000
 6410.00    4.38412   4.83401   -1.000
 6411.00    4.35868   4.80020   -1.000
 6412.00    4.34440   4.79063   -1.000
 6413.00    4.32024   4.81755   -1.000
 6414.00    4.27822   4.85657   -1.000
 6415.00    4.26116   4.89796   -1.000
 6416.00    4.25801   4.91838   -1.000
 6417.00    4.20344   4.89709   -1.000
 6418.00    4.13620   4.83093   -1.000
 6419.00    4.08165   4.74762   -1.000
 6420.00    4.02260   4.70364   -1.000
 6421.00    3.98994   4.74786   -1.000
 6422.00    3.99844   4.85510   -1.000
 6423.00    4.04257   4.93802   -1.000
 6424.00    4.06221   4.98492   -1.000
 6425.00    4.03222   5.01373   -1.000
 6426.00    4.01260   5.03906   -1.000
 6427.00    4.00205   5.03847   -1.000
 6428.00    3.95070   4.96515   -1.000
