###################################################################
## OUTPUT of StarlightChains_v04.for    [Cid@UFSC - 01/Apr/2007] ##
###################################################################

## Some input info
NGC6316_a_1.cxt                          [arq_obs]
Base.BC03.S                              [arq_base]
NGC6316_a_1.msk                          [arq_masks]
StCv04.C11.config                        [arq_config]
  150                                    [N_base]
    0                                    [N_YAV_components = # of components with extra extinction!]
    0                                    [i_FitPowerLaw (1/0 = Yes/No)]
-9.99                                    [alpha_PowerLaw]
CCM                                      [red_law_option]
 1.458241                                [q_norm = A(l_norm)/A(V)]

## (Re)Sampling Parameters
 3359.00                                 [l_ini (A)]
 6428.00                                 [l_fin (A)]
    1.00                                 [dl    (A)]     (OBS: dl_cushion =    50.00 A)

## Normalization info
 4020.00                                 [l_norm (A) - for base]
 4010.00                                 [llow_norm (A) - window for f_obs]
 4060.00                                 [lupp_norm (A) - window for f_obs]
3.447620E-15                             [fobs_norm (in input units)]

## S/N
 4730.00                                 [llow_SN (A) - window for S/N]
 4780.00                                 [lupp_SN (A) - window for S/N]
  41.849                                 [S/N in S/N window]
  23.735                                 [S/N in norm. window]
 229.586                                 [S/N_err in S/N window]
 130.210                                 [S/N_err in norm. window]
  1.0000                                 [fscale_chi2]

## etc...
  2147483618                             [idum_orig]
  3065                                   [NOl_eff]
   579                                   [Nl_eff]
  2486    NSIGMA                         [Ntot_cliped & clip_method]
  3006990                                [Nglobal_steps]
   7                                     [N_chains]
  42                                     [NEX0s_base = N_base in EX0s-fits]
 0   0   1      227   2.0   2.812E+02    [Clip-Bug, RC-Crash & Burn-In warning-flags, n_censored_weights, wei_nsig_threshold & wei_limit]
   113    113.183    113.175      0.008  [idt_all, wdt_TotTime, wdt_UsrTime & wdt_SysTime (sec)]

## Synthesis Results - Best model ##

 2.72155E+00                             [chi2/Nl_eff]
     1.82328                             [adev (%)]

   100.64227                             [sum-of-x (%)]
 3.84310E-14                             [Flux_tot (units of input spectrum!)]
 2.19500E-09                             [Mini_tot (???)]
 1.10026E-09                             [Mcor_tot (???)]

 -28.02                                  [v0_min  (km/s)]
  57.87                                  [vd_min  (km/s)]
 1.7905                                  [AV_min  (mag)]
 0.0000                                  [YAV_min (mag)]

# j     x_j(%)      Mini_j(%)     Mcor_j(%)     age_j(yr)     Z_j      (L/M)_j    YAV?  Mstars   component_j        a/Fe...       SSP_chi2r SSP_adev(%)   SSP_AV   SSP_x(%)
  1      1.4566     3.1054E-03    6.1953E-03    1.000000E+06  0.00010  8.160E-03    0   1.0000   age020_m22            0.0000     6.3606E+03    45.4039   4.0000   105.7390
  2      1.4650     5.3555E-04    1.0684E-03    3.160000E+06  0.00010  4.759E-02    0   1.0000   age045_m22            0.0000     2.2876E+02     7.5761   3.6919    98.2575
  3     10.1042     9.0983E-03    1.7392E-02    5.010000E+06  0.00010  1.932E-02    0   0.9582   age055_m22            0.0000     3.3262E+02    12.4095   3.8776    87.8657
  4      2.9281     5.1077E-03    9.4734E-03    6.610000E+06  0.00010  9.973E-03    0   0.9297   age061_m22            0.0000     6.2012E+03    44.5432   4.0000   108.6888
  5      1.7022     3.8507E-03    6.9369E-03    8.710000E+06  0.00010  7.690E-03    0   0.9030   age067_m22            0.0000     6.1240E+03    44.1574   4.0000   109.1906
  6      0.6424     1.7531E-03    3.1134E-03    1.000000E+07  0.00010  6.375E-03    0   0.8902   age070_m22            0.0000     6.1835E+03    44.0763   4.0000   109.4604
  7      0.0000     0.0000E+00    0.0000E+00    1.445000E+07  0.00010  4.874E-03    0   0.8589   age078_m22            0.0000     4.9677E+03    39.9307   4.0000   111.8793
  8      0.0000     0.0000E+00    0.0000E+00    2.512000E+07  0.00010  4.103E-03    0   0.8174   age090_m22            0.0000     2.8173E+03    29.5555   4.0000   114.8202
  9      0.6081     2.8950E-03    4.5222E-03    4.000000E+07  0.00010  3.654E-03    0   0.7830   age104_m22            0.0000     1.8165E+03    20.8975   4.0000   114.9895
 10      0.0000     0.0000E+00    0.0000E+00    5.500000E+07  0.00010  3.093E-03    0   0.7597   age110_m22            0.0000     1.5634E+03    18.2296   4.0000   114.6329
 11      0.3369     2.4112E-03    3.4336E-03    1.015200E+08  0.00010  2.431E-03    0   0.7138   age116_m22            0.0000     8.6374E+02    14.4937   4.0000   109.4548
 12      0.0534     7.0481E-04    9.5262E-04    1.609000E+08  0.00010  1.319E-03    0   0.6775   age120_m22            0.0000     5.2475E+02    12.5872   3.9210   100.5039
 13      0.0000     0.0000E+00    0.0000E+00    2.861200E+08  0.00010  1.075E-03    0   0.6412   age125_m22            0.0000     9.2581E+02    17.2759   4.0000   103.7257
 14      0.0000     0.0000E+00    0.0000E+00    5.088000E+08  0.00010  7.183E-04    0   0.6083   age130_m22            0.0000     1.0470E+03    18.3758   3.8493   103.0618
 15      0.0000     0.0000E+00    0.0000E+00    9.047900E+08  0.00010  4.524E-04    0   0.5785   age135_m22            0.0000     1.0616E+03    18.6644   3.6536   104.0774
 16      0.0000     0.0000E+00    0.0000E+00    1.278050E+09  0.00010  3.018E-04    0   0.5588   age138_m22            0.0000     6.8720E+02    15.0900   3.0711   103.9378
 17      0.0000     0.0000E+00    0.0000E+00    1.434000E+09  0.00010  2.691E-04    0   0.5532   age139_m22            0.0000     6.1611E+02    14.3398   2.9046   103.7503
 18      0.0000     0.0000E+00    0.0000E+00    2.500000E+09  0.00010  1.582E-04    0   0.5296   age150_m22            0.0000     5.7313E+02    13.9687   2.7790   104.7181
 19      0.0000     0.0000E+00    0.0000E+00    4.250000E+09  0.00010  1.007E-04    0   0.5110   age158_m22            0.0000     4.2717E+02    12.0481   2.6031   103.8123
 20      0.0000     0.0000E+00    0.0000E+00    6.250000E+09  0.00010  6.869E-05    0   0.4985   age166_m22            0.0000     3.0273E+02     9.9895   2.5159   101.9769
 21      0.0000     0.0000E+00    0.0000E+00    7.500000E+09  0.00010  5.873E-05    0   0.4931   age171_m22            0.0000     2.8661E+02     9.6774   2.4967   101.6046
 22      0.0000     0.0000E+00    0.0000E+00    1.000000E+10  0.00010  4.481E-05    0   0.4854   age181_m22            0.0000     2.8113E+02     9.5702   2.4583   101.2637
 23      0.0070     3.4763E-03    3.3226E-03    1.300000E+10  0.00010  3.489E-05    0   0.4791   age193_m22            0.0000     2.6694E+02     9.2922   2.4013   100.7789
 24      0.0000     0.0000E+00    0.0000E+00    1.500000E+10  0.00010  3.035E-05    0   0.4766   age201_m22            0.0000     2.5736E+02     9.1107   2.3592   100.7076
 25      0.0000     0.0000E+00    0.0000E+00    1.800000E+10  0.00010  2.510E-05    0   0.4735   age213_m22            0.0000     2.3495E+02     8.6618   2.2861   100.2847
 26      1.1193     2.3023E-03    4.5929E-03    1.000000E+06  0.00040  8.458E-03    0   1.0000   age020_m32            0.0000     6.4711E+03    45.4485   4.0000   106.5247
 27      0.0000     0.0000E+00    0.0000E+00    3.160000E+06  0.00040  3.973E-02    0   1.0000   age045_m32            0.0000     2.3316E+03    27.5893   4.0000   113.2681
 28      0.8884     7.9869E-04    1.5188E-03    5.010000E+06  0.00040  1.935E-02    0   0.9532   age055_m32            0.0000     3.4018E+03    35.2116   4.0000   109.5155
 29      0.7952     1.1491E-03    2.1188E-03    6.610000E+06  0.00040  1.204E-02    0   0.9243   age061_m32            0.0000     5.2394E+03    41.5435   4.0000   110.3159
 30      1.3042     2.4052E-03    4.3189E-03    8.710000E+06  0.00040  9.433E-03    0   0.9001   age067_m32            0.0000     5.0387E+03    40.6148   4.0000   111.2066
 31      0.0000     0.0000E+00    0.0000E+00    1.000000E+07  0.00040  8.053E-03    0   0.8877   age070_m32            0.0000     4.8112E+03    39.7997   4.0000   111.4851
 32      0.0000     0.0000E+00    0.0000E+00    1.445000E+07  0.00040  7.027E-03    0   0.8578   age078_m32            0.0000     2.1266E+03    27.5207   4.0000   110.9003
 33      0.0000     0.0000E+00    0.0000E+00    2.512000E+07  0.00040  4.707E-03    0   0.8166   age090_m32            0.0000     1.1593E+03    19.2975   4.0000   109.5953
 34      0.0000     0.0000E+00    0.0000E+00    4.000000E+07  0.00040  3.714E-03    0   0.7827   age104_m32            0.0000     7.9844E+02    14.1237   4.0000   108.5631
 35      0.2461     1.4356E-03    2.1746E-03    5.500000E+07  0.00040  2.982E-03    0   0.7593   age110_m32            0.0000     7.5223E+02    13.3055   4.0000   108.2975
 36      0.0000     0.0000E+00    0.0000E+00    1.015200E+08  0.00040  2.188E-03    0   0.7143   age116_m32            0.0000     7.2190E+02    14.8964   4.0000   105.7175
 37      0.0000     0.0000E+00    0.0000E+00    1.609000E+08  0.00040  1.690E-03    0   0.6856   age120_m32            0.0000     8.1084E+02    16.2353   4.0000   102.2654
 38      0.0000     0.0000E+00    0.0000E+00    2.861200E+08  0.00040  1.152E-03    0   0.6509   age125_m32            0.0000     9.5209E+02    17.5019   3.8219   102.7830
 39      0.0000     0.0000E+00    0.0000E+00    5.088000E+08  0.00040  7.331E-04    0   0.6182   age130_m32            0.0000     1.0081E+03    18.1079   3.6700   103.2188
 40      0.0000     0.0000E+00    0.0000E+00    9.047900E+08  0.00040  3.960E-04    0   0.5890   age135_m32            0.0000     7.0535E+02    15.2900   3.1734   103.1193
 41      0.0000     0.0000E+00    0.0000E+00    1.278050E+09  0.00040  2.854E-04    0   0.5687   age138_m32            0.0000     6.2161E+02    14.5787   2.8603   105.2952
 42      0.0000     0.0000E+00    0.0000E+00    1.434000E+09  0.00040  2.531E-04    0   0.5632   age139_m32            0.0000     6.1121E+02    14.4789   2.7968   105.3166
 43      0.0000     0.0000E+00    0.0000E+00    2.500000E+09  0.00040  1.488E-04    0   0.5386   age150_m32            0.0000     5.0170E+02    13.1734   2.5269   104.0918
 44      0.2955     5.6608E-02    5.8714E-02    4.250000E+09  0.00040  9.082E-05    0   0.5199   age158_m32            0.0000     2.9580E+02     9.9689   2.3857   102.1700
 45      6.5294     1.7854E+00    1.8080E+00    6.250000E+09  0.00040  6.362E-05    0   0.5076   age166_m32            0.0000     1.7649E+02     7.3808   2.3044    99.9476
 46      9.0609     2.9803E+00    2.9889E+00    7.500000E+09  0.00040  5.289E-05    0   0.5027   age171_m32            0.0000     1.5575E+02     6.8443   2.2624    98.9092
 47      2.6663     1.1678E+00    1.1528E+00    1.000000E+10  0.00040  3.972E-05    0   0.4948   age181_m32            0.0000     1.4160E+02     6.4726   2.1966    97.7472
 48      0.6499     3.4438E-01    3.3458E-01    1.300000E+10  0.00040  3.283E-05    0   0.4870   age193_m32            0.0000     1.9033E+02     7.8191   2.1737    99.8764
 49      0.0000     0.0000E+00    0.0000E+00    1.500000E+10  0.00040  2.925E-05    0   0.4854   age201_m32            0.0000     2.2731E+02     8.6852   2.1678   101.0919
 50      0.6367     4.4860E-01    4.3128E-01    1.800000E+10  0.00040  2.469E-05    0   0.4819   age213_m32            0.0000     2.4104E+02     8.9932   2.1322   101.4959
 51      0.3348     5.2285E-04    1.0431E-03    1.000000E+06  0.00400  1.114E-02    0   1.0000   age020_m42            0.0000     5.9798E+03    44.0811   4.0000   106.8094
 52      0.0000     0.0000E+00    0.0000E+00    3.160000E+06  0.00400  4.073E-02    0   0.9999   age045_m42            0.0000     1.2406E+03    19.2780   4.0000   110.7900
 53      0.0000     0.0000E+00    0.0000E+00    5.010000E+06  0.00400  2.534E-02    0   0.9488   age055_m42            0.0000     2.7339E+03    31.0405   4.0000   110.8151
 54      0.0000     0.0000E+00    0.0000E+00    6.610000E+06  0.00400  2.583E-02    0   0.9220   age061_m42            0.0000     8.1855E+02    15.0136   4.0000   107.6050
 55      0.0000     0.0000E+00    0.0000E+00    8.710000E+06  0.00400  1.706E-02    0   0.8983   age067_m42            0.0000     4.1381E+02    12.2857   4.0000   101.2385
 56      0.0000     0.0000E+00    0.0000E+00    1.000000E+07  0.00400  1.271E-02    0   0.8862   age070_m42            0.0000     3.9696E+02    13.0143   4.0000    99.2339
 57      0.0000     0.0000E+00    0.0000E+00    1.445000E+07  0.00400  7.666E-03    0   0.8571   age078_m42            0.0000     1.2263E+03    23.0476   4.0000   104.9097
 58      0.0000     0.0000E+00    0.0000E+00    2.512000E+07  0.00400  5.070E-03    0   0.8174   age090_m42            0.0000     2.6989E+02    10.2918   4.0000    97.5934
 59      0.0000     0.0000E+00    0.0000E+00    4.000000E+07  0.00400  3.505E-03    0   0.7851   age104_m42            0.0000     2.1236E+02     7.9739   3.8041    97.4899
 60      0.0000     0.0000E+00    0.0000E+00    5.500000E+07  0.00400  3.059E-03    0   0.7629   age110_m42            0.0000     3.4841E+02     9.7737   3.9342   100.0839
 61      0.0000     0.0000E+00    0.0000E+00    1.015200E+08  0.00400  2.268E-03    0   0.7207   age116_m42            0.0000     7.1926E+02    15.1907   3.9320   102.6752
 62      0.0000     0.0000E+00    0.0000E+00    1.609000E+08  0.00400  1.720E-03    0   0.6930   age120_m42            0.0000     7.7308E+02    15.7483   3.8041   103.8462
 63      0.0000     0.0000E+00    0.0000E+00    2.861200E+08  0.00400  1.079E-03    0   0.6613   age125_m42            0.0000     7.5993E+02    15.7609   3.4427   104.4411
 64      0.0000     0.0000E+00    0.0000E+00    5.088000E+08  0.00400  6.261E-04    0   0.6313   age130_m42            0.0000     8.4901E+02    16.9565   3.2623   106.7448
 65      0.0000     0.0000E+00    0.0000E+00    9.047900E+08  0.00400  3.535E-04    0   0.6024   age135_m42            0.0000     6.1477E+02    14.6689   2.8403   107.8407
 66      0.0000     0.0000E+00    0.0000E+00    1.278050E+09  0.00400  2.677E-04    0   0.5837   age138_m42            0.0000     3.1115E+02    11.1341   2.1212   107.1385
 67      0.0000     0.0000E+00    0.0000E+00    1.434000E+09  0.00400  1.910E-04    0   0.5716   age139_m42            0.0000     3.7864E+02    11.8572   2.3030   107.4649
 68      0.0000     0.0000E+00    0.0000E+00    2.500000E+09  0.00400  9.818E-05    0   0.5463   age150_m42            0.0000     1.7685E+02     8.2493   1.9970   104.1434
 69      2.2418     7.1025E-01    7.4658E-01    4.250000E+09  0.00400  5.491E-05    0   0.5269   age158_m42            0.0000     1.0857E+02     6.5626   1.8477   102.1651
 70      1.7287     7.7971E-01    8.0124E-01    6.250000E+09  0.00400  3.857E-05    0   0.5151   age166_m42            0.0000     1.0060E+02     6.4085   1.7175   101.1521
 71      2.7507     1.4756E+00    1.5043E+00    7.500000E+09  0.00400  3.243E-05    0   0.5110   age171_m42            0.0000     1.0459E+02     6.5950   1.6385   100.7476
 72      1.1075     7.9487E-01    7.9731E-01    1.000000E+10  0.00400  2.424E-05    0   0.5028   age181_m42            0.0000     1.1284E+02     6.9768   1.5580   100.2855
 73      0.2583     2.3862E-01    2.3454E-01    1.300000E+10  0.00400  1.883E-05    0   0.4927   age193_m42            0.0000     1.1753E+02     7.2146   1.5151   100.1415
 74      1.3735     1.4181E+00    1.3916E+00    1.500000E+10  0.00400  1.685E-05    0   0.4919   age201_m42            0.0000     1.1287E+02     7.0167   1.5188   100.1635
 75      2.3546     2.8211E+00    2.7431E+00    1.800000E+10  0.00400  1.452E-05    0   0.4874   age213_m42            0.0000     1.0499E+02     6.7015   1.5324   100.4298
 76      0.0000     0.0000E+00    0.0000E+00    1.000000E+06  0.00800  1.286E-02    0   1.0000   age020_m52            0.0000     5.8117E+03    43.1785   4.0000   108.7998
 77      0.0000     0.0000E+00    0.0000E+00    3.160000E+06  0.00800  3.147E-02    0   0.9966   age045_m52            0.0000     5.2923E+03    41.6749   4.0000   110.1095
 78      0.0000     0.0000E+00    0.0000E+00    5.010000E+06  0.00800  2.664E-02    0   0.9443   age055_m52            0.0000     3.3507E+03    34.2610   4.0000   111.2132
 79      0.0000     0.0000E+00    0.0000E+00    6.610000E+06  0.00800  2.151E-02    0   0.9177   age061_m52            0.0000     1.8349E+02     8.4173   3.8205    95.2729
 80      0.0000     0.0000E+00    0.0000E+00    8.710000E+06  0.00800  1.628E-02    0   0.8948   age067_m52            0.0000     3.5554E+02    11.9349   4.0000   100.5564
 81      0.0000     0.0000E+00    0.0000E+00    1.000000E+07  0.00800  1.215E-02    0   0.8827   age070_m52            0.0000     1.0128E+03    20.4237   4.0000   106.5963
 82      0.0000     0.0000E+00    0.0000E+00    1.445000E+07  0.00800  8.739E-03    0   0.8552   age078_m52            0.0000     1.1734E+03    20.7589   4.0000   108.8865
 83      0.0000     0.0000E+00    0.0000E+00    2.512000E+07  0.00800  5.676E-03    0   0.8162   age090_m52            0.0000     4.8142E+02    11.5145   4.0000   104.3559
 84      0.0000     0.0000E+00    0.0000E+00    4.000000E+07  0.00800  3.939E-03    0   0.7841   age104_m52            0.0000     4.1496E+02    10.2962   4.0000   102.5626
 85      0.0000     0.0000E+00    0.0000E+00    5.500000E+07  0.00800  3.155E-03    0   0.7627   age110_m52            0.0000     4.7830E+02    11.5110   4.0000   103.5279
 86      0.0000     0.0000E+00    0.0000E+00    1.015200E+08  0.00800  2.206E-03    0   0.7226   age116_m52            0.0000     6.1386E+02    13.8731   3.9689   103.0202
 87      0.0000     0.0000E+00    0.0000E+00    1.609000E+08  0.00800  1.596E-03    0   0.6963   age120_m52            0.0000     6.8100E+02    14.8250   3.7679   104.2722
 88      0.0000     0.0000E+00    0.0000E+00    2.861200E+08  0.00800  1.002E-03    0   0.6665   age125_m52            0.0000     8.6417E+02    17.0453   3.5122   106.1274
 89      0.0000     0.0000E+00    0.0000E+00    5.088000E+08  0.00800  5.759E-04    0   0.6377   age130_m52            0.0000     9.0165E+02    17.7552   3.1840   109.6904
 90      0.0000     0.0000E+00    0.0000E+00    9.047900E+08  0.00800  2.972E-04    0   0.6086   age135_m52            0.0000     6.0445E+02    14.6663   2.6215   109.6859
 91      0.0000     0.0000E+00    0.0000E+00    1.278050E+09  0.00800  2.242E-04    0   0.5907   age138_m52            0.0000     2.9665E+02    10.8744   1.9549   110.4374
 92      0.0000     0.0000E+00    0.0000E+00    1.434000E+09  0.00800  1.645E-04    0   0.5787   age139_m52            0.0000     2.7553E+02    10.3238   2.0998   109.8185
 93      0.0000     0.0000E+00    0.0000E+00    2.500000E+09  0.00800  7.723E-05    0   0.5519   age150_m52            0.0000     1.6405E+02     8.2972   1.7362   107.1802
 94      0.0000     0.0000E+00    0.0000E+00    4.250000E+09  0.00800  4.151E-05    0   0.5320   age158_m52            0.0000     1.3711E+02     7.6575   1.6548   105.0329
 95      0.6614     3.8225E-01    3.9631E-01    6.250000E+09  0.00800  3.010E-05    0   0.5197   age166_m52            0.0000     1.4444E+02     8.1293   1.4575   104.0245
 96      0.6761     4.7675E-01    4.8877E-01    7.500000E+09  0.00800  2.467E-05    0   0.5139   age171_m52            0.0000     1.5201E+02     8.3827   1.4160   103.6955
 97      0.6115     5.7132E-01    5.7604E-01    1.000000E+10  0.00800  1.862E-05    0   0.5054   age181_m52            0.0000     1.8493E+02     9.2521   1.2890   103.4862
 98      0.0000     0.0000E+00    0.0000E+00    1.300000E+10  0.00800  1.433E-05    0   0.4988   age193_m52            0.0000     2.2112E+02    10.1192   1.1967   104.2639
 99      0.7286     1.0189E+00    1.0033E+00    1.500000E+10  0.00800  1.244E-05    0   0.4936   age201_m52            0.0000     2.3585E+02    10.4378   1.1684   104.7904
100      0.0000     0.0000E+00    0.0000E+00    1.800000E+10  0.00800  1.070E-05    0   0.4888   age213_m52            0.0000     2.4870E+02    10.6880   1.1346   104.6974
101      0.2004     1.7529E-04    3.4971E-04    1.000000E+06  0.02000  1.989E-02    0   1.0000   age020_m62            0.0000     5.7365E+03    43.1054   4.0000   107.6080
102      0.0000     0.0000E+00    0.0000E+00    3.160000E+06  0.02000  3.772E-02    0   0.9858   age045_m62            0.0000     4.8904E+03    40.7117   4.0000   109.4020
103      0.0000     0.0000E+00    0.0000E+00    5.010000E+06  0.02000  3.227E-02    0   0.9342   age055_m62            0.0000     2.1553E+03    26.8887   4.0000   111.9832
104      0.0000     0.0000E+00    0.0000E+00    6.610000E+06  0.02000  2.387E-02    0   0.9090   age061_m62            0.0000     1.2183E+03    22.6505   4.0000   106.4943
105      0.0000     0.0000E+00    0.0000E+00    8.710000E+06  0.02000  1.102E-02    0   0.8861   age067_m62            0.0000     7.6185E+02    19.2867   4.0000    92.5223
106      0.0000     0.0000E+00    0.0000E+00    1.000000E+07  0.02000  1.011E-02    0   0.8751   age070_m62            0.0000     5.6955E+02    17.0300   4.0000    95.8628
107      0.0000     0.0000E+00    0.0000E+00    1.445000E+07  0.02000  7.331E-03    0   0.8472   age078_m62            0.0000     4.6700E+02    15.4985   4.0000    98.0468
108      0.0000     0.0000E+00    0.0000E+00    2.512000E+07  0.02000  4.206E-03    0   0.8099   age090_m62            0.0000     3.8928E+02    14.1158   4.0000    95.3115
109      0.0000     0.0000E+00    0.0000E+00    4.000000E+07  0.02000  3.373E-03    0   0.7799   age104_m62            0.0000     2.8685E+02     8.6626   4.0000    99.2578
110      0.0000     0.0000E+00    0.0000E+00    5.500000E+07  0.02000  2.747E-03    0   0.7595   age110_m62            0.0000     3.8542E+02    10.1155   4.0000   100.9684
111      0.0000     0.0000E+00    0.0000E+00    1.015200E+08  0.02000  1.878E-03    0   0.7221   age116_m62            0.0000     6.4176E+02    14.1803   3.9342   103.7919
112      0.0000     0.0000E+00    0.0000E+00    1.609000E+08  0.02000  1.378E-03    0   0.6978   age120_m62            0.0000     8.1033E+02    16.1330   3.8109   105.4882
113      0.0000     0.0000E+00    0.0000E+00    2.861200E+08  0.02000  8.869E-04    0   0.6700   age125_m62            0.0000     1.0611E+03    18.8440   3.4797   108.7323
114      0.0000     0.0000E+00    0.0000E+00    5.088000E+08  0.02000  4.834E-04    0   0.6430   age130_m62            0.0000     9.6673E+02    18.2829   3.0557   111.0562
115      0.0000     0.0000E+00    0.0000E+00    9.047900E+08  0.02000  2.312E-04    0   0.6152   age135_m62            0.0000     5.5189E+02    14.1215   2.4117   112.1782
116      0.0000     0.0000E+00    0.0000E+00    1.278050E+09  0.02000  1.387E-04    0   0.5927   age138_m62            0.0000     2.8187E+02    10.1800   1.9860   109.5666
117      0.0000     0.0000E+00    0.0000E+00    1.434000E+09  0.02000  1.168E-04    0   0.5865   age139_m62            0.0000     2.4049E+02     9.4010   1.9527   108.2591
118      0.0051     1.6122E-03    1.8043E-03    2.500000E+09  0.02000  5.505E-05    0   0.5610   age150_m62            0.0000     1.7270E+02     8.4149   1.5639   106.3974
119      0.0242     1.3739E-02    1.4821E-02    4.250000E+09  0.02000  3.070E-05    0   0.5407   age158_m62            0.0000     2.3074E+02    10.1312   1.2729   106.8645
120      0.0000     0.0000E+00    0.0000E+00    6.250000E+09  0.02000  2.104E-05    0   0.5277   age166_m62            0.0000     2.7288E+02    11.1218   1.1414   107.5597
121      0.1828     1.7965E-01    1.8719E-01    7.500000E+09  0.02000  1.770E-05    0   0.5223   age171_m62            0.0000     3.0431E+02    11.6508   1.0550   108.0596
122      8.0355     1.0778E+01    1.1011E+01    1.000000E+10  0.02000  1.297E-05    0   0.5121   age181_m62            0.0000     3.7465E+02    12.7348   0.8983   108.8310
123     10.5867     1.9005E+01    1.9135E+01    1.300000E+10  0.02000  9.691E-06    0   0.5047   age193_m62            0.0000     4.2642E+02    13.4293   0.8149   109.3869
124     13.9878     2.9108E+01    2.9029E+01    1.500000E+10  0.02000  8.360E-06    0   0.4999   age201_m62            0.0000     4.7817E+02    14.0914   0.7464   109.7410
125      9.2961     2.3401E+01    2.3090E+01    1.800000E+10  0.02000  6.911E-06    0   0.4946   age213_m62            0.0000     5.5018E+02    14.9620   0.6758   110.1134
126      0.0000     0.0000E+00    0.0000E+00    1.000000E+06  0.05000  2.651E-02    0   0.9998   age020_m72            0.0000     5.7198E+03    42.7911   4.0000   108.8282
127      0.0000     0.0000E+00    0.0000E+00    3.160000E+06  0.05000  4.817E-02    0   0.9577   age045_m72            0.0000     3.9819E+03    36.5748   4.0000   112.0849
128      0.0000     0.0000E+00    0.0000E+00    5.010000E+06  0.05000  3.101E-02    0   0.9147   age055_m72            0.0000     2.1781E+03    28.7443   4.0000   110.2626
129      0.0000     0.0000E+00    0.0000E+00    6.610000E+06  0.05000  1.472E-02    0   0.8877   age061_m72            0.0000     8.9535E+02    21.1612   4.0000    98.8585
130      0.0000     0.0000E+00    0.0000E+00    8.710000E+06  0.05000  1.050E-02    0   0.8638   age067_m72            0.0000     1.9794E+03    28.6409   4.0000   107.6635
131      0.0000     0.0000E+00    0.0000E+00    1.000000E+07  0.05000  8.954E-03    0   0.8524   age070_m72            0.0000     3.2329E+03    33.4526   4.0000   112.2594
132      0.0000     0.0000E+00    0.0000E+00    1.445000E+07  0.05000  6.392E-03    0   0.8262   age078_m72            0.0000     2.9571E+03    31.7244   4.0000   112.8892
133      0.0000     0.0000E+00    0.0000E+00    2.512000E+07  0.05000  4.207E-03    0   0.7902   age090_m72            0.0000     1.4190E+03    21.6137   4.0000   111.5768
134      0.0000     0.0000E+00    0.0000E+00    4.000000E+07  0.05000  3.198E-03    0   0.7618   age104_m72            0.0000     6.2696E+02    12.2338   4.0000   108.3403
135      0.0000     0.0000E+00    0.0000E+00    5.500000E+07  0.05000  2.593E-03    0   0.7432   age110_m72            0.0000     6.4104E+02    13.5558   4.0000   107.7416
136      0.0000     0.0000E+00    0.0000E+00    1.015200E+08  0.05000  1.716E-03    0   0.7092   age116_m72            0.0000     7.2913E+02    15.2275   4.0000   104.5654
137      0.0000     0.0000E+00    0.0000E+00    1.609000E+08  0.05000  1.218E-03    0   0.6876   age120_m72            0.0000     8.9907E+02    17.0052   3.8004   105.4404
138      0.0000     0.0000E+00    0.0000E+00    2.861200E+08  0.05000  7.047E-04    0   0.6618   age125_m72            0.0000     1.0314E+03    18.6695   3.2883   108.9731
139      0.0000     0.0000E+00    0.0000E+00    5.088000E+08  0.05000  3.590E-04    0   0.6356   age130_m72            0.0000     8.5055E+02    17.3748   2.7110   112.1613
140      0.0000     0.0000E+00    0.0000E+00    9.047900E+08  0.05000  1.484E-04    0   0.6088   age135_m72            0.0000     3.5770E+02    11.5664   1.9134   108.5226
141      0.0000     0.0000E+00    0.0000E+00    1.278050E+09  0.05000  9.435E-05    0   0.5924   age138_m72            0.0000     2.8930E+02    10.9015   1.4945   106.7771
142      0.0000     0.0000E+00    0.0000E+00    1.434000E+09  0.05000  7.827E-05    0   0.5847   age139_m72            0.0000     2.6167E+02    10.5492   1.4987   106.3403
143      0.0000     0.0000E+00    0.0000E+00    2.500000E+09  0.05000  3.759E-05    0   0.5583   age150_m72            0.0000     2.8211E+02    11.3357   1.1588   106.5140
144      0.0000     0.0000E+00    0.0000E+00    4.250000E+09  0.05000  1.842E-05    0   0.5374   age158_m72            0.0000     3.7469E+02    12.5893   0.8385   106.4823
145      0.0000     0.0000E+00    0.0000E+00    6.250000E+09  0.05000  1.207E-05    0   0.5242   age166_m72            0.0000     4.9672E+02    14.0485   0.6033   106.5654
146      0.0000     0.0000E+00    0.0000E+00    7.500000E+09  0.05000  9.993E-06    0   0.5183   age171_m72            0.0000     5.1636E+02    14.2234   0.5595   106.5893
147      0.0000     0.0000E+00    0.0000E+00    1.000000E+10  0.05000  7.291E-06    0   0.5081   age181_m72            0.0000     6.1877E+02    15.3840   0.4429   106.6547
148      0.0000     0.0000E+00    0.0000E+00    1.300000E+10  0.05000  5.316E-06    0   0.5018   age193_m72            0.0000     7.9428E+02    17.1781   0.2654   106.8172
149      0.0000     0.0000E+00    0.0000E+00    1.500000E+10  0.05000  4.497E-06    0   0.4972   age201_m72            0.0000     8.8765E+02    18.0977   0.1964   107.1871
150      0.0004     1.7225E-03    1.6920E-03    1.800000E+10  0.05000  3.739E-06    0   0.4924   age213_m72            0.0000     1.0154E+03    19.2675   0.0961   107.4861


## Synthesis Results - Average & Chains ##

# j      x_j: min, <> & last-chain-values for 1 ...  7 chains
  1      1.4566      1.2440      1.2910      1.3352      1.1298      1.2983      1.1140      1.4247      1.1431
  2      1.4650      0.8245      0.8742      0.7918      1.0894      0.9171      0.6571      0.8720      0.8334
  3     10.1042     10.1095      9.9323     10.0481     10.0505     10.2139     10.0987     10.1463     10.5271
  4      2.9281      2.8476      2.9838      2.6807      2.8700      2.9143      3.0020      2.8408      2.8296
  5      1.7022      1.4812      1.6668      1.3875      1.4604      1.4928      1.5770      1.4219      1.3004
  6      0.6424      0.6880      0.6849      0.7005      0.7410      0.7480      0.6901      0.7528      0.5714
  7      0.0000      0.0617      0.0000      0.0000      0.0000      0.4976      0.0000      0.0000      0.0066
  8      0.0000      0.0384      0.0147      0.0292      0.0000      0.1049      0.0000      0.0000      0.0000
  9      0.6081      0.0249      0.3877      0.1066      0.1177      0.1128      0.0000      0.0000      0.0000
 10      0.0000      0.0318      0.1882      0.0000      0.1783      0.0215      0.0472      0.0000      0.0000
 11      0.3369      0.0474      0.1926      0.0000      0.0058      0.2606      0.0000      0.0000      0.0000
 12      0.0534      0.0357      0.2066      0.0641      0.0000      0.0721      0.0000      0.0000      0.0000
 13      0.0000      0.0078      0.0000      0.0000      0.0000      0.0000      0.0000      0.0000      0.0000
 14      0.0000      0.0089      0.0000      0.0000      0.0000      0.0000      0.0000      0.0000      0.0000
 15      0.0000      0.0071      0.0071      0.0049      0.0000      0.0000      0.0000      0.0000      0.0000
 16      0.0000      0.0182      0.0000      0.0000      0.0000      0.0893      0.0000      0.0000      0.0000
 17      0.0000      0.0161      0.0000      0.0983      0.0000      0.0000      0.0000      0.0797      0.0292
 18      0.0000      0.0308      0.0000      0.2815      0.2626      0.1096      0.0873      0.1494      0.1645
 19      0.0000      0.0386      0.0028      0.1169      0.0000      0.0000      0.0000      0.0000      0.0000
 20      0.0000      0.0668      0.0000      0.0499      0.0000      0.1410      0.0523      0.0482      0.0000
 21      0.0000      0.1033      0.0858      0.2337      0.0000      0.0000      0.0000      0.0000      0.0830
 22      0.0000      0.0868      0.0000      0.1507      0.0000      0.0000      0.2018      0.0091      0.0000
 23      0.0070      0.0586      0.3460      0.0000      0.0000      0.0077      0.0000      0.0000      0.0358
 24      0.0000      0.1108      0.0000      0.0175      0.0000      0.0000      0.0000      0.2851      0.0000
 25      0.0000      0.1152      0.0876      0.0000      0.1864      0.0000      0.1099      0.1651      0.0000
 26      1.1193      1.1560      1.0179      1.3802      1.1800      1.0239      1.1496      1.2628      1.2300
 27      0.0000      0.0662      0.0381      0.0000      0.0000      0.1436      0.2498      0.3878      0.0807
 28      0.8884      0.7456      0.7638      0.7599      0.7196      0.7401      0.7444      0.8538      0.9354
 29      0.7952      0.7194      0.7050      0.8263      0.7270      0.7207      0.6126      0.6738      0.8032
 30      1.3042      1.0045      1.1008      0.9673      1.2577      0.9977      1.0103      1.0162      0.9924
 31      0.0000      0.0371      0.0262      0.0000      0.0000      0.0000      0.0000      0.0668      0.0000
 32      0.0000      0.0484      0.0000      0.0939      0.1460      0.0000      0.0000      0.0000      0.0720
 33      0.0000      0.0280      0.0690      0.0000      0.0630      0.0046      0.0000      0.0000      0.1511
 34      0.0000      0.0338      0.0000      0.0000      0.0000      0.0000      0.0000      0.1115      0.0000
 35      0.2461      0.0301      0.2596      0.0045      0.0000      0.0000      0.0000      0.0000      0.0000
 36      0.0000      0.0141      0.0000      0.0000      0.0247      0.0566      0.0088      0.0097      0.0000
 37      0.0000      0.0121      0.0000      0.0744      0.0000      0.0000      0.0000      0.1465      0.0000
 38      0.0000      0.0081      0.0000      0.0000      0.0000      0.0000      0.0000      0.0000      0.0000
 39      0.0000      0.0126      0.0000      0.0000      0.0000      0.0000      0.0178      0.0956      0.0000
 40      0.0000      0.0140      0.0000      0.0000      0.0000      0.0000      0.0000      0.0000      0.0000
 41      0.0000      0.0252      0.0083      0.0150      0.0000      0.0000      0.0000      0.0000      0.0000
 42      0.0000      0.0172      0.0000      0.0000      0.0000      0.0000      0.0000      0.0219      0.0090
 43      0.0000      0.0490      0.0000      0.0000      0.0000      0.0000      0.0997      0.1237      0.0000
 44      0.2955      0.0894      0.2930      0.0000      0.0872      0.1682      0.2621      0.0000      0.1710
 45      6.5294      5.5919      5.5840      5.4862      6.4523      5.4878      5.2796      5.7829      5.5805
 46      9.0609      7.4121      7.6192      7.6110      7.3118      7.6624      7.0315      7.6072      7.4493
 47      2.6663      3.9925      4.0098      4.0102      3.8938      3.4902      4.0792      3.9120      3.2115
 48      0.6499      1.5724      0.6798      1.6572      1.4811      1.8512      1.7916      1.3973      1.7533
 49      0.0000      0.1841      0.0000      0.2140      0.2126      0.3260      0.0000      0.0000      0.0520
 50      0.6367      2.2507      2.0125      2.1062      2.0158      1.7839      2.4077      2.1956      2.1794
 51      0.3348      0.4084      0.4156      0.4309      0.4145      0.2831      0.4381      0.3684      0.2427
 52      0.0000      0.0771      0.1094      0.0000      0.2091      0.0183      0.0000      0.0000      0.0000
 53      0.0000      0.0380      0.0298      0.0000      0.0000      0.0427      0.0000      0.0000      0.1322
 54      0.0000      0.0249      0.0000      0.0000      0.1039      0.0000      0.0642      0.0013      0.0029
 55      0.0000      0.0682      0.1058      0.0588      0.1262      0.0000      0.0000      0.0586      0.3206
 56      0.0000      0.0428      0.0921      0.0610      0.0000      0.0000      0.0397      0.0000      0.0000
 57      0.0000      0.0646      0.0000      0.0981      0.0000      0.0584      0.3845      0.0000      0.0164
 58      0.0000      0.0278      0.0000      0.0000      0.0000      0.0000      0.0406      0.0000      0.0291
 59      0.0000      0.0181      0.0000      0.0000      0.1412      0.0000      0.0270      0.0000      0.0000
 60      0.0000      0.0183      0.0000      0.0000      0.0375      0.0000      0.0000      0.0000      0.0000
 61      0.0000      0.0143      0.0000      0.0000      0.0000      0.0000      0.0880      0.0000      0.0000
 62      0.0000      0.0103      0.0000      0.0051      0.0000      0.0000      0.0000      0.0000      0.0000
 63      0.0000      0.0104      0.0000      0.1073      0.0272      0.0000      0.0000      0.0000      0.0000
 64      0.0000      0.0178      0.0000      0.0971      0.0000      0.0291      0.0000      0.1451      0.0000
 65      0.0000      0.0268      0.0000      0.0013      0.0000      0.0000      0.0000      0.0432      0.0203
 66      0.0000      0.0571      0.0000      0.3374      0.0000      0.0125      0.0000      0.0510      0.0000
 67      0.0000      0.0493      0.0000      0.0000      0.0000      0.4527      0.0000      0.0000      0.0000
 68      0.0000      0.1413      0.1578      0.0000      0.2815      0.0000      0.0000      0.2163      0.2556
 69      2.2418      0.3277      0.8047      0.2619      0.2707      0.8352      1.7570      0.0394      0.5750
 70      1.7287      0.2861      1.0291      1.5001      0.1897      0.7038      0.4277      0.6843      0.0000
 71      2.7507      0.3675      0.7104      0.2964      1.0530      0.4494      0.0993      0.0000      0.2508
 72      1.1075      0.3933      0.5223      0.3079      0.4700      0.2360      0.6993      0.4470      1.0932
 73      0.2583      1.1190      1.1278      1.0381      1.6288      1.7563      1.2411      0.7990      0.9373
 74      1.3735      2.6021      1.8607      2.0753      2.6108      2.6090      2.2493      2.8652      2.7148
 75      2.3546      3.7912      3.1991      3.7358      2.9537      3.2676      3.7498      3.9743      3.9523
 76      0.0000      0.1555      0.1043      0.2889      0.0310      0.1598      0.0000      0.0710      0.0530
 77      0.0000      0.0364      0.0000      0.0000      0.0000      0.0037      0.0486      0.0422      0.0000
 78      0.0000      0.0655      0.0000      0.0000      0.0534      0.0000      0.1237      0.0000      0.1321
 79      0.0000      0.0209      0.0000      0.0000      0.0000      0.0000      0.0000      0.1097      0.0000
 80      0.0000      0.0428      0.0000      0.0000      0.0000      0.0230      0.0000      0.0709      0.0000
 81      0.0000      0.0319      0.0000      0.0000      0.0000      0.1682      0.0000      0.0000      0.2010
 82      0.0000      0.0332      0.0000      0.1822      0.0000      0.0000      0.1053      0.0415      0.1989
 83      0.0000      0.0176      0.0000      0.0000      0.0000      0.0000      0.0065      0.0000      0.1452
 84      0.0000      0.0316      0.1301      0.0000      0.0000      0.0000      0.0616      0.0000      0.1552
 85      0.0000      0.0124      0.0000      0.0000      0.0000      0.0000      0.0000      0.0000      0.0735
 86      0.0000      0.0105      0.0000      0.0000      0.0000      0.0000      0.0603      0.0769      0.0000
 87      0.0000      0.0118      0.0000      0.0000      0.0254      0.0000      0.0000      0.0000      0.0000
 88      0.0000      0.0056      0.0788      0.0000      0.0000      0.0000      0.0000      0.0000      0.0000
 89      0.0000      0.0075      0.0000      0.0000      0.0000      0.0000      0.0029      0.0000      0.0000
 90      0.0000      0.0348      0.0000      0.0000      0.0000      0.0000      0.0000      0.0000      0.0026
 91      0.0000      0.0544      0.0000      0.0000      0.0000      0.0009      0.0728      0.0000      0.0000
 92      0.0000      0.0450      0.0006      0.0000      0.0000      0.0000      0.0000      0.0000      0.1384
 93      0.0000      0.1285      0.0000      0.1418      0.3770      0.2427      0.0000      0.0572      0.5496
 94      0.0000      0.2002      0.0000      0.4743      0.4344      0.1988      0.0000      0.3953      0.3446
 95      0.6614      0.3087      1.3073      0.1265      0.2653      0.1586      1.0055      0.7271      0.0963
 96      0.6761      0.5968      0.7690      0.8479      0.9070      0.5252      0.4003      0.5243      0.4929
 97      0.6115      0.2221      0.7784      0.2934      0.1502      0.3798      0.5632      0.2135      0.1848
 98      0.0000      0.4152      0.0097      0.4552      0.5844      0.4494      0.8487      0.5172      0.3405
 99      0.7286      0.2791      0.6305      0.2286      0.3655      0.2283      0.0171      0.2011      0.2243
100      0.0000      0.3699      0.1913      0.5718      0.0000      0.2531      0.0597      0.7819      0.7110
101      0.2004      0.5087      0.5369      0.5232      0.3702      0.5155      0.4817      0.3953      0.5554
102      0.0000      0.0158      0.0000      0.0000      0.0772      0.0000      0.0000      0.0000      0.0000
103      0.0000      0.0300      0.0614      0.0000      0.0032      0.0964      0.0000      0.0000      0.0000
104      0.0000      0.0318      0.0563      0.0272      0.0000      0.0000      0.1125      0.1553      0.0843
105      0.0000      0.0307      0.0762      0.0000      0.0806      0.0469      0.0000      0.0000      0.0192
106      0.0000      0.0412      0.0000      0.0000      0.0000      0.0000      0.0000      0.1284      0.0000
107      0.0000      0.0309      0.0000      0.0000      0.0074      0.0000      0.1035      0.0000      0.0000
108      0.0000      0.0375      0.0000      0.0169      0.0000      0.0000      0.0000      0.0000      0.0000
109      0.0000      0.0152      0.0000      0.0000      0.0000      0.0092      0.0000      0.0000      0.0000
110      0.0000      0.0124      0.0000      0.0000      0.0000      0.0000      0.1345      0.0000      0.0618
111      0.0000      0.0151      0.0000      0.0000      0.0038      0.0000      0.0000      0.0000      0.0000
112      0.0000      0.0102      0.0000      0.0000      0.0000      0.0000      0.0000      0.0000      0.0131
113      0.0000      0.0116      0.0000      0.0000      0.0000      0.0000      0.0000      0.0000      0.0000
114      0.0000      0.0099      0.0000      0.0000      0.0000      0.0000      0.0000      0.0000      0.0000
115      0.0000      0.0193      0.0000      0.0000      0.0000      0.0000      0.0000      0.0000      0.0000
116      0.0000      0.0479      0.0000      0.0000      0.0000      0.1504      0.0000      0.0000      0.3401
117      0.0000      0.0481      0.0000      0.0000      0.0000      0.0000      0.0000      0.0806      0.0000
118      0.0051      0.1357      0.3153      0.0000      0.0000      0.0000      0.0710      0.0000      0.0000
119      0.0242      0.1055      0.2189      0.0000      0.0655      0.0000      0.0000      0.0942      0.0707
120      0.0000      0.1679      0.0000      0.0720      0.2287      0.2316      0.0000      0.0000      0.0290
121      0.1828      0.0974      0.2670      0.4029      0.0568      0.0000      0.1197      0.1218      0.0000
122      8.0355      7.6912      7.9832      7.7804      7.5285      7.8001      7.7901      7.6138      8.1594
123     10.5867     10.5246     10.6553     10.1641     10.4286     10.4890     10.6136     10.7727     10.5597
124     13.9878     14.1077     13.6852     13.6622     14.0747     14.5552     14.2508     14.3326     14.0117
125      9.2961      9.2847      9.1843      9.4710      9.2284      9.4379      9.0894      9.2002      9.3757
126      0.0000      0.0193      0.0000      0.0835      0.0000      0.0000      0.0000      0.0186      0.0000
127      0.0000      0.0666      0.0000      0.0379      0.3235      0.0923      0.1064      0.0000      0.1117
128      0.0000      0.0277      0.0000      0.0387      0.0000      0.0000      0.1000      0.0000      0.1360
129      0.0000      0.0351      0.0000      0.1995      0.0000      0.0000      0.0000      0.0000      0.0000
130      0.0000      0.0754      0.0000      0.0090      0.0000      0.0000      0.1370      0.1267      0.0000
131      0.0000      0.0246      0.0000      0.0325      0.0000      0.0000      0.0000      0.0000      0.0000
132      0.0000      0.0174      0.0000      0.0314      0.0000      0.0000      0.0000      0.0000      0.0000
133      0.0000      0.0121      0.0000      0.0162      0.0000      0.0000      0.0111      0.0000      0.0296
134      0.0000      0.0108      0.0000      0.0000      0.0000      0.0000      0.0000      0.0000      0.0000
135      0.0000      0.0114      0.0000      0.0000      0.0000      0.0000      0.0477      0.0950      0.0000
136      0.0000      0.0130      0.0000      0.0000      0.0000      0.0000      0.0000      0.0000      0.0000
137      0.0000      0.0142      0.0000      0.0012      0.0000      0.0000      0.0000      0.0000      0.0000
138      0.0000      0.0063      0.0000      0.0000      0.0000      0.0000      0.0000      0.0000      0.0000
139      0.0000      0.0170      0.0000      0.0000      0.0000      0.1573      0.0000      0.0000      0.0000
140      0.0000      0.0387      0.0000      0.0000      0.0000      0.0000      0.0000      0.0000      0.0000
141      0.0000      0.0703      0.0000      0.0000      0.0000      0.0000      0.0000      0.0000      0.0000
142      0.0000      0.0774      0.0000      0.0029      0.0000      0.0116      0.0000      0.0254      0.0000
143      0.0000      0.1474      0.0000      0.1662      0.0000      0.0000      0.1743      0.0000      0.0231
144      0.0000      0.0687      0.0000      0.0000      0.1471      0.0000      0.0000      0.0000      0.0000
145      0.0000      0.0715      0.0000      0.0030      0.2248      0.0624      0.0000      0.0485      0.0000
146      0.0000      0.1552      0.0439      0.1562      0.0000      0.0000      0.0000      0.0000      0.0000
147      0.0000      0.0320      0.0138      0.0000      0.1530      0.0000      0.0000      0.0000      0.0000
148      0.0000      0.0152      0.0000      0.0000      0.0000      0.0000      0.0000      0.0000      0.0000
149      0.0000      0.1241      0.1032      0.1785      0.1381      0.0000      0.1466      0.0000      0.2098
150      0.0004      0.1596      0.2072      0.2382      0.1575      0.0195      0.1076      0.1379      0.1446

# j      m_j: min, <> & last-chain-values for 1 ...  7 chains
  1  6.1953E-03  5.0895E-03  5.3462E-03  5.4844E-03  4.6548E-03  5.3542E-03  4.5826E-03  5.8202E-03  4.6614E-03
  2  1.0684E-03  5.7836E-04  6.2073E-04  5.5767E-04  7.6963E-04  6.4852E-04  4.6352E-04  6.1083E-04  5.8270E-04
  3  1.7392E-02  1.6738E-02  1.6646E-02  1.6703E-02  1.6758E-02  1.7047E-02  1.6813E-02  1.6775E-02  1.7373E-02
  4  9.4734E-03  8.8620E-03  9.3995E-03  8.3760E-03  8.9947E-03  9.1425E-03  9.3943E-03  8.8278E-03  8.7772E-03
  5  6.9369E-03  5.8066E-03  6.6140E-03  5.4609E-03  5.7654E-03  5.8991E-03  6.2161E-03  5.5660E-03  5.0810E-03
  6  3.1134E-03  3.2074E-03  3.2320E-03  3.2787E-03  3.4786E-03  3.5150E-03  3.2348E-03  3.5042E-03  2.6548E-03
  7  0.0000E+00  3.6322E-04  0.0000E+00  0.0000E+00  0.0000E+00  2.9507E-03  0.0000E+00  0.0000E+00  3.8838E-05
  8  0.0000E+00  2.5543E-04  9.9089E-05  1.9483E-04  0.0000E+00  7.0315E-04  0.0000E+00  0.0000E+00  0.0000E+00
  9  4.5222E-03  1.7829E-04  2.8073E-03  7.6541E-04  8.4791E-04  8.1310E-04  0.0000E+00  0.0000E+00  0.0000E+00
 10  0.0000E+00  2.6039E-04  1.5625E-03  0.0000E+00  1.4725E-03  1.7781E-04  3.8918E-04  0.0000E+00  0.0000E+00
 11  3.4336E-03  4.6479E-04  1.9114E-03  0.0000E+00  5.6928E-05  2.5746E-03  0.0000E+00  0.0000E+00  0.0000E+00
 12  9.5262E-04  6.1268E-04  3.5866E-03  1.1034E-03  0.0000E+00  1.2466E-03  0.0000E+00  0.0000E+00  0.0000E+00
 13  0.0000E+00  1.5439E-04  0.0000E+00  0.0000E+00  0.0000E+00  0.0000E+00  0.0000E+00  0.0000E+00  0.0000E+00
 14  0.0000E+00  2.5219E-04  0.0000E+00  0.0000E+00  0.0000E+00  0.0000E+00  0.0000E+00  0.0000E+00  0.0000E+00
 15  0.0000E+00  3.0379E-04  3.0735E-04  2.1138E-04  0.0000E+00  0.0000E+00  0.0000E+00  0.0000E+00  0.0000E+00
 16  0.0000E+00  1.1257E-03  0.0000E+00  0.0000E+00  0.0000E+00  5.5616E-03  0.0000E+00  0.0000E+00  0.0000E+00
 17  0.0000E+00  1.1054E-03  0.0000E+00  6.7731E-03  0.0000E+00  0.0000E+00  0.0000E+00  5.4634E-03  1.9963E-03
 18  0.0000E+00  3.4423E-03  0.0000E+00  3.1589E-02  2.9550E-02  1.2348E-02  9.8051E-03  1.6669E-02  1.8324E-02
 19  0.0000E+00  6.5420E-03  4.7924E-04  1.9880E-02  0.0000E+00  0.0000E+00  0.0000E+00  0.0000E+00  0.0000E+00
 20  0.0000E+00  1.6186E-02  0.0000E+00  1.2141E-02  0.0000E+00  3.4425E-02  1.2733E-02  1.1658E-02  0.0000E+00
 21  0.0000E+00  2.8955E-02  2.4356E-02  6.5770E-02  0.0000E+00  0.0000E+00  0.0000E+00  0.0000E+00  2.3192E-02
 22  0.0000E+00  3.1388E-02  0.0000E+00  5.4725E-02  0.0000E+00  0.0000E+00  7.3365E-02  3.2803E-03  0.0000E+00
 23  3.3226E-03  2.6849E-02  1.6055E-01  0.0000E+00  0.0000E+00  3.5478E-03  0.0000E+00  0.0000E+00  1.6367E-02
 24  0.0000E+00  5.8061E-02  0.0000E+00  9.2053E-03  0.0000E+00  0.0000E+00  0.0000E+00  1.4923E-01  0.0000E+00
 25  0.0000E+00  7.2549E-02  5.5827E-02  0.0000E+00  1.1825E-01  0.0000E+00  6.9568E-02  1.0384E-01  0.0000E+00
 26  4.5929E-03  4.5628E-03  4.0666E-03  5.4694E-03  4.6902E-03  4.0738E-03  4.5626E-03  4.9769E-03  4.8388E-03
 27  0.0000E+00  5.5653E-05  3.2437E-05  0.0000E+00  0.0000E+00  1.2160E-04  2.1106E-04  3.2536E-04  6.7554E-05
 28  1.5188E-03  1.2261E-03  1.2714E-03  1.2546E-03  1.1917E-03  1.2269E-03  1.2309E-03  1.4021E-03  1.5333E-03
 29  2.1188E-03  1.8438E-03  1.8290E-03  2.1261E-03  1.8764E-03  1.8619E-03  1.5787E-03  1.7244E-03  2.0517E-03
 30  4.3189E-03  3.1997E-03  3.5493E-03  3.0936E-03  4.0348E-03  3.2038E-03  3.2360E-03  3.2322E-03  3.1510E-03
 31  0.0000E+00  1.3663E-04  9.7557E-05  0.0000E+00  0.0000E+00  0.0000E+00  0.0000E+00  2.4529E-04  0.0000E+00
 32  0.0000E+00  1.9713E-04  0.0000E+00  3.8404E-04  5.9923E-04  0.0000E+00  0.0000E+00  0.0000E+00  2.9229E-04
 33  0.0000E+00  1.6194E-04  4.0423E-04  0.0000E+00  3.6728E-04  2.6830E-05  0.0000E+00  0.0000E+00  8.7242E-04
 34  0.0000E+00  2.3750E-04  0.0000E+00  0.0000E+00  0.0000E+00  0.0000E+00  0.0000E+00  7.8319E-04  0.0000E+00
 35  2.1746E-03  2.5551E-04  2.2339E-03  3.8195E-05  0.0000E+00  0.0000E+00  0.0000E+00  0.0000E+00  0.0000E+00
 36  0.0000E+00  1.5341E-04  0.0000E+00  0.0000E+00  2.7090E-04  6.2203E-04  9.6430E-05  1.0549E-04  0.0000E+00
 37  0.0000E+00  1.6452E-04  0.0000E+00  1.0114E-03  0.0000E+00  0.0000E+00  0.0000E+00  1.9817E-03  0.0000E+00
 38  0.0000E+00  1.5313E-04  0.0000E+00  0.0000E+00  0.0000E+00  0.0000E+00  0.0000E+00  0.0000E+00  0.0000E+00
 39  0.0000E+00  3.5485E-04  0.0000E+00  0.0000E+00  0.0000E+00  0.0000E+00  5.0325E-04  2.6884E-03  0.0000E+00
 40  0.0000E+00  6.9594E-04  0.0000E+00  0.0000E+00  0.0000E+00  0.0000E+00  0.0000E+00  0.0000E+00  0.0000E+00
 41  0.0000E+00  1.6750E-03  5.6152E-04  9.9973E-04  0.0000E+00  0.0000E+00  0.0000E+00  0.0000E+00  0.0000E+00
 42  0.0000E+00  1.2789E-03  0.0000E+00  0.0000E+00  0.0000E+00  0.0000E+00  0.0000E+00  1.6232E-03  6.6684E-04
 43  0.0000E+00  5.9214E-03  0.0000E+00  0.0000E+00  0.0000E+00  0.0000E+00  1.2113E-02  1.4931E-02  0.0000E+00
 44  5.8714E-02  1.7076E-02  5.6673E-02  0.0000E+00  1.6773E-02  3.2400E-02  5.0367E-02  0.0000E+00  3.2567E-02
 45  1.8080E+00  1.4894E+00  1.5055E+00  1.4671E+00  1.7308E+00  1.4734E+00  1.4141E+00  1.5381E+00  1.4815E+00
 46  2.9889E+00  2.3519E+00  2.4471E+00  2.4247E+00  2.3364E+00  2.4508E+00  2.2435E+00  2.4103E+00  2.3559E+00
 47  1.1528E+00  1.6603E+00  1.6880E+00  1.6744E+00  1.6308E+00  1.4631E+00  1.7058E+00  1.6245E+00  1.3312E+00
 48  3.3458E-01  7.7869E-01  3.4077E-01  8.2397E-01  7.3867E-01  9.2409E-01  8.9215E-01  6.9098E-01  8.6541E-01
 49  0.0000E+00  1.0201E-01  0.0000E+00  1.1903E-01  1.1864E-01  1.8208E-01  0.0000E+00  0.0000E+00  2.8700E-02
 50  4.3128E-01  1.4665E+00  1.3273E+00  1.3779E+00  1.3228E+00  1.1717E+00  1.5775E+00  1.4285E+00  1.4154E+00
 51  1.0431E-03  1.2238E-03  1.2606E-03  1.2964E-03  1.2509E-03  8.5525E-04  1.3201E-03  1.1024E-03  7.2484E-04
 52  0.0000E+00  6.3206E-05  9.0722E-05  0.0000E+00  1.7255E-04  1.5129E-05  0.0000E+00  0.0000E+00  0.0000E+00
 53  0.0000E+00  4.7489E-05  3.7724E-05  0.0000E+00  0.0000E+00  5.3763E-05  0.0000E+00  0.0000E+00  1.6472E-04
 54  0.0000E+00  2.9658E-05  0.0000E+00  0.0000E+00  1.2472E-04  0.0000E+00  7.6937E-05  1.5031E-06  3.4660E-06
 55  0.0000E+00  1.1994E-04  1.8830E-04  1.0380E-04  2.2340E-04  0.0000E+00  0.0000E+00  1.0293E-04  5.6167E-04
 56  0.0000E+00  9.9736E-05  2.1690E-04  1.4244E-04  0.0000E+00  0.0000E+00  9.2837E-05  0.0000E+00  0.0000E+00
 57  0.0000E+00  2.4106E-04  0.0000E+00  3.6772E-04  0.0000E+00  2.1980E-04  1.4431E-03  0.0000E+00  6.1140E-05
 58  0.0000E+00  1.4958E-04  0.0000E+00  0.0000E+00  0.0000E+00  0.0000E+00  2.1950E-04  0.0000E+00  1.5628E-04
 59  0.0000E+00  1.3528E-04  0.0000E+00  0.0000E+00  1.0631E-03  0.0000E+00  2.0273E-04  0.0000E+00  0.0000E+00
 60  0.0000E+00  1.5215E-04  0.0000E+00  0.0000E+00  3.1426E-04  0.0000E+00  0.0000E+00  0.0000E+00  0.0000E+00
 61  0.0000E+00  1.5147E-04  0.0000E+00  0.0000E+00  0.0000E+00  0.0000E+00  9.3820E-04  0.0000E+00  0.0000E+00
 62  0.0000E+00  1.3843E-04  0.0000E+00  6.8362E-05  0.0000E+00  0.0000E+00  0.0000E+00  0.0000E+00  0.0000E+00
 63  0.0000E+00  2.1367E-04  0.0000E+00  2.2042E-03  5.6107E-04  0.0000E+00  0.0000E+00  0.0000E+00  0.0000E+00
 64  0.0000E+00  6.0059E-04  0.0000E+00  3.2829E-03  0.0000E+00  9.8861E-04  0.0000E+00  4.8763E-03  0.0000E+00
 65  0.0000E+00  1.5256E-03  0.0000E+00  7.3436E-05  0.0000E+00  0.0000E+00  0.0000E+00  2.4528E-03  1.1505E-03
 66  0.0000E+00  4.1531E-03  0.0000E+00  2.4658E-02  0.0000E+00  9.1398E-04  0.0000E+00  3.7048E-03  0.0000E+00
 67  0.0000E+00  4.9206E-03  0.0000E+00  0.0000E+00  0.0000E+00  4.5588E-02  0.0000E+00  0.0000E+00  0.0000E+00
 68  0.0000E+00  2.6255E-02  2.9666E-02  0.0000E+00  5.2669E-02  0.0000E+00  0.0000E+00  4.0116E-02  4.7332E-02
 69  7.4658E-01  1.0499E-01  2.6094E-01  8.4244E-02  8.7328E-02  2.6970E-01  5.6597E-01  1.2591E-02  1.8359E-01
 70  8.0124E-01  1.2757E-01  4.6442E-01  6.7148E-01  8.5152E-02  3.1631E-01  1.9172E-01  3.0462E-01  0.0000E+00
 71  1.5043E+00  1.9333E-01  3.7825E-01  1.5653E-01  5.5783E-01  2.3832E-01  5.2544E-02  0.0000E+00  1.3150E-01
 72  7.9731E-01  2.7236E-01  3.6609E-01  2.1403E-01  3.2772E-01  1.6476E-01  4.8689E-01  3.0911E-01  7.5453E-01
 73  2.3454E-01  9.7749E-01  9.9719E-01  9.1042E-01  1.4329E+00  1.5465E+00  1.0901E+00  6.9696E-01  8.1604E-01
 74  1.3916E+00  2.5359E+00  1.8355E+00  2.0306E+00  2.5624E+00  2.5631E+00  2.2043E+00  2.7882E+00  2.6371E+00
 75  2.7431E+00  4.2485E+00  3.6288E+00  4.2031E+00  3.3334E+00  3.6911E+00  4.2254E+00  4.4471E+00  4.4144E+00
 76  0.0000E+00  4.0366E-04  2.7411E-04  7.5301E-04  8.1068E-05  4.1806E-04  0.0000E+00  1.8400E-04  1.3708E-04
 77  0.0000E+00  3.8447E-05  0.0000E+00  0.0000E+00  0.0000E+00  3.9282E-06  5.1649E-05  4.4564E-05  0.0000E+00
 78  0.0000E+00  7.7506E-05  0.0000E+00  0.0000E+00  6.3647E-05  0.0000E+00  1.4716E-04  0.0000E+00  1.5579E-04
 79  0.0000E+00  2.9830E-05  0.0000E+00  0.0000E+00  0.0000E+00  0.0000E+00  0.0000E+00  1.5605E-04  0.0000E+00
 80  0.0000E+00  7.8504E-05  0.0000E+00  0.0000E+00  0.0000E+00  4.2525E-05  0.0000E+00  1.2989E-04  0.0000E+00
 81  0.0000E+00  7.7296E-05  0.0000E+00  0.0000E+00  0.0000E+00  4.1128E-04  0.0000E+00  0.0000E+00  4.8582E-04
 82  0.0000E+00  1.0845E-04  0.0000E+00  5.9749E-04  0.0000E+00  0.0000E+00  3.4589E-04  1.3526E-04  6.4752E-04
 83  0.0000E+00  8.4484E-05  0.0000E+00  0.0000E+00  0.0000E+00  0.0000E+00  3.1615E-05  0.0000E+00  6.9470E-04
 84  0.0000E+00  2.1000E-04  8.7533E-04  0.0000E+00  0.0000E+00  0.0000E+00  4.1187E-04  0.0000E+00  1.0277E-03
 85  0.0000E+00  1.0001E-04  0.0000E+00  0.0000E+00  0.0000E+00  0.0000E+00  0.0000E+00  0.0000E+00  5.9134E-04
 86  0.0000E+00  1.1530E-04  0.0000E+00  0.0000E+00  0.0000E+00  0.0000E+00  6.6284E-04  8.3922E-04  0.0000E+00
 87  0.0000E+00  1.7170E-04  0.0000E+00  0.0000E+00  3.7186E-04  0.0000E+00  0.0000E+00  0.0000E+00  0.0000E+00
 88  0.0000E+00  1.2450E-04  1.7720E-03  0.0000E+00  0.0000E+00  0.0000E+00  0.0000E+00  0.0000E+00  0.0000E+00
 89  0.0000E+00  2.7570E-04  0.0000E+00  0.0000E+00  0.0000E+00  0.0000E+00  1.0631E-04  0.0000E+00  0.0000E+00
 90  0.0000E+00  2.3787E-03  0.0000E+00  0.0000E+00  0.0000E+00  0.0000E+00  0.0000E+00  0.0000E+00  1.7871E-04
 91  0.0000E+00  4.7847E-03  0.0000E+00  0.0000E+00  0.0000E+00  7.6500E-05  6.4376E-03  0.0000E+00  0.0000E+00
 92  0.0000E+00  5.2883E-03  7.4767E-05  0.0000E+00  0.0000E+00  0.0000E+00  0.0000E+00  0.0000E+00  1.6206E-02
 93  0.0000E+00  3.0656E-02  0.0000E+00  3.3961E-02  9.0581E-02  5.8366E-02  0.0000E+00  1.3624E-02  1.3069E-01
 94  0.0000E+00  8.5642E-02  0.0000E+00  2.0372E-01  1.8719E-01  8.5741E-02  0.0000E+00  1.6887E-01  1.4696E-01
 95  3.9631E-01  1.7793E-01  7.6274E-01  7.3233E-02  1.5398E-01  9.2164E-02  5.8276E-01  4.1849E-01  5.5341E-02
 96  4.8877E-01  4.1505E-01  5.4135E-01  5.9201E-01  6.3518E-01  3.6814E-01  2.7994E-01  3.6405E-01  3.4162E-01
 97  5.7604E-01  2.0127E-01  7.1399E-01  2.6696E-01  1.3710E-01  3.4689E-01  5.1315E-01  1.9321E-01  1.6688E-01
 98  0.0000E+00  4.8244E-01  1.1415E-02  5.3113E-01  6.8394E-01  5.2640E-01  9.9163E-01  6.0011E-01  3.9438E-01
 99  1.0033E+00  3.6972E-01  8.4539E-01  3.0397E-01  4.8752E-01  3.0486E-01  2.2805E-02  2.6600E-01  2.9618E-01
100  0.0000E+00  5.6406E-01  2.9529E-01  8.7555E-01  0.0000E+00  3.8915E-01  9.1488E-02  1.1907E+00  1.0807E+00
101  3.4971E-04  8.5379E-04  9.1216E-04  8.8166E-04  6.2582E-04  8.7219E-04  8.1291E-04  6.6244E-04  9.2911E-04
102  0.0000E+00  1.3758E-05  0.0000E+00  0.0000E+00  6.7858E-05  0.0000E+00  0.0000E+00  0.0000E+00  0.0000E+00
103  0.0000E+00  2.9037E-05  6.0017E-05  0.0000E+00  3.1130E-06  9.3918E-05  0.0000E+00  0.0000E+00  0.0000E+00
104  0.0000E+00  4.0465E-05  7.2402E-05  3.4773E-05  0.0000E+00  0.0000E+00  1.4383E-04  1.9711E-04  1.0679E-04
105  0.0000E+00  8.2311E-05  2.0703E-04  0.0000E+00  2.1802E-04  1.2696E-04  0.0000E+00  0.0000E+00  5.1377E-05
106  0.0000E+00  1.1900E-04  0.0000E+00  0.0000E+00  0.0000E+00  0.0000E+00  0.0000E+00  3.7036E-04  0.0000E+00
107  0.0000E+00  1.1940E-04  0.0000E+00  0.0000E+00  2.8640E-05  0.0000E+00  4.0144E-04  0.0000E+00  0.0000E+00
108  0.0000E+00  2.4100E-04  0.0000E+00  1.0888E-04  0.0000E+00  0.0000E+00  0.0000E+00  0.0000E+00  0.0000E+00
109  0.0000E+00  1.1767E-04  0.0000E+00  0.0000E+00  0.0000E+00  7.1523E-05  0.0000E+00  0.0000E+00  0.0000E+00
110  0.0000E+00  1.1465E-04  0.0000E+00  0.0000E+00  0.0000E+00  0.0000E+00  1.2484E-03  0.0000E+00  5.6874E-04
111  0.0000E+00  1.9438E-04  0.0000E+00  0.0000E+00  4.8545E-05  0.0000E+00  0.0000E+00  0.0000E+00  0.0000E+00
112  0.0000E+00  1.7279E-04  0.0000E+00  0.0000E+00  0.0000E+00  0.0000E+00  0.0000E+00  0.0000E+00  2.2111E-04
113  0.0000E+00  2.9142E-04  0.0000E+00  0.0000E+00  0.0000E+00  0.0000E+00  0.0000E+00  0.0000E+00  0.0000E+00
114  0.0000E+00  4.4097E-04  0.0000E+00  0.0000E+00  0.0000E+00  0.0000E+00  0.0000E+00  0.0000E+00  0.0000E+00
115  0.0000E+00  1.7103E-03  0.0000E+00  0.0000E+00  0.0000E+00  0.0000E+00  0.0000E+00  0.0000E+00  0.0000E+00
116  0.0000E+00  6.8295E-03  0.0000E+00  0.0000E+00  0.0000E+00  2.1635E-02  0.0000E+00  0.0000E+00  4.8358E-02
117  0.0000E+00  8.0615E-03  0.0000E+00  0.0000E+00  0.0000E+00  0.0000E+00  0.0000E+00  1.3497E-02  0.0000E+00
118  1.8043E-03  4.6178E-02  1.0859E-01  0.0000E+00  0.0000E+00  0.0000E+00  2.4284E-02  0.0000E+00  0.0000E+00
119  1.4821E-02  6.2008E-02  1.3027E-01  0.0000E+00  3.8783E-02  0.0000E+00  0.0000E+00  5.5284E-02  4.1440E-02
120  0.0000E+00  1.4059E-01  0.0000E+00  6.0486E-02  1.9282E-01  1.9544E-01  0.0000E+00  0.0000E+00  2.4243E-02
121  1.8719E-01  9.5957E-02  2.6625E-01  3.9848E-01  5.6307E-02  0.0000E+00  1.1858E-01  1.1986E-01  0.0000E+00
122  1.1011E+01  1.0138E+01  1.0651E+01  1.0296E+01  9.9935E+00  1.0364E+01  1.0325E+01  1.0021E+01  1.0720E+01
123  1.9135E+01  1.8298E+01  1.8752E+01  1.7742E+01  1.8259E+01  1.8383E+01  1.8555E+01  1.8702E+01  1.8299E+01
124  2.9029E+01  2.8162E+01  2.7653E+01  2.7382E+01  2.8295E+01  2.9289E+01  2.8606E+01  2.8570E+01  2.7879E+01
125  2.3090E+01  2.2183E+01  2.2211E+01  2.2718E+01  2.2204E+01  2.2730E+01  2.1837E+01  2.1949E+01  2.2327E+01
126  0.0000E+00  2.4275E-05  0.0000E+00  1.0553E-04  0.0000E+00  0.0000E+00  0.0000E+00  2.3368E-05  0.0000E+00
127  0.0000E+00  4.4176E-05  0.0000E+00  2.5255E-05  2.1622E-04  6.1740E-05  7.1034E-05  0.0000E+00  7.3893E-05
128  0.0000E+00  2.7321E-05  0.0000E+00  3.8306E-05  0.0000E+00  0.0000E+00  9.8990E-05  0.0000E+00  1.3344E-04
129  0.0000E+00  7.0653E-05  0.0000E+00  4.0316E-04  0.0000E+00  0.0000E+00  0.0000E+00  0.0000E+00  0.0000E+00
130  0.0000E+00  2.0696E-04  0.0000E+00  2.4769E-05  0.0000E+00  0.0000E+00  3.7844E-04  3.4755E-04  0.0000E+00
131  0.0000E+00  7.8089E-05  0.0000E+00  1.0372E-04  0.0000E+00  0.0000E+00  0.0000E+00  0.0000E+00  0.0000E+00
132  0.0000E+00  7.5159E-05  0.0000E+00  1.3600E-04  0.0000E+00  0.0000E+00  0.0000E+00  0.0000E+00  0.0000E+00
133  0.0000E+00  7.5892E-05  0.0000E+00  1.0193E-04  0.0000E+00  0.0000E+00  6.9884E-05  0.0000E+00  1.8521E-04
134  0.0000E+00  8.6224E-05  0.0000E+00  0.0000E+00  0.0000E+00  0.0000E+00  0.0000E+00  0.0000E+00  0.0000E+00
135  0.0000E+00  1.0878E-04  0.0000E+00  0.0000E+00  0.0000E+00  0.0000E+00  4.5937E-04  9.0808E-04  0.0000E+00
136  0.0000E+00  1.7905E-04  0.0000E+00  0.0000E+00  0.0000E+00  0.0000E+00  0.0000E+00  0.0000E+00  0.0000E+00
137  0.0000E+00  2.6837E-04  0.0000E+00  2.2145E-05  0.0000E+00  0.0000E+00  0.0000E+00  0.0000E+00  0.0000E+00
138  0.0000E+00  1.9798E-04  0.0000E+00  0.0000E+00  0.0000E+00  0.0000E+00  0.0000E+00  0.0000E+00  0.0000E+00
139  0.0000E+00  1.0038E-03  0.0000E+00  0.0000E+00  0.0000E+00  9.3690E-03  0.0000E+00  0.0000E+00  0.0000E+00
140  0.0000E+00  5.3014E-03  0.0000E+00  0.0000E+00  0.0000E+00  0.0000E+00  0.0000E+00  0.0000E+00  0.0000E+00
141  0.0000E+00  1.4745E-02  0.0000E+00  0.0000E+00  0.0000E+00  0.0000E+00  0.0000E+00  0.0000E+00  0.0000E+00
142  0.0000E+00  1.9294E-02  0.0000E+00  7.1455E-04  0.0000E+00  2.9229E-03  0.0000E+00  6.3290E-03  0.0000E+00
143  0.0000E+00  7.3089E-02  0.0000E+00  8.2740E-02  0.0000E+00  0.0000E+00  8.6895E-02  0.0000E+00  1.1406E-02
144  0.0000E+00  6.6914E-02  0.0000E+00  0.0000E+00  1.4431E-01  0.0000E+00  0.0000E+00  0.0000E+00  0.0000E+00
145  0.0000E+00  1.0359E-01  0.0000E+00  4.3023E-03  3.2819E-01  9.1137E-02  0.0000E+00  7.0273E-02  0.0000E+00
146  0.0000E+00  2.6871E-01  7.6983E-02  2.7154E-01  0.0000E+00  0.0000E+00  0.0000E+00  0.0000E+00  0.0000E+00
147  0.0000E+00  7.4348E-02  3.2496E-02  0.0000E+00  3.5842E-01  0.0000E+00  0.0000E+00  0.0000E+00  0.0000E+00
148  0.0000E+00  4.7909E-02  0.0000E+00  0.0000E+00  0.0000E+00  0.0000E+00  0.0000E+00  0.0000E+00  0.0000E+00
149  0.0000E+00  4.5792E-01  3.8571E-01  6.6137E-01  5.1327E-01  0.0000E+00  5.4396E-01  0.0000E+00  7.7175E-01
150  1.6920E-03  7.0148E-01  9.2230E-01  1.0513E+00  6.9732E-01  8.6459E-02  4.7578E-01  6.0521E-01  6.3354E-01

# AV, chi2 & Mass for <> & i_chain = 1 ...  7 solutions
AV       1.7905      1.7783      1.7817      1.7812      1.7789      1.7849      1.7788      1.7804      1.7781
chi2 2.7215E+00  2.7734E+00  2.7535E+00  2.7677E+00  2.7546E+00  2.7536E+00  2.7650E+00  2.7671E+00  2.7668E+00
Mass 1.1003E-09  1.1253E-09  1.1168E-09  1.1252E-09  1.1182E-09  1.1263E-09  1.1198E-09  1.1301E-09  1.1287E-09
 -28.02                                  [v0_min (km/s) before EX0s...]
  57.87                                  [vd_min (km/s) before EX0s...]


## Synthetic spectrum (Best Model) ##l_obs f_obs f_syn wei
 3070    [Nl_obs]
 3359.00    0.25155   0.44633   -1.000
 3360.00    0.28686   0.43403   -1.000
 3361.00    0.26337   0.44464   -1.000
 3362.00    0.26264   0.47175   -1.000
 3363.00    0.30699   0.50037   -1.000
 3364.00    0.29813   0.51508   -1.000
 3365.00    0.29866   0.51036   -1.000
 3366.00    0.33946   0.49428   -1.000
 3367.00    0.30017   0.47666   -1.000
 3368.00    0.30608   0.46231   -1.000
 3369.00    0.34565   0.45260   -1.000
 3370.00    0.32885   0.44513   -1.000
 3371.00    0.29450   0.44276   -1.000
 3372.00    0.28433   0.45112   -1.000
 3373.00    0.38177   0.47118   -1.000
 3374.00    0.40128   0.49728   -1.000
 3375.00    0.37003   0.52053   -1.000
 3376.00    0.38408   0.52994   -1.000
 3377.00    0.41180   0.52145   -1.000
 3378.00    0.37912   0.50351   -1.000
 3379.00    0.35458   0.48904   -1.000
 3380.00    0.36761   0.48662   -1.000
 3381.00    0.37354   0.49545   -1.000
 3382.00    0.34982   0.50741   -1.000
 3383.00    0.36135   0.51764   -1.000
 3384.00    0.36415   0.52615   -1.000
 3385.00    0.38807   0.53290   -1.000
 3386.00    0.40637   0.53386   -1.000
 3387.00    0.37800   0.53062   -1.000
 3388.00    0.41122   0.52778   -1.000
 3389.00    0.42197   0.52703   -1.000
 3390.00    0.42348   0.52381   -1.000
 3391.00    0.42644   0.51525   -1.000
 3392.00    0.40592   0.50727   -1.000
 3393.00    0.38873   0.50868   -1.000
 3394.00    0.43404   0.52144   -1.000
 3395.00    0.45437   0.53839   -1.000
 3396.00    0.44452   0.55297   -1.000
 3397.00    0.44261   0.56510   -1.000
 3398.00    0.49824   0.57250   36.456
 3399.00    0.51718   0.57266   36.064
 3400.00    0.45774   0.56685   -1.000
 3401.00    0.44983   0.55544   -1.000
 3402.00    0.45614   0.54150   -1.000
 3403.00    0.46065   0.53135   39.121
 3404.00    0.46611   0.52569   39.829
 3405.00    0.44937   0.52189   40.431
 3406.00    0.43848   0.51676   -1.000
 3407.00    0.45840   0.51238   41.275
 3408.00    0.46515   0.51292   41.444
 3409.00    0.47302   0.51948   41.076
 3410.00    0.45390   0.52509   39.900
 3411.00    0.44681   0.51996   39.799
 3412.00    0.45985   0.50674   41.477
 3413.00    0.46633   0.49424   42.134
 3414.00    0.42472   0.49247   41.926
 3415.00    0.44731   0.50413   40.784
 3416.00    0.45455   0.52220   38.997
 3417.00    0.46359   0.54092   37.134
 3418.00    0.49856   0.55694   35.426
 3419.00    0.50180   0.56841   35.301
 3420.00    0.52667   0.57063   35.100
 3421.00    0.49764   0.56102   35.405
 3422.00    0.46854   0.54546   36.440
 3423.00    0.47854   0.53572   37.065
 3424.00    0.49665   0.53415   35.979
 3425.00    0.50740   0.53795   35.109
 3426.00    0.49026   0.54473   38.421
 3427.00    0.49819   0.55638   -1.000
 3428.00    0.49521   0.57340   -1.000
 3429.00    0.50193   0.58521   -1.000
 3430.00    0.52211   0.58083   -1.000
 3431.00    0.50624   0.56374   -1.000
 3432.00    0.48562   0.54671   35.073
 3433.00    0.49125   0.54293   38.395
 3434.00    0.51789   0.55123   -1.000
 3435.00    0.52500   0.55827   -1.000
 3436.00    0.52453   0.55453   35.009
 3437.00    0.50882   0.53904   36.715
 3438.00    0.50132   0.51518   39.007
 3439.00    0.50781   0.48824   41.974
 3440.00    0.49784   0.46505   43.475
 3441.00    0.43419   0.45228   43.501
 3442.00    0.43209   0.45402   43.142
 3443.00    0.43218   0.46511   41.336
 3444.00    0.44287   0.47878   39.061
 3445.00    0.45898   0.49337   36.987
 3446.00    0.50377   0.51097   39.635
 3447.00    0.49402   0.53093   -1.000
 3448.00    0.52080   0.55052   -1.000
 3449.00    0.54640   0.56043   -1.000
 3450.00    0.55010   0.55384  281.232
 3451.00    0.56908   0.53889   -1.000
 3452.00    0.53578   0.52906  281.232
 3453.00    0.53721   0.53066  281.232
 3454.00    0.56461   0.53999   -1.000
 3455.00    0.55750   0.54511   -1.000
 3456.00    0.57859   0.53974   -1.000
 3457.00    0.58131   0.52594   -1.000
 3458.00    0.56721   0.51032   35.001
 3459.00    0.50152   0.49865   35.399
 3460.00    0.50232   0.49316   39.082
 3461.00    0.52441   0.49931   -1.000
 3462.00    0.53907   0.51715   -1.000
 3463.00    0.53439   0.53282  281.232
 3464.00    0.55961   0.53464   -1.000
 3465.00    0.55480   0.53139   -1.000
 3466.00    0.56684   0.53303   -1.000
 3467.00    0.56983   0.54329   -1.000
 3468.00    0.56462   0.55764  281.232
 3469.00    0.58188   0.56768   -1.000
 3470.00    0.59443   0.56718   -1.000
 3471.00    0.57954   0.55505   -1.000
 3472.00    0.54531   0.53599   -1.000
 3473.00    0.55035   0.51378   -1.000
 3474.00    0.52667   0.49415   35.390
 3475.00    0.49330   0.48463   36.481
 3476.00    0.51226   0.49020   39.905
 3477.00    0.52156   0.50620   -1.000
 3478.00    0.53195   0.52454  281.232
 3479.00    0.56397   0.53901   -1.000
 3480.00    0.58205   0.54639   -1.000
 3481.00    0.54674   0.54433  281.232
 3482.00    0.56546   0.53571   -1.000
 3483.00    0.56959   0.52911   -1.000
 3484.00    0.57083   0.53330   -1.000
 3485.00    0.56952   0.54736   -1.000
 3486.00    0.57924   0.56007   -1.000
 3487.00    0.62762   0.56088   -1.000
 3488.00    0.62313   0.54646   -1.000
 3489.00    0.57612   0.52532   -1.000
 3490.00    0.53642   0.51108   -1.000
 3491.00    0.54457   0.51188   -1.000
 3492.00    0.55518   0.52204   -1.000
 3493.00    0.57631   0.53109   -1.000
 3494.00    0.56796   0.53231   -1.000
 3495.00    0.57305   0.52513   -1.000
 3496.00    0.55684   0.52000   -1.000
 3497.00    0.52759   0.52736  281.232
 3498.00    0.53255   0.54659   -1.000
 3499.00    0.58816   0.56409   -1.000
 3500.00    0.60273   0.57095   -1.000
 3501.00    0.57833   0.57532  272.388
 3502.00    0.56766   0.58169   -1.000
 3503.00    0.60096   0.58416   -1.000
 3504.00    0.62733   0.57823   -1.000
 3505.00    0.59877   0.56744   -1.000
 3506.00    0.58749   0.56014   -1.000
 3507.00    0.59178   0.55765   -1.000
 3508.00    0.59680   0.55397   -1.000
 3509.00    0.61388   0.54697   -1.000
 3510.00    0.60395   0.53833   -1.000
 3511.00    0.57801   0.52839   -1.000
 3512.00    0.54739   0.51762   -1.000
 3513.00    0.54428   0.51002   -1.000
 3514.00    0.55176   0.51446   -1.000
 3515.00    0.57284   0.53578   -1.000
 3516.00    0.55714   0.56443  280.081
 3517.00    0.57912   0.58393  277.544
 3518.00    0.61748   0.58507   -1.000
 3519.00    0.60089   0.56958   -1.000
 3520.00    0.56558   0.54747   -1.000
 3521.00    0.56554   0.52667   -1.000
 3522.00    0.53951   0.51011   -1.000
 3523.00    0.50625   0.49488   35.096
 3524.00    0.49730   0.48328   36.169
 3525.00    0.48252   0.48312   40.767
 3526.00    0.48778   0.49878  281.232
 3527.00    0.52435   0.52509  281.232
 3528.00    0.53153   0.55171   -1.000
 3529.00    0.58135   0.56782   -1.000
 3530.00    0.57671   0.57110  281.232
 3531.00    0.56909   0.56769  281.232
 3532.00    0.57710   0.56544   -1.000
 3533.00    0.59140   0.56668   -1.000
 3534.00    0.58991   0.57164   -1.000
 3535.00    0.57546   0.57755  279.594
 3536.00    0.59276   0.58365   -1.000
 3537.00    0.57067   0.59176   -1.000
 3538.00    0.56422   0.59947   -1.000
 3539.00    0.60405   0.60170  277.534
 3540.00    0.64007   0.59726   -1.000
 3541.00    0.60861   0.59178   -1.000
 3542.00    0.57059   0.59365   -1.000
 3543.00    0.59319   0.60160  278.207
 3544.00    0.63127   0.60758   -1.000
 3545.00    0.62115   0.60638   -1.000
 3546.00    0.60819   0.60007  281.232
 3547.00    0.62371   0.59613   -1.000
 3548.00    0.61014   0.59670   -1.000
 3549.00    0.60310   0.59831  281.232
 3550.00    0.59980   0.59659  281.232
 3551.00    0.59306   0.58916  281.232
 3552.00    0.59578   0.57729   -1.000
 3553.00    0.55478   0.56709  281.232
 3554.00    0.56208   0.56492  281.232
 3555.00    0.56504   0.56889  281.232
 3556.00    0.59974   0.57331   -1.000
 3557.00    0.60082   0.57483   -1.000
 3558.00    0.57996   0.57392  281.232
 3559.00    0.56508   0.57624   -1.000
 3560.00    0.54966   0.58397   -1.000
 3561.00    0.56505   0.59203   -1.000
 3562.00    0.60049   0.58966   -1.000
 3563.00    0.59675   0.56986   -1.000
 3564.00    0.55737   0.53959   35.494
 3565.00    0.50742   0.51541   36.679
 3566.00    0.50561   0.50763   36.269
 3567.00    0.50325   0.50715   36.277
 3568.00    0.50546   0.50282   37.452
 3569.00    0.50107   0.49302   37.852
 3570.00    0.46513   0.48558   36.567
 3571.00    0.47027   0.48990   40.498
 3572.00    0.50081   0.50295  281.232
 3573.00    0.52556   0.51500   -1.000
 3574.00    0.52921   0.52370  281.232
 3575.00    0.52996   0.52857  281.232
 3576.00    0.52294   0.52759  281.232
 3577.00    0.52511   0.51887  152.536
 3578.00    0.53682   0.50190   36.884
 3579.00    0.52822   0.48058   39.709
 3580.00    0.48606   0.46378   41.588
 3581.00    0.45655   0.45666   41.823
 3582.00    0.47551   0.45846   42.127
 3583.00    0.46267   0.46126   43.253
 3584.00    0.46276   0.45827   44.565
 3585.00    0.44737   0.45092   44.723
 3586.00    0.45963   0.44802   42.410
 3587.00    0.45271   0.45609   40.179
 3588.00    0.47066   0.47608   37.963
 3589.00    0.46986   0.50385   40.596
 3590.00    0.49247   0.53048   -1.000
 3591.00    0.52851   0.54697   -1.000
 3592.00    0.55064   0.55158  281.232
 3593.00    0.55203   0.55421  281.232
 3594.00    0.55319   0.56316  281.232
 3595.00    0.57919   0.57925  280.352
 3596.00    0.56834   0.59502   -1.000
 3597.00    0.58229   0.60563   -1.000
 3598.00    0.61767   0.61422  262.504
 3599.00    0.63167   0.61900   -1.000
 3600.00    0.62814   0.61241   -1.000
 3601.00    0.61435   0.59339   -1.000
 3602.00    0.59432   0.56969   -1.000
 3603.00    0.55237   0.55045  281.232
 3604.00    0.53281   0.54161  281.232
 3605.00    0.52375   0.53894   -1.000
 3606.00    0.52190   0.53416   -1.000
 3607.00    0.52159   0.52409  281.232
 3608.00    0.51922   0.51479  281.232
 3609.00    0.51808   0.51468  281.232
 3610.00    0.52943   0.52590  281.232
 3611.00    0.53061   0.54189  281.232
 3612.00    0.53047   0.55534   -1.000
 3613.00    0.53548   0.56751   -1.000
 3614.00    0.55436   0.57935   -1.000
 3615.00    0.56334   0.58377   -1.000
 3616.00    0.58387   0.57060   -1.000
 3617.00    0.54907   0.54129  140.560
 3618.00    0.52711   0.51610   40.646
 3619.00    0.49438   0.51504   -1.000
 3620.00    0.53904   0.53605  281.232
 3621.00    0.57381   0.56601  279.595
 3622.00    0.58924   0.59014  273.555
 3623.00    0.58123   0.60700   -1.000
 3624.00    0.59806   0.62538   -1.000
 3625.00    0.61333   0.64944   -1.000
 3626.00    0.64467   0.67098   -1.000
 3627.00    0.64716   0.67632   -1.000
 3628.00    0.66188   0.65600  271.257
 3629.00    0.61909   0.61306  281.232
 3630.00    0.58459   0.56761   -1.000
 3631.00    0.55587   0.54228   -1.000
 3632.00    0.53657   0.54147  281.232
 3633.00    0.55919   0.55730  281.232
 3634.00    0.54884   0.57483   -1.000
 3635.00    0.57329   0.58676   -1.000
 3636.00    0.57249   0.59725   -1.000
 3637.00    0.58963   0.61424   -1.000
 3638.00    0.61380   0.63413   -1.000
 3639.00    0.62715   0.64854   -1.000
 3640.00    0.63698   0.65139   -1.000
 3641.00    0.63088   0.64052  269.987
 3642.00    0.62305   0.62118  281.232
 3643.00    0.58027   0.60070   -1.000
 3644.00    0.57325   0.58309  281.232
 3645.00    0.57168   0.56886  281.232
 3646.00    0.56947   0.55607   -1.000
 3647.00    0.55385   0.54820  281.232
 3648.00    0.53184   0.55108   -1.000
 3649.00    0.57111   0.56566  281.232
 3650.00    0.58626   0.58910  269.075
 3651.00    0.59387   0.61584   -1.000
 3652.00    0.60570   0.63876   -1.000
 3653.00    0.62987   0.65253   -1.000
 3654.00    0.64121   0.66227   -1.000
 3655.00    0.63960   0.67237   -1.000
 3656.00    0.64381   0.68430   -1.000
 3657.00    0.64943   0.69476   -1.000
 3658.00    0.68457   0.70017   -1.000
 3659.00    0.67589   0.70042   -1.000
 3660.00    0.64426   0.69472   -1.000
 3661.00    0.66709   0.68339   -1.000
 3662.00    0.65802   0.67084  249.716
 3663.00    0.63854   0.66311   -1.000
 3664.00    0.61649   0.66160   -1.000
 3665.00    0.64213   0.66305   -1.000
 3666.00    0.66841   0.66087  254.167
 3667.00    0.65185   0.65205  257.540
 3668.00    0.64052   0.64040  262.547
 3669.00    0.61468   0.63605   -1.000
 3670.00    0.59879   0.64509   -1.000
 3671.00    0.63843   0.66047   -1.000
 3672.00    0.65701   0.67240   -1.000
 3673.00    0.67501   0.67641  245.331
 3674.00    0.67212   0.67209  247.178
 3675.00    0.66280   0.66002  255.011
 3676.00    0.63810   0.64076  262.922
 3677.00    0.63597   0.61792   -1.000
 3678.00    0.63019   0.59884   -1.000
 3679.00    0.58310   0.59105  274.005
 3680.00    0.57754   0.59678   -1.000
 3681.00    0.59085   0.61067   -1.000
 3682.00    0.59215   0.62348   -1.000
 3683.00    0.60107   0.62662   -1.000
 3684.00    0.61965   0.61603  277.439
 3685.00    0.61301   0.59553   -1.000
 3686.00    0.55966   0.57789   -1.000
 3687.00    0.54985   0.57720   -1.000
 3688.00    0.56164   0.59684   -1.000
 3689.00    0.60363   0.62951   -1.000
 3690.00    0.65009   0.65989  239.826
 3691.00    0.67185   0.67441  242.718
 3692.00    0.68199   0.66946   -1.000
 3693.00    0.67818   0.65700   -1.000
 3694.00    0.64636   0.64871  250.014
 3695.00    0.63386   0.64798   -1.000
 3696.00    0.61776   0.65478   -1.000
 3697.00    0.62710   0.66910   -1.000
 3698.00    0.65530   0.68764   -1.000
 3699.00    0.71516   0.70218   -1.000
 3700.00    0.72691   0.70417   -1.000
 3701.00    0.69554   0.68535   -1.000
 3702.00    0.66744   0.64559   -1.000
 3703.00    0.62243   0.59741   -1.000
 3704.00    0.59096   0.55782   -1.000
 3705.00    0.54813   0.53738   -1.000
 3706.00    0.54033   0.53702  281.232
 3707.00    0.55863   0.54576   -1.000
 3708.00    0.58293   0.55835   -1.000
 3709.00    0.57502   0.57597  268.545
 3710.00    0.59988   0.59886  255.674
 3711.00    0.63227   0.62550  241.533
 3712.00    0.65804   0.65434  231.103
 3713.00    0.69259   0.67828   -1.000
 3714.00    0.71288   0.68993   -1.000
 3715.00    0.72013   0.68614   -1.000
 3716.00    0.69847   0.66550   -1.000
 3717.00    0.66065   0.62821   -1.000
 3718.00    0.61745   0.57848   -1.000
 3719.00    0.56741   0.52437   -1.000
 3720.00    0.52552   0.48539   42.931
 3721.00    0.50654   0.48034   -1.000
 3722.00    0.54218   0.50765   -1.000
 3723.00    0.57801   0.55325   -1.000
 3724.00    0.59846   0.59635  252.430
 3725.00    0.64508   0.61856   -1.000
 3726.00    0.67263   0.61919   -1.000
 3727.00    0.64512   0.61533   -1.000
 3728.00    0.62606   0.61717  260.798
 3729.00    0.64394   0.61773   -1.000
 3730.00    0.65168   0.60448   -1.000
 3731.00    0.62000   0.56790   -1.000
 3732.00    0.57752   0.51620   35.582
 3733.00    0.52063   0.46800   39.330
 3734.00    0.45975   0.43677   40.058
 3735.00    0.45734   0.43344   37.639
 3736.00    0.47268   0.45888   42.294
 3737.00    0.48578   0.50383   -1.000
 3738.00    0.54993   0.55610  273.116
 3739.00    0.62473   0.60239   -1.000
 3740.00    0.66687   0.62692   -1.000
 3741.00    0.66921   0.62430   -1.000
 3742.00    0.64527   0.60075   -1.000
 3743.00    0.60751   0.56954   -1.000
 3744.00    0.57240   0.54195   -1.000
 3745.00    0.54569   0.52190   -1.000
 3746.00    0.53467   0.50135   35.754
 3747.00    0.51709   0.47794   37.693
 3748.00    0.48182   0.45949   46.415
 3749.00    0.47251   0.45923   -1.000
 3750.00    0.50919   0.48675   -1.000
 3751.00    0.55396   0.53431   -1.000
 3752.00    0.59706   0.58616   -1.000
 3753.00    0.65465   0.63249   -1.000
 3754.00    0.68889   0.66107   -1.000
 3755.00    0.69048   0.65999   -1.000
 3756.00    0.65306   0.63189   -1.000
 3757.00    0.60623   0.59379   -1.000
 3758.00    0.57722   0.56934  281.232
 3759.00    0.57276   0.56810  281.232
 3760.00    0.58521   0.58034  273.640
 3761.00    0.61476   0.59279   -1.000
 3762.00    0.64172   0.59764   -1.000
 3763.00    0.62723   0.59701   -1.000
 3764.00    0.62635   0.59316   -1.000
 3765.00    0.64480   0.58558   -1.000
 3766.00    0.64379   0.57697   -1.000
 3767.00    0.61823   0.57074   -1.000
 3768.00    0.60999   0.56643   -1.000
 3769.00    0.61894   0.56474   -1.000
 3770.00    0.61348   0.57124   -1.000
 3771.00    0.62972   0.58998   -1.000
 3772.00    0.66101   0.61699   -1.000
 3773.00    0.68934   0.64134   -1.000
 3774.00    0.69171   0.65512   -1.000
 3775.00    0.67879   0.66210   -1.000
 3776.00    0.67516   0.66878  239.124
 3777.00    0.69484   0.67955   -1.000
 3778.00    0.71561   0.69432   -1.000
 3779.00    0.72297   0.70957   -1.000
 3780.00    0.73475   0.72175   -1.000
 3781.00    0.73941   0.72863   -1.000
 3782.00    0.72585   0.73026  221.584
 3783.00    0.73127   0.72389  228.247
 3784.00    0.73028   0.70537   -1.000
 3785.00    0.71145   0.67689   -1.000
 3786.00    0.67646   0.64620   -1.000
 3787.00    0.63197   0.62122   -1.000
 3788.00    0.62921   0.60927   -1.000
 3789.00    0.61272   0.61125  267.650
 3790.00    0.61235   0.61892  266.457
 3791.00    0.62861   0.62212  272.008
 3792.00    0.65142   0.61328   -1.000
 3793.00    0.63375   0.59281   -1.000
 3794.00    0.60117   0.56785   -1.000
 3795.00    0.57886   0.54142   -1.000
 3796.00    0.55896   0.51419   -1.000
 3797.00    0.53730   0.49248   -1.000
 3798.00    0.53290   0.49105   -1.000
 3799.00    0.53252   0.52025   -1.000
 3800.00    0.55698   0.56976   -1.000
 3801.00    0.61351   0.61921  250.714
 3802.00    0.63677   0.65585   -1.000
 3803.00    0.68091   0.67405  246.028
 3804.00    0.68335   0.67553  251.169
 3805.00    0.67245   0.66532  259.857
 3806.00    0.64266   0.65497  262.075
 3807.00    0.63233   0.65639   -1.000
 3808.00    0.65833   0.67087  245.835
 3809.00    0.67843   0.68722  244.928
 3810.00    0.70775   0.69211   -1.000
 3811.00    0.69795   0.67754   -1.000
 3812.00    0.67641   0.64837   -1.000
 3813.00    0.64385   0.61627   -1.000
 3814.00    0.61862   0.59204   -1.000
 3815.00    0.58469   0.58390  281.232
 3816.00    0.59060   0.58794  281.232
 3817.00    0.59961   0.59013   -1.000
 3818.00    0.60713   0.57865   -1.000
 3819.00    0.58818   0.55964   -1.000
 3820.00    0.54318   0.54904  281.232
 3821.00    0.55605   0.55385  281.232
 3822.00    0.58718   0.56298   -1.000
 3823.00    0.58554   0.55781   -1.000
 3824.00    0.53790   0.53947   36.680
 3825.00    0.50982   0.52215   37.201
 3826.00    0.49494   0.51388   36.793
 3827.00    0.48127   0.51488   36.190
 3828.00    0.48874   0.51903   35.838
 3829.00    0.51490   0.51902   36.579
 3830.00    0.50868   0.51007   38.564
 3831.00    0.50385   0.49130   41.258
 3832.00    0.50862   0.46578   41.984
 3833.00    0.48588   0.44204   40.902
 3834.00    0.46144   0.42943   39.409
 3835.00    0.47415   0.43047   38.959
 3836.00    0.48476   0.44010   39.854
 3837.00    0.49192   0.45180   40.419
 3838.00    0.47529   0.46497   39.267
 3839.00    0.46618   0.48352   47.317
 3840.00    0.49713   0.51226   -1.000
 3841.00    0.54416   0.54932  281.232
 3842.00    0.59518   0.58718  281.232
 3843.00    0.63585   0.61789   -1.000
 3844.00    0.64273   0.63558  281.232
 3845.00    0.64460   0.64395  281.232
 3846.00    0.66006   0.64794   -1.000
 3847.00    0.66227   0.64721   -1.000
 3848.00    0.64484   0.64064  281.232
 3849.00    0.62626   0.63313  281.232
 3850.00    0.60846   0.63323   -1.000
 3851.00    0.61443   0.64167   -1.000
 3852.00    0.62986   0.64925   -1.000
 3853.00    0.62788   0.64772   -1.000
 3854.00    0.61972   0.63639   -1.000
 3855.00    0.60781   0.62132   -1.000
 3856.00    0.60105   0.60531  108.108
 3857.00    0.59181   0.58786   35.071
 3858.00    0.56568   0.57442   36.564
 3859.00    0.53258   0.57404   45.590
 3860.00    0.53725   0.59101   -1.000
 3861.00    0.56891   0.61943   -1.000
 3862.00    0.60813   0.64379   -1.000
 3863.00    0.65531   0.65348  279.438
 3864.00    0.66286   0.65026   -1.000
 3865.00    0.66101   0.64441   -1.000
 3866.00    0.64652   0.64192  281.232
 3867.00    0.63672   0.64084  281.232
 3868.00    0.61939   0.63583   -1.000
 3869.00    0.58652   0.62251   -1.000
 3870.00    0.54290   0.60522   44.779
 3871.00    0.51924   0.59453   -1.000
 3872.00    0.53708   0.59831   -1.000
 3873.00    0.58404   0.61641   -1.000
 3874.00    0.64125   0.63790  271.277
 3875.00    0.66283   0.64638   -1.000
 3876.00    0.64864   0.63393   -1.000
 3877.00    0.59892   0.61388   -1.000
 3878.00    0.57252   0.60151   -1.000
 3879.00    0.56912   0.60012   -1.000
 3880.00    0.56145   0.60441   -1.000
 3881.00    0.54783   0.60754   -1.000
 3882.00    0.56003   0.61028   -1.000
 3883.00    0.58862   0.61102   -1.000
 3884.00    0.60756   0.59810   -1.000
 3885.00    0.60542   0.56776   -1.000
 3886.00    0.57625   0.53137   -1.000
 3887.00    0.56888   0.50574   -1.000
 3888.00    0.55895   0.50517   -1.000
 3889.00    0.58761   0.53316   -1.000
 3890.00    0.62879   0.58056   -1.000
 3891.00    0.66147   0.62980   -1.000
 3892.00    0.69729   0.66254   -1.000
 3893.00    0.70512   0.67304   -1.000
 3894.00    0.71123   0.67387   -1.000
 3895.00    0.71186   0.67739   -1.000
 3896.00    0.71671   0.68514   -1.000
 3897.00    0.72592   0.69162   -1.000
 3898.00    0.72296   0.69251   -1.000
 3899.00    0.71721   0.69276   -1.000
 3900.00    0.73971   0.69713   -1.000
 3901.00    0.73282   0.70037   -1.000
 3902.00    0.70519   0.69676  242.673
 3903.00    0.72209   0.68603   -1.000
 3904.00    0.71058   0.67552   -1.000
 3905.00    0.66381   0.67523  248.110
 3906.00    0.65048   0.68981   -1.000
 3907.00    0.69495   0.71689   -1.000
 3908.00    0.74705   0.74599  215.430
 3909.00    0.76484   0.76676  213.519
 3910.00    0.76786   0.77781  211.678
 3911.00    0.78296   0.78393  211.424
 3912.00    0.78491   0.78560  214.507
 3913.00    0.76451   0.78122   -1.000
 3914.00    0.75662   0.77231   -1.000
 3915.00    0.76482   0.76191  226.565
 3916.00    0.76621   0.75041   -1.000
 3917.00    0.75714   0.73506   -1.000
 3918.00    0.72809   0.71356   -1.000
 3919.00    0.68578   0.69048  259.385
 3920.00    0.64919   0.67287   -1.000
 3921.00    0.65195   0.66565   -1.000
 3922.00    0.68059   0.66910   -1.000
 3923.00    0.68123   0.67456  261.241
 3924.00    0.66744   0.67239  277.658
 3925.00    0.63576   0.65603   -1.000
 3926.00    0.60862   0.62588  111.503
 3927.00    0.57440   0.58762   40.195
 3928.00    0.50021   0.54625   47.114
 3929.00    0.43760   0.50472   -1.000
 3930.00    0.38172   0.45921   -1.000
 3931.00    0.32601   0.40822   -1.000
 3932.00    0.29052   0.36016   -1.000
 3933.00    0.28327   0.33567   -1.000
 3934.00    0.28696   0.35103   -1.000
 3935.00    0.30114   0.39772   -1.000
 3936.00    0.34065   0.45578   -1.000
 3937.00    0.39963   0.51450   -1.000
 3938.00    0.46797   0.56747   -1.000
 3939.00    0.52469   0.60793   -1.000
 3940.00    0.56696   0.63405   -1.000
 3941.00    0.60279   0.64546   -1.000
 3942.00    0.60470   0.64713   -1.000
 3943.00    0.60177   0.65047   -1.000
 3944.00    0.61884   0.66488   -1.000
 3945.00    0.67210   0.68710   -1.000
 3946.00    0.71074   0.70793  237.574
 3947.00    0.70176   0.72225   -1.000
 3948.00    0.71253   0.73317   -1.000
 3949.00    0.74383   0.74561  220.349
 3950.00    0.75863   0.75456  222.121
 3951.00    0.76086   0.75634  223.439
 3952.00    0.74773   0.75859  218.884
 3953.00    0.75112   0.76390  215.514
 3954.00    0.78027   0.76591   -1.000
 3955.00    0.78283   0.76004   -1.000
 3956.00    0.76574   0.74970   -1.000
 3957.00    0.75374   0.74272  226.299
 3958.00    0.75056   0.73552   -1.000
 3959.00    0.74219   0.71246   -1.000
 3960.00    0.69420   0.67254   -1.000
 3961.00    0.62165   0.62901  281.232
 3962.00    0.57443   0.59246  103.466
 3963.00    0.54799   0.56424   37.898
 3964.00    0.52541   0.53031   45.058
 3965.00    0.46228   0.48000   55.532
 3966.00    0.37805   0.41550   66.231
 3967.00    0.30966   0.35365   69.654
 3968.00    0.28357   0.31991   62.242
 3969.00    0.29495   0.32750   51.184
 3970.00    0.33801   0.37067   42.287
 3971.00    0.38850   0.43427   49.283
 3972.00    0.45479   0.50265   -1.000
 3973.00    0.52893   0.56623   -1.000
 3974.00    0.60031   0.62306   -1.000
 3975.00    0.65048   0.67206   -1.000
 3976.00    0.68567   0.71523   -1.000
 3977.00    0.73423   0.75369   -1.000
 3978.00    0.78901   0.78768  198.700
 3979.00    0.82598   0.81218   -1.000
 3980.00    0.83962   0.82159   -1.000
 3981.00    0.82866   0.82000  202.104
 3982.00    0.81378   0.81619  199.734
 3983.00    0.81164   0.81922  195.571
 3984.00    0.82927   0.83062  191.918
 3985.00    0.86409   0.84540   -1.000
 3986.00    0.85563   0.86064  185.540
 3987.00    0.86887   0.87521  184.505
 3988.00    0.87994   0.88470  184.703
 3989.00    0.87189   0.88836  182.569
 3990.00    0.88487   0.89294  178.193
 3991.00    0.90874   0.90220  175.716
 3992.00    0.94150   0.91188   -1.000
 3993.00    0.93914   0.91353   -1.000
 3994.00    0.91825   0.90402   -1.000
 3995.00    0.90132   0.88760  189.916
 3996.00    0.90144   0.87504   -1.000
 3997.00    0.87557   0.87696  183.964
 3998.00    0.87407   0.89416   -1.000
 3999.00    0.90885   0.91794  171.061
 4000.00    0.94051   0.93867  168.477
 4001.00    0.95472   0.95063  167.736
 4002.00    0.97207   0.94709   -1.000
 4003.00    0.96979   0.92342   -1.000
 4004.00    0.93090   0.88941   -1.000
 4005.00    0.87402   0.86878  186.335
 4006.00    0.87640   0.87598  176.351
 4007.00    0.91781   0.90515  170.828
 4008.00    0.95618   0.93583   -1.000
 4009.00    0.97309   0.95413   -1.000
 4010.00    1.02690   0.96297   -1.000
 4011.00    0.99331   0.96792   -1.000
 4012.00    0.97822   0.97202  168.763
 4013.00    0.97172   0.97704  167.103
 4014.00    0.99583   0.98196  165.826
 4015.00    1.00450   0.98350   -1.000
 4016.00    0.98960   0.98264  168.772
 4017.00    0.98406   0.98542  167.342
 4018.00    1.00000   0.99292  165.592
 4019.00    1.01891   1.00012   -1.000
 4020.00    1.01462   1.00115  168.737
 4021.00    1.00793   0.99509  169.728
 4022.00    0.99287   0.98583  170.910
 4023.00    0.99315   0.97633   -1.000
 4024.00    0.96991   0.97126  165.598
 4025.00    0.98229   0.97741  160.411
 4026.00    1.03965   0.99499   -1.000
 4027.00    1.07052   1.00917   -1.000
 4028.00    1.04252   1.00029   -1.000
 4029.00    1.01501   0.96320   -1.000
 4030.00    0.96899   0.91600   -1.000
 4031.00    0.90700   0.88074   -1.000
 4032.00    0.90922   0.86657   -1.000
 4033.00    0.90556   0.87570   -1.000
 4034.00    0.91818   0.90734  167.374
 4035.00    0.96565   0.95389  159.850
 4036.00    1.01715   1.00215  155.807
 4037.00    1.06190   1.03551   -1.000
 4038.00    1.08399   1.04307   -1.000
 4039.00    1.07066   1.03268   -1.000
 4040.00    1.02529   1.01953  164.713
 4041.00    1.02125   1.00589   -1.000
 4042.00    1.03324   0.97696   -1.000
 4043.00    1.00393   0.92413   -1.000
 4044.00    0.92684   0.86445   -1.000
 4045.00    0.85204   0.83515   -1.000
 4046.00    0.85895   0.85955  173.664
 4047.00    0.92248   0.91848  165.001
 4048.00    0.99326   0.97795  161.267
 4049.00    1.04172   1.01729   -1.000
 4050.00    1.06238   1.03164   -1.000
 4051.00    1.07149   1.02810   -1.000
 4052.00    1.05656   1.01366   -1.000
 4053.00    1.00979   0.99547  173.079
 4054.00    0.99278   0.97907  174.365
 4055.00    1.00613   0.96514   -1.000
 4056.00    0.99126   0.95347   -1.000
 4057.00    0.96750   0.95088  172.801
 4058.00    0.95825   0.96323  167.314
 4059.00    1.00511   0.98022   -1.000
 4060.00    1.04637   0.97982   -1.000
 4061.00    1.04013   0.94868   -1.000
 4062.00    0.98492   0.90360   -1.000
 4063.00    0.91516   0.87422   -1.000
 4064.00    0.91468   0.87092   -1.000
 4065.00    0.93812   0.89043   -1.000
 4066.00    0.95102   0.92119   -1.000
 4067.00    0.97048   0.94829   -1.000
 4068.00    1.03191   0.96220   -1.000
 4069.00    1.06371   0.95536   -1.000
 4070.00    1.02333   0.93046   -1.000
 4071.00    0.96202   0.91153   -1.000
 4072.00    0.95806   0.91670   -1.000
 4073.00    0.99603   0.93483   -1.000
 4074.00    1.02915   0.93925   -1.000
 4075.00    0.99322   0.91677   -1.000
 4076.00    0.89912   0.88780  196.772
 4077.00    0.85538   0.88080   -1.000
 4078.00    0.88019   0.90693   -1.000
 4079.00    0.93698   0.95463  164.685
 4080.00    1.00234   0.99823  162.291
 4081.00    1.03692   1.01759   -1.000
 4082.00    1.04318   1.00991   -1.000
 4083.00    1.01458   0.99199   -1.000
 4084.00    0.99100   0.98443  168.024
 4085.00    1.01025   0.99823  161.991
 4086.00    1.04642   1.02740   -1.000
 4087.00    1.07220   1.05695  152.902
 4088.00    1.09808   1.07305   -1.000
 4089.00    1.11410   1.06991   -1.000
 4090.00    1.07979   1.05489   -1.000
 4091.00    1.05643   1.04002   -1.000
 4092.00    1.05860   1.02857   -1.000
 4093.00    1.05923   1.01341   -1.000
 4094.00    1.05465   0.98896   -1.000
 4095.00    1.01569   0.95774   -1.000
 4096.00    0.96313   0.92880   -1.000
 4097.00    0.95022   0.90369   -1.000
 4098.00    0.96400   0.87187   -1.000
 4099.00    0.93979   0.82541   -1.000
 4100.00    0.86298   0.77637   -1.000
 4101.00    0.78804   0.75157   -1.000
 4102.00    0.77783   0.77012  195.866
 4103.00    0.84404   0.82502   -1.000
 4104.00    0.92297   0.89067   -1.000
 4105.00    0.97383   0.94403   -1.000
 4106.00    1.00768   0.97517   -1.000
 4107.00    1.02003   0.98749   -1.000
 4108.00    1.01915   0.98678   -1.000
 4109.00    0.99576   0.98078  176.637
 4110.00    0.99070   0.97873  173.711
 4111.00    1.00377   0.98585   -1.000
 4112.00    1.02428   1.00154   -1.000
 4113.00    1.04391   1.02181   -1.000
 4114.00    1.05263   1.04017  164.210
 4115.00    1.05638   1.04804  165.973
 4116.00    1.05442   1.04038  170.286
 4117.00    1.03791   1.02198   -1.000
 4118.00    1.03168   1.00389   -1.000
 4119.00    1.02627   0.99642   -1.000
 4120.00    1.02431   1.00047   -1.000
 4121.00    1.03910   1.00864   -1.000
 4122.00    1.04186   1.01684   -1.000
 4123.00    1.03110   1.02602  167.106
 4124.00    1.04779   1.03515  167.544
 4125.00    1.07081   1.03846   -1.000
 4126.00    1.07302   1.03226   -1.000
 4127.00    1.05801   1.02129   -1.000
 4128.00    1.04100   1.01112   -1.000
 4129.00    1.02742   0.99823   -1.000
 4130.00    1.01227   0.97769   -1.000
 4131.00    0.99274   0.95336   -1.000
 4132.00    0.96353   0.93984   -1.000
 4133.00    0.93961   0.95083  179.547
 4134.00    0.96363   0.98231   -1.000
 4135.00    1.02447   1.01959  166.938
 4136.00    1.07179   1.05086   -1.000
 4137.00    1.07338   1.07144  162.421
 4138.00    1.08085   1.08195  163.167
 4139.00    1.10971   1.07852   -1.000
 4140.00    1.11457   1.05233   -1.000
 4141.00    1.05743   1.00437   -1.000
 4142.00    0.96980   0.95563   -1.000
 4143.00    0.91951   0.93377  187.435
 4144.00    0.95061   0.94852  177.524
 4145.00    1.00657   0.98588   -1.000
 4146.00    1.03807   1.01804   -1.000
 4147.00    1.05549   1.02869   -1.000
 4148.00    1.04496   1.02415   -1.000
 4149.00    1.03738   1.01736   -1.000
 4150.00    1.02875   1.01433  180.349
 4151.00    1.01839   1.01188  180.257
 4152.00    1.04432   1.00589   -1.000
 4153.00    1.19961   0.99729   -1.000
 4154.00    1.27169   0.99168   -1.000
 4155.00    0.93056   0.99514   -1.000
 4156.00    0.77063   1.00878   -1.000
 4157.00    1.01142   1.02981   -1.000
 4158.00    1.08819   1.05371   -1.000
 4159.00    1.07376   1.07373  171.346
 4160.00    1.08494   1.08783  167.147
 4161.00    1.08409   1.09821  166.373
 4162.00    1.10013   1.10464  168.053
 4163.00    1.11003   1.10395  170.793
 4164.00    1.09298   1.09318  173.792
 4165.00    1.05834   1.07420  177.328
 4166.00    1.04802   1.05675  178.581
 4167.00    1.03925   1.05018  176.491
 4168.00    1.04197   1.05245  175.083
 4169.00    1.07194   1.05125   -1.000
 4170.00    1.07360   1.03277   -1.000
 4171.00    1.02078   1.00114   -1.000
 4172.00    0.96926   0.97582  196.403
 4173.00    0.94965   0.97073   -1.000
 4174.00    0.96909   0.98391  184.626
 4175.00    1.00624   1.00061  185.082
 4176.00    1.00981   1.01196  185.541
 4177.00    1.00437   1.02172   -1.000
 4178.00    1.00508   1.03206   -1.000
 4179.00    1.02032   1.03902   -1.000
 4180.00    1.03083   1.03864  179.773
 4181.00    1.02724   1.03563  177.170
 4182.00    1.01926   1.04255   -1.000
 4183.00    1.03276   1.05854   -1.000
 4184.00    1.06628   1.06789  174.134
 4185.00    1.07001   1.05995  179.903
 4186.00    1.03243   1.04078  182.605
 4187.00    0.99835   1.02908   -1.000
 4188.00    1.00518   1.03395   -1.000
 4189.00    1.02731   1.04812   -1.000
 4190.00    1.04676   1.06173  172.420
 4191.00    1.05829   1.07249  169.156
 4192.00    1.08288   1.08128  169.507
 4193.00    1.10068   1.08122   -1.000
 4194.00    1.08900   1.06217   -1.000
 4195.00    1.04974   1.02827   -1.000
 4196.00    1.01208   0.99477   -1.000
 4197.00    0.98591   0.97185  190.907
 4198.00    0.96420   0.96144  188.377
 4199.00    0.97305   0.96081  186.234
 4200.00    1.01108   0.96709   -1.000
 4201.00    1.01086   0.97804   -1.000
 4202.00    0.99598   0.99601  181.313
 4203.00    1.00747   1.02306  179.233
 4204.00    1.02771   1.05428   -1.000
 4205.00    1.04377   1.08154   -1.000
 4206.00    1.08009   1.10149   -1.000
 4207.00    1.12030   1.11221  168.639
 4208.00    1.12807   1.11287   -1.000
 4209.00    1.11336   1.10910  168.296
 4210.00    1.10325   1.10848  167.877
 4211.00    1.10639   1.11102  170.572
 4212.00    1.11258   1.10440  177.148
 4213.00    1.10150   1.07955   -1.000
 4214.00    1.04547   1.05037  184.919
 4215.00    1.00366   1.04111   -1.000
 4216.00    1.01867   1.06418   -1.000
 4217.00    1.05002   1.10737   -1.000
 4218.00    1.11078   1.14664   -1.000
 4219.00    1.16333   1.16777  156.018
 4220.00    1.18309   1.16546   -1.000
 4221.00    1.18166   1.13950   -1.000
 4222.00    1.14043   1.08868   -1.000
 4223.00    1.08853   1.01301   -1.000
 4224.00    1.00585   0.92780   -1.000
 4225.00    0.88881   0.86234   -1.000
 4226.00    0.80076   0.84609   -1.000
 4227.00    0.81678   0.89295   -1.000
 4228.00    0.92904   0.98221   -1.000
 4229.00    1.04209   1.06693   -1.000
 4230.00    1.10549   1.11220  163.038
 4231.00    1.13573   1.11927   -1.000
 4232.00    1.11698   1.10307  170.507
 4233.00    1.08330   1.07919  172.973
 4234.00    1.08224   1.06038   -1.000
 4235.00    1.06859   1.05254  178.253
 4236.00    1.03791   1.05478   -1.000
 4237.00    1.03164   1.06716   -1.000
 4238.00    1.05326   1.08726   -1.000
 4239.00    1.05960   1.11002   -1.000
 4240.00    1.06933   1.13336   -1.000
 4241.00    1.09337   1.15590   -1.000
 4242.00    1.11241   1.17700   -1.000
 4243.00    1.14920   1.19652   -1.000
 4244.00    1.18104   1.20599   -1.000
 4245.00    1.17514   1.19335  169.906
 4246.00    1.12963   1.15840   -1.000
 4247.00    1.08488   1.11336   -1.000
 4248.00    1.04990   1.07563   -1.000
 4249.00    1.03127   1.05816   -1.000
 4250.00    1.04717   1.06184  172.232
 4251.00    1.07564   1.07554  169.610
 4252.00    1.10736   1.08171   -1.000
 4253.00    1.10328   1.07626   -1.000
 4254.00    1.07043   1.07502  170.033
 4255.00    1.07470   1.09375   -1.000
 4256.00    1.11210   1.11908  166.990
 4257.00    1.13261   1.11993  174.772
 4258.00    1.09810   1.09018  182.655
 4259.00    1.05022   1.05643  182.669
 4260.00    1.01095   1.05282   -1.000
 4261.00    1.00947   1.09066   -1.000
 4262.00    1.07550   1.15070   -1.000
 4263.00    1.16172   1.20247   -1.000
 4264.00    1.20347   1.22737   -1.000
 4265.00    1.20523   1.22726   -1.000
 4266.00    1.18740   1.20829   -1.000
 4267.00    1.15997   1.17254  170.522
 4268.00    1.13427   1.12296  178.938
 4269.00    1.09847   1.06383   -1.000
 4270.00    1.02559   1.00748   -1.000
 4271.00    0.97049   0.97139  197.834
 4272.00    0.93825   0.96325   -1.000
 4273.00    0.93652   0.98165   -1.000
 4274.00    0.98021   1.02005   -1.000
 4275.00    1.03919   1.07244   -1.000
 4276.00    1.09707   1.12998   -1.000
 4277.00    1.14499   1.17179   -1.000
 4278.00    1.15495   1.17994   -1.000
 4279.00    1.12485   1.16213   -1.000
 4280.00    1.07936   1.14196   -1.000
 4281.00    1.06841   1.13639   -1.000
 4282.00    1.10411   1.14007   -1.000
 4283.00    1.12127   1.13994   -1.000
 4284.00    1.09803   1.13155   -1.000
 4285.00    1.05720   1.11789   -1.000
 4286.00    1.03704   1.09980   -1.000
 4287.00    1.02894   1.07244   -1.000
 4288.00    1.00051   1.03592   -1.000
 4289.00    0.95721   1.00650   -1.000
 4290.00    0.94627   1.00627   -1.000
 4291.00    0.98966   1.03666   -1.000
 4292.00    1.03448   1.07291   -1.000
 4293.00    1.06530   1.09080   -1.000
 4294.00    1.08238   1.08819  183.508
 4295.00    1.07568   1.07222  189.750
 4296.00    1.04092   1.04259  202.227
 4297.00    1.00289   0.99796  219.180
 4298.00    0.93650   0.94709  230.045
 4299.00    0.86959   0.90803   -1.000
 4300.00    0.83552   0.89447   -1.000
 4301.00    0.83900   0.90190   -1.000
 4302.00    0.86947   0.91647   -1.000
 4303.00    0.89165   0.92783   -1.000
 4304.00    0.91101   0.92975   -1.000
 4305.00    0.89603   0.91522   -1.000
 4306.00    0.86918   0.88679   -1.000
 4307.00    0.83496   0.86124   -1.000
 4308.00    0.80281   0.85758   -1.000
 4309.00    0.80335   0.88246   -1.000
 4310.00    0.83857   0.92845   -1.000
 4311.00    0.88578   0.98253   -1.000
 4312.00    0.91926   1.03834   -1.000
 4313.00    0.96377   1.10150   -1.000
 4314.00    1.03902   1.17438   -1.000
 4315.00    1.14956   1.25198   -1.000
 4316.00    1.24629   1.31700   -1.000
 4317.00    1.30398   1.34828   -1.000
 4318.00    1.31311   1.34589   -1.000
 4319.00    1.28196   1.32378   -1.000
 4320.00    1.25211   1.28936   -1.000
 4321.00    1.23352   1.23894  169.841
 4322.00    1.18919   1.16843   -1.000
 4323.00    1.09359   1.08866  196.740
 4324.00    0.98572   1.03202   -1.000
 4325.00    0.94519   1.03092   -1.000
 4326.00    0.99843   1.09043   -1.000
 4327.00    1.09977   1.18238   -1.000
 4328.00    1.19389   1.26075   -1.000
 4329.00    1.24303   1.29808   -1.000
 4330.00    1.24814   1.30648   -1.000
 4331.00    1.24383   1.31003   -1.000
 4332.00    1.25302   1.31979   -1.000
 4333.00    1.28216   1.32734   -1.000
 4334.00    1.31161   1.31598  154.672
 4335.00    1.30531   1.27127   -1.000
 4336.00    1.24213   1.19012   -1.000
 4337.00    1.13955   1.08653   -1.000
 4338.00    1.02900   0.99467   -1.000
 4339.00    0.93693   0.94837   -1.000
 4340.00    0.89968   0.95915   -1.000
 4341.00    0.94060   1.01968   -1.000
 4342.00    1.03357   1.10363   -1.000
 4343.00    1.12026   1.17853   -1.000
 4344.00    1.17600   1.23111   -1.000
 4345.00    1.21333   1.26828   -1.000
 4346.00    1.24314   1.29819   -1.000
 4347.00    1.25622   1.32310   -1.000
 4348.00    1.27602   1.33047   -1.000
 4349.00    1.29027   1.30307  164.821
 4350.00    1.23764   1.24823  173.149
 4351.00    1.15638   1.19894   -1.000
 4352.00    1.13559   1.18646   -1.000
 4353.00    1.17332   1.21509   -1.000
 4354.00    1.21205   1.26131   -1.000
 4355.00    1.25017   1.29944   -1.000
 4356.00    1.28319   1.31798   -1.000
 4357.00    1.28086   1.31902   -1.000
 4358.00    1.24508   1.31294   -1.000
 4359.00    1.22913   1.31566   -1.000
 4360.00    1.25584   1.33401   -1.000
 4361.00    1.29605   1.36032   -1.000
 4362.00    1.31103   1.38377   -1.000
 4363.00    1.32071   1.39993   -1.000
 4364.00    1.34565   1.40622   -1.000
 4365.00    1.35243   1.39465   -1.000
 4366.00    1.31909   1.36418   -1.000
 4367.00    1.26718   1.33145   -1.000
 4368.00    1.23877   1.31262   -1.000
 4369.00    1.25214   1.30642   -1.000
 4370.00    1.25894   1.30162   -1.000
 4371.00    1.24661   1.28676   -1.000
 4372.00    1.24955   1.25817  164.778
 4373.00    1.21191   1.22277  168.542
 4374.00    1.13949   1.19940   -1.000
 4375.00    1.15208   1.20772   -1.000
 4376.00    1.22020   1.24639   -1.000
 4377.00    1.27356   1.28907  150.833
 4378.00    1.31722   1.30735  152.644
 4379.00    1.31807   1.28968   -1.000
 4380.00    1.30306   1.23378   -1.000
 4381.00    1.25539   1.14694   -1.000
 4382.00    1.13888   1.05798   -1.000
 4383.00    1.00893   1.00822  193.541
 4384.00    0.96341   1.02319   -1.000
 4385.00    1.04141   1.09067   -1.000
 4386.00    1.15810   1.16384  160.515
 4387.00    1.21504   1.20551  161.531
 4388.00    1.22989   1.21706  162.812
 4389.00    1.22377   1.21896  161.646
 4390.00    1.20286   1.22656   -1.000
 4391.00    1.22946   1.24149  156.582
 4392.00    1.26893   1.25568  158.896
 4393.00    1.26760   1.26310  160.719
 4394.00    1.24699   1.27144   -1.000
 4395.00    1.23916   1.29436   -1.000
 4396.00    1.27439   1.32626   -1.000
 4397.00    1.31927   1.34326   -1.000
 4398.00    1.32184   1.33232  158.377
 4399.00    1.27831   1.30607   -1.000
 4400.00    1.24231   1.28377   -1.000
 4401.00    1.25512   1.26608  158.281
 4402.00    1.27679   1.23769   -1.000
 4403.00    1.23919   1.19311   -1.000
 4404.00    1.18237   1.15513   -1.000
 4405.00    1.17233   1.15053   -1.000
 4406.00    1.19460   1.17751  163.474
 4407.00    1.20823   1.21772  159.853
 4408.00    1.21945   1.26387   -1.000
 4409.00    1.25547   1.31852   -1.000
 4410.00    1.30454   1.37328   -1.000
 4411.00    1.35281   1.40086   -1.000
 4412.00    1.39922   1.38392  150.735
 4413.00    1.37984   1.33497   -1.000
 4414.00    1.28668   1.28294  160.829
 4415.00    1.20500   1.25985   -1.000
 4416.00    1.20536   1.28304   -1.000
 4417.00    1.25011   1.33809   -1.000
 4418.00    1.30031   1.39164   -1.000
 4419.00    1.35038   1.41709   -1.000
 4420.00    1.35741   1.40904   -1.000
 4421.00    1.31922   1.38097   -1.000
 4422.00    1.27466   1.35622   -1.000
 4423.00    1.25288   1.34857   -1.000
 4424.00    1.26274   1.35333   -1.000
 4425.00    1.25694   1.35907   -1.000
 4426.00    1.23957   1.36359   -1.000
 4427.00    1.24964   1.36931   -1.000
 4428.00    1.26186   1.37301   -1.000
 4429.00    1.26483   1.37161   -1.000
 4430.00    1.26992   1.36843   -1.000
 4431.00    1.29248   1.36588   -1.000
 4432.00    1.30780   1.35438   -1.000
 4433.00    1.26459   1.32610   -1.000
 4434.00    1.20762   1.29878   -1.000
 4435.00    1.19709   1.30266   -1.000
 4436.00    1.24773   1.34935   -1.000
 4437.00    1.32851   1.41380   -1.000
 4438.00    1.39829   1.45591   -1.000
 4439.00    1.42423   1.45470   -1.000
 4440.00    1.38097   1.41667   -1.000
 4441.00    1.31022   1.37057   -1.000
 4442.00    1.26286   1.34890   -1.000
 4443.00    1.26192   1.36839   -1.000
 4444.00    1.31183   1.41502   -1.000
 4445.00    1.37101   1.45971   -1.000
 4446.00    1.39973   1.48435   -1.000
 4447.00    1.40878   1.49036   -1.000
 4448.00    1.42045   1.48932   -1.000
 4449.00    1.41704   1.48559   -1.000
 4450.00    1.40108   1.47635   -1.000
 4451.00    1.41061   1.45769   -1.000
 4452.00    1.40821   1.42477  155.186
 4453.00    1.36109   1.37701  160.624
 4454.00    1.29946   1.33146   -1.000
 4455.00    1.26316   1.30981   -1.000
 4456.00    1.27027   1.31254   -1.000
 4457.00    1.28945   1.32310   -1.000
 4458.00    1.30557   1.32588   -1.000
 4459.00    1.30729   1.32119  159.838
 4460.00    1.29360   1.32060   -1.000
 4461.00    1.28805   1.33505   -1.000
 4462.00    1.31731   1.36663   -1.000
 4463.00    1.36167   1.40420   -1.000
 4464.00    1.38622   1.43120   -1.000
 4465.00    1.38816   1.43937   -1.000
 4466.00    1.38365   1.43297   -1.000
 4467.00    1.38754   1.42159   -1.000
 4468.00    1.37698   1.41313   -1.000
 4469.00    1.34385   1.41628   -1.000
 4470.00    1.34918   1.43951   -1.000
 4471.00    1.39346   1.47771   -1.000
 4472.00    1.44139   1.51595   -1.000
 4473.00    1.48682   1.54360   -1.000
 4474.00    1.50729   1.55999   -1.000
 4475.00    1.51954   1.57326   -1.000
 4476.00    1.55101   1.58426   -1.000
 4477.00    1.57308   1.58010  137.862
 4478.00    1.55890   1.54842  143.687
 4479.00    1.49927   1.49544  149.134
 4480.00    1.41817   1.44884   -1.000
 4481.00    1.36724   1.43704   -1.000
 4482.00    1.38355   1.46784   -1.000
 4483.00    1.43395   1.52362   -1.000
 4484.00    1.48422   1.57647   -1.000
 4485.00    1.52117   1.60429   -1.000
 4486.00    1.54588   1.59608   -1.000
 4487.00    1.52360   1.55836   -1.000
 4488.00    1.46642   1.51566   -1.000
 4489.00    1.44187   1.49522   -1.000
 4490.00    1.44905   1.50342   -1.000
 4491.00    1.47538   1.52310   -1.000
 4492.00    1.49956   1.52683   -1.000
 4493.00    1.47210   1.50681   -1.000
 4494.00    1.43115   1.48258   -1.000
 4495.00    1.40117   1.47847   -1.000
 4496.00    1.41394   1.50184   -1.000
 4497.00    1.47067   1.53732   -1.000
 4498.00    1.50788   1.56454   -1.000
 4499.00    1.51164   1.57448   -1.000
 4500.00    1.49405   1.57498   -1.000
 4501.00    1.47971   1.58296   -1.000
 4502.00    1.51178   1.60698   -1.000
 4503.00    1.57045   1.64149   -1.000
 4504.00    1.61154   1.67012   -1.000
 4505.00    1.61384   1.67815   -1.000
 4506.00    1.61099   1.66791   -1.000
 4507.00    1.60205   1.65470   -1.000
 4508.00    1.58096   1.64996   -1.000
 4509.00    1.59285   1.65270   -1.000
 4510.00    1.61251   1.65290   -1.000
 4511.00    1.59718   1.64147   -1.000
 4512.00    1.56722   1.61988   -1.000
 4513.00    1.54726   1.59806   -1.000
 4514.00    1.54168   1.58447   -1.000
 4515.00    1.54139   1.58037   -1.000
 4516.00    1.53348   1.58059   -1.000
 4517.00    1.52064   1.58121   -1.000
 4518.00    1.52366   1.58670   -1.000
 4519.00    1.56222   1.60145   -1.000
 4520.00    1.59520   1.61816  136.799
 4521.00    1.57424   1.62256   -1.000
 4522.00    1.54133   1.60772   -1.000
 4523.00    1.52479   1.57993   -1.000
 4524.00    1.51558   1.54761   -1.000
 4525.00    1.49381   1.51047  151.526
 4526.00    1.44665   1.46730   -1.000
 4527.00    1.39519   1.42709   -1.000
 4528.00    1.38115   1.40440   -1.000
 4529.00    1.39562   1.40642  150.109
 4530.00    1.41085   1.42667  148.339
 4531.00    1.44217   1.44954  150.032
 4532.00    1.46173   1.45994  154.868
 4533.00    1.42849   1.45508   -1.000
 4534.00    1.37444   1.45029   -1.000
 4535.00    1.37061   1.46772   -1.000
 4536.00    1.45662   1.51402   -1.000
 4537.00    1.55950   1.57013  134.633
 4538.00    1.59791   1.60615  137.057
 4539.00    1.58657   1.60923  138.755
 4540.00    1.59340   1.59374  138.059
 4541.00    1.39720   1.58268   -1.000
 4542.00    0.60478   1.58430   -1.000
 4543.00   -0.03563   1.58909    0.000
 4544.00    0.19186   1.58622   -1.000
 4545.00    0.81590   1.57642   -1.000
 4546.00    0.80626   1.56625   -1.000
 4547.00    0.88298   1.55585   -1.000
 4548.00    1.50192   1.54334   -1.000
 4549.00    1.46904   1.53555   -1.000
 4550.00    1.47592   1.54102   -1.000
 4551.00    1.51916   1.55335   -1.000
 4552.00    1.52109   1.55615   -1.000
 4553.00    1.48678   1.54666   -1.000
 4554.00    1.45984   1.54052   -1.000
 4555.00    1.47432   1.55518   -1.000
 4556.00    1.51969   1.59379   -1.000
 4557.00    1.58893   1.64127   -1.000
 4558.00    1.63145   1.67783   -1.000
 4559.00    1.62341   1.69595   -1.000
 4560.00    1.62559   1.69897   -1.000
 4561.00    1.64061   1.68957   -1.000
 4562.00    1.61615   1.66707   -1.000
 4563.00    1.56790   1.63596   -1.000
 4564.00    1.53996   1.61145   -1.000
 4565.00    1.53488   1.60967   -1.000
 4566.00    1.56891   1.63325   -1.000
 4567.00    1.61729   1.66655   -1.000
 4568.00    1.64374   1.68655   -1.000
 4569.00    1.62899   1.68120   -1.000
 4570.00    1.58468   1.65847   -1.000
 4571.00    1.54876   1.63873   -1.000
 4572.00    1.53947   1.64040   -1.000
 4573.00    1.57772   1.66280   -1.000
 4574.00    1.62951   1.68683   -1.000
 4575.00    1.64062   1.69669   -1.000
 4576.00    1.63307   1.69088   -1.000
 4577.00    1.62797   1.67221   -1.000
 4578.00    1.59831   1.64175   -1.000
 4579.00    1.55099   1.60645   -1.000
 4580.00    1.52568   1.58095   -1.000
 4581.00    1.53461   1.57533   -1.000
 4582.00    1.55467   1.58469   -1.000
 4583.00    1.56295   1.59505   -1.000
 4584.00    1.55081   1.59798   -1.000
 4585.00    1.54065   1.59986   -1.000
 4586.00    1.55065   1.61408   -1.000
 4587.00    1.58005   1.64286   -1.000
 4588.00    1.62490   1.67270   -1.000
 4589.00    1.64360   1.68740   -1.000
 4590.00    1.61956   1.68075   -1.000
 4591.00    1.58628   1.65904   -1.000
 4592.00    1.56959   1.63569   -1.000
 4593.00    1.56907   1.62087   -1.000
 4594.00    1.58013   1.61576   -1.000
 4595.00    1.59744   1.61717  136.666
 4596.00    1.61032   1.62285  136.369
 4597.00    1.60833   1.63098   -1.000
 4598.00    1.60515   1.63774   -1.000
 4599.00    1.60209   1.63952   -1.000
 4600.00    1.58249   1.63683   -1.000
 4601.00    1.56937   1.63414   -1.000
 4602.00    1.58302   1.63455   -1.000
 4603.00    1.60643   1.63695   -1.000
 4604.00    1.61066   1.64088   -1.000
 4605.00    1.60718   1.65120   -1.000
 4606.00    1.62836   1.67449   -1.000
 4607.00    1.65443   1.70990   -1.000
 4608.00    1.68438   1.74605   -1.000
 4609.00    1.71928   1.76689   -1.000
 4610.00    1.72699   1.76403   -1.000
 4611.00    1.70287   1.74592   -1.000
 4612.00    1.66741   1.72891   -1.000
 4613.00    1.65278   1.72356   -1.000
 4614.00    1.65540   1.73025   -1.000
 4615.00    1.66571   1.74203   -1.000
 4616.00    1.67447   1.75136   -1.000
 4617.00    1.67508   1.75518   -1.000
 4618.00    1.67212   1.75504   -1.000
 4619.00    1.66888   1.75550   -1.000
 4620.00    1.68710   1.76077   -1.000
 4621.00    1.71118   1.76900   -1.000
 4622.00    1.71563   1.77301   -1.000
 4623.00    1.71189   1.76925   -1.000
 4624.00    1.70720   1.76162   -1.000
 4625.00    1.69187   1.75460   -1.000
 4626.00    1.68941   1.74996   -1.000
 4627.00    1.69810   1.74928   -1.000
 4628.00    1.69353   1.75214   -1.000
 4629.00    1.69026   1.75713   -1.000
 4630.00    1.69373   1.76363   -1.000
 4631.00    1.70471   1.76731   -1.000
 4632.00    1.70911   1.76134   -1.000
 4633.00    1.69908   1.74656   -1.000
 4634.00    1.69152   1.73165   -1.000
 4635.00    1.69498   1.72013   -1.000
 4636.00    1.66964   1.70701   -1.000
 4637.00    1.63315   1.69006   -1.000
 4638.00    1.62143   1.67575   -1.000
 4639.00    1.63213   1.67297   -1.000
 4640.00    1.66890   1.68478  129.534
 4641.00    1.71629   1.70458  128.999
 4642.00    1.74191   1.71832   -1.000
 4643.00    1.72819   1.71294  133.719
 4644.00    1.70953   1.68640   -1.000
 4645.00    1.67461   1.64830   -1.000
 4646.00    1.61736   1.61432  138.507
 4647.00    1.59898   1.60218  135.544
 4648.00    1.62669   1.61976  133.038
 4649.00    1.64479   1.65763  132.089
 4650.00    1.65927   1.69777   -1.000
 4651.00    1.68735   1.72552   -1.000
 4652.00    1.69878   1.73447   -1.000
 4653.00    1.69202   1.72581   -1.000
 4654.00    1.66179   1.70882   -1.000
 4655.00    1.61599   1.69983   -1.000
 4656.00    1.61337   1.71250   -1.000
 4657.00    1.66410   1.74889   -1.000
 4658.00    1.72964   1.79660   -1.000
 4659.00    1.78456   1.83318   -1.000
 4660.00    1.79660   1.84131   -1.000
 4661.00    1.77199   1.82075   -1.000
 4662.00    1.75158   1.78459   -1.000
 4663.00    1.73571   1.74570  133.042
 4664.00    1.71344   1.70658  137.144
 4665.00    1.67825   1.66248  143.081
 4666.00    1.61090   1.61601  145.958
 4667.00    1.53853   1.58471   -1.000
 4668.00    1.52614   1.58843   -1.000
 4669.00    1.57916   1.62786   -1.000
 4670.00    1.64536   1.68079   -1.000
 4671.00    1.69209   1.72139   -1.000
 4672.00    1.71557   1.73990   -1.000
 4673.00    1.72558   1.74516  130.027
 4674.00    1.72524   1.75142   -1.000
 4675.00    1.74490   1.76267  127.572
 4676.00    1.76844   1.76972  129.429
 4677.00    1.74937   1.76085  132.181
 4678.00    1.70244   1.73623   -1.000
 4679.00    1.67049   1.70728   -1.000
 4680.00    1.65652   1.68643   -1.000
 4681.00    1.64676   1.68152   -1.000
 4682.00    1.65704   1.69326   -1.000
 4683.00    1.68269   1.71410   -1.000
 4684.00    1.73417   1.73181  130.459
 4685.00    1.76046   1.73871   -1.000
 4686.00    1.73759   1.73620  131.243
 4687.00    1.72793   1.73084  131.229
 4688.00    1.72096   1.72789  131.746
 4689.00    1.71870   1.72762  132.363
 4690.00    1.71420   1.72780  131.614
 4691.00    1.71073   1.72898  129.777
 4692.00    1.73591   1.73526  127.305
 4693.00    1.77254   1.74845   -1.000
 4694.00    1.79989   1.76483   -1.000
 4695.00    1.80886   1.77657   -1.000
 4696.00    1.80905   1.77398   -1.000
 4697.00    1.77137   1.75264  133.534
 4698.00    1.72696   1.72077  133.583
 4699.00    1.71253   1.69270  133.552
 4700.00    1.69993   1.67493   -1.000
 4701.00    1.68186   1.66480  136.889
 4702.00    1.65307   1.66129  135.731
 4703.00    1.63800   1.66872   -1.000
 4704.00    1.66769   1.68595  133.491
 4705.00    1.70720   1.69960  135.923
 4706.00    1.70234   1.69842  137.913
 4707.00    1.66732   1.68706  138.077
 4708.00    1.65456   1.68101   -1.000
 4709.00    1.66615   1.69105   -1.000
 4710.00    1.69582   1.71365  129.167
 4711.00    1.74423   1.73525  129.325
 4712.00    1.76531   1.74358   -1.000
 4713.00    1.74233   1.73856  132.473
 4714.00    1.71555   1.73483  130.944
 4715.00    1.71182   1.74815   -1.000
 4716.00    1.73419   1.77928   -1.000
 4717.00    1.77148   1.81522   -1.000
 4718.00    1.79696   1.84381   -1.000
 4719.00    1.79758   1.86108   -1.000
 4720.00    1.79381   1.86681   -1.000
 4721.00    1.78718   1.86308   -1.000
 4722.00    1.77399   1.85780   -1.000
 4723.00    1.78125   1.85866   -1.000
 4724.00    1.79815   1.86034   -1.000
 4725.00    1.79380   1.84730   -1.000
 4726.00    1.75603   1.81073   -1.000
 4727.00    1.70810   1.75962   -1.000
 4728.00    1.67570   1.71679   -1.000
 4729.00    1.66628   1.70013   -1.000
 4730.00    1.67931   1.71001   -1.000
 4731.00    1.69354   1.73525   -1.000
 4732.00    1.71520   1.76286   -1.000
 4733.00    1.74529   1.78289   -1.000
 4734.00    1.76258   1.79114   -1.000
 4735.00    1.75863   1.79137   -1.000
 4736.00    1.75701   1.79153   -1.000
 4737.00    1.76794   1.79798   -1.000
 4738.00    1.77733   1.81101   -1.000
 4739.00    1.77793   1.82299   -1.000
 4740.00    1.76678   1.82747   -1.000
 4741.00    1.75296   1.82854   -1.000
 4742.00    1.76209   1.83317   -1.000
 4743.00    1.79200   1.84124   -1.000
 4744.00    1.81177   1.85051   -1.000
 4745.00    1.79973   1.86175   -1.000
 4746.00    1.79300   1.87598   -1.000
 4747.00    1.80812   1.89081   -1.000
 4748.00    1.82099   1.90188   -1.000
 4749.00    1.82837   1.90750   -1.000
 4750.00    1.82398   1.90676   -1.000
 4751.00    1.80731   1.89717   -1.000
 4752.00    1.77758   1.87853   -1.000
 4753.00    1.75655   1.85644   -1.000
 4754.00    1.74794   1.83976   -1.000
 4755.00    1.73018   1.83403   -1.000
 4756.00    1.72156   1.83834   -1.000
 4757.00    1.72628   1.84934   -1.000
 4758.00    1.74934   1.86307   -1.000
 4759.00    1.77841   1.87245   -1.000
 4760.00    1.76590   1.86867   -1.000
 4761.00    1.72791   1.84743   -1.000
 4762.00    1.70040   1.81477   -1.000
 4763.00    1.69611   1.78388   -1.000
 4764.00    1.69915   1.76310   -1.000
 4765.00    1.67922   1.75210   -1.000
 4766.00    1.67579   1.75409   -1.000
 4767.00    1.70964   1.77736   -1.000
 4768.00    1.75476   1.81877   -1.000
 4769.00    1.79899   1.85841   -1.000
 4770.00    1.79786   1.87716   -1.000
 4771.00    1.76253   1.87554   -1.000
 4772.00    1.75417   1.87335   -1.000
 4773.00    1.77737   1.88701   -1.000
 4774.00    1.80776   1.91345   -1.000
 4775.00    1.81741   1.93779   -1.000
 4776.00    1.82005   1.95053   -1.000
 4777.00    1.81920   1.95326   -1.000
 4778.00    1.80346   1.94886   -1.000
 4779.00    1.78334   1.93774   -1.000
 4780.00    1.78216   1.92197   -1.000
 4781.00    1.78742   1.90364   -1.000
 4782.00    1.78221   1.88302   -1.000
 4783.00    1.77791   1.86455   -1.000
 4784.00    1.76847   1.85459   -1.000
 4785.00    1.76372   1.85168   -1.000
 4786.00    1.75075   1.84997   -1.000
 4787.00    1.74176   1.84862   -1.000
 4788.00    1.76082   1.85005   -1.000
 4789.00    1.75171   1.85540   -1.000
 4790.00    1.74500   1.86741   -1.000
 4791.00    1.77602   1.89129   -1.000
 4792.00    1.80298   1.92781   -1.000
 4793.00    1.83365   1.96982   -1.000
 4794.00    1.86932   2.00542   -1.000
 4795.00    1.88265   2.02175   -1.000
 4796.00    1.86941   2.01237   -1.000
 4797.00    1.83799   1.98297   -1.000
 4798.00    1.80201   1.94877   -1.000
 4799.00    1.77403   1.92676   -1.000
 4800.00    1.78476   1.92845   -1.000
 4801.00    1.83398   1.95202   -1.000
 4802.00    1.86373   1.98098   -1.000
 4803.00    1.85263   1.99402   -1.000
 4804.00    1.83324   1.98263   -1.000
 4805.00    1.81325   1.95713   -1.000
 4806.00    1.78932   1.93352   -1.000
 4807.00    1.79790   1.92144   -1.000
 4808.00    1.80771   1.92297   -1.000
 4809.00    1.81391   1.93548   -1.000
 4810.00    1.84203   1.95231   -1.000
 4811.00    1.86001   1.96564   -1.000
 4812.00    1.84991   1.97246   -1.000
 4813.00    1.82352   1.97721   -1.000
 4814.00    1.83322   1.98527   -1.000
 4815.00    1.86326   1.99807   -1.000
 4816.00    1.87812   2.01408   -1.000
 4817.00    1.89852   2.03050   -1.000
 4818.00    1.91068   2.04415   -1.000
 4819.00    1.92491   2.05065   -1.000
 4820.00    1.92416   2.04417   -1.000
 4821.00    1.88163   2.02040   -1.000
 4822.00    1.84350   1.98239   -1.000
 4823.00    1.82106   1.94484   -1.000
 4824.00    1.81726   1.92832   -1.000
 4825.00    1.84481   1.94015   -1.000
 4826.00    1.87997   1.96320   -1.000
 4827.00    1.88229   1.97460   -1.000
 4828.00    1.86243   1.97028   -1.000
 4829.00    1.85446   1.95973   -1.000
 4830.00    1.85680   1.94819   -1.000
 4831.00    1.83801   1.93588   -1.000
 4832.00    1.82404   1.92923   -1.000
 4833.00    1.85558   1.93717   -1.000
 4834.00    1.88321   1.95794   -1.000
 4835.00    1.88213   1.97896   -1.000
 4836.00    1.88288   1.98828   -1.000
 4837.00    1.88101   1.98307   -1.000
 4838.00    1.86192   1.96609   -1.000
 4839.00    1.82956   1.94444   -1.000
 4840.00    1.80399   1.92839   -1.000
 4841.00    1.81303   1.92272   -1.000
 4842.00    1.83254   1.92478   -1.000
 4843.00    1.84776   1.93343   -1.000
 4844.00    1.88027   1.95172   -1.000
 4845.00    1.91043   1.97601   -1.000
 4846.00    1.89709   1.99121   -1.000
 4847.00    1.86633   1.98608   -1.000
 4848.00    1.83789   1.96951   -1.000
 4849.00    1.85419   1.96083   -1.000
 4850.00    1.88006   1.96600   -1.000
 4851.00    1.88416   1.97351   -1.000
 4852.00    1.88206   1.96762   -1.000
 4853.00    1.86398   1.93937   -1.000
 4854.00    1.81856   1.89378   -1.000
 4855.00    1.77928   1.85007   -1.000
 4856.00    1.78585   1.82463   -1.000
 4857.00    1.80808   1.80666  146.530
 4858.00    1.75499   1.76055  162.075
 4859.00    1.60883   1.66238   -1.000
 4860.00    1.44841   1.54086   -1.000
 4861.00    1.36415   1.46600   -1.000
 4862.00    1.41023   1.48502   -1.000
 4863.00    1.53975   1.58103   -1.000
 4864.00    1.65794   1.69522   -1.000
 4865.00    1.72342   1.78604   -1.000
 4866.00    1.76515   1.84583   -1.000
 4867.00    1.80775   1.87994   -1.000
 4868.00    1.82448   1.88929   -1.000
 4869.00    1.79656   1.87013   -1.000
 4870.00    1.73761   1.82566   -1.000
 4871.00    1.67636   1.77920   -1.000
 4872.00    1.66867   1.76661   -1.000
 4873.00    1.72327   1.80126   -1.000
 4874.00    1.75810   1.85684   -1.000
 4875.00    1.76675   1.90185   -1.000
 4876.00    1.78257   1.93029   -1.000
 4877.00    1.78767   1.95305   -1.000
 4878.00    1.80710   1.97792   -1.000
 4879.00    1.82751   2.00024   -1.000
 4880.00    1.82650   2.00807   -1.000
 4881.00    1.81472   1.99663   -1.000
 4882.00    1.81116   1.97725   -1.000
 4883.00    1.80898   1.96102   -1.000
 4884.00    1.80557   1.94258   -1.000
 4885.00    1.78692   1.91716   -1.000
 4886.00    1.78221   1.89526   -1.000
 4887.00    1.79324   1.88513   -1.000
 4888.00    1.79157   1.87659   -1.000
 4889.00    1.75678   1.85496   -1.000
 4890.00    1.71148   1.82651   -1.000
 4891.00    1.70946   1.82240   -1.000
 4892.00    1.76782   1.87029   -1.000
 4893.00    1.87081   1.96244   -1.000
 4894.00    1.95843   2.05965   -1.000
 4895.00    1.99261   2.12510   -1.000
 4896.00    2.00855   2.15136   -1.000
 4897.00    1.99938   2.14923   -1.000
 4898.00    1.97887   2.12998   -1.000
 4899.00    1.93901   2.10308   -1.000
 4900.00    1.91924   2.07850   -1.000
 4901.00    1.91655   2.06105   -1.000
 4902.00    1.90457   2.04827   -1.000
 4903.00    1.89272   2.04161   -1.000
 4904.00    1.88916   2.05163   -1.000
 4905.00    1.92869   2.08035   -1.000
 4906.00    1.97650   2.10531   -1.000
 4907.00    1.96404   2.09950   -1.000
 4908.00    1.92751   2.06134   -1.000
 4909.00    1.90401   2.01221   -1.000
 4910.00    1.87484   1.97843   -1.000
 4911.00    1.86323   1.97660   -1.000
 4912.00    1.89171   2.00443   -1.000
 4913.00    1.93383   2.04513   -1.000
 4914.00    1.97424   2.08106   -1.000
 4915.00    1.99526   2.09835   -1.000
 4916.00    1.98923   2.07910   -1.000
 4917.00    1.94503   2.00980   -1.000
 4918.00    1.84186   1.90363   -1.000
 4919.00    1.74507   1.80334   -1.000
 4920.00    1.72760   1.75437   -1.000
 4921.00    1.76687   1.77429  133.809
 4922.00    1.82233   1.83743  132.987
 4923.00    1.86824   1.90080   -1.000
 4924.00    1.87404   1.94459   -1.000
 4925.00    1.86871   1.98210   -1.000
 4926.00    1.89535   2.02832   -1.000
 4927.00    1.94816   2.07958   -1.000
 4928.00    1.99480   2.12498   -1.000
 4929.00    2.02440   2.15676   -1.000
 4930.00    2.04136   2.16675   -1.000
 4931.00    2.01766   2.14774   -1.000
 4932.00    1.95678   2.10411   -1.000
 4933.00    1.90542   2.05630   -1.000
 4934.00    1.89399   2.02789   -1.000
 4935.00    1.93935   2.02058   -1.000
 4936.00    1.95266   2.00930   -1.000
 4937.00    1.89709   1.97471   -1.000
 4938.00    1.83998   1.93476   -1.000
 4939.00    1.84972   1.92920   -1.000
 4940.00    1.90119   1.97442   -1.000
 4941.00    1.96814   2.04761   -1.000
 4942.00    2.01275   2.11259   -1.000
 4943.00    2.02162   2.14875   -1.000
 4944.00    2.01125   2.15854   -1.000
 4945.00    2.00761   2.15441   -1.000
 4946.00    2.00834   2.15105   -1.000
 4947.00    2.01621   2.15908   -1.000
 4948.00    2.03893   2.17742   -1.000
 4949.00    2.05189   2.19528   -1.000
 4950.00    2.04675   2.20421   -1.000
 4951.00    2.05342   2.20287   -1.000
 4952.00    2.05466   2.19214   -1.000
 4953.00    2.04977   2.17120   -1.000
 4954.00    2.04206   2.13194   -1.000
 4955.00    2.00114   2.06150   -1.000
 4956.00    1.89997   1.96535   -1.000
 4957.00    1.79996   1.88861   -1.000
 4958.00    1.80953   1.88580   -1.000
 4959.00    1.90748   1.95859   -1.000
 4960.00    1.99809   2.05440   -1.000
 4961.00    2.03271   2.12086   -1.000
 4962.00    2.03414   2.14201   -1.000
 4963.00    2.02192   2.12984   -1.000
 4964.00    1.99662   2.09760   -1.000
 4965.00    1.97654   2.05811   -1.000
 4966.00    1.96341   2.02774   -1.000
 4967.00    1.95135   2.01645   -1.000
 4968.00    1.93067   2.02223   -1.000
 4969.00    1.92967   2.03992   -1.000
 4970.00    1.96232   2.06638   -1.000
 4971.00    1.99300   2.09843   -1.000
 4972.00    2.01764   2.12986   -1.000
 4973.00    2.04046   2.15231   -1.000
 4974.00    2.04514   2.16054   -1.000
 4975.00    2.06388   2.15413   -1.000
 4976.00    2.05804   2.13439   -1.000
 4977.00    2.01536   2.10495   -1.000
 4978.00    1.98576   2.07266   -1.000
 4979.00    1.96836   2.04020   -1.000
 4980.00    1.92137   2.00046   -1.000
 4981.00    1.87093   1.94623   -1.000
 4982.00    1.81799   1.88775   -1.000
 4983.00    1.79594   1.85268   -1.000
 4984.00    1.82250   1.86249   -1.000
 4985.00    1.86902   1.91319   -1.000
 4986.00    1.92320   1.98270   -1.000
 4987.00    1.98377   2.04444   -1.000
 4988.00    2.00810   2.07799   -1.000
 4989.00    1.98314   2.07909   -1.000
 4990.00    1.97079   2.06530   -1.000
 4991.00    1.96172   2.05781   -1.000
 4992.00    1.97726   2.06285   -1.000
 4993.00    1.98609   2.07318   -1.000
 4994.00    1.98365   2.08286   -1.000
 4995.00    1.99905   2.09358   -1.000
 4996.00    2.01192   2.10211   -1.000
 4997.00    2.00091   2.09467   -1.000
 4998.00    1.97180   2.06221   -1.000
 4999.00    1.95088   2.01374   -1.000
 5000.00    1.92068   1.97183   -1.000
 5001.00    1.92206   1.95383   -1.000
 5002.00    1.95021   1.95466  136.104
 5003.00    1.96863   1.95450  139.048
 5004.00    1.94880   1.93670  140.898
 5005.00    1.89876   1.90564  138.970
 5006.00    1.87160   1.88893  134.979
 5007.00    1.90642   1.91149  132.529
 5008.00    1.98830   1.96449   -1.000
 5009.00    2.02849   2.01043  136.309
 5010.00    1.99678   2.01864  141.088
 5011.00    1.93657   1.98470   -1.000
 5012.00    1.86989   1.92858   -1.000
 5013.00    1.82694   1.88072   -1.000
 5014.00    1.82911   1.86378   -1.000
 5015.00    1.85885   1.87732  139.023
 5016.00    1.89753   1.90171  138.854
 5017.00    1.90462   1.92065  137.869
 5018.00    1.91135   1.93461   -1.000
 5019.00    1.92935   1.95104   -1.000
 5020.00    1.94306   1.96626   -1.000
 5021.00    1.95086   1.97267   -1.000
 5022.00    1.94238   1.97720   -1.000
 5023.00    1.95827   1.99383   -1.000
 5024.00    1.99924   2.02244   -1.000
 5025.00    2.00422   2.04473   -1.000
 5026.00    1.99215   2.04594   -1.000
 5027.00    1.98666   2.03532   -1.000
 5028.00    1.99368   2.03576   -1.000
 5029.00    2.02422   2.05923   -1.000
 5030.00    2.05888   2.09979   -1.000
 5031.00    2.08109   2.14332   -1.000
 5032.00    2.08523   2.17584   -1.000
 5033.00    2.09149   2.18218   -1.000
 5034.00    2.06649   2.15343   -1.000
 5035.00    1.99852   2.10164   -1.000
 5036.00    1.96443   2.05370   -1.000
 5037.00    1.96285   2.02098   -1.000
 5038.00    1.95022   1.98609   -1.000
 5039.00    1.88898   1.93078   -1.000
 5040.00    1.80023   1.87038   -1.000
 5041.00    1.75452   1.84939   -1.000
 5042.00    1.87496   1.89767   -1.000
 5043.00    1.17953   1.99958   -1.000
 5044.00    0.26738   2.10893   -1.000
 5045.00   -0.02727   2.18351    0.000
 5046.00    0.60496   2.20588   -1.000
 5047.00    1.61148   2.17821   -1.000
 5048.00    2.01623   2.11864   -1.000
 5049.00    1.99115   2.05760   -1.000
 5050.00    1.96675   2.02235   -1.000
 5051.00    1.98160   2.02137   -1.000
 5052.00    2.00088   2.04949   -1.000
 5053.00    2.05022   2.09591   -1.000
 5054.00    2.10728   2.14415   -1.000
 5055.00    2.13056   2.17974   -1.000
 5056.00    2.13903   2.20082   -1.000
 5057.00    2.14957   2.21429   -1.000
 5058.00    2.15916   2.22776   -1.000
 5059.00    2.15696   2.24485   -1.000
 5060.00    2.15330   2.26208   -1.000
 5061.00    2.16071   2.26844   -1.000
 5062.00    2.15804   2.24850   -1.000
 5063.00    2.11402   2.19689   -1.000
 5064.00    2.04329   2.13201   -1.000
 5065.00    2.00862   2.08405   -1.000
 5066.00    2.02430   2.06778   -1.000
 5067.00    2.04817   2.07447   -1.000
 5068.00    2.05258   2.08983   -1.000
 5069.00    2.07273   2.10692   -1.000
 5070.00    2.09049   2.12012   -1.000
 5071.00    2.07973   2.12159   -1.000
 5072.00    2.04545   2.11332   -1.000
 5073.00    2.04983   2.10902   -1.000
 5074.00    2.08368   2.11604   -1.000
 5075.00    2.09954   2.12642   -1.000
 5076.00    2.09886   2.12687   -1.000
 5077.00    2.09166   2.10504  140.595
 5078.00    2.02574   2.05577   -1.000
 5079.00    1.94147   1.99526   -1.000
 5080.00    1.90935   1.95739   -1.000
 5081.00    1.93156   1.96015   -1.000
 5082.00    1.97805   1.98990  134.815
 5083.00    2.02703   2.02749  132.408
 5084.00    2.07257   2.06631  131.017
 5085.00    2.11187   2.10495  130.600
 5086.00    2.12015   2.13807  130.113
 5087.00    2.10146   2.16082   -1.000
 5088.00    2.12046   2.17471   -1.000
 5089.00    2.14201   2.18543   -1.000
 5090.00    2.27393   2.19814   -1.000
 5091.00    2.30785   2.21695   -1.000
 5092.00    2.21235   2.24048   -1.000
 5093.00    2.20856   2.25675   -1.000
 5094.00    2.22185   2.24970   -1.000
 5095.00    2.19376   2.21346  133.690
 5096.00    2.15140   2.15695  136.651
 5097.00    2.07098   2.09696   -1.000
 5098.00    1.99486   2.05359   -1.000
 5099.00    1.99600   2.04609   -1.000
 5100.00    2.04397   2.07886   -1.000
 5101.00    2.09920   2.13046   -1.000
 5102.00    2.14257   2.16865   -1.000
 5103.00    2.14816   2.17660   -1.000
 5104.00    2.11891   2.16168   -1.000
 5105.00    2.08716   2.13683   -1.000
 5106.00    2.05619   2.10866   -1.000
 5107.00    2.02877   2.08199   -1.000
 5108.00    2.01352   2.06379   -1.000
 5109.00    2.03041   2.06153   -1.000
 5110.00    2.04284   2.07945   -1.000
 5111.00    2.05331   2.11405   -1.000
 5112.00    2.09277   2.15365   -1.000
 5113.00    2.13876   2.18685   -1.000
 5114.00    2.15246   2.21308   -1.000
 5115.00    2.15848   2.23743   -1.000
 5116.00    2.19787   2.26064   -1.000
 5117.00    2.23103   2.27701   -1.000
 5118.00    2.23154   2.27914   -1.000
 5119.00    2.21738   2.26307   -1.000
 5120.00    2.18408   2.22989   -1.000
 5121.00    2.13351   2.18383   -1.000
 5122.00    2.08308   2.13105   -1.000
 5123.00    2.04828   2.08201   -1.000
 5124.00    2.02463   2.05105   -1.000
 5125.00    2.04739   2.04491  137.577
 5126.00    2.07562   2.05409  137.444
 5127.00    2.06370   2.06409  137.441
 5128.00    2.05113   2.07135  136.172
 5129.00    2.05431   2.08294   -1.000
 5130.00    2.07173   2.10480   -1.000
 5131.00    2.10868   2.13370   -1.000
 5132.00    2.15029   2.16111  130.133
 5133.00    2.15975   2.18268   -1.000
 5134.00    2.16909   2.19837   -1.000
 5135.00    2.19847   2.20339  134.010
 5136.00    2.19430   2.18634  136.528
 5137.00    2.12896   2.14609  137.329
 5138.00    2.07355   2.10438   -1.000
 5139.00    2.06148   2.08431   -1.000
 5140.00    2.06888   2.08535  138.678
 5141.00    2.06905   2.09108   -1.000
 5142.00    2.04661   2.09316   -1.000
 5143.00    2.05864   2.09864   -1.000
 5144.00    2.10127   2.10919  136.616
 5145.00    2.11187   2.11121  137.280
 5146.00    2.09219   2.09969  136.203
 5147.00    2.08042   2.08987  135.119
 5148.00    2.08766   2.09372  136.045
 5149.00    2.10598   2.10340  138.328
 5150.00    2.11128   2.10310  139.764
 5151.00    2.07156   2.09067  139.531
 5152.00    2.05253   2.07842   -1.000
 5153.00    2.05801   2.07862   -1.000
 5154.00    2.08628   2.09824  130.740
 5155.00    2.13434   2.13821  128.023
 5156.00    2.18847   2.18938  126.645
 5157.00    2.23259   2.23539  126.367
 5158.00    2.24239   2.26452  126.668
 5159.00    2.27069   2.27496  127.312
 5160.00    2.27855   2.26879  128.538
 5161.00    2.25763   2.24569  130.379
 5162.00    2.24075   2.20400   -1.000
 5163.00    2.21273   2.14342   -1.000
 5164.00    2.16643   2.05903   -1.000
 5165.00    2.01502   1.94013   -1.000
 5166.00    1.80163   1.79947  171.425
 5167.00    1.68877   1.69365  163.162
 5168.00    1.72588   1.67260   -1.000
 5169.00    1.84224   1.71396   -1.000
 5170.00    1.87913   1.73944   -1.000
 5171.00    1.76482   1.70416   -1.000
 5172.00    1.62719   1.65603   -1.000
 5173.00    1.64772   1.67778   -1.000
 5174.00    1.82702   1.79319   -1.000
 5175.00    2.03264   1.94526   -1.000
 5176.00    2.14319   2.06167   -1.000
 5177.00    2.18579   2.12113   -1.000
 5178.00    2.19889   2.13702   -1.000
 5179.00    2.19082   2.11637   -1.000
 5180.00    2.15078   2.04743   -1.000
 5181.00    2.01458   1.92115   -1.000
 5182.00    1.78553   1.76918   -1.000
 5183.00    1.61117   1.66680   -1.000
 5184.00    1.64779   1.68041   -1.000
 5185.00    1.85444   1.80604   -1.000
 5186.00    2.06031   1.96807   -1.000
 5187.00    2.16496   2.09239   -1.000
 5188.00    2.20096   2.15645   -1.000
 5189.00    2.21758   2.17165   -1.000
 5190.00    2.18901   2.14708   -1.000
 5191.00    2.12093   2.09425   -1.000
 5192.00    2.06120   2.04576  140.553
 5193.00    2.07315   2.03368   -1.000
 5194.00    2.12588   2.05551   -1.000
 5195.00    2.15793   2.09075   -1.000
 5196.00    2.18456   2.13156   -1.000
 5197.00    2.23178   2.17718   -1.000
 5198.00    2.26359   2.22173   -1.000
 5199.00    2.27597   2.25445  130.332
 5200.00    2.28355   2.26606  132.340
 5201.00    2.28716   2.25213   -1.000
 5202.00    2.25112   2.21118   -1.000
 5203.00    2.19515   2.14415   -1.000
 5204.00    2.13715   2.06158   -1.000
 5205.00    2.08036   1.98651   -1.000
 5206.00    2.05495   1.93954   -1.000
 5207.00    2.05388   1.92469   -1.000
 5208.00    2.04046   1.93636   -1.000
 5209.00    2.04928   1.97750   -1.000
 5210.00    2.12780   2.05270   -1.000
 5211.00    2.21531   2.14718   -1.000
 5212.00    2.30173   2.22930   -1.000
 5213.00    2.34681   2.27021   -1.000
 5214.00    2.33505   2.26224   -1.000
 5215.00    2.26846   2.22838   -1.000
 5216.00    2.22789   2.20725  129.277
 5217.00    2.24854   2.22419  127.052
 5218.00    2.29240   2.27211  125.827
 5219.00    2.34217   2.32470  125.210
 5220.00    2.38859   2.35963   -1.000
 5221.00    2.40327   2.36561   -1.000
 5222.00    2.39260   2.33744   -1.000
 5223.00    2.34702   2.27397   -1.000
 5224.00    2.25796   2.18179   -1.000
 5225.00    2.14525   2.08309   -1.000
 5226.00    2.04660   2.01843   -1.000
 5227.00    2.07022   2.02488   -1.000
 5228.00    2.19754   2.10198   -1.000
 5229.00    2.29649   2.20431   -1.000
 5230.00    2.35988   2.27256   -1.000
 5231.00    2.36197   2.27966   -1.000
 5232.00    2.30823   2.24631   -1.000
 5233.00    2.27460   2.21647   -1.000
 5234.00    2.27363   2.22488   -1.000
 5235.00    2.31930   2.27312   -1.000
 5236.00    2.37070   2.33716   -1.000
 5237.00    2.41317   2.38961  124.458
 5238.00    2.41808   2.41578  124.412
 5239.00    2.41169   2.41944  123.801
 5240.00    2.39385   2.41288  123.732
 5241.00    2.39358   2.40635  123.615
 5242.00    2.40525   2.40628  123.393
 5243.00    2.42991   2.41267  125.148
 5244.00    2.43822   2.41333   -1.000
 5245.00    2.41543   2.39075   -1.000
 5246.00    2.35758   2.34335  133.116
 5247.00    2.29922   2.29244  133.336
 5248.00    2.29042   2.25937   -1.000
 5249.00    2.28808   2.24654   -1.000
 5250.00    2.27827   2.24788   -1.000
 5251.00    2.28451   2.26139  130.765
 5252.00    2.32938   2.28089   -1.000
 5253.00    2.33275   2.29466   -1.000
 5254.00    2.30959   2.30321  127.273
 5255.00    2.32060   2.32479  123.909
 5256.00    2.39064   2.37294  122.216
 5257.00    2.46537   2.43154   -1.000
 5258.00    2.49275   2.46714   -1.000
 5259.00    2.48269   2.45793   -1.000
 5260.00    2.42504   2.40100   -1.000
 5261.00    2.34084   2.30807   -1.000
 5262.00    2.24335   2.20025   -1.000
 5263.00    2.15657   2.10070   -1.000
 5264.00    2.10411   2.02915   -1.000
 5265.00    2.09652   1.99723   -1.000
 5266.00    2.14085   1.99772   -1.000
 5267.00    2.18460   2.00023   -1.000
 5268.00    2.14526   1.97543   -1.000
 5269.00    2.06343   1.93815   -1.000
 5270.00    2.06067   1.94335   -1.000
 5271.00    2.16860   2.02215   -1.000
 5272.00    2.28897   2.13421   -1.000
 5273.00    2.31944   2.21361   -1.000
 5274.00    2.31888   2.24981   -1.000
 5275.00    2.33919   2.27973   -1.000
 5276.00    2.38408   2.33171   -1.000
 5277.00    2.45950   2.39834   -1.000
 5278.00    2.52535   2.44597   -1.000
 5279.00    2.51464   2.44867   -1.000
 5280.00    2.46639   2.40852   -1.000
 5281.00    2.40564   2.34889   -1.000
 5282.00    2.33589   2.29936   -1.000
 5283.00    2.31381   2.28786  126.279
 5284.00    2.35923   2.32940   -1.000
 5285.00    2.46739   2.41064   -1.000
 5286.00    2.54206   2.49142   -1.000
 5287.00    2.56220   2.53877  121.126
 5288.00    2.56560   2.55558  120.573
 5289.00    2.54432   2.56206  120.192
 5290.00    2.54909   2.56836  120.669
 5291.00    2.55878   2.56933  121.723
 5292.00    2.57517   2.55902  123.235
 5293.00    2.56449   2.53826   -1.000
 5294.00    2.53725   2.50310   -1.000
 5295.00    2.48376   2.44283   -1.000
 5296.00    2.38437   2.36200   -1.000
 5297.00    2.29992   2.29171  131.960
 5298.00    2.29467   2.26781  129.242
 5299.00    2.36382   2.29506   -1.000
 5300.00    2.40914   2.34376   -1.000
 5301.00    2.42557   2.38954   -1.000
 5302.00    2.47133   2.43511   -1.000
 5303.00    2.53458   2.49025   -1.000
 5304.00    2.57524   2.54572   -1.000
 5305.00    2.59245   2.57836  122.332
 5306.00    2.57334   2.58171  121.977
 5307.00    2.55905   2.57456  120.775
 5308.00    2.56833   2.57788  119.875
 5309.00    2.58137   2.59445  119.791
 5310.00    2.60987   2.60906  120.350
 5311.00    2.62466   2.60868  120.919
 5312.00    2.61010   2.59468  121.709
 5313.00    2.59467   2.57421  122.847
 5314.00    2.57748   2.55155   -1.000
 5315.00    2.56531   2.52876   -1.000
 5316.00    2.55496   2.51106   -1.000
 5317.00    2.53761   2.50622   -1.000
 5318.00    2.54492   2.51351   -1.000
 5319.00    2.56248   2.52186   -1.000
 5320.00    2.56480   2.52075   -1.000
 5321.00    2.56184   2.50403   -1.000
 5322.00    2.54371   2.46842   -1.000
 5323.00    2.50389   2.41829   -1.000
 5324.00    2.48689   2.36325   -1.000
 5325.00    2.46959   2.30171   -1.000
 5326.00    2.42145   2.22134   -1.000
 5327.00    2.28922   2.13503   -1.000
 5328.00    2.20755   2.09355   -1.000
 5329.00    2.27140   2.14026   -1.000
 5330.00    2.40998   2.25496   -1.000
 5331.00    2.49423   2.37049   -1.000
 5332.00    2.52705   2.44570   -1.000
 5333.00    2.55615   2.48883   -1.000
 5334.00    2.59246   2.52289   -1.000
 5335.00    2.59954   2.55036   -1.000
 5336.00    2.57580   2.55768  125.453
 5337.00    2.56847   2.53645   -1.000
 5338.00    2.55159   2.48751   -1.000
 5339.00    2.48584   2.42371   -1.000
 5340.00    2.42365   2.37573   -1.000
 5341.00    2.44141   2.37485   -1.000
 5342.00    2.51056   2.41732   -1.000
 5343.00    2.56904   2.46594   -1.000
 5344.00    2.57813   2.48986   -1.000
 5345.00    2.55825   2.48577   -1.000
 5346.00    2.56153   2.46756   -1.000
 5347.00    2.53621   2.44767   -1.000
 5348.00    2.48907   2.43469   -1.000
 5349.00    2.49672   2.44083   -1.000
 5350.00    2.54318   2.47414   -1.000
 5351.00    2.58837   2.52528   -1.000
 5352.00    2.62179   2.57554   -1.000
 5353.00    2.64352   2.61447   -1.000
 5354.00    2.66162   2.64577  117.952
 5355.00    2.66915   2.67371  117.852
 5356.00    2.66861   2.69311  118.035
 5357.00    2.68055   2.69936  118.413
 5358.00    2.69197   2.69393  119.599
 5359.00    2.68762   2.67792  121.497
 5360.00    2.67173   2.65130  123.348
 5361.00    2.63286   2.61821  124.416
 5362.00    2.58963   2.58510  125.154
 5363.00    2.56492   2.55510  125.901
 5364.00    2.56276   2.52906   -1.000
 5365.00    2.56597   2.50904   -1.000
 5366.00    2.57745   2.49687   -1.000
 5367.00    2.58375   2.48354   -1.000
 5368.00    2.54289   2.44870   -1.000
 5369.00    2.45687   2.38612   -1.000
 5370.00    2.39119   2.32213   -1.000
 5371.00    2.39476   2.30224   -1.000
 5372.00    2.46972   2.35237   -1.000
 5373.00    2.59684   2.44970   -1.000
 5374.00    2.66056   2.54417   -1.000
 5375.00    2.67265   2.60026   -1.000
 5376.00    2.67978   2.61776   -1.000
 5377.00    2.69444   2.61890   -1.000
 5378.00    2.69158   2.61947   -1.000
 5379.00    2.66954   2.61794   -1.000
 5380.00    2.64512   2.60576   -1.000
 5381.00    2.62629   2.58357   -1.000
 5382.00    2.60776   2.56305   -1.000
 5383.00    2.59263   2.55684   -1.000
 5384.00    2.63027   2.56896   -1.000
 5385.00    2.65809   2.59091   -1.000
 5386.00    2.66453   2.60592   -1.000
 5387.00    2.68042   2.59978   -1.000
 5388.00    2.66237   2.57152   -1.000
 5389.00    2.62793   2.53191   -1.000
 5390.00    2.60240   2.49544   -1.000
 5391.00    2.57391   2.47187   -1.000
 5392.00    2.54886   2.46137   -1.000
 5393.00    2.55343   2.45613   -1.000
 5394.00    2.56791   2.44356   -1.000
 5395.00    2.53786   2.41490   -1.000
 5396.00    2.46935   2.37939   -1.000
 5397.00    2.44225   2.36526   -1.000
 5398.00    2.50066   2.39241   -1.000
 5399.00    2.58101   2.44805   -1.000
 5400.00    2.61980   2.49875   -1.000
 5401.00    2.63289   2.51928   -1.000
 5402.00    2.61710   2.49916   -1.000
 5403.00    2.54605   2.43777   -1.000
 5404.00    2.44957   2.35420   -1.000
 5405.00    2.39343   2.29331   -1.000
 5406.00    2.43748   2.29075   -1.000
 5407.00    2.50986   2.33106   -1.000
 5408.00    2.52000   2.37078   -1.000
 5409.00    2.48213   2.39009   -1.000
 5410.00    2.48676   2.40982   -1.000
 5411.00    2.54484   2.45472   -1.000
 5412.00    2.62810   2.51223   -1.000
 5413.00    2.65911   2.55499   -1.000
 5414.00    2.64390   2.57825   -1.000
 5415.00    2.62608   2.59783   -1.000
 5416.00    2.66658   2.62407   -1.000
 5417.00    2.70095   2.64542   -1.000
 5418.00    2.69047   2.64700   -1.000
 5419.00    2.67075   2.63193   -1.000
 5420.00    2.67207   2.61406   -1.000
 5421.00    2.67392   2.60093   -1.000
 5422.00    2.66140   2.58840   -1.000
 5423.00    2.63435   2.57445   -1.000
 5424.00    2.62291   2.57366   -1.000
 5425.00    2.65380   2.59804   -1.000
 5426.00    2.70593   2.62886   -1.000
 5427.00    2.69219   2.62615   -1.000
 5428.00    2.62871   2.57223   -1.000
 5429.00    2.56040   2.50229   -1.000
 5430.00    2.54813   2.46590   -1.000
 5431.00    2.59118   2.46948   -1.000
 5432.00    2.60848   2.47820   -1.000
 5433.00    2.56985   2.46408   -1.000
 5434.00    2.51834   2.44211   -1.000
 5435.00    2.52914   2.44743   -1.000
 5436.00    2.58686   2.49503   -1.000
 5437.00    2.64232   2.57141   -1.000
 5438.00    2.69588   2.64911   -1.000
 5439.00    2.74208   2.70695   -1.000
 5440.00    2.76752   2.73964   -1.000
 5441.00    2.77160   2.75244  120.620
 5442.00    2.77027   2.74699   -1.000
 5443.00    2.74380   2.71391   -1.000
 5444.00    2.66944   2.64435   -1.000
 5445.00    2.56121   2.54963  132.771
 5446.00    2.46379   2.47110  128.948
 5447.00    2.46620   2.45185  125.198
 5448.00    2.55608   2.49784   -1.000
 5449.00    2.66452   2.57241   -1.000
 5450.00    2.70669   2.62688   -1.000
 5451.00    2.71149   2.63973   -1.000
 5452.00    2.71948   2.61431   -1.000
 5453.00    2.66966   2.55892   -1.000
 5454.00    2.58096   2.49157   -1.000
 5455.00    2.53222   2.44907   -1.000
 5456.00    2.56361   2.46595   -1.000
 5457.00    2.66666   2.53862   -1.000
 5458.00    2.73908   2.61747   -1.000
 5459.00    2.76981   2.65405   -1.000
 5460.00    2.74844   2.64037   -1.000
 5461.00    2.69191   2.59848   -1.000
 5462.00    2.63182   2.55889   -1.000
 5463.00    2.61491   2.54492   -1.000
 5464.00    2.66027   2.56121   -1.000
 5465.00    2.69135   2.59298   -1.000
 5466.00    2.71935   2.62229   -1.000
 5467.00    2.74138   2.64056   -1.000
 5468.00    2.75082   2.64589   -1.000
 5469.00    2.76106   2.63904   -1.000
 5470.00    2.74621   2.62381   -1.000
 5471.00    2.72587   2.60586   -1.000
 5472.00    2.71867   2.58769   -1.000
 5473.00    2.69213   2.56379   -1.000
 5474.00    2.65344   2.52573   -1.000
 5475.00    2.58834   2.47791   -1.000
 5476.00    2.54765   2.44397   -1.000
 5477.00    2.56160   2.45188   -1.000
 5478.00    2.62782   2.49749   -1.000
 5479.00    2.68127   2.54023   -1.000
 5480.00    2.66744   2.55029   -1.000
 5481.00    2.63133   2.53960   -1.000
 5482.00    2.62148   2.54571   -1.000
 5483.00    2.64920   2.58565   -1.000
 5484.00    2.69962   2.63608   -1.000
 5485.00    2.72192   2.66245   -1.000
 5486.00    2.70281   2.65206   -1.000
 5487.00    2.68483   2.62294   -1.000
 5488.00    2.68410   2.60340   -1.000
 5489.00    2.70832   2.60793   -1.000
 5490.00    2.72807   2.62833   -1.000
 5491.00    2.74410   2.64619   -1.000
 5492.00    2.74378   2.65257   -1.000
 5493.00    2.74839   2.65076   -1.000
 5494.00    2.76214   2.64707   -1.000
 5495.00    2.76364   2.64147   -1.000
 5496.00    2.73623   2.63251   -1.000
 5497.00    2.70475   2.62851   -1.000
 5498.00    2.73564   2.63684   -1.000
 5499.00    2.78010   2.64620   -1.000
 5500.00    2.76077   2.63852   -1.000
 5501.00    2.70991   2.61333   -1.000
 5502.00    2.69591   2.59060   -1.000
 5503.00    2.73506   2.58368   -1.000
 5504.00    2.71789   2.58085   -1.000
 5505.00    2.68341   2.56964   -1.000
 5506.00    2.65013   2.55977   -1.000
 5507.00    2.69521   2.56976   -1.000
 5508.00    2.73988   2.59978   -1.000
 5509.00    2.76941   2.62316   -1.000
 5510.00    2.73923   2.61486   -1.000
 5511.00    2.69110   2.57886   -1.000
 5512.00    2.63660   2.53966   -1.000
 5513.00    2.60445   2.52082   -1.000
 5514.00    2.63427   2.52982   -1.000
 5515.00    2.69697   2.56027   -1.000
 5516.00    2.76646   2.60287   -1.000
 5517.00    2.80545   2.65041   -1.000
 5518.00    2.83523   2.69496   -1.000
 5519.00    2.86355   2.72570   -1.000
 5520.00    2.85605   2.73680   -1.000
 5521.00    2.82381   2.73548   -1.000
 5522.00    2.82312   2.73240   -1.000
 5523.00    2.82866   2.72805   -1.000
 5524.00    2.80855   2.71237   -1.000
 5525.00    2.78846   2.67419   -1.000
 5526.00    2.73488   2.61585   -1.000
 5527.00    2.65481   2.55891   -1.000
 5528.00    2.63890   2.53688   -1.000
 5529.00    2.68153   2.56549   -1.000
 5530.00    2.73130   2.62333   -1.000
 5531.00    2.77054   2.67180   -1.000
 5532.00    2.77284   2.68935   -1.000
 5533.00    2.75232   2.68305   -1.000
 5534.00    2.73565   2.67039   -1.000
 5535.00    2.75918   2.66348   -1.000
 5536.00    2.78344   2.66712   -1.000
 5537.00    2.81174   2.68072   -1.000
 5538.00    2.83996   2.70090   -1.000
 5539.00    2.85578   2.72446   -1.000
 5540.00    2.88160   2.74478   -1.000
 5541.00    2.88641   2.75162   -1.000
 5542.00    2.87313   2.74159   -1.000
 5543.00    2.82550   2.72465   -1.000
 5544.00    2.79916   2.71413   -1.000
 5545.00    2.81109   2.71516   -1.000
 5546.00    2.82118   2.72695   -1.000
 5547.00    2.85516   2.74901   -1.000
 5548.00    2.91050   2.77726   -1.000
 5549.00    2.91841   2.80079   -1.000
 5550.00    2.93388   2.80977   -1.000
 5551.00    2.92703   2.80172   -1.000
 5552.00    2.88756   2.78077   -1.000
 5553.00    2.88115   2.75657   -1.000
 5554.00    2.85525   2.74043   -1.000
 5555.00    2.86224   2.73691   -1.000
 5556.00    2.87421   2.74104   -1.000
 5557.00    2.87937   2.74504   -1.000
 5558.00    2.89742   2.74701   -1.000
 5559.00    2.89604   2.74770   -1.000
 5560.00    2.88736   2.74281   -1.000
 5561.00    2.86853   2.72829   -1.000
 5562.00    2.83542   2.70962   -1.000
 5563.00    2.82003   2.69557   -1.000
 5564.00    2.81665   2.68753   -1.000
 5565.00    2.80762   2.68027   -1.000
 5566.00    2.80105   2.67122   -1.000
 5567.00    2.79936   2.66408   -1.000
 5568.00    2.79971   2.66280   -1.000
 5569.00    2.80944   2.66709   -1.000
 5570.00    2.78751   2.67240   -1.000
 5571.00    2.66517   2.67324  127.818
 5572.00    2.22806   2.66989   -1.000
 5573.00    0.68972   2.67136   -1.000
 5574.00   -2.06636   2.68720    0.000
 5575.00   -3.74335   2.71165    0.000
 5576.00   -2.42380   2.73019    0.000
 5577.00    0.41529   2.74161   -1.000
 5578.00    2.35489   2.75297   -1.000
 5579.00    2.87608   2.76301   -1.000
 5580.00    2.92709   2.76588   -1.000
 5581.00    2.89718   2.75981   -1.000
 5582.00    2.87722   2.74808   -1.000
 5583.00    2.89943   2.73106   -1.000
 5584.00    2.90935   2.69839   -1.000
 5585.00    2.84742   2.64115   -1.000
 5586.00    2.73459   2.56942   -1.000
 5587.00    2.66820   2.51085   -1.000
 5588.00    2.66296   2.49035   -1.000
 5589.00    2.68814   2.51019   -1.000
 5590.00    2.74879   2.55311   -1.000
 5591.00    2.77395   2.59526   -1.000
 5592.00    2.77304   2.62299   -1.000
 5593.00    2.77355   2.64151   -1.000
 5594.00    2.80121   2.66473   -1.000
 5595.00    2.83382   2.69537   -1.000
 5596.00    2.84629   2.71541   -1.000
 5597.00    2.83075   2.70665   -1.000
 5598.00    2.79346   2.67230   -1.000
 5599.00    2.75579   2.63165   -1.000
 5600.00    2.76231   2.59988   -1.000
 5601.00    2.75631   2.58412   -1.000
 5602.00    2.73635   2.59449   -1.000
 5603.00    2.76554   2.64033   -1.000
 5604.00    2.86434   2.71204   -1.000
 5605.00    2.92563   2.78277   -1.000
 5606.00    2.94758   2.83091   -1.000
 5607.00    2.95080   2.85233   -1.000
 5608.00    2.95911   2.85652   -1.000
 5609.00    2.96556   2.85691   -1.000
 5610.00    2.96444   2.86120   -1.000
 5611.00    2.98969   2.86227   -1.000
 5612.00    2.99616   2.83953   -1.000
 5613.00    2.92542   2.77700   -1.000
 5614.00    2.82512   2.68765   -1.000
 5615.00    2.74473   2.61654   -1.000
 5616.00    2.74857   2.60180   -1.000
 5617.00    2.83791   2.63952   -1.000
 5618.00    2.90627   2.69010   -1.000
 5619.00    2.90955   2.72526   -1.000
 5620.00    2.92879   2.74734   -1.000
 5621.00    2.97197   2.75879   -1.000
 5622.00    2.93061   2.74729   -1.000
 5623.00    2.86686   2.71040   -1.000
 5624.00    2.83802   2.67004   -1.000
 5625.00    2.82261   2.65833   -1.000
 5626.00    2.87158   2.68525   -1.000
 5627.00    2.92769   2.73214   -1.000
 5628.00    2.94124   2.77857   -1.000
 5629.00    2.96060   2.81502   -1.000
 5630.00    2.99674   2.83626   -1.000
 5631.00    2.99047   2.84013   -1.000
 5632.00    2.96965   2.82972   -1.000
 5633.00    2.95076   2.81042   -1.000
 5634.00    2.95900   2.78606   -1.000
 5635.00    2.95937   2.76060   -1.000
 5636.00    2.90946   2.74012   -1.000
 5637.00    2.89861   2.73022   -1.000
 5638.00    2.89401   2.73055   -1.000
 5639.00    2.91101   2.73326   -1.000
 5640.00    2.90290   2.73014   -1.000
 5641.00    2.87387   2.72314   -1.000
 5642.00    2.89745   2.72348   -1.000
 5643.00    2.91361   2.73524   -1.000
 5644.00    2.92376   2.75187   -1.000
 5645.00    2.92797   2.76727   -1.000
 5646.00    2.94064   2.77836   -1.000
 5647.00    2.96221   2.78255   -1.000
 5648.00    2.94232   2.78045   -1.000
 5649.00    2.94439   2.77842   -1.000
 5650.00    2.96654   2.78451   -1.000
 5651.00    2.97280   2.79822   -1.000
 5652.00    2.97935   2.80620   -1.000
 5653.00    2.97837   2.79807   -1.000
 5654.00    2.96118   2.77823   -1.000
 5655.00    2.92907   2.75227   -1.000
 5656.00    2.89121   2.71689   -1.000
 5657.00    2.81565   2.67228   -1.000
 5658.00    2.74946   2.63581   -1.000
 5659.00    2.78032   2.63189   -1.000
 5660.00    2.82892   2.65804   -1.000
 5661.00    2.83873   2.68611   -1.000
 5662.00    2.83694   2.70631   -1.000
 5663.00    2.86415   2.73143   -1.000
 5664.00    2.90077   2.76238   -1.000
 5665.00    2.90774   2.78350   -1.000
 5666.00    2.90514   2.78431   -1.000
 5667.00    2.89285   2.77257   -1.000
 5668.00    2.88099   2.76513   -1.000
 5669.00    2.87670   2.77031   -1.000
 5670.00    2.90028   2.78738   -1.000
 5671.00    2.95122   2.81430   -1.000
 5672.00    2.98961   2.84548   -1.000
 5673.00    2.99312   2.86999   -1.000
 5674.00    3.01030   2.88120   -1.000
 5675.00    3.01474   2.88255   -1.000
 5676.00    3.03118   2.88187   -1.000
 5677.00    3.04884   2.88026   -1.000
 5678.00    3.01390   2.87154   -1.000
 5679.00    3.01850   2.85317   -1.000
 5680.00    2.98100   2.82764   -1.000
 5681.00    2.94039   2.79771   -1.000
 5682.00    2.92053   2.77116   -1.000
 5683.00    2.90478   2.76107   -1.000
 5684.00    2.92258   2.76761   -1.000
 5685.00    2.92800   2.77435   -1.000
 5686.00    2.92851   2.77018   -1.000
 5687.00    2.92333   2.76190   -1.000
 5688.00    2.91346   2.76495   -1.000
 5689.00    2.93283   2.78713   -1.000
 5690.00    2.97386   2.82225   -1.000
 5691.00    3.01170   2.85709   -1.000
 5692.00    3.04192   2.88096   -1.000
 5693.00    3.03571   2.89016   -1.000
 5694.00    3.03154   2.88803   -1.000
 5695.00    3.01808   2.87982   -1.000
 5696.00    2.99993   2.86628   -1.000
 5697.00    2.98481   2.84511   -1.000
 5698.00    2.95007   2.81781   -1.000
 5699.00    2.92345   2.78958   -1.000
 5700.00    2.87924   2.76548   -1.000
 5701.00    2.85641   2.75307   -1.000
 5702.00    2.85675   2.75941   -1.000
 5703.00    2.87662   2.77686   -1.000
 5704.00    2.90472   2.78599   -1.000
 5705.00    2.89428   2.77241   -1.000
 5706.00    2.87669   2.73782   -1.000
 5707.00    2.84058   2.69740   -1.000
 5708.00    2.80488   2.66480   -1.000
 5709.00    2.78167   2.64734   -1.000
 5710.00    2.77070   2.65078   -1.000
 5711.00    2.81565   2.67806   -1.000
 5712.00    2.86539   2.72632   -1.000
 5713.00    2.93250   2.78326   -1.000
 5714.00    3.01006   2.83129   -1.000
 5715.00    3.02140   2.86308   -1.000
 5716.00    3.01978   2.88292   -1.000
 5717.00    3.02011   2.89698   -1.000
 5718.00    3.02410   2.91040   -1.000
 5719.00    3.05491   2.92694   -1.000
 5720.00    3.08438   2.94637   -1.000
 5721.00    3.09413   2.96516   -1.000
 5722.00    3.10457   2.97886   -1.000
 5723.00    3.12072   2.98276   -1.000
 5724.00    3.08994   2.97201   -1.000
 5725.00    3.07654   2.94713   -1.000
 5726.00    3.03875   2.91950   -1.000
 5727.00    3.01818   2.90604   -1.000
 5728.00    3.02113   2.91115   -1.000
 5729.00    3.04588   2.91973   -1.000
 5730.00    3.06898   2.91835   -1.000
 5731.00    3.03832   2.91243   -1.000
 5732.00    3.04620   2.91817   -1.000
 5733.00    3.07578   2.94027   -1.000
 5734.00    3.10719   2.96290   -1.000
 5735.00    3.11286   2.97054   -1.000
 5736.00    3.08625   2.96400   -1.000
 5737.00    3.06202   2.95431   -1.000
 5738.00    3.07938   2.95028   -1.000
 5739.00    3.06493   2.95079   -1.000
 5740.00    3.07994   2.95030   -1.000
 5741.00    3.06210   2.94712   -1.000
 5742.00    3.06338   2.94688   -1.000
 5743.00    3.06870   2.95664   -1.000
 5744.00    3.08219   2.97281   -1.000
 5745.00    3.09223   2.98140   -1.000
 5746.00    3.07929   2.97203   -1.000
 5747.00    3.06873   2.95310   -1.000
 5748.00    3.06662   2.94483   -1.000
 5749.00    3.08653   2.95148   -1.000
 5750.00    3.12085   2.95494   -1.000
 5751.00    3.09499   2.93484   -1.000
 5752.00    3.03092   2.89509   -1.000
 5753.00    2.98130   2.86518   -1.000
 5754.00    2.99676   2.87124   -1.000
 5755.00    3.06176   2.91354   -1.000
 5756.00    3.11121   2.96511   -1.000
 5757.00    3.15629   2.99683   -1.000
 5758.00    3.15937   2.99573   -1.000
 5759.00    3.11376   2.96532   -1.000
 5760.00    3.07246   2.91998   -1.000
 5761.00    3.02811   2.88136   -1.000
 5762.00    3.00792   2.87113   -1.000
 5763.00    3.02966   2.89929   -1.000
 5764.00    3.04985   2.95229   -1.000
 5765.00    3.07963   3.00130   -1.000
 5766.00    3.11747   3.02950   -1.000
 5767.00    3.12685   3.03839   -1.000
 5768.00    3.11736   3.03551   -1.000
 5769.00    3.09688   3.02645   -1.000
 5770.00    3.08084   3.01453   -1.000
 5771.00    3.05392   3.00100   -1.000
 5772.00    3.03539   2.98694   -1.000
 5773.00    3.02366   2.97579   -1.000
 5774.00    3.02455   2.97172   -1.000
 5775.00    2.97465   2.97706  123.322
 5776.00    2.89945   2.98560   -1.000
 5777.00    2.83769   2.98216   -1.000
 5778.00    2.76657   2.95427   -1.000
 5779.00    2.74796   2.90203   -1.000
 5780.00    2.79421   2.84130   -1.000
 5781.00    2.84917   2.79432   -1.000
 5782.00    2.90854   2.77427   -1.000
 5783.00    2.93847   2.77422   -1.000
 5784.00    2.92332   2.78215   -1.000
 5785.00    2.94117   2.80127   -1.000
 5786.00    2.98619   2.83835   -1.000
 5787.00    3.06450   2.88427   -1.000
 5788.00    3.09233   2.92046   -1.000
 5789.00    3.07917   2.93598   -1.000
 5790.00    3.05033   2.93700   -1.000
 5791.00    3.05091   2.94112   -1.000
 5792.00    3.05042   2.96202   -1.000
 5793.00    3.05131   2.99566   -1.000
 5794.00    3.03613   3.02407  122.814
 5795.00    3.04434   3.03103  123.605
 5796.00    3.05990   3.01620   -1.000
 5797.00    3.05752   2.99931   -1.000
 5798.00    3.08763   3.00348   -1.000
 5799.00    3.15263   3.03381   -1.000
 5800.00    3.19028   3.07147   -1.000
 5801.00    3.20638   3.09208   -1.000
 5802.00    3.21160   3.08553   -1.000
 5803.00    3.16909   3.05863   -1.000
 5804.00    3.13204   3.02923   -1.000
 5805.00    3.11247   3.01291   -1.000
 5806.00    3.10636   3.01350   -1.000
 5807.00    3.10194   3.02441   -1.000
 5808.00    3.12444   3.03799   -1.000
 5809.00    3.15382   3.05099   -1.000
 5810.00    3.16884   3.06164   -1.000
 5811.00    3.18095   3.06614   -1.000
 5812.00    3.19858   3.06049   -1.000
 5813.00    3.22159   3.04285   -1.000
 5814.00    3.19615   3.01709   -1.000
 5815.00    3.15088   2.99596   -1.000
 5816.00    3.13690   2.99640   -1.000
 5817.00    3.15960   3.02262   -1.000
 5818.00    3.19791   3.06062   -1.000
 5819.00    3.23401   3.08935   -1.000
 5820.00    3.25900   3.09873   -1.000
 5821.00    3.21801   3.09372   -1.000
 5822.00    3.20454   3.08526   -1.000
 5823.00    3.23647   3.08176   -1.000
 5824.00    3.24023   3.08429   -1.000
 5825.00    3.22942   3.08989   -1.000
 5826.00    3.23220   3.09589   -1.000
 5827.00    3.24754   3.10179   -1.000
 5828.00    3.23937   3.10807   -1.000
 5829.00    3.24819   3.11288   -1.000
 5830.00    3.24667   3.11341   -1.000
 5831.00    3.23956   3.10849   -1.000
 5832.00    3.22247   3.09849   -1.000
 5833.00    3.21909   3.08596   -1.000
 5834.00    3.23160   3.07594   -1.000
 5835.00    3.24253   3.07289   -1.000
 5836.00    3.24433   3.07503   -1.000
 5837.00    3.22924   3.07826   -1.000
 5838.00    3.22127   3.08449   -1.000
 5839.00    3.23099   3.09773   -1.000
 5840.00    3.23217   3.11602   -1.000
 5841.00    3.22966   3.13092   -1.000
 5842.00    3.21769   3.13442   -1.000
 5843.00    3.23835   3.12463   -1.000
 5844.00    3.24207   3.10476   -1.000
 5845.00    3.23044   3.08003   -1.000
 5846.00    3.21530   3.05725   -1.000
 5847.00    3.17558   3.04317   -1.000
 5848.00    3.19535   3.03969   -1.000
 5849.00    3.22652   3.03962   -1.000
 5850.00    3.21003   3.03117   -1.000
 5851.00    3.17917   3.01046   -1.000
 5852.00    3.13170   2.98602   -1.000
 5853.00    3.11408   2.96904   -1.000
 5854.00    3.13594   2.95828   -1.000
 5855.00    3.12826   2.93974   -1.000
 5856.00    3.09103   2.90838   -1.000
 5857.00    3.06317   2.88159   -1.000
 5858.00    3.09012   2.88308   -1.000
 5859.00    3.11931   2.91612   -1.000
 5860.00    3.14622   2.95790   -1.000
 5861.00    3.17882   2.98698   -1.000
 5862.00    3.18618   2.99978   -1.000
 5863.00    3.17526   3.00390   -1.000
 5864.00    3.17960   3.00298   -1.000
 5865.00    3.18459   2.99545   -1.000
 5866.00    3.18413   2.98760   -1.000
 5867.00    3.17474   2.99400   -1.000
 5868.00    3.18894   3.01770   -1.000
 5869.00    3.22343   3.04566   -1.000
 5870.00    3.23306   3.06302   -1.000
 5871.00    3.24596   3.06499   -1.000
 5872.00    3.24171   3.05781   -1.000
 5873.00    3.24020   3.05065   -1.000
 5874.00    3.26118   3.04706   -1.000
 5875.00    3.26119   3.04241   -1.000
 5876.00    3.25685   3.03039   -1.000
 5877.00    3.21354   3.01025   -1.000
 5878.00    3.18387   2.98678   -1.000
 5879.00    3.16410   2.96773   -1.000
 5880.00    3.11250   2.95927   -1.000
 5881.00    3.04415   2.96030   -1.000
 5882.00    2.94906   2.96092  125.009
 5883.00    2.88089   2.95432   -1.000
 5884.00    2.75339   2.94119   -1.000
 5885.00    2.47769   2.91153   -1.000
 5886.00    2.00940   2.83542   -1.000
 5887.00    1.51293   2.68714   -1.000
 5888.00    1.38489   2.48580   -1.000
 5889.00    1.64384   2.31139   -1.000
 5890.00    2.03780   2.24816   -1.000
 5891.00    2.24371   2.31001   -1.000
 5892.00    2.11613   2.41727   -1.000
 5893.00    1.90278   2.47452   -1.000
 5894.00    1.90833   2.45314   -1.000
 5895.00    2.18832   2.40795   -1.000
 5896.00    2.54713   2.42303   -1.000
 5897.00    2.80070   2.52003   -1.000
 5898.00    2.95871   2.65269   -1.000
 5899.00    3.03361   2.77068   -1.000
 5900.00    3.11681   2.85681   -1.000
 5901.00    3.16824   2.91341   -1.000
 5902.00    3.18958   2.94659   -1.000
 5903.00    3.18650   2.96274   -1.000
 5904.00    3.18612   2.96828   -1.000
 5905.00    3.18556   2.97056   -1.000
 5906.00    3.16333   2.97686   -1.000
 5907.00    3.16609   2.98899   -1.000
 5908.00    3.19973   3.00323   -1.000
 5909.00    3.17542   3.01597   -1.000
 5910.00    3.17864   3.02305   -1.000
 5911.00    3.20524   3.01753   -1.000
 5912.00    3.18256   2.99439   -1.000
 5913.00    3.15452   2.95881   -1.000
 5914.00    3.10927   2.92843   -1.000
 5915.00    3.07407   2.91977   -1.000
 5916.00    3.10033   2.93420   -1.000
 5917.00    3.11742   2.96234   -1.000
 5918.00    3.14072   2.99129   -1.000
 5919.00    3.16729   3.01104   -1.000
 5920.00    3.15559   3.01808   -1.000
 5921.00    3.15116   3.01612   -1.000
 5922.00    3.13636   3.01399   -1.000
 5923.00    3.14630   3.02021   -1.000
 5924.00    3.20375   3.03492   -1.000
 5925.00    3.25816   3.04898   -1.000
 5926.00    3.25803   3.05114   -1.000
 5927.00    3.24044   3.03629   -1.000
 5928.00    3.20368   3.01204   -1.000
 5929.00    3.14945   2.99473   -1.000
 5930.00    3.17383   2.99678   -1.000
 5931.00    3.20790   3.01247   -1.000
 5932.00    3.22020   3.02385   -1.000
 5933.00    3.21528   3.02182   -1.000
 5934.00    3.19491   3.01587   -1.000
 5935.00    3.20104   3.02215   -1.000
 5936.00    3.21413   3.04141   -1.000
 5937.00    3.22350   3.05880   -1.000
 5938.00    3.20197   3.06215   -1.000
 5939.00    3.19955   3.04961   -1.000
 5940.00    3.16122   3.02807   -1.000
 5941.00    3.16480   3.01066   -1.000
 5942.00    3.16569   3.00962   -1.000
 5943.00    3.18951   3.02545   -1.000
 5944.00    3.21229   3.04684   -1.000
 5945.00    3.23112   3.05934   -1.000
 5946.00    3.21049   3.05461   -1.000
 5947.00    3.17696   3.03669   -1.000
 5948.00    3.16618   3.02076   -1.000
 5949.00    3.15074   3.01863   -1.000
 5950.00    3.19419   3.02473   -1.000
 5951.00    3.19640   3.02646   -1.000
 5952.00    3.19848   3.02158   -1.000
 5953.00    3.18523   3.01838   -1.000
 5954.00    3.20097   3.02054   -1.000
 5955.00    3.18536   3.02038   -1.000
 5956.00    3.17011   3.01474   -1.000
 5957.00    3.17701   3.01455   -1.000
 5958.00    3.20708   3.03016   -1.000
 5959.00    3.24483   3.05861   -1.000
 5960.00    3.28523   3.08764   -1.000
 5961.00    3.29780   3.10601   -1.000
 5962.00    3.31111   3.10979   -1.000
 5963.00    3.26783   3.10130   -1.000
 5964.00    3.22708   3.08696   -1.000
 5965.00    3.18966   3.07640   -1.000
 5966.00    3.20432   3.07801   -1.000
 5967.00    3.23017   3.09109   -1.000
 5968.00    3.26543   3.10825   -1.000
 5969.00    3.28534   3.12386   -1.000
 5970.00    3.27087   3.13535   -1.000
 5971.00    3.29366   3.14028   -1.000
 5972.00    3.29538   3.13619   -1.000
 5973.00    3.27920   3.12100   -1.000
 5974.00    3.24551   3.09443   -1.000
 5975.00    3.20370   3.06246   -1.000
 5976.00    3.18453   3.03779   -1.000
 5977.00    3.21295   3.03094   -1.000
 5978.00    3.24134   3.04374   -1.000
 5979.00    3.25431   3.06703   -1.000
 5980.00    3.26570   3.08391   -1.000
 5981.00    3.26988   3.07867   -1.000
 5982.00    3.23540   3.05041   -1.000
 5983.00    3.16902   3.01676   -1.000
 5984.00    3.15628   3.00149   -1.000
 5985.00    3.18821   3.01387   -1.000
 5986.00    3.20269   3.04145   -1.000
 5987.00    3.22579   3.06827   -1.000
 5988.00    3.25206   3.08775   -1.000
 5989.00    3.25969   3.09897   -1.000
 5990.00    3.26127   3.10455   -1.000
 5991.00    3.25601   3.11220   -1.000
 5992.00    3.28543   3.12812   -1.000
 5993.00    3.31598   3.14669   -1.000
 5994.00    3.29803   3.15285   -1.000
 5995.00    3.30741   3.13792   -1.000
 5996.00    3.28608   3.11008   -1.000
 5997.00    3.25398   3.08693   -1.000
 5998.00    3.27906   3.08107   -1.000
 5999.00    3.25396   3.08934   -1.000
 6000.00    3.25067   3.09823   -1.000
 6001.00    3.25407   3.09842   -1.000
 6002.00    3.24951   3.09245   -1.000
 6003.00    3.25035   3.08903   -1.000
 6004.00    3.25468   3.08675   -1.000
 6005.00    3.24518   3.07387   -1.000
 6006.00    3.18170   3.04851   -1.000
 6007.00    3.13692   3.02767   -1.000
 6008.00    3.17346   3.03216   -1.000
 6009.00    3.19956   3.06078   -1.000
 6010.00    3.25998   3.08751   -1.000
 6011.00    3.26416   3.09178   -1.000
 6012.00    3.25449   3.07834   -1.000
 6013.00    3.26275   3.06593   -1.000
 6014.00    3.27431   3.06358   -1.000
 6015.00    3.26198   3.06504   -1.000
 6016.00    3.25452   3.06464   -1.000
 6017.00    3.25772   3.06298   -1.000
 6018.00    3.24542   3.05778   -1.000
 6019.00    3.24049   3.04754   -1.000
 6020.00    3.20420   3.03985   -1.000
 6021.00    3.22148   3.04310   -1.000
 6022.00    3.22048   3.05764   -1.000
 6023.00    3.23477   3.07881   -1.000
 6024.00    3.26780   3.10211   -1.000
 6025.00    3.28367   3.12416   -1.000
 6026.00    3.29904   3.14336   -1.000
 6027.00    3.31242   3.16100   -1.000
 6028.00    3.31632   3.17785   -1.000
 6029.00    3.32526   3.19164   -1.000
 6030.00    3.30937   3.20152   -1.000
 6031.00    3.31862   3.21067   -1.000
 6032.00    3.31977   3.22345   -1.000
 6033.00    3.36588   3.24121   -1.000
 6034.00    3.34827   3.25808   -1.000
 6035.00    3.33983   3.26476   -1.000
 6036.00    3.33552   3.25786   -1.000
 6037.00    3.37275   3.24156   -1.000
 6038.00    3.34255   3.22293   -1.000
 6039.00    3.31959   3.20853   -1.000
 6040.00    3.32044   3.20309   -1.000
 6041.00    3.32291   3.20710   -1.000
 6042.00    3.35885   3.21830   -1.000
 6043.00    3.35300   3.23389   -1.000
 6044.00    3.35539   3.24911   -1.000
 6045.00    3.35391   3.26025   -1.000
 6046.00    3.37132   3.26693   -1.000
 6047.00    3.38748   3.27075   -1.000
 6048.00    3.41040   3.27312   -1.000
 6049.00    3.40945   3.27366   -1.000
 6050.00    3.38813   3.26931   -1.000
 6051.00    3.39422   3.25694   -1.000
 6052.00    3.40060   3.23730   -1.000
 6053.00    3.38963   3.21452   -1.000
 6054.00    3.36547   3.19322   -1.000
 6055.00    3.33415   3.17880   -1.000
 6056.00    3.35980   3.17693   -1.000
 6057.00    3.37383   3.18824   -1.000
 6058.00    3.41037   3.20602   -1.000
 6059.00    3.35614   3.21996   -1.000
 6060.00    3.52357   3.22154   -1.000
 6061.00    2.09070   3.20713   -1.000
 6062.00    0.93289   3.17905   -1.000
 6063.00    2.42954   3.14691   -1.000
 6064.00    3.28401   3.12729   -1.000
 6065.00    3.12291   3.13560  126.725
 6066.00    3.36372   3.17219   -1.000
 6067.00    1.97381   3.21936   -1.000
 6068.00    1.23272   3.25702   -1.000
 6069.00    3.47821   3.27922   -1.000
 6070.00    3.39272   3.29133   -1.000
 6071.00    3.37605   3.29800   -1.000
 6072.00    3.41339   3.29976   -1.000
 6073.00    3.43459   3.29590   -1.000
 6074.00    3.43584   3.28517   -1.000
 6075.00    3.40928   3.26621   -1.000
 6076.00    3.38839   3.24042   -1.000
 6077.00    3.36077   3.21348   -1.000
 6078.00    3.34163   3.19240   -1.000
 6079.00    3.32080   3.17893   -1.000
 6080.00    3.28949   3.16927   -1.000
 6081.00    3.31182   3.16169   -1.000
 6082.00    3.31666   3.15906   -1.000
 6083.00    3.31633   3.16273   -1.000
 6084.00    3.31507   3.17082   -1.000
 6085.00    3.31395   3.18156   -1.000
 6086.00    3.34307   3.19222   -1.000
 6087.00    3.34917   3.19682   -1.000
 6088.00    3.31809   3.19005   -1.000
 6089.00    3.31105   3.17428   -1.000
 6090.00    3.31115   3.16027   -1.000
 6091.00    3.30292   3.15851   -1.000
 6092.00    3.32701   3.17155   -1.000
 6093.00    3.33314   3.19406   -1.000
 6094.00    3.33782   3.21667   -1.000
 6095.00    3.37045   3.23190   -1.000
 6096.00    3.36467   3.24005   -1.000
 6097.00    3.36535   3.24548   -1.000
 6098.00    3.39793   3.24431   -1.000
 6099.00    3.37955   3.22299   -1.000
 6100.00    3.33304   3.17374   -1.000
 6101.00    3.25813   3.11216   -1.000
 6102.00    3.19697   3.07384   -1.000
 6103.00    3.20347   3.08279   -1.000
 6104.00    3.29630   3.12799   -1.000
 6105.00    3.35612   3.17797   -1.000
 6106.00    3.35619   3.21279   -1.000
 6107.00    3.31751   3.23379   -1.000
 6108.00    3.32570   3.24769   -1.000
 6109.00    3.34223   3.25497   -1.000
 6110.00    3.35324   3.25644   -1.000
 6111.00    3.35411   3.25897   -1.000
 6112.00    3.33839   3.26770   -1.000
 6113.00    3.36966   3.27806   -1.000
 6114.00    3.38174   3.28097   -1.000
 6115.00    3.36588   3.27422   -1.000
 6116.00    3.34514   3.26236   -1.000
 6117.00    3.34071   3.24534   -1.000
 6118.00    3.34158   3.21537   -1.000
 6119.00    3.30657   3.16813   -1.000
 6120.00    3.26534   3.11419   -1.000
 6121.00    3.17652   3.07825   -1.000
 6122.00    3.20428   3.08190   -1.000
 6123.00    3.26258   3.12085   -1.000
 6124.00    3.31800   3.16626   -1.000
 6125.00    3.33194   3.19368   -1.000
 6126.00    3.30454   3.20171   -1.000
 6127.00    3.28918   3.20472   -1.000
 6128.00    3.31521   3.21699   -1.000
 6129.00    3.33211   3.24177   -1.000
 6130.00    3.35455   3.27002   -1.000
 6131.00    3.38866   3.28660   -1.000
 6132.00    3.39126   3.27567   -1.000
 6133.00    3.34448   3.22597   -1.000
 6134.00    3.28136   3.14077   -1.000
 6135.00    3.19819   3.04873   -1.000
 6136.00    3.10682   2.99500   -1.000
 6137.00    3.07466   3.00726   -1.000
 6138.00    3.15254   3.06904   -1.000
 6139.00    3.24606   3.13491   -1.000
 6140.00    3.27876   3.17535   -1.000
 6141.00    3.27726   3.19825   -1.000
 6142.00    3.27004   3.22373   -1.000
 6143.00    3.31004   3.25450   -1.000
 6144.00    3.34617   3.27767   -1.000
 6145.00    3.36521   3.28265   -1.000
 6146.00    3.38124   3.26962   -1.000
 6147.00    3.33877   3.24607   -1.000
 6148.00    3.30772   3.22176   -1.000
 6149.00    3.29098   3.20614   -1.000
 6150.00    3.29214   3.20452   -1.000
 6151.00    3.33019   3.21299   -1.000
 6152.00    3.34037   3.21936   -1.000
 6153.00    3.33537   3.21404   -1.000
 6154.00    3.29361   3.19980   -1.000
 6155.00    3.27747   3.18616   -1.000
 6156.00    3.28600   3.17507   -1.000
 6157.00    3.26489   3.15544   -1.000
 6158.00    3.22542   3.11058   -1.000
 6159.00    3.17986   3.03246   -1.000
 6160.00    3.07990   2.93639   -1.000
 6161.00    2.98220   2.86070   -1.000
 6162.00    2.95032   2.84014   -1.000
 6163.00    2.99002   2.87752   -1.000
 6164.00    3.05249   2.94429   -1.000
 6165.00    3.11563   3.00403   -1.000
 6166.00    3.14750   3.03185   -1.000
 6167.00    3.10696   3.02366   -1.000
 6168.00    3.05600   2.99822   -1.000
 6169.00    3.01549   2.98707   -1.000
 6170.00    3.04936   3.00911   -1.000
 6171.00    3.12102   3.05402   -1.000
 6172.00    3.14796   3.09690   -1.000
 6173.00    3.13933   3.12381  133.803
 6174.00    3.16683   3.13650   -1.000
 6175.00    3.14698   3.14239  133.186
 6176.00    3.17520   3.14883   -1.000
 6177.00    3.17965   3.15962  132.039
 6178.00    3.20088   3.17301   -1.000
 6179.00    3.20810   3.18640  130.977
 6180.00    3.24219   3.20021   -1.000
 6181.00    3.26834   3.21286   -1.000
 6182.00    3.26038   3.21805   -1.000
 6183.00    3.26029   3.21056   -1.000
 6184.00    3.25787   3.19062   -1.000
 6185.00    3.21504   3.16277   -1.000
 6186.00    3.19995   3.13316   -1.000
 6187.00    3.17990   3.10505   -1.000
 6188.00    3.16779   3.07539   -1.000
 6189.00    3.15055   3.04228   -1.000
 6190.00    3.08398   3.01743   -1.000
 6191.00    3.03960   3.02051  134.821
 6192.00    3.10883   3.05734   -1.000
 6193.00    3.16400   3.11144   -1.000
 6194.00    3.21141   3.15921   -1.000
 6195.00    3.22901   3.18685   -1.000
 6196.00    3.25889   3.19144   -1.000
 6197.00    3.22054   3.17656   -1.000
 6198.00    3.18234   3.15476   -1.000
 6199.00    3.13227   3.14506  133.876
 6200.00    3.08822   3.15778   -1.000
 6201.00    3.12890   3.18577   -1.000
 6202.00    3.21539   3.21421  132.045
 6203.00    3.21829   3.23419  131.776
 6204.00    3.24274   3.24594  131.816
 6205.00    3.28214   3.25319   -1.000
 6206.00    3.27987   3.25741  132.294
 6207.00    3.29827   3.25678   -1.000
 6208.00    3.28959   3.24829   -1.000
 6209.00    3.27798   3.22982   -1.000
 6210.00    3.25180   3.19959   -1.000
 6211.00    3.25062   3.15655   -1.000
 6212.00    3.18662   3.10555   -1.000
 6213.00    3.15179   3.06036   -1.000
 6214.00    3.14670   3.03615   -1.000
 6215.00    3.12460   3.03664   -1.000
 6216.00    3.17888   3.04998   -1.000
 6217.00    3.18535   3.05902   -1.000
 6218.00    3.17348   3.05713   -1.000
 6219.00    2.64855   3.05336   -1.000
 6220.00    2.94998   3.05961   -1.000
 6221.00    3.21381   3.07627   -1.000
 6222.00    3.18327   3.09453   -1.000
 6223.00    3.22690   3.10808   -1.000
 6224.00    3.22078   3.11722   -1.000
 6225.00    3.23576   3.12198   -1.000
 6226.00    3.23578   3.11623   -1.000
 6227.00    3.22348   3.09115   -1.000
 6228.00    3.18264   3.04594   -1.000
 6229.00    3.13729   2.99587   -1.000
 6230.00    3.07423   2.96648   -1.000
 6231.00    3.04907   2.97587   -1.000
 6232.00    3.12606   3.02190   -1.000
 6233.00    3.17370   3.08426   -1.000
 6234.00    3.24016   3.13649   -1.000
 6235.00    3.25764   3.15988   -1.000
 6236.00    3.23013   3.15195   -1.000
 6237.00    3.20204   3.12391   -1.000
 6238.00    3.15393   3.09114   -1.000
 6239.00    3.14974   3.06448   -1.000
 6240.00    3.14538   3.04574   -1.000
 6241.00    3.11443   3.03029   -1.000
 6242.00    3.11471   3.01537   -1.000
 6243.00    3.08960   3.00519   -1.000
 6244.00    3.07166   3.00715   -1.000
 6245.00    3.09769   3.02619   -1.000
 6246.00    3.13848   3.06124   -1.000
 6247.00    3.17573   3.10183   -1.000
 6248.00    3.21752   3.13041   -1.000
 6249.00    3.21583   3.13254   -1.000
 6250.00    3.18629   3.10640   -1.000
 6251.00    3.15860   3.06459   -1.000
 6252.00    3.11049   3.02615   -1.000
 6253.00    3.08581   3.00233   -1.000
 6254.00    3.07274   2.98938   -1.000
 6255.00    3.04539   2.97711   -1.000
 6256.00    3.03142   2.96422   -1.000
 6257.00    3.02942   2.96212   -1.000
 6258.00    3.03710   2.98262   -1.000
 6259.00    3.06704   3.02564   -1.000
 6260.00    3.12119   3.07919   -1.000
 6261.00    3.17688   3.12752   -1.000
 6262.00    3.19009   3.15850   -1.000
 6263.00    3.19538   3.16859   -1.000
 6264.00    3.19321   3.16565   -1.000
 6265.00    3.16517   3.16302  137.183
 6266.00    3.14079   3.16659   -1.000
 6267.00    3.13011   3.17114   -1.000
 6268.00    3.14221   3.17183   -1.000
 6269.00    3.15136   3.17228   -1.000
 6270.00    3.15437   3.17793   -1.000
 6271.00    3.19764   3.18708  137.948
 6272.00    3.19892   3.19117  139.035
 6273.00    3.14422   3.18222   -1.000
 6274.00    3.08441   3.15945   -1.000
 6275.00    3.01619   3.12899   -1.000
 6276.00    2.94900   3.09840   -1.000
 6277.00    2.91511   3.07239   -1.000
 6278.00    2.89663   3.05348   -1.000
 6279.00    2.82146   3.04554   -1.000
 6280.00    2.76718   3.05447   -1.000
 6281.00    2.75020   3.08246   -1.000
 6282.00    2.81737   3.12276   -1.000
 6283.00    2.91126   3.16353   -1.000
 6284.00    2.99661   3.19663   -1.000
 6285.00    3.10580   3.22170   -1.000
 6286.00    3.17533   3.24133   -1.000
 6287.00    3.18872   3.25353   -1.000
 6288.00    3.23512   3.25241  138.480
 6289.00    3.23841   3.23646  139.467
 6290.00    3.21172   3.21317  139.633
 6291.00    3.19789   3.19367  139.784
 6292.00    3.16925   3.18324  140.068
 6293.00    3.12543   3.17727   -1.000
 6294.00    3.09625   3.16623   -1.000
 6295.00    2.96394   3.14631   -1.000
 6296.00    2.75362   3.12541   -1.000
 6297.00    2.51988   3.11444   -1.000
 6298.00    2.57511   3.11353   -1.000
 6299.00    2.81795   3.11260   -1.000
 6300.00    3.06022   3.10682   -1.000
 6301.00    3.11832   3.10452  142.184
 6302.00    3.15976   3.11596   -1.000
 6303.00    3.18215   3.14136   -1.000
 6304.00    3.18150   3.17347  137.099
 6305.00    3.20649   3.20623  135.860
 6306.00    3.19531   3.23609   -1.000
 6307.00    3.21068   3.25770   -1.000
 6308.00    3.25644   3.26472  137.455
 6309.00    3.23887   3.25656  137.925
 6310.00    3.20034   3.23981   -1.000
 6311.00    3.22166   3.22188  138.597
 6312.00    3.18483   3.20453  140.022
 6313.00    3.17237   3.18516  140.379
 6314.00    3.13398   3.16358   -1.000
 6315.00    3.09683   3.14304   -1.000
 6316.00    3.09335   3.12682   -1.000
 6317.00    3.10568   3.12063  139.663
 6318.00    3.12921   3.13246  137.843
 6319.00    3.14589   3.16192  136.579
 6320.00    3.17290   3.19713   -1.000
 6321.00    3.19933   3.22799   -1.000
 6322.00    3.23444   3.25397  134.922
 6323.00    3.23977   3.27726   -1.000
 6324.00    3.26334   3.29571   -1.000
 6325.00    3.27646   3.30614   -1.000
 6326.00    3.28849   3.30993   -1.000
 6327.00    3.27428   3.31111   -1.000
 6328.00    3.28160   3.31186   -1.000
 6329.00    3.31282   3.31375  133.604
 6330.00    3.27435   3.31851   -1.000
 6331.00    3.21760   3.32227   -1.000
 6332.00    3.27681   3.31364   -1.000
 6333.00    3.24526   3.28450   -1.000
 6334.00    3.22093   3.24263   -1.000
 6335.00    3.18709   3.20936   -1.000
 6336.00    3.16676   3.20185   -1.000
 6337.00    3.18719   3.22004   -1.000
 6338.00    3.24221   3.25149  132.844
 6339.00    3.27150   3.28111  132.209
 6340.00    3.27181   3.29600   -1.000
 6341.00    3.25927   3.29063   -1.000
 6342.00    3.28054   3.27211  133.767
 6343.00    3.25363   3.25710  133.331
 6344.00    3.22984   3.25960   -1.000
 6345.00    3.22066   3.28050   -1.000
 6346.00    3.25738   3.31032   -1.000
 6347.00    3.28111   3.33914   -1.000
 6348.00    3.27616   3.36132   -1.000
 6349.00    3.29747   3.37458   -1.000
 6350.00    3.27973   3.37744   -1.000
 6351.00    3.27893   3.36814   -1.000
 6352.00    3.26482   3.34673   -1.000
 6353.00    3.25021   3.31885   -1.000
 6354.00    3.24419   3.29336   -1.000
 6355.00    3.23366   3.27322   -1.000
 6356.00    3.20870   3.25262   -1.000
 6357.00    3.21590   3.22634  137.586
 6358.00    3.14128   3.19742   -1.000
 6359.00    3.07673   3.17281   -1.000
 6360.00    2.98667   3.15662   -1.000
 6361.00    2.98139   3.15151   -1.000
 6362.00    3.02929   3.16117   -1.000
 6363.00    3.13079   3.18652   -1.000
 6364.00    3.21155   3.22285  133.376
 6365.00    3.21498   3.26299   -1.000
 6366.00    3.22487   3.30086   -1.000
 6367.00    3.21946   3.33093   -1.000
 6368.00    3.22681   3.34975   -1.000
 6369.00    3.22988   3.36015   -1.000
 6370.00    3.24835   3.36981   -1.000
 6371.00    3.24230   3.38332   -1.000
 6372.00    3.22742   3.39751   -1.000
 6373.00    3.21919   3.40634   -1.000
 6374.00    3.19073   3.40768   -1.000
 6375.00    3.18096   3.40231   -1.000
 6376.00    3.16971   3.39060   -1.000
 6377.00    3.17888   3.37447   -1.000
 6378.00    3.17158   3.35907   -1.000
 6379.00    3.14261   3.34984   -1.000
 6380.00    3.14758   3.34884   -1.000
 6381.00    3.15429   3.35384   -1.000
 6382.00    3.16158   3.36052   -1.000
 6383.00    3.15886   3.36683   -1.000
 6384.00    3.14884   3.37438   -1.000
 6385.00    3.15241   3.38453   -1.000
 6386.00    3.17118   3.39477   -1.000
 6387.00    3.14979   3.40127   -1.000
 6388.00    3.14009   3.40114   -1.000
 6389.00    3.11813   3.39008   -1.000
 6390.00    3.10236   3.36324   -1.000
 6391.00    3.04595   3.32436   -1.000
 6392.00    2.98784   3.29112   -1.000
 6393.00    2.92365   3.28463   -1.000
 6394.00    2.93925   3.30893   -1.000
 6395.00    3.00148   3.34431   -1.000
 6396.00    2.98796   3.36198   -1.000
 6397.00    2.97821   3.34621   -1.000
 6398.00    2.95755   3.30822   -1.000
 6399.00    2.89975   3.28037   -1.000
 6400.00    2.86129   3.28964   -1.000
 6401.00    2.87900   3.33321   -1.000
 6402.00    2.90795   3.38441   -1.000
 6403.00    2.91926   3.41734   -1.000
 6404.00    2.92384   3.42126   -1.000
 6405.00    2.87912   3.40125   -1.000
 6406.00    2.83400   3.37327   -1.000
 6407.00    2.79886   3.35397   -1.000
 6408.00    2.74509   3.34885   -1.000
 6409.00    2.75773   3.35013   -1.000
 6410.00    2.74476   3.34857   -1.000
 6411.00    2.71207   3.34559   -1.000
 6412.00    2.68446   3.34911   -1.000
 6413.00    2.67810   3.36163   -1.000
 6414.00    2.68444   3.37814   -1.000
 6415.00    2.66926   3.39066   -1.000
 6416.00    2.66247   3.39099   -1.000
 6417.00    2.65272   3.37428   -1.000
 6418.00    2.58168   3.34459   -1.000
 6419.00    2.53780   3.31713   -1.000
 6420.00    2.48073   3.31092   -1.000
 6421.00    2.43763   3.33353   -1.000
 6422.00    2.45014   3.37377   -1.000
 6423.00    2.45944   3.41314   -1.000
 6424.00    2.46817   3.44148   -1.000
 6425.00    2.45641   3.45789   -1.000
 6426.00    2.44037   3.46067   -1.000
 6427.00    2.41325   3.44367   -1.000
 6428.00    2.21618   3.40650   -1.000
