###################################################################
## OUTPUT of StarlightChains_v04.for    [Cid@UFSC - 01/Apr/2007] ##
###################################################################

## Some input info
NGC6333_a_1.cxt                          [arq_obs]
Base.BC03.S                              [arq_base]
NGC6333_a_1.msk                          [arq_masks]
StCv04.C11.config                        [arq_config]
  150                                    [N_base]
    0                                    [N_YAV_components = # of components with extra extinction!]
    0                                    [i_FitPowerLaw (1/0 = Yes/No)]
-9.99                                    [alpha_PowerLaw]
CCM                                      [red_law_option]
 1.458241                                [q_norm = A(l_norm)/A(V)]

## (Re)Sampling Parameters
 3359.00                                 [l_ini (A)]
 6428.00                                 [l_fin (A)]
    1.00                                 [dl    (A)]     (OBS: dl_cushion =    50.00 A)

## Normalization info
 4020.00                                 [l_norm (A) - for base]
 4010.00                                 [llow_norm (A) - window for f_obs]
 4060.00                                 [lupp_norm (A) - window for f_obs]
1.502426E-14                             [fobs_norm (in input units)]

## S/N
 4730.00                                 [llow_SN (A) - window for S/N]
 4780.00                                 [lupp_SN (A) - window for S/N]
 125.098                                 [S/N in S/N window]
 101.861                                 [S/N in norm. window]
  69.725                                 [S/N_err in S/N window]
  56.774                                 [S/N_err in norm. window]
  1.0000                                 [fscale_chi2]

## etc...
  2147483616                             [idum_orig]
  3065                                   [NOl_eff]
  2284                                   [Nl_eff]
   781    NSIGMA                         [Ntot_cliped & clip_method]
  1752730                                [Nglobal_steps]
   7                                     [N_chains]
  25                                     [NEX0s_base = N_base in EX0s-fits]
 0   0   1      286   2.0   8.723E+02    [Clip-Bug, RC-Crash & Burn-In warning-flags, n_censored_weights, wei_nsig_threshold & wei_limit]
    66     65.977     65.977      0.000  [idt_all, wdt_TotTime, wdt_UsrTime & wdt_SysTime (sec)]

## Synthesis Results - Best model ##

 1.83758E+00                             [chi2/Nl_eff]
     1.45030                             [adev (%)]

   100.28949                             [sum-of-x (%)]
 8.94148E-14                             [Flux_tot (units of input spectrum!)]
 1.67551E-09                             [Mini_tot (???)]
 8.18537E-10                             [Mcor_tot (???)]

 -19.53                                  [v0_min  (km/s)]
  89.15                                  [vd_min  (km/s)]
 1.3258                                  [AV_min  (mag)]
 0.0000                                  [YAV_min (mag)]

# j     x_j(%)      Mini_j(%)     Mcor_j(%)     age_j(yr)     Z_j      (L/M)_j    YAV?  Mstars   component_j        a/Fe...       SSP_chi2r SSP_adev(%)   SSP_AV   SSP_x(%)
  1      0.0000     7.7791E-09    1.5924E-08    1.000000E+06  0.00010  8.160E-03    0   1.0000   age020_m22            0.0000     4.6800E+02    22.6725   4.0000    68.0224
  2     21.1008     2.3593E-02    4.8295E-02    3.160000E+06  0.00010  4.759E-02    0   1.0000   age045_m22            0.0000     1.4079E+01     2.5780   2.3917    94.8899
  3      1.6403     4.5177E-03    8.8610E-03    5.010000E+06  0.00010  1.932E-02    0   0.9582   age055_m22            0.0000     1.4493E+02    11.4188   2.9681    73.0880
  4      0.0000     0.0000E+00    0.0000E+00    6.610000E+06  0.00010  9.973E-03    0   0.9297   age061_m22            0.0000     4.3001E+02    21.6355   4.0000    70.7250
  5      0.0000     0.0000E+00    0.0000E+00    8.710000E+06  0.00010  7.690E-03    0   0.9030   age067_m22            0.0000     4.0855E+02    21.0294   4.0000    71.3843
  6      0.0000     0.0000E+00    0.0000E+00    1.000000E+07  0.00010  6.375E-03    0   0.8902   age070_m22            0.0000     4.0590E+02    20.9472   4.0000    71.7424
  7      0.0000     0.0000E+00    0.0000E+00    1.445000E+07  0.00010  4.874E-03    0   0.8589   age078_m22            0.0000     2.1906E+02    14.7608   4.0000    75.8382
  8      0.0000     0.0000E+00    0.0000E+00    2.512000E+07  0.00010  4.103E-03    0   0.8174   age090_m22            0.0000     3.8327E+01     5.3375   3.8602    84.9793
  9      2.5739     3.7483E-02    6.0077E-02    4.000000E+07  0.00010  3.654E-03    0   0.7830   age104_m22            0.0000     2.2437E+01     3.0221   3.4117    95.0463
 10      2.3119     3.9773E-02    6.1850E-02    5.500000E+07  0.00010  3.093E-03    0   0.7597   age110_m22            0.0000     2.7810E+01     3.2254   3.2491    98.9311
 11      3.3189     7.2646E-02    1.0615E-01    1.015200E+08  0.00010  2.431E-03    0   0.7138   age116_m22            0.0000     5.3716E+01     5.1165   2.8027   105.9383
 12      0.0000     0.0000E+00    0.0000E+00    1.609000E+08  0.00010  1.319E-03    0   0.6775   age120_m22            0.0000     4.9143E+01     5.7592   2.3076   109.4168
 13      0.0000     0.0000E+00    0.0000E+00    2.861200E+08  0.00010  1.075E-03    0   0.6412   age125_m22            0.0000     2.1403E+02    12.7798   2.0577   126.1212
 14      0.0000     0.0000E+00    0.0000E+00    5.088000E+08  0.00010  7.183E-04    0   0.6083   age130_m22            0.0000     2.8049E+02    14.9285   1.7229   132.5856
 15      0.0000     0.0000E+00    0.0000E+00    9.047900E+08  0.00010  4.524E-04    0   0.5785   age135_m22            0.0000     2.8683E+02    15.2863   1.5046   134.8536
 16      0.0000     0.0000E+00    0.0000E+00    1.278050E+09  0.00010  3.018E-04    0   0.5588   age138_m22            0.0000     1.0759E+02     9.9469   1.2283   122.0177
 17      0.0000     0.0000E+00    0.0000E+00    1.434000E+09  0.00010  2.691E-04    0   0.5532   age139_m22            0.0000     8.2912E+01     8.8711   1.1222   119.2917
 18      0.0000     0.0000E+00    0.0000E+00    2.500000E+09  0.00010  1.582E-04    0   0.5296   age150_m22            0.0000     6.5470E+01     7.7667   1.0518   118.3300
 19      0.0000     0.0000E+00    0.0000E+00    4.250000E+09  0.00010  1.007E-04    0   0.5110   age158_m22            0.0000     2.8397E+01     5.3326   1.0030   112.1237
 20      0.0000     0.0000E+00    0.0000E+00    6.250000E+09  0.00010  6.869E-05    0   0.4985   age166_m22            0.0000     9.3612E+00     3.0594   1.0454   105.0698
 21      0.5990     5.4272E-01    5.4780E-01    7.500000E+09  0.00010  5.873E-05    0   0.4931   age171_m22            0.0000     7.1506E+00     2.5745   1.0538   103.6896
 22      0.4432     5.2629E-01    5.2292E-01    1.000000E+10  0.00010  4.481E-05    0   0.4854   age181_m22            0.0000     7.0076E+00     2.5760   1.0171   103.2555
 23      0.2125     3.2402E-01    3.1777E-01    1.300000E+10  0.00010  3.489E-05    0   0.4791   age193_m22            0.0000     6.7116E+00     2.5438   0.9669   102.4479
 24      0.5142     9.0157E-01    8.7955E-01    1.500000E+10  0.00010  3.035E-05    0   0.4766   age201_m22            0.0000     6.4891E+00     2.4847   0.9330   102.0621
 25     24.8532     5.2688E+01    5.1067E+01    1.800000E+10  0.00010  2.510E-05    0   0.4735   age213_m22            0.0000     6.2950E+00     2.3450   0.8793   100.8710
 26      0.0000     0.0000E+00    0.0000E+00    1.000000E+06  0.00040  8.458E-03    0   1.0000   age020_m32            0.0000     4.7575E+02    22.8756   4.0000    68.6451
 27      0.0000     0.0000E+00    0.0000E+00    3.160000E+06  0.00040  3.973E-02    0   1.0000   age045_m32            0.0000     4.3654E+01     5.7400   3.7702    84.5424
 28      0.0000     0.0000E+00    0.0000E+00    5.010000E+06  0.00040  1.935E-02    0   0.9532   age055_m32            0.0000     1.2949E+02    10.3099   4.0000    75.2255
 29      0.0000     0.0000E+00    0.0000E+00    6.610000E+06  0.00040  1.204E-02    0   0.9243   age061_m32            0.0000     2.8267E+02    17.0695   4.0000    73.5495
 30      0.0000     0.0000E+00    0.0000E+00    8.710000E+06  0.00040  9.433E-03    0   0.9001   age067_m32            0.0000     2.4035E+02    15.5897   4.0000    74.9063
 31      0.0000     0.0000E+00    0.0000E+00    1.000000E+07  0.00040  8.053E-03    0   0.8877   age070_m32            0.0000     2.1253E+02    14.4790   4.0000    75.5124
 32      0.0000     0.0000E+00    0.0000E+00    1.445000E+07  0.00040  7.027E-03    0   0.8578   age078_m32            0.0000     5.8523E+01     6.9143   3.7679    81.9344
 33      0.0000     0.0000E+00    0.0000E+00    2.512000E+07  0.00040  4.707E-03    0   0.8166   age090_m32            0.0000     2.8408E+01     4.5131   3.3902    88.6227
 34      0.4695     6.7263E-03    1.0777E-02    4.000000E+07  0.00040  3.714E-03    0   0.7827   age104_m32            0.0000     1.7228E+01     2.7687   3.0791    95.9651
 35      0.8366     1.4928E-02    2.3202E-02    5.500000E+07  0.00040  2.982E-03    0   0.7593   age110_m32            0.0000     2.1520E+01     2.8446   2.9631    99.2042
 36      0.0000     0.0000E+00    0.0000E+00    1.015200E+08  0.00040  2.188E-03    0   0.7143   age116_m32            0.0000     9.3302E+01     7.7645   2.4679   112.8567
 37      0.0000     0.0000E+00    0.0000E+00    1.609000E+08  0.00040  1.690E-03    0   0.6856   age120_m32            0.0000     1.6941E+02    10.7913   2.1190   121.6747
 38      0.0000     0.0000E+00    0.0000E+00    2.861200E+08  0.00040  1.152E-03    0   0.6509   age125_m32            0.0000     2.3089E+02    13.4346   1.7740   129.0033
 39      0.0000     0.0000E+00    0.0000E+00    5.088000E+08  0.00040  7.331E-04    0   0.6182   age130_m32            0.0000     2.6049E+02    14.5484   1.5589   132.0727
 40      0.0000     0.0000E+00    0.0000E+00    9.047900E+08  0.00040  3.960E-04    0   0.5890   age135_m32            0.0000     1.1391E+02    10.4609   1.3059   121.6895
 41      0.0000     0.0000E+00    0.0000E+00    1.278050E+09  0.00040  2.854E-04    0   0.5687   age138_m32            0.0000     8.2396E+01     8.7625   1.0775   121.1289
 42      0.0000     0.0000E+00    0.0000E+00    1.434000E+09  0.00040  2.531E-04    0   0.5632   age139_m32            0.0000     8.0002E+01     8.5760   1.0213   120.8751
 43     14.7524     5.2755E+00    5.8162E+00    2.500000E+09  0.00040  1.488E-04    0   0.5386   age150_m32            0.0000     5.2668E+01     7.0422   0.8294   116.0516
 44     14.2753     8.3639E+00    8.9010E+00    4.250000E+09  0.00040  9.082E-05    0   0.5199   age158_m32            0.0000     1.2537E+01     3.5720   0.8884   106.0156
 45      4.4469     3.7194E+00    3.8646E+00    6.250000E+09  0.00040  6.362E-05    0   0.5076   age166_m32            0.0000     9.1936E+00     2.2583   0.9643    97.9144
 46      1.3104     1.3184E+00    1.3566E+00    7.500000E+09  0.00040  5.289E-05    0   0.5027   age171_m32            0.0000     1.2108E+01     2.4651   0.9454    95.9985
 47      0.0383     5.1330E-02    5.1989E-02    1.000000E+10  0.00040  3.972E-05    0   0.4948   age181_m32            0.0000     1.5046E+01     2.7421   0.8915    94.3863
 48      0.0000     0.0000E+00    0.0000E+00    1.300000E+10  0.00040  3.283E-05    0   0.4870   age193_m32            0.0000     9.9989E+00     2.7247   0.7870    99.4651
 49      0.0000     0.0000E+00    0.0000E+00    1.500000E+10  0.00040  2.925E-05    0   0.4854   age201_m32            0.0000     1.0411E+01     3.0808   0.7303   102.5946
 50      4.1934     9.0377E+00    8.9150E+00    1.800000E+10  0.00040  2.469E-05    0   0.4819   age213_m32            0.0000     1.1782E+01     3.3451   0.6738   103.7831
 51      0.0000     0.0000E+00    0.0000E+00    1.000000E+06  0.00400  1.114E-02    0   1.0000   age020_m42            0.0000     4.1322E+02    21.0600   4.0000    69.3142
 52      0.0000     0.0000E+00    0.0000E+00    3.160000E+06  0.00400  4.073E-02    0   0.9999   age045_m42            0.0000     2.6458E+01     4.0619   3.4117    89.1834
 53      0.0000     0.0000E+00    0.0000E+00    5.010000E+06  0.00400  2.534E-02    0   0.9488   age055_m42            0.0000     7.5518E+01     7.7730   3.9521    78.5785
 54      0.6697     1.3795E-03    2.6036E-03    6.610000E+06  0.00400  2.583E-02    0   0.9220   age061_m42            0.0000     1.9443E+01     3.0764   3.1858    91.6202
 55      0.1487     4.6375E-04    8.5274E-04    8.710000E+06  0.00400  1.706E-02    0   0.8983   age067_m42            0.0000     3.5101E+01     5.2449   3.1079    86.4175
 56      0.0001     4.8416E-07    8.7827E-07    1.000000E+07  0.00400  1.271E-02    0   0.8862   age070_m42            0.0000     5.7739E+01     7.2696   3.1504    83.0334
 57      0.0000     0.0000E+00    0.0000E+00    1.445000E+07  0.00400  7.666E-03    0   0.8571   age078_m42            0.0000     9.0061E+01     8.7322   3.6090    78.1224
 58      0.0000     0.0000E+00    0.0000E+00    2.512000E+07  0.00400  5.070E-03    0   0.8174   age090_m42            0.0000     5.2224E+01     6.6824   3.0037    85.2020
 59      0.0000     0.0000E+00    0.0000E+00    4.000000E+07  0.00400  3.505E-03    0   0.7851   age104_m42            0.0000     3.4435E+01     4.4852   2.6178    90.6677
 60      0.0000     0.0000E+00    0.0000E+00    5.500000E+07  0.00400  3.059E-03    0   0.7629   age110_m42            0.0000     2.1294E+01     3.1607   2.4738   102.9289
 61      0.0000     0.0000E+00    0.0000E+00    1.015200E+08  0.00400  2.268E-03    0   0.7207   age116_m42            0.0000     1.3978E+02    10.3020   2.0664   121.2343
 62      0.0000     0.0000E+00    0.0000E+00    1.609000E+08  0.00400  1.720E-03    0   0.6930   age120_m42            0.0000     1.5949E+02    11.4743   1.8668   125.4657
 63      0.0000     0.0000E+00    0.0000E+00    2.861200E+08  0.00400  1.079E-03    0   0.6613   age125_m42            0.0000     1.5686E+02    11.6011   1.5106   126.3067
 64      0.0000     0.0000E+00    0.0000E+00    5.088000E+08  0.00400  6.261E-04    0   0.6313   age130_m42            0.0000     1.9731E+02    12.8261   1.2520   132.4656
 65      0.0000     0.0000E+00    0.0000E+00    9.047900E+08  0.00400  3.535E-04    0   0.6024   age135_m42            0.0000     1.0695E+02     9.8251   1.0030   126.1500
 66      0.0000     0.0000E+00    0.0000E+00    1.278050E+09  0.00400  2.677E-04    0   0.5837   age138_m42            0.0000     7.1947E+01     7.6704   0.4838   116.1170
 67      0.0000     0.0000E+00    0.0000E+00    1.434000E+09  0.00400  1.910E-04    0   0.5716   age139_m42            0.0000     6.5899E+01     7.9697   0.6115   118.7612
 68      0.0000     0.0000E+00    0.0000E+00    2.500000E+09  0.00400  9.818E-05    0   0.5463   age150_m42            0.0000     5.2130E+01     6.1307   0.5110   106.5801
 69      0.0000     0.0000E+00    0.0000E+00    4.250000E+09  0.00400  5.491E-05    0   0.5269   age158_m42            0.0000     6.4294E+01     5.7447   0.4562   101.0029
 70      0.0000     0.0000E+00    0.0000E+00    6.250000E+09  0.00400  3.857E-05    0   0.5151   age166_m42            0.0000     8.0289E+01     6.3247   0.3494    98.9300
 71      0.0000     0.0000E+00    0.0000E+00    7.500000E+09  0.00400  3.243E-05    0   0.5110   age171_m42            0.0000     9.2217E+01     6.7308   0.2772    98.1784
 72      0.0000     0.0000E+00    0.0000E+00    1.000000E+10  0.00400  2.424E-05    0   0.5028   age181_m42            0.0000     1.1347E+02     7.2346   0.2064    97.2626
 73      0.0000     0.0000E+00    0.0000E+00    1.300000E+10  0.00400  1.883E-05    0   0.4927   age193_m42            0.0000     1.3512E+02     7.5686   0.1742    96.6617
 74      0.0000     0.0000E+00    0.0000E+00    1.500000E+10  0.00400  1.685E-05    0   0.4919   age201_m42            0.0000     1.2951E+02     7.4460   0.1803    96.6489
 75      0.0000     0.0000E+00    0.0000E+00    1.800000E+10  0.00400  1.452E-05    0   0.4874   age213_m42            0.0000     1.2011E+02     7.2365   0.1945    96.9237
 76      0.0000     0.0000E+00    0.0000E+00    1.000000E+06  0.00800  1.286E-02    0   1.0000   age020_m52            0.0000     3.6105E+02    19.4038   4.0000    71.6629
 77      0.0000     0.0000E+00    0.0000E+00    3.160000E+06  0.00800  3.147E-02    0   0.9966   age045_m52            0.0000     2.8859E+02    17.1215   4.0000    73.3616
 78      0.0000     0.0000E+00    0.0000E+00    5.010000E+06  0.00800  2.664E-02    0   0.9443   age055_m52            0.0000     1.0286E+02     8.4831   4.0000    77.4064
 79      0.0000     0.0000E+00    0.0000E+00    6.610000E+06  0.00800  2.151E-02    0   0.9177   age061_m52            0.0000     6.0195E+01     6.6112   2.7443    84.7388
 80      0.0000     0.0000E+00    0.0000E+00    8.710000E+06  0.00800  1.628E-02    0   0.8948   age067_m52            0.0000     4.8780E+01     5.9620   3.0864    86.1962
 81      0.0000     0.0000E+00    0.0000E+00    1.000000E+07  0.00800  1.215E-02    0   0.8827   age070_m52            0.0000     6.3192E+01     6.8336   3.4523    83.4977
 82      0.0000     0.0000E+00    0.0000E+00    1.445000E+07  0.00800  8.739E-03    0   0.8552   age078_m52            0.0000     4.6690E+01     5.5267   3.4487    86.3029
 83      0.0012     1.1472E-05    1.9166E-05    2.512000E+07  0.00800  5.676E-03    0   0.8162   age090_m52            0.0000     2.7980E+01     3.2513   2.9320    95.2952
 84      0.0000     0.0000E+00    0.0000E+00    4.000000E+07  0.00800  3.939E-03    0   0.7841   age104_m52            0.0000     3.0165E+01     2.6797   2.6785   101.3898
 85      0.0000     0.0000E+00    0.0000E+00    5.500000E+07  0.00800  3.155E-03    0   0.7627   age110_m52            0.0000     4.2986E+01     4.3320   2.5670   106.3860
 86      0.0000     0.0000E+00    0.0000E+00    1.015200E+08  0.00800  2.206E-03    0   0.7226   age116_m52            0.0000     9.3035E+01     8.3764   2.2158   117.3248
 87      0.0000     0.0000E+00    0.0000E+00    1.609000E+08  0.00800  1.596E-03    0   0.6963   age120_m52            0.0000     1.1921E+02     9.9183   1.9349   122.0004
 88      0.0000     0.0000E+00    0.0000E+00    2.861200E+08  0.00800  1.002E-03    0   0.6665   age125_m52            0.0000     2.1352E+02    13.7053   1.4716   132.5529
 89      0.0000     0.0000E+00    0.0000E+00    5.088000E+08  0.00800  5.759E-04    0   0.6377   age130_m52            0.0000     2.3434E+02    14.7951   1.0770   139.3871
 90      0.0000     0.0000E+00    0.0000E+00    9.047900E+08  0.00800  2.972E-04    0   0.6086   age135_m52            0.0000     1.2308E+02    11.2278   0.7472   128.7002
 91      0.0000     0.0000E+00    0.0000E+00    1.278050E+09  0.00800  2.242E-04    0   0.5907   age138_m52            0.0000     9.4456E+01     8.6906   0.3280   118.6590
 92      0.0000     0.0000E+00    0.0000E+00    1.434000E+09  0.00800  1.645E-04    0   0.5787   age139_m52            0.0000     8.1403E+01     7.9536   0.4935   117.2424
 93      0.0000     0.0000E+00    0.0000E+00    2.500000E+09  0.00800  7.723E-05    0   0.5519   age150_m52            0.0000     9.8815E+01     7.4047   0.2615   108.7343
 94      0.0000     0.0000E+00    0.0000E+00    4.250000E+09  0.00800  4.151E-05    0   0.5320   age158_m52            0.0000     1.0101E+02     7.2164   0.2341   104.3748
 95      0.0000     0.0000E+00    0.0000E+00    6.250000E+09  0.00800  3.010E-05    0   0.5197   age166_m52            0.0000     1.3532E+02     7.9800   0.0618   102.1642
 96      0.0000     0.0000E+00    0.0000E+00    7.500000E+09  0.00800  2.467E-05    0   0.5139   age171_m52            0.0000     1.4558E+02     8.3208   0.0000   101.8892
 97      0.0000     0.0000E+00    0.0000E+00    1.000000E+10  0.00800  1.862E-05    0   0.5054   age181_m52            0.0000     1.7623E+02     9.0082  -0.1126   101.5088
 98      0.0000     0.0000E+00    0.0000E+00    1.300000E+10  0.00800  1.433E-05    0   0.4988   age193_m52            0.0000     2.2135E+02     9.7493  -0.2085   102.2113
 99      0.0000     0.0000E+00    0.0000E+00    1.500000E+10  0.00800  1.244E-05    0   0.4936   age201_m52            0.0000     2.4086E+02    10.0135  -0.2384   102.7071
100      0.0000     0.0000E+00    0.0000E+00    1.800000E+10  0.00800  1.070E-05    0   0.4888   age213_m52            0.0000     2.5153E+02    10.2375  -0.2746   102.6471
101      0.0000     0.0000E+00    0.0000E+00    1.000000E+06  0.02000  1.989E-02    0   1.0000   age020_m62            0.0000     3.9144E+02    20.2739   4.0000    70.0322
102      0.0000     0.0000E+00    0.0000E+00    3.160000E+06  0.02000  3.772E-02    0   0.9858   age045_m62            0.0000     2.6670E+02    16.2795   4.0000    72.6781
103      0.0000     0.0000E+00    0.0000E+00    5.010000E+06  0.02000  3.227E-02    0   0.9342   age055_m62            0.0000     4.3822E+01     5.7403   3.7383    83.7065
104      0.0000     0.0000E+00    0.0000E+00    6.610000E+06  0.02000  2.387E-02    0   0.9090   age061_m62            0.0000     7.3336E+01     7.9946   3.5610    80.8094
105      0.0000     0.0000E+00    0.0000E+00    8.710000E+06  0.02000  1.102E-02    0   0.8861   age067_m62            0.0000     2.2154E+02    15.0555   3.3541    71.3190
106      0.0000     0.0000E+00    0.0000E+00    1.000000E+07  0.02000  1.011E-02    0   0.8751   age070_m62            0.0000     1.5943E+02    12.3843   3.3171    75.3039
107      0.0000     0.0000E+00    0.0000E+00    1.445000E+07  0.02000  7.331E-03    0   0.8472   age078_m62            0.0000     1.1635E+02    10.0835   3.2834    78.3264
108      0.0000     0.0000E+00    0.0000E+00    2.512000E+07  0.02000  4.206E-03    0   0.8099   age090_m62            0.0000     1.2837E+02    10.1015   3.1953    78.0071
109      0.0000     0.0000E+00    0.0000E+00    4.000000E+07  0.02000  3.373E-03    0   0.7799   age104_m62            0.0000     3.2498E+01     3.4686   2.7717    94.4564
110      0.0000     0.0000E+00    0.0000E+00    5.500000E+07  0.02000  2.747E-03    0   0.7595   age110_m62            0.0000     3.1537E+01     3.3553   2.5684   103.3000
111      0.0000     0.0000E+00    0.0000E+00    1.015200E+08  0.02000  1.878E-03    0   0.7221   age116_m62            0.0000     1.0329E+02     8.5435   2.1870   118.3189
112      0.0000     0.0000E+00    0.0000E+00    1.609000E+08  0.02000  1.378E-03    0   0.6978   age120_m62            0.0000     1.7807E+02    11.7747   1.8832   127.5986
113      0.0000     0.0000E+00    0.0000E+00    2.861200E+08  0.02000  8.869E-04    0   0.6700   age125_m62            0.0000     3.2577E+02    16.2858   1.2898   142.6135
114      0.0000     0.0000E+00    0.0000E+00    5.088000E+08  0.02000  4.834E-04    0   0.6430   age130_m62            0.0000     2.6884E+02    15.7922   0.8934   143.5562
115      0.0000     0.0000E+00    0.0000E+00    9.047900E+08  0.02000  2.312E-04    0   0.6152   age135_m62            0.0000     1.1946E+02    11.0065   0.5635   130.2787
116      0.0000     0.0000E+00    0.0000E+00    1.278050E+09  0.02000  1.387E-04    0   0.5927   age138_m62            0.0000     7.2053E+01     7.9550   0.3808   116.7283
117      0.0000     0.0000E+00    0.0000E+00    1.434000E+09  0.02000  1.168E-04    0   0.5865   age139_m62            0.0000     7.0566E+01     7.5727   0.3930   113.3820
118      0.0000     0.0000E+00    0.0000E+00    2.500000E+09  0.02000  5.505E-05    0   0.5610   age150_m62            0.0000     1.1045E+02     8.1491   0.0991   107.0812
119      0.0000     0.0000E+00    0.0000E+00    4.250000E+09  0.02000  3.070E-05    0   0.5407   age158_m62            0.0000     1.7930E+02     9.8261  -0.1959   107.0264
120      0.0000     0.0000E+00    0.0000E+00    6.250000E+09  0.02000  2.104E-05    0   0.5277   age166_m62            0.0000     2.2569E+02    10.6445  -0.3293   107.5155
121      0.0000     0.0000E+00    0.0000E+00    7.500000E+09  0.02000  1.770E-05    0   0.5223   age171_m62            0.0000     2.4994E+02    11.1131  -0.4243   108.1859
122      0.0000     0.0000E+00    0.0000E+00    1.000000E+10  0.02000  1.297E-05    0   0.5121   age181_m62            0.0000     3.0657E+02    12.0403  -0.5960   109.2283
123      0.0000     0.0000E+00    0.0000E+00    1.300000E+10  0.02000  9.691E-06    0   0.5047   age193_m62            0.0000     3.5158E+02    12.6183  -0.6888   109.9851
124      0.0000     0.0000E+00    0.0000E+00    1.500000E+10  0.02000  8.360E-06    0   0.4999   age201_m62            0.0000     3.8624E+02    13.1519  -0.7725   110.7261
125      0.0000     0.0000E+00    0.0000E+00    1.800000E+10  0.02000  6.911E-06    0   0.4946   age213_m62            0.0000     4.2617E+02    13.8379  -0.8661   111.7731
126      0.0000     0.0000E+00    0.0000E+00    1.000000E+06  0.05000  2.651E-02    0   0.9998   age020_m72            0.0000     3.7435E+02    19.7185   4.0000    71.2006
127      0.0000     0.0000E+00    0.0000E+00    3.160000E+06  0.05000  4.817E-02    0   0.9577   age045_m72            0.0000     1.3088E+02    10.3862   4.0000    77.2185
128      0.0000     0.0000E+00    0.0000E+00    5.010000E+06  0.05000  3.101E-02    0   0.9147   age055_m72            0.0000     8.7720E+01     8.2747   3.8447    79.1872
129      0.0000     0.0000E+00    0.0000E+00    6.610000E+06  0.05000  1.472E-02    0   0.8877   age061_m72            0.0000     1.8428E+02    12.9270   3.5158    73.8459
130      0.0000     0.0000E+00    0.0000E+00    8.710000E+06  0.05000  1.050E-02    0   0.8638   age067_m72            0.0000     1.3947E+02    10.4758   3.8588    75.9594
131      0.0000     0.0000E+00    0.0000E+00    1.000000E+07  0.05000  8.954E-03    0   0.8524   age070_m72            0.0000     1.1734E+02     8.7617   4.0000    77.9476
132      0.0000     0.0000E+00    0.0000E+00    1.445000E+07  0.05000  6.392E-03    0   0.8262   age078_m72            0.0000     9.7307E+01     7.8482   4.0000    79.3871
133      0.0000     0.0000E+00    0.0000E+00    2.512000E+07  0.05000  4.207E-03    0   0.7902   age090_m72            0.0000     5.5430E+01     5.3863   3.5396    87.0008
134      0.0000     0.0000E+00    0.0000E+00    4.000000E+07  0.05000  3.198E-03    0   0.7618   age104_m72            0.0000     5.1335E+01     5.3626   2.7228   106.9186
135      0.0000     0.0000E+00    0.0000E+00    5.500000E+07  0.05000  2.593E-03    0   0.7432   age110_m72            0.0000     7.4893E+01     6.9950   2.5433   112.4249
136      0.0000     0.0000E+00    0.0000E+00    1.015200E+08  0.05000  1.716E-03    0   0.7092   age116_m72            0.0000     1.3718E+02     9.9030   2.2062   121.2660
137      0.0000     0.0000E+00    0.0000E+00    1.609000E+08  0.05000  1.218E-03    0   0.6876   age120_m72            0.0000     2.2928E+02    13.3447   1.7773   131.3302
138      0.0000     0.0000E+00    0.0000E+00    2.861200E+08  0.05000  7.047E-04    0   0.6618   age125_m72            0.0000     3.2412E+02    16.6566   1.0756   143.1940
139      0.0000     0.0000E+00    0.0000E+00    5.088000E+08  0.05000  3.590E-04    0   0.6356   age130_m72            0.0000     2.4127E+02    15.1906   0.5877   142.2864
140      0.0000     0.0000E+00    0.0000E+00    9.047900E+08  0.05000  1.484E-04    0   0.6088   age135_m72            0.0000     1.0179E+02     9.6781   0.2236   118.4473
141      0.0000     0.0000E+00    0.0000E+00    1.278050E+09  0.05000  9.435E-05    0   0.5924   age138_m72            0.0000     1.3654E+02    10.0259  -0.0923   111.5637
142      0.0000     0.0000E+00    0.0000E+00    1.434000E+09  0.05000  7.827E-05    0   0.5847   age139_m72            0.0000     1.3897E+02     9.7157  -0.0508   109.7752
143      0.0000     0.0000E+00    0.0000E+00    2.500000E+09  0.05000  3.759E-05    0   0.5583   age150_m72            0.0000     2.1480E+02    10.6945  -0.3344   107.3210
144      0.0000     0.0000E+00    0.0000E+00    4.250000E+09  0.05000  1.842E-05    0   0.5374   age158_m72            0.0000     2.8466E+02    11.8657  -0.6599   107.1686
145      0.0000     0.0000E+00    0.0000E+00    6.250000E+09  0.05000  1.207E-05    0   0.5242   age166_m72            0.0000     3.4716E+02    13.2535  -0.9354   108.2133
146      0.0000     0.0000E+00    0.0000E+00    7.500000E+09  0.05000  9.993E-06    0   0.5183   age171_m72            0.0000     3.5359E+02    13.4594  -0.9864   108.4571
147      0.0000     0.0000E+00    0.0000E+00    1.000000E+10  0.05000  7.291E-06    0   0.5081   age181_m72            0.0000     4.0632E+02    14.4038  -1.0000   108.4648
148      0.8971     8.9798E+00    9.2237E+00    1.300000E+10  0.05000  5.316E-06    0   0.5018   age193_m72            0.0000     5.5756E+02    17.6597  -1.0000   107.6176
149      0.6820     8.0694E+00    8.2126E+00    1.500000E+10  0.05000  4.497E-06    0   0.4972   age201_m72            0.0000     6.5580E+02    19.4162  -1.0000   107.5288
150      0.0000     0.0000E+00    0.0000E+00    1.800000E+10  0.05000  3.739E-06    0   0.4924   age213_m72            0.0000     8.1391E+02    21.7778  -1.0000   106.6695


## Synthesis Results - Average & Chains ##

# j      x_j: min, <> & last-chain-values for 1 ...  7 chains
  1      0.0000      0.3280      0.3424      0.2206      0.3370      0.3298      0.2675      0.2731      0.3968
  2     21.1008     18.3758     19.2460     18.2355     19.2788     18.5716     18.9079     18.3855     18.5422
  3      1.6403      1.2093      1.2880      1.1847      1.2344      1.1952      1.2166      1.2142      1.2328
  4      0.0000      0.0070      0.0000      0.0000      0.0000      0.0000      0.0015      0.0000      0.0000
  5      0.0000      0.0369      0.0000      0.0000      0.0000      0.0000      0.1303      0.0000      0.0315
  6      0.0000      0.0105      0.0000      0.0000      0.0000      0.0000      0.0000      0.1349      0.0000
  7      0.0000      0.0099      0.0000      0.0186      0.0000      0.0000      0.0582      0.0000      0.0071
  8      0.0000      0.0296      0.0145      0.0000      0.0000      0.0000      0.0000      0.0285      0.0000
  9      2.5739      0.9316      1.0678      1.0278      1.0917      1.0783      0.9628      1.1875      1.1379
 10      2.3119      0.7604      0.6969      0.7616      0.8168      1.0023      0.7572      1.1112      0.8360
 11      3.3189      2.1056      2.2126      2.3829      2.0240      2.2596      2.3132      2.1722      2.2309
 12      0.0000      0.0190      0.0000      0.0000      0.1075      0.0000      0.0000      0.0633      0.0158
 13      0.0000      0.0088      0.0000      0.0000      0.0000      0.0000      0.0000      0.0000      0.0000
 14      0.0000      0.0048      0.0000      0.0000      0.0000      0.0000      0.0000      0.0000      0.0000
 15      0.0000      0.0047      0.0000      0.0000      0.0000      0.0000      0.0000      0.0000      0.0005
 16      0.0000      0.0066      0.0000      0.0000      0.0000      0.0048      0.0000      0.0654      0.0000
 17      0.0000      0.0130      0.0000      0.0000      0.0000      0.0000      0.0000      0.0000      0.0000
 18      0.0000      0.0189      0.0000      0.0000      0.0372      0.0000      0.0000      0.0000      0.0000
 19      0.0000      0.0429      0.0000      0.0000      0.0000      0.0000      0.0000      0.0000      0.0891
 20      0.0000      0.1192      0.0000      0.0066      0.0000      0.0000      0.0000      0.0592      0.0179
 21      0.5990      0.5157      0.4467      0.9265      0.8490      0.2806      0.1991      1.2932      0.9146
 22      0.4432      0.5544      0.5833      1.0372      0.6168      0.6401      0.3796      0.2694      0.8385
 23      0.2125      0.3101      0.1827      0.4392      0.0000      0.5384      0.0000      0.3599      0.3541
 24      0.5142      0.3786      0.4100      0.3191      0.4062      0.6569      0.3644      0.4510      0.5440
 25     24.8532     23.0797     23.8662     22.3525     23.2890     23.1628     23.2585     22.9629     23.7463
 26      0.0000      0.0224      0.0528      0.1221      0.0000      0.0000      0.0000      0.0000      0.0000
 27      0.0000      0.3145      0.2263      0.2045      0.4247      0.3901      0.0000      0.4441      0.0000
 28      0.0000      0.0223      0.0000      0.0343      0.0000      0.0468      0.0000      0.0349      0.0721
 29      0.0000      0.0085      0.0000      0.0000      0.0000      0.0000      0.0000      0.0000      0.0636
 30      0.0000      0.0120      0.0000      0.0000      0.0000      0.0000      0.0000      0.0439      0.0000
 31      0.0000      0.0068      0.0000      0.1005      0.0000      0.0000      0.0000      0.0893      0.0000
 32      0.0000      0.1166      0.1894      0.0075      0.0000      0.0291      0.1020      0.0000      0.0000
 33      0.0000      0.2530      0.1575      0.3814      0.3350      0.0574      0.2206      0.2234      0.2281
 34      0.4695      0.3885      0.3826      0.7601      0.1963      0.5008      0.5903      0.1895      0.7612
 35      0.8366      0.6158      1.0154      0.5736      0.5941      0.8856      0.4223      0.5144      0.8035
 36      0.0000      0.2253      0.0000      0.0009      0.2660      0.2115      0.0000      0.2075      0.0000
 37      0.0000      0.0324      0.0461      0.0000      0.0000      0.0727      0.0000      0.0000      0.0000
 38      0.0000      0.0072      0.0000      0.0000      0.0400      0.0030      0.0000      0.0229      0.0000
 39      0.0000      0.0057      0.0509      0.0000      0.0000      0.0000      0.0000      0.0000      0.0000
 40      0.0000      0.0059      0.0000      0.0577      0.0000      0.0000      0.0000      0.0000      0.0000
 41      0.0000      0.0168      0.0505      0.0095      0.0000      0.0000      0.0000      0.0405      0.0000
 42      0.0000      0.0212      0.0600      0.0000      0.0367      0.0000      0.0000      0.0000      0.0000
 43     14.7524     18.1343     18.0620     16.8835     17.0771     16.7757     18.1306     18.0661     17.5368
 44     14.2753     15.9657     15.0115     15.8636     15.8191     15.8896     16.1043     16.0251     16.4205
 45      4.4469      1.0206      1.1692      2.1295      1.2979      1.7221      1.0847      1.4774      0.5300
 46      1.3104      0.4846      0.2619      0.2751      1.0207      1.0232      0.4978      0.4326      0.5715
 47      0.0383      0.2514      0.3367      0.5497      0.2085      0.0000      0.2872      0.0421      0.5499
 48      0.0000      0.1743      0.0000      0.1669      0.0911      0.0057      0.1575      0.2892      0.0000
 49      0.0000      0.1286      0.0233      0.0688      0.1989      0.4986      0.5111      0.0000      0.0718
 50      4.1934      7.3671      7.8431      7.3955      7.4702      7.1339      7.2009      6.5455      6.1460
 51      0.0000      0.0168      0.0000      0.0000      0.0000      0.0000      0.0000      0.0000      0.0000
 52      0.0000      0.0823      0.0000      0.0000      0.2653      0.0000      0.0000      0.0000      0.1963
 53      0.0000      0.0178      0.0000      0.0000      0.0000      0.0000      0.0000      0.0000      0.0911
 54      0.6697      1.3081      1.3234      1.2802      1.4035      1.2654      1.5168      1.5916      1.4033
 55      0.1487      1.2563      1.1820      1.3325      1.2343      1.2519      1.2729      1.2841      1.3265
 56      0.0001      0.4404      0.3023      0.4331      0.3745      0.4659      0.5871      0.4665      0.3735
 57      0.0000      0.0126      0.0000      0.0876      0.0000      0.0000      0.0000      0.0000      0.0000
 58      0.0000      0.0500      0.0000      0.0000      0.0000      0.0000      0.1182      0.0000      0.0307
 59      0.0000      0.0129      0.0000      0.0000      0.0000      0.0000      0.0000      0.0000      0.0000
 60      0.0000      0.0135      0.0000      0.0000      0.0000      0.0341      0.0000      0.0000      0.1266
 61      0.0000      0.0146      0.0000      0.0544      0.0000      0.0008      0.0000      0.0000      0.0000
 62      0.0000      0.0089      0.0172      0.0000      0.0198      0.0000      0.0000      0.0000      0.0000
 63      0.0000      0.0040      0.0000      0.0000      0.0182      0.0000      0.0000      0.0000      0.0000
 64      0.0000      0.0043      0.0000      0.0079      0.0292      0.0030      0.0000      0.0000      0.0034
 65      0.0000      0.0077      0.0000      0.0000      0.0000      0.0000      0.0000      0.0000      0.0000
 66      0.0000      0.0030      0.0000      0.0000      0.0151      0.0000      0.0000      0.0000      0.0000
 67      0.0000      0.0045      0.0000      0.0017      0.0000      0.0000      0.0000      0.0000      0.0000
 68      0.0000      0.0050      0.0000      0.0000      0.0000      0.0000      0.0010      0.0000      0.0108
 69      0.0000      0.0040      0.0000      0.0000      0.0000      0.0000      0.0000      0.0000      0.0000
 70      0.0000      0.0056      0.0000      0.0000      0.0000      0.0000      0.0000      0.0000      0.0000
 71      0.0000      0.0046      0.0000      0.0000      0.0000      0.0000      0.0000      0.0000      0.0000
 72      0.0000      0.0041      0.0166      0.0000      0.0000      0.0000      0.0000      0.0000      0.0000
 73      0.0000      0.0051      0.0000      0.0399      0.0000      0.0000      0.0760      0.0000      0.0000
 74      0.0000      0.0039      0.0000      0.0172      0.0000      0.0000      0.0000      0.0000      0.0000
 75      0.0000      0.0056      0.0000      0.0000      0.0000      0.0000      0.0000      0.0000      0.0000
 76      0.0000      0.0026      0.0000      0.0000      0.0000      0.0000      0.0000      0.0265      0.0000
 77      0.0000      0.0029      0.0000      0.0000      0.0000      0.0000      0.0000      0.0000      0.0000
 78      0.0000      0.0063      0.0000      0.0304      0.0000      0.0000      0.0000      0.0000      0.0000
 79      0.0000      0.0068      0.0000      0.0034      0.0000      0.0000      0.0000      0.0153      0.0000
 80      0.0000      0.0105      0.0747      0.0000      0.0000      0.0219      0.0000      0.0000      0.0000
 81      0.0000      0.0099      0.0000      0.0000      0.0000      0.0000      0.0000      0.0000      0.0000
 82      0.0000      0.0158      0.0000      0.0000      0.0000      0.0000      0.0069      0.0000      0.0000
 83      0.0012      0.5500      0.4148      0.8070      0.0906      0.5515      0.9330      0.3862      0.5266
 84      0.0000      0.0427      0.0385      0.0074      0.0000      0.0608      0.1220      0.1284      0.0269
 85      0.0000      0.0250      0.0000      0.0000      0.0610      0.0183      0.0000      0.0072      0.0000
 86      0.0000      0.0185      0.0153      0.0586      0.0000      0.0000      0.0000      0.0000      0.0000
 87      0.0000      0.0089      0.0000      0.0000      0.0000      0.0000      0.0000      0.0000      0.0000
 88      0.0000      0.0035      0.0000      0.0000      0.0000      0.0000      0.0000      0.0000      0.0000
 89      0.0000      0.0024      0.0000      0.0000      0.0000      0.0000      0.0000      0.0000      0.0000
 90      0.0000      0.0010      0.0000      0.0000      0.0000      0.0000      0.0000      0.0000      0.0000
 91      0.0000      0.0018      0.0000      0.0000      0.0000      0.0000      0.0000      0.0000      0.0000
 92      0.0000      0.0012      0.0000      0.0000      0.0000      0.0000      0.0000      0.0163      0.0133
 93      0.0000      0.0043      0.0000      0.0000      0.0000      0.0000      0.0000      0.0013      0.0000
 94      0.0000      0.0073      0.0000      0.0000      0.0000      0.0000      0.0000      0.0000      0.0000
 95      0.0000      0.0055      0.0000      0.0000      0.0000      0.0000      0.0000      0.0000      0.0000
 96      0.0000      0.0055      0.0000      0.0000      0.0000      0.0000      0.0000      0.0000      0.0013
 97      0.0000      0.0041      0.0000      0.0000      0.0000      0.0000      0.0075      0.0000      0.0000
 98      0.0000      0.0028      0.0000      0.0000      0.0000      0.0000      0.0000      0.0186      0.0000
 99      0.0000      0.0027      0.0000      0.0000      0.0000      0.0000      0.0000      0.0000      0.0000
100      0.0000      0.0041      0.0000      0.0000      0.0000      0.0000      0.0000      0.0000      0.0000
101      0.0000      0.0016      0.0000      0.0000      0.0000      0.0000      0.0000      0.0000      0.0000
102      0.0000      0.0034      0.0000      0.0011      0.0000      0.0518      0.0000      0.0000      0.0000
103      0.0000      0.0529      0.0779      0.0000      0.1876      0.0000      0.0000      0.0000      0.0000
104      0.0000      0.0343      0.0572      0.0382      0.0000      0.0552      0.0000      0.0766      0.0823
105      0.0000      0.0450      0.0387      0.0442      0.0146      0.0381      0.0000      0.0699      0.0000
106      0.0000      0.0238      0.0000      0.0000      0.0240      0.0000      0.0000      0.0000      0.0000
107      0.0000      0.0064      0.0000      0.0000      0.0000      0.0005      0.0000      0.0000      0.0039
108      0.0000      0.0029      0.0000      0.0000      0.0262      0.0000      0.0000      0.0000      0.0000
109      0.0000      0.0081      0.0288      0.0000      0.0000      0.0000      0.0000      0.0000      0.0000
110      0.0000      0.0066      0.0000      0.0000      0.0000      0.0000      0.0000      0.0000      0.0000
111      0.0000      0.0091      0.0000      0.0000      0.0000      0.0000      0.0000      0.0000      0.0000
112      0.0000      0.0066      0.0000      0.0000      0.0000      0.0000      0.0000      0.0000      0.0006
113      0.0000      0.0046      0.0000      0.0000      0.0000      0.0000      0.0000      0.0000      0.0000
114      0.0000      0.0030      0.0000      0.0000      0.0000      0.0000      0.0503      0.0000      0.0000
115      0.0000      0.0015      0.0000      0.0000      0.0000      0.0000      0.0000      0.0000      0.0000
116      0.0000      0.0024      0.0000      0.0000      0.0000      0.0000      0.0020      0.0000      0.0000
117      0.0000      0.0021      0.0000      0.0000      0.0000      0.0000      0.0000      0.0000      0.0000
118      0.0000      0.0039      0.0000      0.0015      0.0000      0.0000      0.0000      0.0000      0.0000
119      0.0000      0.0042      0.0000      0.0000      0.0000      0.0033      0.0000      0.0000      0.0000
120      0.0000      0.0038      0.0000      0.0000      0.0000      0.0000      0.0000      0.0000      0.0000
121      0.0000      0.0078      0.0000      0.0000      0.0000      0.0000      0.0000      0.0000      0.1454
122      0.0000      0.0113      0.0000      0.0000      0.0000      0.0000      0.0000      0.0000      0.0000
123      0.0000      0.0064      0.0036      0.0000      0.0000      0.0000      0.0000      0.0000      0.0000
124      0.0000      0.0076      0.0000      0.0000      0.0000      0.0000      0.0000      0.0000      0.0000
125      0.0000      0.0107      0.0000      0.0000      0.0000      0.0130      0.0534      0.0000      0.0000
126      0.0000      0.0024      0.0000      0.0000      0.0000      0.0000      0.0000      0.0000      0.0000
127      0.0000      0.0192      0.0000      0.0000      0.0000      0.0000      0.0720      0.0000      0.0000
128      0.0000      0.0204      0.0000      0.0000      0.0000      0.0000      0.0180      0.0000      0.0000
129      0.0000      0.0125      0.0000      0.0000      0.0000      0.0006      0.0673      0.0000      0.0000
130      0.0000      0.0057      0.0000      0.0000      0.0235      0.0000      0.0000      0.0000      0.0000
131      0.0000      0.0028      0.0000      0.0000      0.0000      0.0000      0.0000      0.0000      0.0000
132      0.0000      0.0018      0.0000      0.0000      0.0000      0.0000      0.0000      0.0000      0.0000
133      0.0000      0.0036      0.0000      0.0000      0.0000      0.0000      0.0000      0.0000      0.0124
134      0.0000      0.0065      0.0000      0.0000      0.0000      0.0000      0.0000      0.0000      0.0000
135      0.0000      0.0072      0.0000      0.0000      0.0000      0.0000      0.0000      0.0627      0.0000
136      0.0000      0.0116      0.0000      0.0000      0.0000      0.0000      0.0000      0.0000      0.0000
137      0.0000      0.0060      0.0000      0.0000      0.0000      0.0000      0.0000      0.0000      0.0000
138      0.0000      0.0033      0.0000      0.0000      0.0000      0.0000      0.0000      0.0000      0.0000
139      0.0000      0.0019      0.0000      0.0000      0.0000      0.0000      0.0000      0.0000      0.0000
140      0.0000      0.0028      0.0000      0.0000      0.0000      0.0000      0.0000      0.0000      0.0000
141      0.0000      0.0022      0.0000      0.0000      0.0000      0.0000      0.0000      0.0000      0.0000
142      0.0000      0.0023      0.0000      0.0000      0.0000      0.0000      0.0000      0.0000      0.0000
143      0.0000      0.0036      0.0000      0.0000      0.0000      0.0000      0.0000      0.0000      0.0000
144      0.0000      0.0528      0.0000      0.0000      0.0000      0.0000      0.0000      0.0000      0.0000
145      0.0000      0.1756      0.1927      0.1262      0.2408      0.0706      0.0701      0.2033      0.0904
146      0.0000      0.0862      0.0000      0.0180      0.0851      0.0830      0.0234      0.0000      0.0098
147      0.0000      0.1780      0.2410      0.2632      0.0000      0.1531      0.1356      0.1042      0.0884
148      0.8971      0.4878      0.5427      0.4810      0.5178      0.4725      0.5447      0.5520      0.4240
149      0.6820      0.4389      0.4241      0.4306      0.4938      0.4480      0.4561      0.4769      0.5565
150      0.0000      0.3038      0.3350      0.3961      0.2265      0.4662      0.2765      0.3673      0.2869

# j      m_j: min, <> & last-chain-values for 1 ...  7 chains
  1  1.5924E-08  4.2502E-03  4.3693E-03  2.8391E-03  4.4142E-03  4.1941E-03  3.4991E-03  3.5701E-03  5.2260E-03
  2  4.8295E-02  4.0830E-02  4.2106E-02  4.0249E-02  4.3298E-02  4.0497E-02  4.2416E-02  4.1208E-02  4.1872E-02
  3  8.8610E-03  6.3421E-03  6.6509E-03  6.1717E-03  6.5434E-03  6.1517E-03  6.4416E-03  6.4236E-03  6.5706E-03
  4  0.0000E+00  6.9333E-05  0.0000E+00  0.0000E+00  0.0000E+00  0.0000E+00  1.5139E-05  0.0000E+00  0.0000E+00
  5  0.0000E+00  4.5803E-04  0.0000E+00  0.0000E+00  0.0000E+00  0.0000E+00  1.6334E-03  0.0000E+00  3.9691E-04
  6  0.0000E+00  1.5539E-04  0.0000E+00  0.0000E+00  0.0000E+00  0.0000E+00  0.0000E+00  2.0091E-03  0.0000E+00
  7  0.0000E+00  1.8393E-04  0.0000E+00  3.4408E-04  0.0000E+00  0.0000E+00  1.0944E-03  0.0000E+00  1.3403E-04
  8  0.0000E+00  6.2274E-04  3.0018E-04  0.0000E+00  0.0000E+00  0.0000E+00  0.0000E+00  6.0666E-04  0.0000E+00
  9  6.0077E-02  2.1108E-02  2.3823E-02  2.3133E-02  2.5002E-02  2.3979E-02  2.2026E-02  2.7142E-02  2.6204E-02
 10  6.1850E-02  1.9750E-02  1.7821E-02  1.9649E-02  2.1443E-02  2.5548E-02  1.9855E-02  2.9114E-02  2.2068E-02
 11  1.0615E-01  6.5375E-02  6.7642E-02  7.3494E-02  6.3518E-02  6.8853E-02  7.2511E-02  6.8033E-02  7.0397E-02
 12  0.0000E+00  1.0328E-03  0.0000E+00  0.0000E+00  5.9037E-03  0.0000E+00  0.0000E+00  3.4662E-03  8.7327E-04
 13  0.0000E+00  5.5190E-04  0.0000E+00  0.0000E+00  0.0000E+00  0.0000E+00  0.0000E+00  0.0000E+00  0.0000E+00
 14  0.0000E+00  4.2541E-04  0.0000E+00  0.0000E+00  0.0000E+00  0.0000E+00  0.0000E+00  0.0000E+00  0.0000E+00
 15  0.0000E+00  6.4181E-04  0.0000E+00  0.0000E+00  0.0000E+00  0.0000E+00  0.0000E+00  0.0000E+00  6.4764E-05
 16  0.0000E+00  1.2863E-03  0.0000E+00  0.0000E+00  0.0000E+00  9.1457E-04  0.0000E+00  1.2909E-02  0.0000E+00
 17  0.0000E+00  2.8256E-03  0.0000E+00  0.0000E+00  0.0000E+00  0.0000E+00  0.0000E+00  0.0000E+00  0.0000E+00
 18  0.0000E+00  6.6823E-03  0.0000E+00  0.0000E+00  1.3327E-02  0.0000E+00  0.0000E+00  0.0000E+00  0.0000E+00
 19  0.0000E+00  2.3024E-02  0.0000E+00  0.0000E+00  0.0000E+00  0.0000E+00  0.0000E+00  0.0000E+00  4.8576E-02
 20  0.0000E+00  9.1435E-02  0.0000E+00  5.0676E-03  0.0000E+00  0.0000E+00  0.0000E+00  4.5801E-02  1.3976E-02
 21  5.4780E-01  4.5784E-01  3.9051E-01  8.1710E-01  7.6183E-01  2.4449E-01  1.7850E-01  1.1582E+00  8.2524E-01
 22  5.2292E-01  6.3499E-01  6.5787E-01  1.1801E+00  7.1410E-01  7.1959E-01  4.3894E-01  3.1125E-01  9.7616E-01
 23  3.1777E-01  4.5034E-01  2.6117E-01  6.3344E-01  0.0000E+00  7.6722E-01  0.0000E+00  5.2710E-01  5.2250E-01
 24  8.7955E-01  6.2872E-01  6.7038E-01  5.2627E-01  6.8170E-01  1.0704E+00  6.1089E-01  7.5544E-01  9.1810E-01
 25  5.1067E+01  4.6038E+01  4.6876E+01  4.4292E+01  4.6956E+01  4.5345E+01  4.6841E+01  4.6206E+01  4.8141E+01
 26  0.0000E+00  2.8034E-04  6.5013E-04  1.5169E-03  0.0000E+00  0.0000E+00  0.0000E+00  0.0000E+00  0.0000E+00
 27  0.0000E+00  8.3709E-04  5.9314E-04  5.4075E-04  1.1424E-03  1.0189E-03  0.0000E+00  1.1922E-03  0.0000E+00
 28  0.0000E+00  1.1621E-04  0.0000E+00  1.7736E-04  0.0000E+00  2.3945E-04  0.0000E+00  1.8320E-04  3.8149E-04
 29  0.0000E+00  6.8621E-05  0.0000E+00  0.0000E+00  0.0000E+00  0.0000E+00  0.0000E+00  0.0000E+00  5.2430E-04
 30  0.0000E+00  1.2150E-04  0.0000E+00  0.0000E+00  0.0000E+00  0.0000E+00  0.0000E+00  4.4652E-04  0.0000E+00
 31  0.0000E+00  7.8957E-05  0.0000E+00  1.1634E-03  0.0000E+00  0.0000E+00  0.0000E+00  1.0496E-03  0.0000E+00
 32  0.0000E+00  1.5054E-03  2.4067E-03  9.6091E-05  0.0000E+00  3.6815E-04  1.3298E-03  0.0000E+00  0.0000E+00
 33  0.0000E+00  4.6409E-03  2.8444E-03  6.9501E-03  6.2125E-03  1.0340E-03  4.0852E-03  4.1331E-03  4.2530E-03
 34  1.0777E-02  8.6579E-03  8.3940E-03  1.6825E-02  4.4225E-03  1.0952E-02  1.3281E-02  4.2592E-03  1.7239E-02
 35  2.3202E-02  1.6579E-02  2.6918E-02  1.5341E-02  1.6167E-02  2.3401E-02  1.1479E-02  1.3973E-02  2.1988E-02
 36  0.0000E+00  7.7766E-03  0.0000E+00  3.1296E-05  9.2802E-03  7.1638E-03  0.0000E+00  7.2245E-03  0.0000E+00
 37  0.0000E+00  1.3906E-03  1.9460E-03  0.0000E+00  0.0000E+00  3.0612E-03  0.0000E+00  0.0000E+00  0.0000E+00
 38  0.0000E+00  4.3200E-04  0.0000E+00  0.0000E+00  2.4164E-03  1.7808E-04  0.0000E+00  1.3784E-03  0.0000E+00
 39  0.0000E+00  5.1090E-04  4.4707E-03  0.0000E+00  0.0000E+00  0.0000E+00  0.0000E+00  0.0000E+00  0.0000E+00
 40  0.0000E+00  9.2519E-04  0.0000E+00  9.0218E-03  0.0000E+00  0.0000E+00  0.0000E+00  0.0000E+00  0.0000E+00
 41  0.0000E+00  3.5403E-03  1.0487E-02  1.9783E-03  0.0000E+00  0.0000E+00  0.0000E+00  8.5976E-03  0.0000E+00
 42  0.0000E+00  4.9988E-03  1.3901E-02  0.0000E+00  8.7314E-03  0.0000E+00  0.0000E+00  0.0000E+00  0.0000E+00
 43  5.8162E+00  6.9408E+00  6.8069E+00  6.4191E+00  6.6066E+00  6.3014E+00  7.0061E+00  6.9752E+00  6.8216E+00
 44  8.9010E+00  9.6643E+00  8.9471E+00  9.5387E+00  9.6787E+00  9.4394E+00  9.8419E+00  9.7851E+00  1.0102E+01
 45  3.8646E+00  8.6107E-01  9.7130E-01  1.7847E+00  1.1068E+00  1.4259E+00  9.2391E-01  1.2573E+00  4.5446E-01
 46  1.3566E+00  4.8702E-01  2.5916E-01  2.7465E-01  1.0369E+00  1.0092E+00  5.0507E-01  4.3863E-01  5.8376E-01
 47  5.1989E-02  3.3121E-01  4.3675E-01  7.1924E-01  2.7759E-01  0.0000E+00  3.8190E-01  5.5950E-02  7.3611E-01
 48  0.0000E+00  2.7347E-01  0.0000E+00  2.6011E-01  1.4437E-01  8.7932E-03  2.4941E-01  4.5758E-01  0.0000E+00
 49  0.0000E+00  2.2562E-01  4.0340E-02  1.1999E-01  3.5277E-01  8.5864E-01  9.0554E-01  0.0000E+00  1.2809E-01
 50  8.9150E+00  1.5205E+01  1.5938E+01  1.5162E+01  1.5584E+01  1.4450E+01  1.5005E+01  1.3627E+01  1.2892E+01
 51  0.0000E+00  1.5932E-04  0.0000E+00  0.0000E+00  0.0000E+00  0.0000E+00  0.0000E+00  0.0000E+00  0.0000E+00
 52  0.0000E+00  2.1369E-04  0.0000E+00  0.0000E+00  6.9604E-04  0.0000E+00  0.0000E+00  0.0000E+00  5.1795E-04
 53  0.0000E+00  7.0533E-05  0.0000E+00  0.0000E+00  0.0000E+00  0.0000E+00  0.0000E+00  0.0000E+00  3.6652E-04
 54  2.6036E-03  4.9373E-03  4.9184E-03  4.8001E-03  5.3546E-03  4.6874E-03  5.7800E-03  6.0600E-03  5.3830E-03
 55  8.5274E-04  6.9946E-03  6.4803E-03  7.3698E-03  6.9467E-03  6.8406E-03  7.1553E-03  7.2120E-03  7.5060E-03
 56  8.7827E-07  3.2467E-03  2.1944E-03  3.1721E-03  2.7912E-03  3.3712E-03  4.3700E-03  3.4695E-03  2.7983E-03
 57  0.0000E+00  1.4901E-04  0.0000E+00  1.0285E-03  0.0000E+00  0.0000E+00  0.0000E+00  0.0000E+00  0.0000E+00
 58  0.0000E+00  8.5281E-04  0.0000E+00  0.0000E+00  0.0000E+00  0.0000E+00  2.0345E-03  0.0000E+00  5.3247E-04
 59  0.0000E+00  3.0559E-04  0.0000E+00  0.0000E+00  0.0000E+00  0.0000E+00  0.0000E+00  0.0000E+00  0.0000E+00
 60  0.0000E+00  3.5706E-04  0.0000E+00  0.0000E+00  0.0000E+00  8.8273E-04  0.0000E+00  0.0000E+00  3.3924E-03
 61  0.0000E+00  4.9174E-04  0.0000E+00  1.8142E-03  0.0000E+00  2.7014E-05  0.0000E+00  0.0000E+00  0.0000E+00
 62  0.0000E+00  3.7871E-04  7.2198E-04  0.0000E+00  8.5470E-04  0.0000E+00  0.0000E+00  0.0000E+00  0.0000E+00
 63  0.0000E+00  2.6047E-04  0.0000E+00  0.0000E+00  1.1916E-03  0.0000E+00  0.0000E+00  0.0000E+00  0.0000E+00
 64  0.0000E+00  4.5454E-04  0.0000E+00  8.4052E-04  3.1465E-03  3.1805E-04  0.0000E+00  0.0000E+00  3.7254E-04
 65  0.0000E+00  1.3813E-03  0.0000E+00  0.0000E+00  0.0000E+00  0.0000E+00  0.0000E+00  0.0000E+00  0.0000E+00
 66  0.0000E+00  6.8722E-04  0.0000E+00  0.0000E+00  3.5134E-03  0.0000E+00  0.0000E+00  0.0000E+00  0.0000E+00
 67  0.0000E+00  1.4140E-03  0.0000E+00  5.2146E-04  0.0000E+00  0.0000E+00  0.0000E+00  0.0000E+00  0.0000E+00
 68  0.0000E+00  2.9168E-03  0.0000E+00  0.0000E+00  0.0000E+00  0.0000E+00  5.7083E-04  0.0000E+00  6.4286E-03
 69  0.0000E+00  4.0608E-03  0.0000E+00  0.0000E+00  0.0000E+00  0.0000E+00  0.0000E+00  0.0000E+00  0.0000E+00
 70  0.0000E+00  7.8602E-03  0.0000E+00  0.0000E+00  0.0000E+00  0.0000E+00  0.0000E+00  0.0000E+00  0.0000E+00
 71  0.0000E+00  7.6080E-03  0.0000E+00  0.0000E+00  0.0000E+00  0.0000E+00  0.0000E+00  0.0000E+00  0.0000E+00
 72  0.0000E+00  8.9178E-03  3.5899E-02  0.0000E+00  0.0000E+00  0.0000E+00  0.0000E+00  0.0000E+00  0.0000E+00
 73  0.0000E+00  1.4086E-02  0.0000E+00  1.0963E-01  0.0000E+00  0.0000E+00  2.1230E-01  0.0000E+00  0.0000E+00
 74  0.0000E+00  1.1997E-02  0.0000E+00  5.2592E-02  0.0000E+00  0.0000E+00  0.0000E+00  0.0000E+00  0.0000E+00
 75  0.0000E+00  1.9902E-02  0.0000E+00  0.0000E+00  0.0000E+00  0.0000E+00  0.0000E+00  0.0000E+00  0.0000E+00
 76  0.0000E+00  2.1623E-05  0.0000E+00  0.0000E+00  0.0000E+00  0.0000E+00  0.0000E+00  2.1994E-04  0.0000E+00
 77  0.0000E+00  9.8508E-06  0.0000E+00  0.0000E+00  0.0000E+00  0.0000E+00  0.0000E+00  0.0000E+00  0.0000E+00
 78  0.0000E+00  2.3508E-05  0.0000E+00  1.1323E-04  0.0000E+00  0.0000E+00  0.0000E+00  0.0000E+00  0.0000E+00
 79  0.0000E+00  3.0861E-05  0.0000E+00  1.5040E-05  0.0000E+00  0.0000E+00  0.0000E+00  6.9611E-05  0.0000E+00
 80  0.0000E+00  6.0816E-05  4.2753E-04  0.0000E+00  0.0000E+00  1.2479E-04  0.0000E+00  0.0000E+00  0.0000E+00
 81  0.0000E+00  7.5952E-05  0.0000E+00  0.0000E+00  0.0000E+00  0.0000E+00  0.0000E+00  0.0000E+00  0.0000E+00
 82  0.0000E+00  1.6395E-04  0.0000E+00  0.0000E+00  0.0000E+00  0.0000E+00  7.2163E-05  0.0000E+00  0.0000E+00
 83  1.9166E-05  8.3636E-03  6.2110E-03  1.2189E-02  1.3927E-03  8.2297E-03  1.4323E-02  5.9244E-03  8.1371E-03
 84  0.0000E+00  8.9860E-04  7.9743E-04  1.5557E-04  0.0000E+00  1.2555E-03  2.5936E-03  2.7262E-03  5.7440E-04
 85  0.0000E+00  6.3782E-04  0.0000E+00  0.0000E+00  1.5764E-03  4.5983E-04  0.0000E+00  1.8604E-04  0.0000E+00
 86  0.0000E+00  6.4026E-04  5.2226E-04  2.0170E-03  0.0000E+00  0.0000E+00  0.0000E+00  0.0000E+00  0.0000E+00
 87  0.0000E+00  4.1277E-04  0.0000E+00  0.0000E+00  0.0000E+00  0.0000E+00  0.0000E+00  0.0000E+00  0.0000E+00
 88  0.0000E+00  2.4589E-04  0.0000E+00  0.0000E+00  0.0000E+00  0.0000E+00  0.0000E+00  0.0000E+00  0.0000E+00
 89  0.0000E+00  2.7734E-04  0.0000E+00  0.0000E+00  0.0000E+00  0.0000E+00  0.0000E+00  0.0000E+00  0.0000E+00
 90  0.0000E+00  2.1531E-04  0.0000E+00  0.0000E+00  0.0000E+00  0.0000E+00  0.0000E+00  0.0000E+00  0.0000E+00
 91  0.0000E+00  4.8772E-04  0.0000E+00  0.0000E+00  0.0000E+00  0.0000E+00  0.0000E+00  0.0000E+00  0.0000E+00
 92  0.0000E+00  4.4686E-04  0.0000E+00  0.0000E+00  0.0000E+00  0.0000E+00  0.0000E+00  6.1068E-03  5.0264E-03
 93  0.0000E+00  3.2271E-03  0.0000E+00  0.0000E+00  0.0000E+00  0.0000E+00  0.0000E+00  1.0228E-03  0.0000E+00
 94  0.0000E+00  9.9197E-03  0.0000E+00  0.0000E+00  0.0000E+00  0.0000E+00  0.0000E+00  0.0000E+00  0.0000E+00
 95  0.0000E+00  9.9704E-03  0.0000E+00  0.0000E+00  0.0000E+00  0.0000E+00  0.0000E+00  0.0000E+00  0.0000E+00
 96  0.0000E+00  1.2149E-02  0.0000E+00  0.0000E+00  0.0000E+00  0.0000E+00  0.0000E+00  0.0000E+00  2.9974E-03
 97  0.0000E+00  1.1733E-02  0.0000E+00  0.0000E+00  0.0000E+00  0.0000E+00  2.1648E-02  0.0000E+00  0.0000E+00
 98  0.0000E+00  1.0190E-02  0.0000E+00  0.0000E+00  0.0000E+00  0.0000E+00  0.0000E+00  6.9222E-02  0.0000E+00
 99  0.0000E+00  1.1428E-02  0.0000E+00  0.0000E+00  0.0000E+00  0.0000E+00  0.0000E+00  0.0000E+00  0.0000E+00
100  0.0000E+00  1.9889E-02  0.0000E+00  0.0000E+00  0.0000E+00  0.0000E+00  0.0000E+00  0.0000E+00  0.0000E+00
101  0.0000E+00  8.3889E-06  0.0000E+00  0.0000E+00  0.0000E+00  0.0000E+00  0.0000E+00  0.0000E+00  0.0000E+00
102  0.0000E+00  9.3780E-06  0.0000E+00  3.0014E-06  0.0000E+00  1.4044E-04  0.0000E+00  0.0000E+00  0.0000E+00
103  0.0000E+00  1.6191E-04  2.3466E-04  0.0000E+00  5.8048E-04  0.0000E+00  0.0000E+00  0.0000E+00  0.0000E+00
104  0.0000E+00  1.3824E-04  2.2672E-04  1.5278E-04  0.0000E+00  2.1803E-04  0.0000E+00  3.1117E-04  3.3693E-04
105  0.0000E+00  3.8254E-04  3.2359E-04  3.7327E-04  1.2559E-04  3.1799E-04  0.0000E+00  5.9967E-04  0.0000E+00
106  0.0000E+00  2.1803E-04  0.0000E+00  0.0000E+00  2.2218E-04  0.0000E+00  0.0000E+00  0.0000E+00  0.0000E+00
107  0.0000E+00  7.8536E-05  0.0000E+00  0.0000E+00  0.0000E+00  5.6130E-06  0.0000E+00  0.0000E+00  4.8590E-05
108  0.0000E+00  5.8307E-05  0.0000E+00  0.0000E+00  5.3922E-04  0.0000E+00  0.0000E+00  0.0000E+00  0.0000E+00
109  0.0000E+00  1.9848E-04  6.9229E-04  0.0000E+00  0.0000E+00  0.0000E+00  0.0000E+00  0.0000E+00  0.0000E+00
110  0.0000E+00  1.9410E-04  0.0000E+00  0.0000E+00  0.0000E+00  0.0000E+00  0.0000E+00  0.0000E+00  0.0000E+00
111  0.0000E+00  3.6871E-04  0.0000E+00  0.0000E+00  0.0000E+00  0.0000E+00  0.0000E+00  0.0000E+00  0.0000E+00
112  0.0000E+00  3.5574E-04  0.0000E+00  0.0000E+00  0.0000E+00  0.0000E+00  0.0000E+00  0.0000E+00  3.4486E-05
113  0.0000E+00  3.6730E-04  0.0000E+00  0.0000E+00  0.0000E+00  0.0000E+00  0.0000E+00  0.0000E+00  0.0000E+00
114  0.0000E+00  4.1813E-04  0.0000E+00  0.0000E+00  0.0000E+00  0.0000E+00  7.1451E-03  0.0000E+00  0.0000E+00
115  0.0000E+00  4.1734E-04  0.0000E+00  0.0000E+00  0.0000E+00  0.0000E+00  0.0000E+00  0.0000E+00  0.0000E+00
116  0.0000E+00  1.0878E-03  0.0000E+00  0.0000E+00  0.0000E+00  0.0000E+00  8.9371E-04  0.0000E+00  0.0000E+00
117  0.0000E+00  1.0954E-03  0.0000E+00  0.0000E+00  0.0000E+00  0.0000E+00  0.0000E+00  0.0000E+00  0.0000E+00
118  0.0000E+00  4.1578E-03  0.0000E+00  1.6033E-03  0.0000E+00  0.0000E+00  0.0000E+00  0.0000E+00  0.0000E+00
119  0.0000E+00  7.7305E-03  0.0000E+00  0.0000E+00  0.0000E+00  6.0186E-03  0.0000E+00  0.0000E+00  0.0000E+00
120  0.0000E+00  1.0069E-02  0.0000E+00  0.0000E+00  0.0000E+00  0.0000E+00  0.0000E+00  0.0000E+00  0.0000E+00
121  0.0000E+00  2.4398E-02  0.0000E+00  0.0000E+00  0.0000E+00  0.0000E+00  0.0000E+00  0.0000E+00  4.6125E-01
122  0.0000E+00  4.7294E-02  0.0000E+00  0.0000E+00  0.0000E+00  0.0000E+00  0.0000E+00  0.0000E+00  0.0000E+00
123  0.0000E+00  3.5406E-02  1.9760E-02  0.0000E+00  0.0000E+00  0.0000E+00  0.0000E+00  0.0000E+00  0.0000E+00
124  0.0000E+00  4.7909E-02  0.0000E+00  0.0000E+00  0.0000E+00  0.0000E+00  0.0000E+00  0.0000E+00  0.0000E+00
125  0.0000E+00  8.0886E-02  0.0000E+00  0.0000E+00  0.0000E+00  9.6288E-02  4.0807E-01  0.0000E+00  0.0000E+00
126  0.0000E+00  9.4440E-06  0.0000E+00  0.0000E+00  0.0000E+00  0.0000E+00  0.0000E+00  0.0000E+00  0.0000E+00
127  0.0000E+00  4.0360E-05  0.0000E+00  0.0000E+00  0.0000E+00  0.0000E+00  1.5279E-04  0.0000E+00  0.0000E+00
128  0.0000E+00  6.3489E-05  0.0000E+00  0.0000E+00  0.0000E+00  0.0000E+00  5.6663E-05  0.0000E+00  0.0000E+00
129  0.0000E+00  7.9530E-05  0.0000E+00  0.0000E+00  0.0000E+00  3.7099E-06  4.3347E-04  0.0000E+00  0.0000E+00
130  0.0000E+00  4.9475E-05  0.0000E+00  0.0000E+00  2.0619E-04  0.0000E+00  0.0000E+00  0.0000E+00  0.0000E+00
131  0.0000E+00  2.8251E-05  0.0000E+00  0.0000E+00  0.0000E+00  0.0000E+00  0.0000E+00  0.0000E+00  0.0000E+00
132  0.0000E+00  2.4807E-05  0.0000E+00  0.0000E+00  0.0000E+00  0.0000E+00  0.0000E+00  0.0000E+00  0.0000E+00
133  0.0000E+00  7.2122E-05  0.0000E+00  0.0000E+00  0.0000E+00  0.0000E+00  0.0000E+00  0.0000E+00  2.5034E-04
134  0.0000E+00  1.6356E-04  0.0000E+00  0.0000E+00  0.0000E+00  0.0000E+00  0.0000E+00  0.0000E+00  0.0000E+00
135  0.0000E+00  2.1749E-04  0.0000E+00  0.0000E+00  0.0000E+00  0.0000E+00  0.0000E+00  1.9179E-03  0.0000E+00
136  0.0000E+00  5.0644E-04  0.0000E+00  0.0000E+00  0.0000E+00  0.0000E+00  0.0000E+00  0.0000E+00  0.0000E+00
137  0.0000E+00  3.5649E-04  0.0000E+00  0.0000E+00  0.0000E+00  0.0000E+00  0.0000E+00  0.0000E+00  0.0000E+00
138  0.0000E+00  3.2633E-04  0.0000E+00  0.0000E+00  0.0000E+00  0.0000E+00  0.0000E+00  0.0000E+00  0.0000E+00
139  0.0000E+00  3.6195E-04  0.0000E+00  0.0000E+00  0.0000E+00  0.0000E+00  0.0000E+00  0.0000E+00  0.0000E+00
140  0.0000E+00  1.2114E-03  0.0000E+00  0.0000E+00  0.0000E+00  0.0000E+00  0.0000E+00  0.0000E+00  0.0000E+00
141  0.0000E+00  1.4655E-03  0.0000E+00  0.0000E+00  0.0000E+00  0.0000E+00  0.0000E+00  0.0000E+00  0.0000E+00
142  0.0000E+00  1.7883E-03  0.0000E+00  0.0000E+00  0.0000E+00  0.0000E+00  0.0000E+00  0.0000E+00  0.0000E+00
143  0.0000E+00  5.6051E-03  0.0000E+00  0.0000E+00  0.0000E+00  0.0000E+00  0.0000E+00  0.0000E+00  0.0000E+00
144  0.0000E+00  1.6303E-01  0.0000E+00  0.0000E+00  0.0000E+00  0.0000E+00  0.0000E+00  0.0000E+00  0.0000E+00
145  0.0000E+00  8.0652E-01  8.7151E-01  5.7574E-01  1.1179E+00  3.1839E-01  3.2519E-01  9.4179E-01  4.2211E-01
146  0.0000E+00  4.7287E-01  0.0000E+00  9.7987E-02  4.7192E-01  4.4693E-01  1.2975E-01  0.0000E+00  5.4890E-02
147  0.0000E+00  1.3116E+00  1.7485E+00  1.9265E+00  0.0000E+00  1.1073E+00  1.0090E+00  7.7448E-01  6.6171E-01
148  9.2237E+00  4.8689E+00  5.3338E+00  4.7696E+00  5.2238E+00  4.6286E+00  5.4893E+00  5.5580E+00  4.3014E+00
149  8.2126E+00  5.1315E+00  4.8823E+00  5.0011E+00  5.8357E+00  5.1405E+00  5.3835E+00  5.6237E+00  6.6122E+00
150  0.0000E+00  4.2305E+00  4.5935E+00  5.4790E+00  3.1882E+00  6.3718E+00  3.8878E+00  5.1590E+00  4.0603E+00

# AV, chi2 & Mass for <> & i_chain = 1 ...  7 solutions
AV       1.3258      1.2822      1.2844      1.2865      1.2917      1.2862      1.2943      1.2946      1.3013
chi2 1.8376E+00  1.9399E+00  1.9221E+00  1.9167E+00  1.9112E+00  1.9094E+00  1.9147E+00  1.9110E+00  1.9037E+00
Mass 8.1854E-10  7.9515E-10  8.0993E-10  8.0506E-10  7.9675E-10  8.1460E-10  8.0052E-10  8.0152E-10  8.0269E-10
 -19.53                                  [v0_min (km/s) before EX0s...]
  89.15                                  [vd_min (km/s) before EX0s...]


## Synthetic spectrum (Best Model) ##l_obs f_obs f_syn wei
 3070    [Nl_obs]
 3359.00    0.25391   0.44008   -1.000
 3360.00    0.26381   0.43482   -1.000
 3361.00    0.27009   0.44281   -1.000
 3362.00    0.27660   0.45940   -1.000
 3363.00    0.29863   0.47602   -1.000
 3364.00    0.31465   0.48465   -1.000
 3365.00    0.31214   0.48377   -1.000
 3366.00    0.31480   0.47825   -1.000
 3367.00    0.31660   0.47220   -1.000
 3368.00    0.32389   0.46611   -1.000
 3369.00    0.32087   0.45833   -1.000
 3370.00    0.30678   0.44952   -1.000
 3371.00    0.30901   0.44395   -1.000
 3372.00    0.31679   0.44669   -1.000
 3373.00    0.32672   0.45802   -1.000
 3374.00    0.33913   0.47380   -1.000
 3375.00    0.35314   0.48729   -1.000
 3376.00    0.35654   0.49301   -1.000
 3377.00    0.37258   0.49009   -1.000
 3378.00    0.38238   0.48357   -1.000
 3379.00    0.37239   0.48000   -1.000
 3380.00    0.36316   0.48210   -1.000
 3381.00    0.37258   0.48762   -1.000
 3382.00    0.38568   0.49313   -1.000
 3383.00    0.38136   0.49702   -1.000
 3384.00    0.37565   0.49952   -1.000
 3385.00    0.37458   0.49968   -1.000
 3386.00    0.38575   0.49627   -1.000
 3387.00    0.39724   0.49145   -1.000
 3388.00    0.39289   0.49013   -1.000
 3389.00    0.39405   0.49381   -1.000
 3390.00    0.40248   0.49930   -1.000
 3391.00    0.40721   0.50167   -1.000
 3392.00    0.42125   0.50031   -1.000
 3393.00    0.42645   0.49976   -1.000
 3394.00    0.41232   0.50385   -1.000
 3395.00    0.42049   0.51173   -1.000
 3396.00    0.43663   0.52000   -1.000
 3397.00    0.43506   0.52621   -1.000
 3398.00    0.43154   0.52870   -1.000
 3399.00    0.43039   0.52677   -1.000
 3400.00    0.43791   0.52092   -1.000
 3401.00    0.44605   0.51170   -1.000
 3402.00    0.44016   0.50201   -1.000
 3403.00    0.42687   0.49550   -1.000
 3404.00    0.41343   0.49411   -1.000
 3405.00    0.41318   0.49525   -1.000
 3406.00    0.42232   0.49532   -1.000
 3407.00    0.42792   0.49325   -1.000
 3408.00    0.42936   0.49174   -1.000
 3409.00    0.43252   0.49321   -1.000
 3410.00    0.43205   0.49537   -1.000
 3411.00    0.42705   0.49504   -1.000
 3412.00    0.43206   0.49238   -1.000
 3413.00    0.44280   0.49110   -1.000
 3414.00    0.44690   0.49434   -1.000
 3415.00    0.45173   0.50184   -1.000
 3416.00    0.45489   0.51038   -1.000
 3417.00    0.45527   0.51764   -1.000
 3418.00    0.46264   0.52342   -1.000
 3419.00    0.46558   0.52786   -1.000
 3420.00    0.47183   0.52969   -1.000
 3421.00    0.48137   0.52655   -1.000
 3422.00    0.47211   0.51878   -1.000
 3423.00    0.45840   0.51096   -1.000
 3424.00    0.46010   0.50791   -1.000
 3425.00    0.46701   0.51028   -1.000
 3426.00    0.46616   0.51638   -1.000
 3427.00    0.47186   0.52505   -1.000
 3428.00    0.48642   0.53479   -1.000
 3429.00    0.49627   0.54161   -1.000
 3430.00    0.49966   0.54063   -1.000
 3431.00    0.48682   0.53238   -1.000
 3432.00    0.48074   0.52375   -1.000
 3433.00    0.48232   0.52212   -1.000
 3434.00    0.47982   0.52814   -1.000
 3435.00    0.49002   0.53538   -1.000
 3436.00    0.49613   0.53680   -1.000
 3437.00    0.48797   0.53102   -1.000
 3438.00    0.48098   0.52082   -1.000
 3439.00    0.47099   0.50895   -1.000
 3440.00    0.46555   0.49713   -1.000
 3441.00    0.46629   0.48789  175.943
 3442.00    0.45566   0.48389   -1.000
 3443.00    0.45418   0.48596   -1.000
 3444.00    0.46238   0.49277   -1.000
 3445.00    0.47328   0.50331   -1.000
 3446.00    0.48511   0.51660   -1.000
 3447.00    0.49394   0.53021   -1.000
 3448.00    0.49958   0.53978   -1.000
 3449.00    0.50520   0.54029   -1.000
 3450.00    0.51184   0.53095   -1.000
 3451.00    0.50736   0.51779   -1.000
 3452.00    0.50805   0.50883  872.295
 3453.00    0.50089   0.50737  872.295
 3454.00    0.48932   0.51129   -1.000
 3455.00    0.50630   0.51608  261.918
 3456.00    0.52148   0.51823  153.406
 3457.00    0.52251   0.51654  153.812
 3458.00    0.52236   0.51182   -1.000
 3459.00    0.51656   0.50567   -1.000
 3460.00    0.51786   0.50084   -1.000
 3461.00    0.51349   0.50089   -1.000
 3462.00    0.50696   0.50630   -1.000
 3463.00    0.51239   0.51243   -1.000
 3464.00    0.52870   0.51491   -1.000
 3465.00    0.54270   0.51521   -1.000
 3466.00    0.53407   0.51779   -1.000
 3467.00    0.52239   0.52458  872.295
 3468.00    0.53227   0.53345  872.295
 3469.00    0.54009   0.54048  872.295
 3470.00    0.54350   0.54232  872.295
 3471.00    0.53961   0.53814  257.420
 3472.00    0.53584   0.52880  156.726
 3473.00    0.53473   0.51684   -1.000
 3474.00    0.52362   0.50639   -1.000
 3475.00    0.50899   0.50150   -1.000
 3476.00    0.50329   0.50374  872.295
 3477.00    0.51915   0.51101   -1.000
 3478.00    0.53671   0.51967   -1.000
 3479.00    0.54891   0.52755   -1.000
 3480.00    0.56340   0.53321   -1.000
 3481.00    0.56786   0.53474   -1.000
 3482.00    0.55772   0.53250   -1.000
 3483.00    0.55053   0.53023   -1.000
 3484.00    0.55059   0.53214   -1.000
 3485.00    0.55402   0.53819   -1.000
 3486.00    0.55726   0.54377   -1.000
 3487.00    0.55688   0.54433   -1.000
 3488.00    0.55328   0.53891   -1.000
 3489.00    0.53758   0.53071   -1.000
 3490.00    0.53219   0.52539   -1.000
 3491.00    0.53978   0.52622   -1.000
 3492.00    0.55044   0.53007   -1.000
 3493.00    0.54944   0.53134   -1.000
 3494.00    0.53882   0.52775   -1.000
 3495.00    0.52889   0.52176   -1.000
 3496.00    0.52012   0.51826   -1.000
 3497.00    0.52648   0.51958   -1.000
 3498.00    0.54183   0.52381   -1.000
 3499.00    0.54998   0.52695   -1.000
 3500.00    0.55029   0.52754   -1.000
 3501.00    0.55727   0.52784   -1.000
 3502.00    0.55858   0.52960   -1.000
 3503.00    0.55591   0.53098   -1.000
 3504.00    0.55624   0.52943   -1.000
 3505.00    0.55094   0.52534   -1.000
 3506.00    0.55104   0.52115   -1.000
 3507.00    0.55914   0.51887   -1.000
 3508.00    0.56078   0.51884   -1.000
 3509.00    0.55291   0.51972   -1.000
 3510.00    0.55112   0.51970   -1.000
 3511.00    0.54227   0.51764   -1.000
 3512.00    0.53113   0.51419   -1.000
 3513.00    0.53055   0.51215   -1.000
 3514.00    0.53642   0.51489   -1.000
 3515.00    0.54595   0.52386   -1.000
 3516.00    0.55450   0.53582   -1.000
 3517.00    0.55662   0.54429   -1.000
 3518.00    0.55685   0.54441   -1.000
 3519.00    0.55730   0.53744   -1.000
 3520.00    0.53462   0.52857  237.653
 3521.00    0.52343   0.52163  155.508
 3522.00    0.53081   0.51646  157.100
 3523.00    0.53216   0.51121   -1.000
 3524.00    0.52728   0.50609   -1.000
 3525.00    0.51157   0.50450   -1.000
 3526.00    0.50393   0.50897  872.295
 3527.00    0.52017   0.51859   -1.000
 3528.00    0.54482   0.53019   -1.000
 3529.00    0.55179   0.54054   -1.000
 3530.00    0.54732   0.54734  872.295
 3531.00    0.55053   0.54908   -1.000
 3532.00    0.55636   0.54501   -1.000
 3533.00    0.55477   0.53753   -1.000
 3534.00    0.55977   0.53219   -1.000
 3535.00    0.56292   0.53373   -1.000
 3536.00    0.55603   0.54172   -1.000
 3537.00    0.55747   0.55155   -1.000
 3538.00    0.56954   0.55891   -1.000
 3539.00    0.57066   0.56242   -1.000
 3540.00    0.56156   0.56289  872.295
 3541.00    0.55667   0.56246   -1.000
 3542.00    0.56368   0.56357  872.295
 3543.00    0.56746   0.56640  872.295
 3544.00    0.56422   0.56864   -1.000
 3545.00    0.57114   0.56852  872.295
 3546.00    0.56962   0.56672   -1.000
 3547.00    0.55477   0.56505   -1.000
 3548.00    0.55421   0.56477   -1.000
 3549.00    0.56230   0.56628  872.295
 3550.00    0.55280   0.56861   -1.000
 3551.00    0.55445   0.56915   -1.000
 3552.00    0.56266   0.56585  872.295
 3553.00    0.54553   0.56022   -1.000
 3554.00    0.53964   0.55649   -1.000
 3555.00    0.54420   0.55736   -1.000
 3556.00    0.54166   0.56219   -1.000
 3557.00    0.53928   0.56790   -1.000
 3558.00    0.54684   0.57151   -1.000
 3559.00    0.54879   0.57241   -1.000
 3560.00    0.54183   0.57211   -1.000
 3561.00    0.54815   0.57104   -1.000
 3562.00    0.55449   0.56737  157.798
 3563.00    0.55311   0.55926  158.871
 3564.00    0.54495   0.54778  157.623
 3565.00    0.52953   0.53693  160.801
 3566.00    0.52046   0.53036  164.689
 3567.00    0.51946   0.52827  162.285
 3568.00    0.52259   0.52725  155.704
 3569.00    0.52653   0.52367  366.404
 3570.00    0.51905   0.51738   -1.000
 3571.00    0.51113   0.51181  872.295
 3572.00    0.51085   0.50989  872.295
 3573.00    0.51238   0.51176  872.295
 3574.00    0.51823   0.51625   -1.000
 3575.00    0.52710   0.52216  229.762
 3576.00    0.53640   0.52801  167.097
 3577.00    0.53776   0.53210  177.752
 3578.00    0.53888   0.53253  181.780
 3579.00    0.53880   0.52852  182.639
 3580.00    0.52189   0.52168  185.962
 3581.00    0.50766   0.51521  191.650
 3582.00    0.51424   0.51145  195.577
 3583.00    0.51514   0.50916  189.680
 3584.00    0.50813   0.50443  179.668
 3585.00    0.49906   0.49595  170.688
 3586.00    0.49071   0.48804  157.535
 3587.00    0.49122   0.48668  377.465
 3588.00    0.50299   0.49415   -1.000
 3589.00    0.50596   0.50734  872.295
 3590.00    0.51424   0.52041   -1.000
 3591.00    0.53070   0.52913  872.295
 3592.00    0.54573   0.53343   -1.000
 3593.00    0.55238   0.53636   -1.000
 3594.00    0.55449   0.54092   -1.000
 3595.00    0.55769   0.54747   -1.000
 3596.00    0.56122   0.55410   -1.000
 3597.00    0.56401   0.55907   -1.000
 3598.00    0.57088   0.56186   -1.000
 3599.00    0.57773   0.56197   -1.000
 3600.00    0.56840   0.55834   -1.000
 3601.00    0.55978   0.55153   -1.000
 3602.00    0.55256   0.54463   -1.000
 3603.00    0.55025   0.54095   -1.000
 3604.00    0.54313   0.54096  872.295
 3605.00    0.53730   0.54199   -1.000
 3606.00    0.53755   0.54125   -1.000
 3607.00    0.53918   0.53861  872.295
 3608.00    0.53775   0.53587  872.295
 3609.00    0.53118   0.53454  872.295
 3610.00    0.53114   0.53512  872.295
 3611.00    0.53348   0.53758  872.295
 3612.00    0.53998   0.54158  872.295
 3613.00    0.54666   0.54708  872.295
 3614.00    0.55312   0.55401  872.295
 3615.00    0.56862   0.55991  208.347
 3616.00    0.56346   0.56063  401.607
 3617.00    0.55336   0.55491  872.295
 3618.00    0.53795   0.54685   -1.000
 3619.00    0.52411   0.54294   -1.000
 3620.00    0.53133   0.54642   -1.000
 3621.00    0.55109   0.55482  872.295
 3622.00    0.56719   0.56349   -1.000
 3623.00    0.56512   0.57060   -1.000
 3624.00    0.56150   0.57805   -1.000
 3625.00    0.56652   0.58791   -1.000
 3626.00    0.57842   0.59822   -1.000
 3627.00    0.59559   0.60288   -1.000
 3628.00    0.59732   0.59673  872.295
 3629.00    0.58411   0.58081  872.295
 3630.00    0.56270   0.56288  872.295
 3631.00    0.53951   0.55206   -1.000
 3632.00    0.54189   0.55229   -1.000
 3633.00    0.55147   0.55976   -1.000
 3634.00    0.54893   0.56714   -1.000
 3635.00    0.55395   0.57077   -1.000
 3636.00    0.56831   0.57312   -1.000
 3637.00    0.57274   0.57759   -1.000
 3638.00    0.58422   0.58346  872.295
 3639.00    0.58962   0.58730  872.295
 3640.00    0.58380   0.58672  872.295
 3641.00    0.57390   0.58175   -1.000
 3642.00    0.56375   0.57436   -1.000
 3643.00    0.55799   0.56721   -1.000
 3644.00    0.56251   0.56197  872.295
 3645.00    0.55923   0.55868  872.295
 3646.00    0.56070   0.55685   -1.000
 3647.00    0.56392   0.55626   -1.000
 3648.00    0.55140   0.55677   -1.000
 3649.00    0.55906   0.55835  872.295
 3650.00    0.56327   0.56162  872.295
 3651.00    0.56399   0.56738   -1.000
 3652.00    0.57638   0.57541  872.295
 3653.00    0.58785   0.58441  872.295
 3654.00    0.58845   0.59313   -1.000
 3655.00    0.59410   0.60058   -1.000
 3656.00    0.58324   0.60563   -1.000
 3657.00    0.58362   0.60762   -1.000
 3658.00    0.59022   0.60690   -1.000
 3659.00    0.58671   0.60430   -1.000
 3660.00    0.59099   0.60036   -1.000
 3661.00    0.59120   0.59573   -1.000
 3662.00    0.58435   0.59190   -1.000
 3663.00    0.58439   0.59053   -1.000
 3664.00    0.58214   0.59174   -1.000
 3665.00    0.59481   0.59378  872.295
 3666.00    0.60387   0.59452   -1.000
 3667.00    0.59644   0.59299  872.295
 3668.00    0.58353   0.59008   -1.000
 3669.00    0.58072   0.58798   -1.000
 3670.00    0.58372   0.58859   -1.000
 3671.00    0.58198   0.59207   -1.000
 3672.00    0.59109   0.59635   -1.000
 3673.00    0.59189   0.59847   -1.000
 3674.00    0.58762   0.59672   -1.000
 3675.00    0.58843   0.59111   -1.000
 3676.00    0.58610   0.58293  872.295
 3677.00    0.58444   0.57482   -1.000
 3678.00    0.57292   0.57011  872.295
 3679.00    0.56546   0.57043   -1.000
 3680.00    0.57173   0.57415  872.295
 3681.00    0.58118   0.57795  872.295
 3682.00    0.58424   0.57957   -1.000
 3683.00    0.58497   0.57851   -1.000
 3684.00    0.58070   0.57524   -1.000
 3685.00    0.56622   0.57129   -1.000
 3686.00    0.55697   0.57033   -1.000
 3687.00    0.56193   0.57625   -1.000
 3688.00    0.56847   0.58828   -1.000
 3689.00    0.58426   0.60027   -1.000
 3690.00    0.59227   0.60671   -1.000
 3691.00    0.59766   0.60836   -1.000
 3692.00    0.60333   0.60963   -1.000
 3693.00    0.59851   0.61243   -1.000
 3694.00    0.60436   0.61447   -1.000
 3695.00    0.59814   0.61281   -1.000
 3696.00    0.59028   0.60902   -1.000
 3697.00    0.59388   0.60963   -1.000
 3698.00    0.59148   0.61962   -1.000
 3699.00    0.61995   0.63516   -1.000
 3700.00    0.63560   0.64446   -1.000
 3701.00    0.63991   0.63683   -1.000
 3702.00    0.61370   0.61227  872.295
 3703.00    0.57707   0.58229   -1.000
 3704.00    0.56585   0.56139  872.295
 3705.00    0.55853   0.55734  872.295
 3706.00    0.57022   0.56773  872.295
 3707.00    0.58972   0.58285   -1.000
 3708.00    0.59296   0.59157   -1.000
 3709.00    0.59801   0.58837   -1.000
 3710.00    0.58253   0.57729   -1.000
 3711.00    0.56702   0.56917  872.295
 3712.00    0.58341   0.57406   -1.000
 3713.00    0.61332   0.59459   -1.000
 3714.00    0.64085   0.62423   -1.000
 3715.00    0.65993   0.65185   -1.000
 3716.00    0.66479   0.66798  872.295
 3717.00    0.65875   0.66648  188.261
 3718.00    0.62913   0.64397   -1.000
 3719.00    0.60421   0.60371  872.295
 3720.00    0.55855   0.55960  872.295
 3721.00    0.52030   0.53075   -1.000
 3722.00    0.53060   0.52983  872.295
 3723.00    0.56287   0.55662   -1.000
 3724.00    0.60216   0.59816   -1.000
 3725.00    0.63614   0.63649  872.295
 3726.00    0.65507   0.66143   -1.000
 3727.00    0.65688   0.67463   -1.000
 3728.00    0.66010   0.68094   -1.000
 3729.00    0.66865   0.67986  181.949
 3730.00    0.65414   0.66488  166.406
 3731.00    0.62441   0.63065  175.239
 3732.00    0.59010   0.58177  169.039
 3733.00    0.53669   0.53330  154.269
 3734.00    0.49575   0.50241   -1.000
 3735.00    0.49303   0.50029   -1.000
 3736.00    0.52021   0.52696   -1.000
 3737.00    0.57152   0.57236  872.295
 3738.00    0.61979   0.62314  872.295
 3739.00    0.64919   0.66724   -1.000
 3740.00    0.67649   0.69556   -1.000
 3741.00    0.68797   0.70513   -1.000
 3742.00    0.67818   0.69971   -1.000
 3743.00    0.66998   0.68539  182.095
 3744.00    0.63958   0.66575   -1.000
 3745.00    0.62337   0.64095  165.312
 3746.00    0.59748   0.60986   -1.000
 3747.00    0.56568   0.57329   -1.000
 3748.00    0.53462   0.53691  872.295
 3749.00    0.50301   0.51252   -1.000
 3750.00    0.51076   0.51277   -1.000
 3751.00    0.55805   0.54118   -1.000
 3752.00    0.61385   0.58839   -1.000
 3753.00    0.65620   0.63878   -1.000
 3754.00    0.69207   0.67911   -1.000
 3755.00    0.71460   0.70222   -1.000
 3756.00    0.71757   0.70674   -1.000
 3757.00    0.69407   0.69735  872.295
 3758.00    0.67753   0.68402   -1.000
 3759.00    0.67895   0.67632  872.295
 3760.00    0.68970   0.67810   -1.000
 3761.00    0.70713   0.68676   -1.000
 3762.00    0.71844   0.69594   -1.000
 3763.00    0.71347   0.69961   -1.000
 3764.00    0.71075   0.69492   -1.000
 3765.00    0.70195   0.68147   -1.000
 3766.00    0.67578   0.65908   -1.000
 3767.00    0.65146   0.62768   -1.000
 3768.00    0.62301   0.59056   -1.000
 3769.00    0.59303   0.55719   -1.000
 3770.00    0.56083   0.54064   -1.000
 3771.00    0.56061   0.54966   -1.000
 3772.00    0.60205   0.58099   -1.000
 3773.00    0.65270   0.62110   -1.000
 3774.00    0.68009   0.65703  118.114
 3775.00    0.70201   0.68495   99.995
 3776.00    0.71662   0.70863   97.532
 3777.00    0.74243   0.73247   96.684
 3778.00    0.75836   0.75674   96.092
 3779.00    0.77457   0.77852   96.073
 3780.00    0.79405   0.79464   98.048
 3781.00    0.81578   0.80308  102.956
 3782.00    0.80239   0.80424  110.490
 3783.00    0.79691   0.80036  116.363
 3784.00    0.80164   0.79308  118.934
 3785.00    0.79390   0.78243  119.094
 3786.00    0.76487   0.76911  117.174
 3787.00    0.76237   0.75621  115.869
 3788.00    0.75315   0.74725  117.339
 3789.00    0.75075   0.74262  121.520
 3790.00    0.74426   0.73873  125.760
 3791.00    0.73873   0.73046  129.638
 3792.00    0.72037   0.71355  136.162
 3793.00    0.70190   0.68569  143.710
 3794.00    0.66922   0.64715   -1.000
 3795.00    0.62909   0.60175   -1.000
 3796.00    0.58006   0.55736  126.073
 3797.00    0.54185   0.52598  115.827
 3798.00    0.52240   0.52094  110.347
 3799.00    0.55938   0.54812  107.683
 3800.00    0.61982   0.59914  106.907
 3801.00    0.67063   0.65621  108.350
 3802.00    0.71060   0.70414  112.278
 3803.00    0.74506   0.73674  114.677
 3804.00    0.76019   0.75543  112.126
 3805.00    0.76661   0.76506  107.852
 3806.00    0.76706   0.77202  106.380
 3807.00    0.77589   0.78183  108.192
 3808.00    0.79582   0.79598  113.753
 3809.00    0.80914   0.81072  120.785
 3810.00    0.82234   0.81879  128.071
 3811.00    0.81844   0.81417  134.074
 3812.00    0.81181   0.79787  132.414
 3813.00    0.79693   0.77851  127.536
 3814.00    0.78113   0.76627  129.137
 3815.00    0.77684   0.76592  137.736
 3816.00    0.77982   0.77390  145.148
 3817.00    0.80039   0.78110  142.588
 3818.00    0.81347   0.77974   -1.000
 3819.00    0.78182   0.77013  137.122
 3820.00    0.76791   0.76022  148.339
 3821.00    0.77081   0.75667   17.359
 3822.00    0.77837   0.75675   16.215
 3823.00    0.77377   0.75154   16.109
 3824.00    0.75162   0.73765   15.855
 3825.00    0.72893   0.72058   15.594
 3826.00    0.71916   0.70628   15.758
 3827.00    0.71503   0.69536   16.447
 3828.00    0.70714   0.68478   17.736
 3829.00    0.68643   0.67101   18.340
 3830.00    0.66895   0.65019   18.033
 3831.00    0.65235   0.61883   17.320
 3832.00    0.61498   0.57703   16.921
 3833.00    0.57236   0.53191   17.240
 3834.00    0.53157   0.49650   17.658
 3835.00    0.51653   0.48223   17.385
 3836.00    0.53693   0.49239   16.422
 3837.00    0.56509   0.52193   -1.000
 3838.00    0.60354   0.56145   -1.000
 3839.00    0.63667   0.60291   -1.000
 3840.00    0.66261   0.64323  123.463
 3841.00    0.70047   0.68203  123.349
 3842.00    0.73958   0.71833  123.283
 3843.00    0.76927   0.74987  123.504
 3844.00    0.78343   0.77454  126.393
 3845.00    0.78776   0.79239  131.314
 3846.00    0.80521   0.80481  133.514
 3847.00    0.81647   0.81218  130.615
 3848.00    0.81772   0.81448  127.135
 3849.00    0.81423   0.81433  127.835
 3850.00    0.81206   0.81710  131.042
 3851.00    0.81921   0.82572  134.918
 3852.00    0.82889   0.83686  136.984
 3853.00    0.83785   0.84395  141.324
 3854.00    0.84477   0.84304   15.915
 3855.00    0.83828   0.83548   15.968
 3856.00    0.82882   0.82581   15.663
 3857.00    0.82280   0.81776   96.556
 3858.00    0.81353   0.81327  126.467
 3859.00    0.79756   0.81409   -1.000
 3860.00    0.81381   0.82089  121.137
 3861.00    0.83613   0.83092  123.529
 3862.00    0.86212   0.83935  125.410
 3863.00    0.87350   0.84351  127.857
 3864.00    0.87309   0.84442  132.926
 3865.00    0.85880   0.84508  139.818
 3866.00    0.86223   0.84808  149.063
 3867.00    0.86770   0.85296   15.922
 3868.00    0.86349   0.85552  106.027
 3869.00    0.83797   0.85091   -1.000
 3870.00    0.82005   0.83796   -1.000
 3871.00    0.80717   0.82065  117.471
 3872.00    0.78561   0.80622   -1.000
 3873.00    0.78679   0.80049  131.182
 3874.00    0.81456   0.80252  140.095
 3875.00    0.83663   0.80459   -1.000
 3876.00    0.82249   0.79934  141.228
 3877.00    0.78806   0.78732  144.754
 3878.00    0.76421   0.77587  141.128
 3879.00    0.77014   0.77029  128.704
 3880.00    0.75841   0.76786  120.958
 3881.00    0.74085   0.76168  123.137
 3882.00    0.73101   0.74805  129.795
 3883.00    0.72655   0.72655  131.509
 3884.00    0.71404   0.69579  131.054
 3885.00    0.68636   0.65409   -1.000
 3886.00    0.64277   0.60457   -1.000
 3887.00    0.59109   0.55808  106.194
 3888.00    0.55879   0.52982  102.451
 3889.00    0.54650   0.53091  102.872
 3890.00    0.59045   0.56136  104.651
 3891.00    0.65116   0.60900   -1.000
 3892.00    0.69515   0.65664   -1.000
 3893.00    0.72046   0.69309   98.790
 3894.00    0.73092   0.71794  100.638
 3895.00    0.74550   0.73667  102.090
 3896.00    0.76744   0.75345  100.597
 3897.00    0.78892   0.76801   99.673
 3898.00    0.79476   0.77842  100.659
 3899.00    0.79708   0.78586  105.070
 3900.00    0.80015   0.79403  107.590
 3901.00    0.82206   0.80380  110.884
 3902.00    0.83300   0.81198  109.894
 3903.00    0.84319   0.81573  103.337
 3904.00    0.83286   0.81614   96.328
 3905.00    0.82170   0.81796   94.107
 3906.00    0.81742   0.82661   93.285
 3907.00    0.84023   0.84378   92.390
 3908.00    0.86476   0.86510   91.850
 3909.00    0.87328   0.88311   92.979
 3910.00    0.88702   0.89261   94.941
 3911.00    0.89144   0.89277   97.192
 3912.00    0.88866   0.88585   98.398
 3913.00    0.88329   0.87612   99.721
 3914.00    0.87420   0.86882  102.704
 3915.00    0.88472   0.86659  107.321
 3916.00    0.87392   0.86724  112.479
 3917.00    0.85506   0.86665  114.688
 3918.00    0.86704   0.86305  113.551
 3919.00    0.87255   0.85807  111.435
 3920.00    0.84623   0.85423  112.442
 3921.00    0.84042   0.85258  118.284
 3922.00    0.85418   0.85258  129.953
 3923.00    0.85795   0.85266  133.737
 3924.00    0.85151   0.84975   16.874
 3925.00    0.84056   0.83972   19.791
 3926.00    0.82986   0.81986   23.158
 3927.00    0.77737   0.79016   27.418
 3928.00    0.70275   0.75155   32.037
 3929.00    0.63408   0.70354   34.880
 3930.00    0.58732   0.64402   33.284
 3931.00    0.55528   0.57500   28.804
 3932.00    0.50044   0.51017   23.789
 3933.00    0.44674   0.47254   19.539
 3934.00    0.44723   0.47944   16.840
 3935.00    0.51658   0.52817  145.606
 3936.00    0.61319   0.59906  135.200
 3937.00    0.68469   0.67133  130.259
 3938.00    0.73852   0.73277  129.171
 3939.00    0.78064   0.77896  128.936
 3940.00    0.82187   0.80995  122.116
 3941.00    0.82444   0.82782  110.923
 3942.00    0.82852   0.83628  104.730
 3943.00    0.82794   0.84055  103.708
 3944.00    0.83661   0.84528  102.855
 3945.00    0.85264   0.85210   99.006
 3946.00    0.86090   0.85903   95.902
 3947.00    0.86521   0.86253   96.463
 3948.00    0.86741   0.86130   97.797
 3949.00    0.87530   0.85732   95.959
 3950.00    0.88035   0.85347   93.665
 3951.00    0.88055   0.85177   94.868
 3952.00    0.86242   0.85312   98.350
 3953.00    0.86216   0.85615   99.759
 3954.00    0.87716   0.85691   98.083
 3955.00    0.87418   0.85246  100.815
 3956.00    0.85448   0.84410  111.965
 3957.00    0.83967   0.83568  126.515
 3958.00    0.84408   0.82814  139.611
 3959.00    0.84196   0.81714  104.509
 3960.00    0.81419   0.79805   15.962
 3961.00    0.77688   0.77054   18.794
 3962.00    0.71901   0.73709   23.211
 3963.00    0.68128   0.69763   28.264
 3964.00    0.63806   0.64721   30.886
 3965.00    0.58019   0.58081   28.392
 3966.00    0.50654   0.50100   23.355
 3967.00    0.42542   0.42231   19.205
 3968.00    0.36420   0.36740   17.120
 3969.00    0.34647   0.35435  139.151
 3970.00    0.38915   0.38622  123.048
 3971.00    0.47512   0.45063  111.043
 3972.00    0.56797   0.52795   -1.000
 3973.00    0.64632   0.60209   -1.000
 3974.00    0.70037   0.66568   -1.000
 3975.00    0.74738   0.71736   86.794
 3976.00    0.78507   0.75836   85.951
 3977.00    0.80868   0.79071   86.666
 3978.00    0.83672   0.81596   88.223
 3979.00    0.86528   0.83416   87.438
 3980.00    0.87205   0.84506   85.586
 3981.00    0.88514   0.85107   83.920
 3982.00    0.88956   0.85707   82.550
 3983.00    0.89587   0.86676   81.014
 3984.00    0.90403   0.87953   80.337
 3985.00    0.92370   0.89174   80.602
 3986.00    0.92600   0.90112   79.958
 3987.00    0.92948   0.90849   78.051
 3988.00    0.93744   0.91505   76.372
 3989.00    0.94365   0.92102   77.448
 3990.00    0.95865   0.92710   79.349
 3991.00    0.96582   0.93405   81.152
 3992.00    0.96354   0.94110   82.629
 3993.00    0.97444   0.94543   83.077
 3994.00    0.96224   0.94394   80.952
 3995.00    0.94590   0.93632   77.249
 3996.00    0.94291   0.92677   74.778
 3997.00    0.93494   0.92152   73.629
 3998.00    0.93866   0.92383   72.803
 3999.00    0.95636   0.93156   74.625
 4000.00    0.96812   0.93974   79.748
 4001.00    0.97233   0.94443   83.396
 4002.00    0.97979   0.94421   82.196
 4003.00    0.97495   0.93979   77.452
 4004.00    0.96309   0.93384   74.624
 4005.00    0.95027   0.93103   73.712
 4006.00    0.93873   0.93520   72.973
 4007.00    0.95672   0.94555   72.821
 4008.00    1.00426   0.95704   73.357
 4009.00    0.99523   0.96496   73.655
 4010.00    0.99614   0.96809   73.023
 4011.00    0.99450   0.96803   72.138
 4012.00    0.99676   0.96735   72.842
 4013.00    0.98304   0.96842   73.622
 4014.00    0.98685   0.97221   73.144
 4015.00    0.99871   0.97797   72.123
 4016.00    1.00554   0.98426   72.432
 4017.00    1.00428   0.99016   73.459
 4018.00    1.00960   0.99511   73.876
 4019.00    1.01024   0.99811   74.374
 4020.00    1.01017   0.99757   74.677
 4021.00    1.00351   0.99265   72.653
 4022.00    0.99726   0.98436   70.158
 4023.00    0.99259   0.97557   69.006
 4024.00    0.98622   0.97032   69.946
 4025.00    0.98253   0.97172   73.139
 4026.00    1.00000   0.97838   78.026
 4027.00    1.01028   0.98443   80.978
 4028.00    1.00554   0.98456   81.637
 4029.00    0.99036   0.97808   80.334
 4030.00    0.97021   0.96864   77.476
 4031.00    0.96292   0.96130   73.594
 4032.00    0.95822   0.95943   70.092
 4033.00    0.95876   0.96382   67.931
 4034.00    0.96719   0.97378   67.949
 4035.00    0.98455   0.98781   69.476
 4036.00    1.00906   1.00311   71.032
 4037.00    1.01489   1.01550   71.724
 4038.00    1.02041   1.02148   72.459
 4039.00    1.02147   1.02098   76.523
 4040.00    1.01589   1.01677   83.987
 4041.00    1.01583   1.01075   89.059
 4042.00    1.00541   1.00173   84.380
 4043.00    0.98578   0.98781   76.467
 4044.00    0.96326   0.97129   72.240
 4045.00    0.95398   0.95986   70.407
 4046.00    0.95328   0.96096   69.806
 4047.00    0.97132   0.97418   70.528
 4048.00    0.99938   0.99134   72.507
 4049.00    1.01781   1.00435   74.280
 4050.00    1.01682   1.01039   75.333
 4051.00    1.01966   1.01037   75.905
 4052.00    1.01863   1.00640   76.458
 4053.00    1.00841   1.00138   77.015
 4054.00    1.00461   0.99818   75.762
 4055.00    1.00267   0.99793   73.137
 4056.00    0.99696   1.00004   72.125
 4057.00    0.99479   1.00395   74.037
 4058.00    1.00246   1.00897   79.594
 4059.00    1.02006   1.01191   84.063
 4060.00    1.02792   1.00822   82.100
 4061.00    1.01031   0.99671   78.283
 4062.00    0.99026   0.98111   76.393
 4063.00    0.96526   0.96704   74.249
 4064.00    0.95542   0.95883   72.067
 4065.00    0.97911   0.95800   71.777
 4066.00    0.98522   0.96243   74.815
 4067.00    0.98827   0.96779   77.625
 4068.00    1.00066   0.97024   76.562
 4069.00    1.00090   0.96748   74.064
 4070.00    0.99171   0.95980   74.374
 4071.00    0.98228   0.95144   78.562
 4072.00    0.98525   0.94769   84.694
 4073.00    0.99090   0.94879   86.197
 4074.00    0.98555   0.94883   82.639
 4075.00    0.96658   0.94206   76.857
 4076.00    0.95425   0.92996   72.072
 4077.00    0.94318   0.92116   70.541
 4078.00    0.93879   0.92363   72.045
 4079.00    0.96345   0.93722   74.332
 4080.00    0.98991   0.95387   75.029
 4081.00    1.00377   0.96483   73.584
 4082.00    1.00535   0.96669   70.983
 4083.00    0.98407   0.96173   68.318
 4084.00    0.97230   0.95501   66.580
 4085.00    0.96816   0.95133   67.148
 4086.00    0.96607   0.95278   68.554
 4087.00    0.97912   0.95785   69.742
 4088.00    0.99068   0.96271   70.381
 4089.00    0.99288   0.96392   70.650
 4090.00    0.98065   0.96048   72.351
 4091.00    0.95662   0.95297   75.595
 4092.00    0.95209   0.94162   77.728
 4093.00    0.95134   0.92634   78.367
 4094.00    0.93478   0.90720   80.240
 4095.00    0.91710   0.88400   85.364
 4096.00    0.89268   0.85570   93.058
 4097.00    0.87048   0.82025   -1.000
 4098.00    0.83275   0.77536   -1.000
 4099.00    0.77442   0.72211   -1.000
 4100.00    0.71445   0.67013   79.958
 4101.00    0.65644   0.63767   76.080
 4102.00    0.64386   0.64061   74.191
 4103.00    0.70557   0.67927   74.094
 4104.00    0.78022   0.73722   74.986
 4105.00    0.82939   0.79364   76.412
 4106.00    0.86438   0.83623   77.103
 4107.00    0.88416   0.86395   75.916
 4108.00    0.89389   0.88162   74.256
 4109.00    0.90702   0.89460   73.019
 4110.00    0.92058   0.90691   71.984
 4111.00    0.93949   0.92067   71.514
 4112.00    0.95701   0.93605   72.145
 4113.00    0.95972   0.95175   73.917
 4114.00    0.96947   0.96565   76.115
 4115.00    0.99149   0.97500   76.558
 4116.00    0.99237   0.97775   75.580
 4117.00    0.97586   0.97457   74.988
 4118.00    0.96903   0.96908   74.896
 4119.00    0.97242   0.96551   73.945
 4120.00    0.98351   0.96573   72.846
 4121.00    0.99161   0.96878   72.900
 4122.00    0.99071   0.97341   74.056
 4123.00    0.98982   0.97951   75.463
 4124.00    0.99771   0.98624   76.004
 4125.00    1.01140   0.99074   76.510
 4126.00    1.01363   0.99049   77.820
 4127.00    1.00877   0.98624   80.337
 4128.00    0.99577   0.98120   82.352
 4129.00    0.99356   0.97737   81.811
 4130.00    0.98847   0.97430   78.680
 4131.00    0.98085   0.97180   74.985
 4132.00    0.98104   0.97237   72.867
 4133.00    0.97474   0.97887   71.732
 4134.00    0.98680   0.99076   70.806
 4135.00    1.01619   1.00465   70.954
 4136.00    1.02612   1.01760   72.994
 4137.00    1.02333   1.02843   77.465
 4138.00    1.03802   1.03635   83.569
 4139.00    1.04491   1.03931   86.070
 4140.00    1.03243   1.03480   82.194
 4141.00    1.01708   1.02278   77.644
 4142.00    0.99351   1.00778   75.304
 4143.00    0.97455   0.99735   -1.000
 4144.00    0.98016   0.99695   76.779
 4145.00    1.00978   1.00529   78.670
 4146.00    1.01750   1.01563   79.228
 4147.00    1.01377   1.02212   78.636
 4148.00    1.01420   1.02407   78.483
 4149.00    1.00835   1.02428   79.396
 4150.00    1.03658   1.02469   79.877
 4151.00    1.20494   1.02462   -1.000
 4152.00    1.24258   1.02271   -1.000
 4153.00    0.88674   1.01934   -1.000
 4154.00    0.78850   1.01677   -1.000
 4155.00    1.02166   1.01733   75.881
 4156.00    1.05506   1.02165   74.880
 4157.00    1.01590   1.02840   72.905
 4158.00    1.02891   1.03502   72.463
 4159.00    1.03465   1.03918   73.132
 4160.00    1.03718   1.04039   74.338
 4161.00    1.04651   1.04037   75.595
 4162.00    1.04483   1.04148   77.183
 4163.00    1.03640   1.04474   77.877
 4164.00    1.03475   1.04887   77.025
 4165.00    1.03855   1.05129   76.229
 4166.00    1.03898   1.05062   78.070
 4167.00    1.03287   1.04779   82.908
 4168.00    1.02889   1.04368   86.679
 4169.00    1.02528   1.03650   85.843
 4170.00    1.02870   1.02359   82.646
 4171.00    1.01649   1.00637   80.454
 4172.00    0.98485   0.99169   80.619
 4173.00    0.97395   0.98673   80.885
 4174.00    0.98639   0.99257   80.249
 4175.00    1.00132   1.00278   79.094
 4176.00    1.00523   1.00937   78.577
 4177.00    0.99608   1.01068   78.406
 4178.00    0.99942   1.01154   77.322
 4179.00    1.02026   1.01613   75.793
 4180.00    1.03009   1.02301   74.869
 4181.00    1.02397   1.02824   75.706
 4182.00    1.01612   1.03100   78.251
 4183.00    1.01258   1.03288   -1.000
 4184.00    1.01747   1.03401   78.513
 4185.00    1.02066   1.03288   77.072
 4186.00    1.01216   1.02939   76.479
 4187.00    1.00756   1.02614   75.247
 4188.00    1.00977   1.02565   73.777
 4189.00    1.01825   1.02739   73.726
 4190.00    1.02221   1.02944   76.491
 4191.00    1.02295   1.03153   80.169
 4192.00    1.03296   1.03438   82.409
 4193.00    1.03494   1.03680   83.443
 4194.00    1.03164   1.03531   83.252
 4195.00    1.02699   1.02764   82.172
 4196.00    1.01687   1.01532   81.168
 4197.00    1.00233   1.00235   80.890
 4198.00    0.99220   0.99280   80.122
 4199.00    0.99330   0.98877   79.044
 4200.00    0.99597   0.98939   78.195
 4201.00    0.99643   0.99245   76.497
 4202.00    0.99715   0.99715   74.698
 4203.00    1.00055   1.00365   73.594
 4204.00    1.00560   1.01131   73.473
 4205.00    1.01016   1.01905   73.656
 4206.00    1.01468   1.02620   73.368
 4207.00    1.01870   1.03184   73.134
 4208.00    1.02459   1.03526   74.209
 4209.00    1.02792   1.03721   77.028
 4210.00    1.02777   1.03936   80.174
 4211.00    1.03138   1.04185   80.730
 4212.00    1.03727   1.04207   77.027
 4213.00    1.03459   1.03685   72.526
 4214.00    1.02169   1.02696   69.745
 4215.00    1.01094   1.01817   68.224
 4216.00    1.00148   1.01678   67.960
 4217.00    1.00757   1.02403   69.319
 4218.00    1.02512   1.03535   72.900
 4219.00    1.03380   1.04514   78.770
 4220.00    1.04178   1.05013   87.542
 4221.00    1.04054   1.04841   98.029
 4222.00    1.02582   1.03819  100.984
 4223.00    1.00910   1.01894   91.598
 4224.00    0.99327   0.99415   80.104
 4225.00    0.96593   0.97202   73.360
 4226.00    0.93272   0.96267   -1.000
 4227.00    0.93236   0.97238   -1.000
 4228.00    0.96888   0.99785   -1.000
 4229.00    1.01002   1.02610   74.281
 4230.00    1.02778   1.04337   75.318
 4231.00    1.02809   1.04496   76.997
 4232.00    1.02248   1.03621   77.703
 4233.00    1.01458   1.02608   76.623
 4234.00    1.01305   1.02098   75.030
 4235.00    1.00954   1.02206   73.853
 4236.00    1.01025   1.02684   72.561
 4237.00    1.01121   1.03316   71.830
 4238.00    1.01518   1.04041   71.209
 4239.00    1.02426   1.04827   69.849
 4240.00    1.03740   1.05586   69.133
 4241.00    1.03701   1.06194   70.791
 4242.00    1.03227   1.06544   -1.000
 4243.00    1.03248   1.06545   -1.000
 4244.00    1.03727   1.06093   77.924
 4245.00    1.03460   1.05159   78.308
 4246.00    1.01679   1.03951   77.396
 4247.00    1.00150   1.02878   -1.000
 4248.00    0.99605   1.02237   -1.000
 4249.00    0.99118   1.02076   -1.000
 4250.00    0.98935   1.02346   -1.000
 4251.00    1.00180   1.02943   -1.000
 4252.00    1.01909   1.03614   72.023
 4253.00    1.02442   1.04120   72.718
 4254.00    1.02392   1.04458   76.090
 4255.00    1.02073   1.04746   -1.000
 4256.00    1.02344   1.04915   -1.000
 4257.00    1.02713   1.04717   75.735
 4258.00    1.02234   1.04108   71.368
 4259.00    1.01176   1.03459   68.666
 4260.00    1.00909   1.03310   67.650
 4261.00    1.01592   1.03968   68.005
 4262.00    1.02695   1.05258   69.593
 4263.00    1.04035   1.06618   71.884
 4264.00    1.05377   1.07496   74.281
 4265.00    1.05654   1.07701   77.927
 4266.00    1.04904   1.07343   -1.000
 4267.00    1.03528   1.06542   -1.000
 4268.00    1.02576   1.05325   -1.000
 4269.00    1.01418   1.03741   -1.000
 4270.00    1.00096   1.02047   -1.000
 4271.00    0.97923   1.00728   -1.000
 4272.00    0.96822   1.00219   -1.000
 4273.00    0.97604   1.00630   -1.000
 4274.00    0.99052   1.01763   -1.000
 4275.00    1.00175   1.03326   -1.000
 4276.00    1.02138   1.04967   -1.000
 4277.00    1.03857   1.06232   76.019
 4278.00    1.04224   1.06755   -1.000
 4279.00    1.03005   1.06516   -1.000
 4280.00    1.01564   1.05848   -1.000
 4281.00    1.01416   1.05189   -1.000
 4282.00    1.01664   1.04813   -1.000
 4283.00    1.01803   1.04706   -1.000
 4284.00    1.01559   1.04599   -1.000
 4285.00    1.00741   1.04124   -1.000
 4286.00    0.99797   1.03062   -1.000
 4287.00    0.99267   1.01508   81.689
 4288.00    0.97797   0.99857   77.926
 4289.00    0.95977   0.98689   -1.000
 4290.00    0.94827   0.98470   -1.000
 4291.00    0.96003   0.99112   -1.000
 4292.00    0.98098   0.99929   82.728
 4293.00    0.98855   1.00278   88.201
 4294.00    0.98967   1.00121   95.588
 4295.00    0.99111   0.99713  100.260
 4296.00    0.98241   0.99022   99.538
 4297.00    0.96223   0.97785   97.047
 4298.00    0.94157   0.95973   95.619
 4299.00    0.91453   0.93995   -1.000
 4300.00    0.89366   0.92494   -1.000
 4301.00    0.89580   0.91917   -1.000
 4302.00    0.90577   0.92291   99.629
 4303.00    0.91665   0.93263  103.895
 4304.00    0.92956   0.94220  104.395
 4305.00    0.93344   0.94566  100.608
 4306.00    0.92376   0.94194   94.552
 4307.00    0.90367   0.93604   -1.000
 4308.00    0.89459   0.93464   -1.000
 4309.00    0.90000   0.94035   -1.000
 4310.00    0.91769   0.94998   -1.000
 4311.00    0.92903   0.95817   68.781
 4312.00    0.94362   0.96326   64.834
 4313.00    0.95450   0.96974   63.615
 4314.00    0.95638   0.98414   64.115
 4315.00    0.98604   1.00791   65.352
 4316.00    1.02565   1.03477   67.172
 4317.00    1.04974   1.05538   69.929
 4318.00    1.05551   1.06439   74.161
 4319.00    1.04603   1.06289   80.245
 4320.00    1.03767   1.05523   85.826
 4321.00    1.03612   1.04454   85.031
 4322.00    1.02441   1.03077   77.607
 4323.00    0.99660   1.01356   70.488
 4324.00    0.96702   0.99701   67.168
 4325.00    0.95659   0.98937   66.697
 4326.00    0.96917   0.99526   66.738
 4327.00    0.99187   1.00969   65.975
 4328.00    1.01350   1.02243   65.007
 4329.00    1.02688   1.02715   64.597
 4330.00    1.01275   1.02500   65.038
 4331.00    0.99993   1.01986   67.563
 4332.00    1.00365   1.01255   73.032
 4333.00    0.99442   1.00009   80.117
 4334.00    0.98038   0.97816   87.204
 4335.00    0.95896   0.94289   92.092
 4336.00    0.91813   0.89246   89.829
 4337.00    0.86805   0.83021   81.833
 4338.00    0.80417   0.76717   75.130
 4339.00    0.73305   0.72006   71.655
 4340.00    0.69432   0.70468   69.606
 4341.00    0.71905   0.72739   68.053
 4342.00    0.79146   0.77941   67.128
 4343.00    0.85631   0.84160   66.244
 4344.00    0.89654   0.89766   65.735
 4345.00    0.93356   0.94197   67.561
 4346.00    0.96672   0.97557   72.077
 4347.00    0.98521   0.99902   75.492
 4348.00    0.99371   1.01069   74.379
 4349.00    0.99950   1.01026   71.037
 4350.00    0.99363   1.00262   68.303
 4351.00    0.98204   0.99698   66.560
 4352.00    0.97852   1.00114   65.872
 4353.00    0.99230   1.01629   66.626
 4354.00    1.01789   1.03683   67.833
 4355.00    1.03674   1.05510   67.597
 4356.00    1.04939   1.06639   65.840
 4357.00    1.05127   1.07083   64.426
 4358.00    1.04190   1.07208   63.978
 4359.00    1.03986   1.07443   63.503
 4360.00    1.04521   1.07989   63.092
 4361.00    1.05435   1.08754   64.035
 4362.00    1.06529   1.09508   66.280
 4363.00    1.06745   1.10033   67.898
 4364.00    1.07219   1.10171   67.884
 4365.00    1.07982   1.09835   67.290
 4366.00    1.07555   1.09081   67.062
 4367.00    1.06474   1.08173   67.377
 4368.00    1.05751   1.07455   69.102
 4369.00    1.05638   1.07067   71.984
 4370.00    1.05720   1.06842   73.439
 4371.00    1.05960   1.06440   71.809
 4372.00    1.05782   1.05601   68.406
 4373.00    1.04690   1.04455   66.073
 4374.00    1.03336   1.03606   65.763
 4375.00    1.02665   1.03742   66.603
 4376.00    1.03562   1.04978   68.801
 4377.00    1.05241   1.06680   74.269
 4378.00    1.06419   1.07954   82.828
 4379.00    1.07403   1.08228   87.919
 4380.00    1.07678   1.07326   83.724
 4381.00    1.06407   1.05345   75.644
 4382.00    1.03531   1.02784   70.922
 4383.00    1.00344   1.00599   69.964
 4384.00    0.99531   0.99737   70.452
 4385.00    1.01722   1.00471   70.965
 4386.00    1.04229   1.02219   70.332
 4387.00    1.05867   1.04048   68.794
 4388.00    1.07226   1.05329   68.283
 4389.00    1.07030   1.05960   69.369
 4390.00    1.05973   1.06170   70.008
 4391.00    1.06482   1.06153   68.099
 4392.00    1.07496   1.05853   65.485
 4393.00    1.06986   1.05226   65.097
 4394.00    1.05966   1.04632   66.894
 4395.00    1.05426   1.04611   69.179
 4396.00    1.06280   1.05205   69.690
 4397.00    1.07959   1.05831   68.537
 4398.00    1.07816   1.05959   69.199
 4399.00    1.06577   1.05705   72.631
 4400.00    1.06085   1.05574   75.009
 4401.00    1.06374   1.05783   73.786
 4402.00    1.07421   1.06060   71.965
 4403.00    1.07414   1.06102   71.187
 4404.00    1.05624   1.05983   69.410
 4405.00    1.04800   1.05997   66.502
 4406.00    1.05844   1.06260   63.965
 4407.00    1.06139   1.06675   62.582
 4408.00    1.06368   1.07212   63.197
 4409.00    1.07617   1.07952   66.040
 4410.00    1.08664   1.08817   69.171
 4411.00    1.09628   1.09426   70.031
 4412.00    1.09998   1.09315   68.394
 4413.00    1.09111   1.08301   65.681
 4414.00    1.06697   1.06706   63.423
 4415.00    1.04502   1.05263   62.847
 4416.00    1.04190   1.04725   64.000
 4417.00    1.05217   1.05407   65.448
 4418.00    1.06695   1.06986   65.749
 4419.00    1.08067   1.08695   65.355
 4420.00    1.08530   1.09836   65.353
 4421.00    1.08302   1.10240   65.653
 4422.00    1.07957   1.10224   65.535
 4423.00    1.07536   1.10121   65.161
 4424.00    1.07721   1.10003   65.421
 4425.00    1.07810   1.09852   65.867
 4426.00    1.07274   1.09765   65.506
 4427.00    1.07504   1.09878   64.846
 4428.00    1.08290   1.10189   65.836
 4429.00    1.08442   1.10553   68.711
 4430.00    1.08691   1.10812   70.653
 4431.00    1.09451   1.10862   69.263
 4432.00    1.09768   1.10616   65.503
 4433.00    1.08616   1.10098   62.162
 4434.00    1.06259   1.09609   60.979
 4435.00    1.05551   1.09662   -1.000
 4436.00    1.07268   1.10539   64.705
 4437.00    1.09627   1.11910   67.650
 4438.00    1.11514   1.12977   68.987
 4439.00    1.12133   1.13034   67.483
 4440.00    1.11297   1.11927   64.662
 4441.00    1.09375   1.10143   62.787
 4442.00    1.06748   1.08577   62.347
 4443.00    1.05389   1.08070   62.463
 4444.00    1.06657   1.08873   62.920
 4445.00    1.08734   1.10451   63.595
 4446.00    1.10292   1.11932   63.567
 4447.00    1.11647   1.12778   63.585
 4448.00    1.11969   1.13006   65.164
 4449.00    1.10900   1.12929   67.999
 4450.00    1.10197   1.12839   70.154
 4451.00    1.10507   1.12795   69.982
 4452.00    1.11189   1.12588   68.683
 4453.00    1.11042   1.12028   68.210
 4454.00    1.09106   1.11302   68.477
 4455.00    1.07866   1.10887   -1.000
 4456.00    1.08782   1.11038   69.731
 4457.00    1.09951   1.11517   69.144
 4458.00    1.10087   1.11903   66.886
 4459.00    1.09575   1.12003   64.850
 4460.00    1.09305   1.11953   64.213
 4461.00    1.09012   1.11994   64.243
 4462.00    1.09382   1.12220   64.704
 4463.00    1.10572   1.12504   65.777
 4464.00    1.11161   1.12618   66.539
 4465.00    1.11085   1.12361   66.102
 4466.00    1.10597   1.11663   64.425
 4467.00    1.09901   1.10728   62.238
 4468.00    1.09296   1.10039   60.362
 4469.00    1.09245   1.10072   59.423
 4470.00    1.09770   1.10944   59.325
 4471.00    1.10990   1.12346   59.064
 4472.00    1.12982   1.13797   58.632
 4473.00    1.14185   1.14937   58.830
 4474.00    1.14515   1.15640   60.396
 4475.00    1.14834   1.15982   63.006
 4476.00    1.14427   1.16070   65.230
 4477.00    1.14278   1.15827   65.444
 4478.00    1.14883   1.15018   63.356
 4479.00    1.14499   1.13639   60.801
 4480.00    1.12806   1.12219   59.134
 4481.00    1.11506   1.11577   58.736
 4482.00    1.11009   1.12172   59.638
 4483.00    1.12011   1.13718   61.620
 4484.00    1.13588   1.15421   63.434
 4485.00    1.14515   1.16522   63.514
 4486.00    1.15104   1.16661   62.120
 4487.00    1.14182   1.15980   60.855
 4488.00    1.12554   1.15024   61.086
 4489.00    1.11631   1.14429   62.662
 4490.00    1.12345   1.14481   64.259
 4491.00    1.13941   1.14949   64.302
 4492.00    1.14627   1.15359   62.567
 4493.00    1.13619   1.15450   60.621
 4494.00    1.12385   1.15353   59.621
 4495.00    1.11835   1.15343   59.878
 4496.00    1.12279   1.15516   60.379
 4497.00    1.13627   1.15697   59.473
 4498.00    1.14715   1.15597   57.551
 4499.00    1.14678   1.15124   56.179
 4500.00    1.13904   1.14606   56.092
 4501.00    1.13915   1.14609   57.005
 4502.00    1.15242   1.15393   57.805
 4503.00    1.16628   1.16618   58.019
 4504.00    1.16978   1.17633   57.733
 4505.00    1.17120   1.18002   57.303
 4506.00    1.16786   1.17764   57.479
 4507.00    1.16394   1.17318   58.417
 4508.00    1.16296   1.17098   59.521
 4509.00    1.16009   1.17252   60.130
 4510.00    1.16774   1.17572   60.046
 4511.00    1.17189   1.17743   59.899
 4512.00    1.16901   1.17602   60.371
 4513.00    1.16865   1.17195   60.878
 4514.00    1.15976   1.16707   60.303
 4515.00    1.15136   1.16323   59.131
 4516.00    1.14674   1.16086   58.847
 4517.00    1.14306   1.15876   59.862
 4518.00    1.14813   1.15592   61.183
 4519.00    1.15442   1.15281   61.944
 4520.00    1.15352   1.15013   62.796
 4521.00    1.14117   1.14766   64.444
 4522.00    1.14189   1.14529   66.345
 4523.00    1.14808   1.14392   67.501
 4524.00    1.14067   1.14393   67.413
 4525.00    1.13311   1.14360   66.423
 4526.00    1.12915   1.14059   65.207
 4527.00    1.12565   1.13478   64.599
 4528.00    1.11915   1.12899   65.726
 4529.00    1.11929   1.12639   67.892
 4530.00    1.12238   1.12672   68.048
 4531.00    1.12516   1.12593   65.025
 4532.00    1.12773   1.12080   61.161
 4533.00    1.11134   1.11374   58.885
 4534.00    1.09018   1.11164   58.797
 4535.00    1.09361   1.11946   59.995
 4536.00    1.11896   1.13562   60.438
 4537.00    1.13967   1.15352   60.081
 4538.00    1.20148   1.16642   59.780
 4539.00    0.87994   1.17132   -1.000
 4540.00    0.22053   1.17000   -1.000
 4541.00   -0.04113   1.16681    0.000
 4542.00    0.33939   1.16495   -1.000
 4543.00    0.69677   1.16474   -1.000
 4544.00    0.51454   1.16481   -1.000
 4545.00    0.91576   1.16374   -1.000
 4546.00    1.17167   1.15969   64.728
 4547.00    1.14337   1.15081   62.494
 4548.00    1.12734   1.13856   63.292
 4549.00    1.11486   1.12914   64.017
 4550.00    1.11626   1.12820   63.515
 4551.00    1.13507   1.13381   61.565
 4552.00    1.14581   1.13813   59.121
 4553.00    1.13324   1.13653   57.673
 4554.00    1.12388   1.13266   57.615
 4555.00    1.12585   1.13374   57.713
 4556.00    1.14176   1.14280   57.711
 4557.00    1.15711   1.15660   58.658
 4558.00    1.16572   1.16995   60.125
 4559.00    1.17591   1.17982   61.300
 4560.00    1.17826   1.18479   61.123
 4561.00    1.17723   1.18353   59.790
 4562.00    1.16607   1.17665   58.206
 4563.00    1.15444   1.16874   57.342
 4564.00    1.15175   1.16585   57.637
 4565.00    1.15619   1.17027   58.884
 4566.00    1.16524   1.17888   60.440
 4567.00    1.17608   1.18618   60.587
 4568.00    1.17950   1.18795   59.105
 4569.00    1.16954   1.18293   57.967
 4570.00    1.15526   1.17339   57.771
 4571.00    1.14496   1.16497   57.987
 4572.00    1.14154   1.16340   58.309
 4573.00    1.15113   1.16919   59.123
 4574.00    1.17253   1.17704   60.697
 4575.00    1.18254   1.18158   62.131
 4576.00    1.17903   1.18175   62.355
 4577.00    1.17491   1.17905   61.642
 4578.00    1.17335   1.17425   61.059
 4579.00    1.17096   1.16747   61.073
 4580.00    1.15925   1.15945   61.415
 4581.00    1.15639   1.15146   60.904
 4582.00    1.15073   1.14515   59.483
 4583.00    1.15145   1.14297   58.123
 4584.00    1.15470   1.14661   57.729
 4585.00    1.16240   1.15461   58.342
 4586.00    1.17528   1.16294   59.387
 4587.00    1.18178   1.16827   60.454
 4588.00    1.17667   1.17013   60.779
 4589.00    1.17309   1.17019   60.396
 4590.00    1.17199   1.17032   59.900
 4591.00    1.16102   1.17141   59.659
 4592.00    1.15814   1.17374   59.530
 4593.00    1.16260   1.17750   59.398
 4594.00    1.16731   1.18260   59.750
 4595.00    1.17281   1.18824   60.298
 4596.00    1.17684   1.19289   60.564
 4597.00    1.17969   1.19500   60.122
 4598.00    1.18981   1.19390   59.441
 4599.00    1.19623   1.19027   59.343
 4600.00    1.18558   1.18576   59.307
 4601.00    1.17148   1.18226   58.794
 4602.00    1.16289   1.18106   57.750
 4603.00    1.16720   1.18223   56.526
 4604.00    1.17708   1.18490   55.721
 4605.00    1.18173   1.18818   55.752
 4606.00    1.18907   1.19177   56.408
 4607.00    1.18896   1.19569   57.082
 4608.00    1.18686   1.19950   57.516
 4609.00    1.19694   1.20226   57.387
 4610.00    1.20243   1.20315   56.919
 4611.00    1.19686   1.20238   56.619
 4612.00    1.19325   1.20103   56.857
 4613.00    1.19410   1.19987   57.281
 4614.00    1.19448   1.19850   57.342
 4615.00    1.18711   1.19610   56.901
 4616.00    1.18574   1.19267   56.070
 4617.00    1.18826   1.18923   55.841
 4618.00    1.19121   1.18729   55.959
 4619.00    1.19124   1.18822   56.079
 4620.00    1.19525   1.19247   56.501
 4621.00    1.20351   1.19872   56.735
 4622.00    1.20896   1.20431   56.738
 4623.00    1.20998   1.20704   57.012
 4624.00    1.20195   1.20658   57.197
 4625.00    1.19515   1.20405   56.999
 4626.00    1.19480   1.20047   56.414
 4627.00    1.19873   1.19635   56.457
 4628.00    1.19489   1.19288   57.172
 4629.00    1.18208   1.19215   57.859
 4630.00    1.18482   1.19510   57.956
 4631.00    1.20166   1.19977   58.301
 4632.00    1.20335   1.20285   59.020
 4633.00    1.20369   1.20308   59.385
 4634.00    1.19828   1.20207   59.364
 4635.00    1.19505   1.20201   58.546
 4636.00    1.19450   1.20347   57.186
 4637.00    1.19452   1.20579   56.264
 4638.00    1.19903   1.20867   56.289
 4639.00    1.20614   1.21249   57.181
 4640.00    1.20627   1.21721   58.695
 4641.00    1.20762   1.22176   60.340
 4642.00    1.20642   1.22455   60.893
 4643.00    1.20905   1.22441   60.065
 4644.00    1.21187   1.22097   58.707
 4645.00    1.20008   1.21500   57.781
 4646.00    1.19286   1.20878   57.548
 4647.00    1.18702   1.20528   57.441
 4648.00    1.18961   1.20619   57.963
 4649.00    1.19554   1.21057   59.194
 4650.00    1.19799   1.21568   60.025
 4651.00    1.19698   1.21894   59.737
 4652.00    1.18876   1.21905   58.081
 4653.00    1.18849   1.21628   55.901
 4654.00    1.18480   1.21212   54.469
 4655.00    1.17872   1.20877   54.199
 4656.00    1.18262   1.20873   54.749
 4657.00    1.19761   1.21373   55.981
 4658.00    1.21519   1.22297   57.150
 4659.00    1.21459   1.23269   57.467
 4660.00    1.21327   1.23850   58.246
 4661.00    1.21353   1.23857   60.477
 4662.00    1.20946   1.23431   63.042
 4663.00    1.21239   1.22802   63.581
 4664.00    1.21558   1.22048   61.953
 4665.00    1.20943   1.21119   59.449
 4666.00    1.19757   1.20082   57.673
 4667.00    1.18602   1.19237   57.123
 4668.00    1.17616   1.18918   57.114
 4669.00    1.18428   1.19241   57.077
 4670.00    1.19363   1.20032   56.449
 4671.00    1.19938   1.20958   55.608
 4672.00    1.21066   1.21745   55.691
 4673.00    1.20557   1.22306   56.758
 4674.00    1.21025   1.22711   57.915
 4675.00    1.21750   1.23004   58.904
 4676.00    1.21931   1.23092   59.542
 4677.00    1.21856   1.22863   59.014
 4678.00    1.21127   1.22347   57.627
 4679.00    1.20616   1.21719   56.746
 4680.00    1.20101   1.21196   56.793
 4681.00    1.19799   1.20932   56.855
 4682.00    1.20160   1.20969   57.129
 4683.00    1.21072   1.21214   57.188
 4684.00    1.21327   1.21509   57.189
 4685.00    1.21744   1.21738   57.539
 4686.00    1.23072   1.21891   57.710
 4687.00    1.22791   1.22020   57.146
 4688.00    1.22190   1.22147   56.310
 4689.00    1.22388   1.22231   55.113
 4690.00    1.22114   1.22248   54.324
 4691.00    1.21518   1.22255   54.450
 4692.00    1.21120   1.22321   55.837
 4693.00    1.21649   1.22457   57.534
 4694.00    1.22716   1.22607   58.368
 4695.00    1.23283   1.22663   58.056
 4696.00    1.23651   1.22499   58.346
 4697.00    1.22583   1.22081   59.306
 4698.00    1.22466   1.21529   59.731
 4699.00    1.21861   1.21003   58.792
 4700.00    1.21153   1.20550   57.873
 4701.00    1.21125   1.20129   58.445
 4702.00    1.20765   1.19796   59.592
 4703.00    1.19993   1.19708   60.260
 4704.00    1.20596   1.19904   60.061
 4705.00    1.21282   1.20163   58.474
 4706.00    1.21131   1.20198   56.837
 4707.00    1.20647   1.19971   56.141
 4708.00    1.19491   1.19765   56.541
 4709.00    1.19900   1.19886   57.557
 4710.00    1.21691   1.20362   57.709
 4711.00    1.22427   1.20908   56.697
 4712.00    1.22767   1.21214   55.590
 4713.00    1.22986   1.21229   55.153
 4714.00    1.22042   1.21185   54.946
 4715.00    1.21692   1.21353   54.758
 4716.00    1.22030   1.21776   55.143
 4717.00    1.21938   1.22283   55.553
 4718.00    1.22367   1.22691   55.314
 4719.00    1.22204   1.22944   54.739
 4720.00    1.21616   1.23076   54.738
 4721.00    1.21804   1.23156   55.926
 4722.00    1.21137   1.23268   57.982
 4723.00    1.21176   1.23450   59.403
 4724.00    1.22386   1.23638   59.357
 4725.00    1.22463   1.23682   58.779
 4726.00    1.22661   1.23459   58.298
 4727.00    1.22298   1.22983   57.622
 4728.00    1.21476   1.22376   57.097
 4729.00    1.21809   1.21782   56.755
 4730.00    1.22474   1.21368   56.439
 4731.00    1.22588   1.21289   56.947
 4732.00    1.22116   1.21562   57.087
 4733.00    1.22669   1.21997   56.426
 4734.00    1.22530   1.22314   56.364
 4735.00    1.22154   1.22380   56.668
 4736.00    1.21876   1.22296   56.772
 4737.00    1.21320   1.22236   56.368
 4738.00    1.22792   1.22282   55.762
 4739.00    1.23575   1.22406   55.801
 4740.00    1.23195   1.22567   55.863
 4741.00    1.23283   1.22778   55.489
 4742.00    1.23595   1.23061   54.936
 4743.00    1.23825   1.23395   54.777
 4744.00    1.23339   1.23729   54.845
 4745.00    1.22823   1.24049   54.888
 4746.00    1.23711   1.24401   55.254
 4747.00    1.23893   1.24802   55.866
 4748.00    1.23375   1.25208   56.352
 4749.00    1.23020   1.25550   56.746
 4750.00    1.23753   1.25772   56.688
 4751.00    1.23997   1.25834   56.878
 4752.00    1.23572   1.25734   57.287
 4753.00    1.23042   1.25523   57.383
 4754.00    1.21814   1.25309   56.948
 4755.00    1.21886   1.25200   56.809
 4756.00    1.21644   1.25230   57.619
 4757.00    1.22108   1.25329   59.030
 4758.00    1.21529   1.25379   59.855
 4759.00    1.21275   1.25246   59.994
 4760.00    1.21780   1.24826   59.882
 4761.00    1.22503   1.24116   59.482
 4762.00    1.21570   1.23295   58.686
 4763.00    1.20392   1.22677   57.384
 4764.00    1.20741   1.22530   56.546
 4765.00    1.21722   1.22905   56.579
 4766.00    1.22564   1.23635   57.038
 4767.00    1.22409   1.24486   57.545
 4768.00    1.22609   1.25262   56.961
 4769.00    1.23466   1.25807   55.769
 4770.00    1.24151   1.26029   55.328
 4771.00    1.23652   1.25981   55.348
 4772.00    1.22841   1.25875   55.506
 4773.00    1.23354   1.25925   55.857
 4774.00    1.23855   1.26162   56.472
 4775.00    1.23846   1.26435   56.827
 4776.00    1.24455   1.26555   56.980
 4777.00    1.24758   1.26404   57.250
 4778.00    1.24159   1.26011   57.703
 4779.00    1.23074   1.25583   57.710
 4780.00    1.22739   1.25373   57.889
 4781.00    1.23129   1.25444   58.448
 4782.00    1.22942   1.25627   58.801
 4783.00    1.23885   1.25711   58.763
 4784.00    1.23811   1.25608   58.484
 4785.00    1.22265   1.25374   58.125
 4786.00    1.22515   1.25134   57.530
 4787.00    1.22795   1.25004   56.600
 4788.00    1.22688   1.25050   55.349
 4789.00    1.23212   1.25291   54.383
 4790.00    1.23352   1.25715   54.149
 4791.00    1.23508   1.26276   54.663
 4792.00    1.24160   1.26903   55.749
 4793.00    1.24731   1.27487   56.802
 4794.00    1.25172   1.27888   57.495
 4795.00    1.25610   1.27989   57.041
 4796.00    1.24735   1.27764   55.905
 4797.00    1.23968   1.27332   55.085
 4798.00    1.23968   1.26952   55.132
 4799.00    1.24069   1.26865   55.850
 4800.00    1.24413   1.27124   56.571
 4801.00    1.25200   1.27526   57.094
 4802.00    1.25143   1.27692   57.098
 4803.00    1.24476   1.27390   56.957
 4804.00    1.24592   1.26777   56.704
 4805.00    1.24518   1.26261   56.196
 4806.00    1.24088   1.26155   55.789
 4807.00    1.24320   1.26463   55.500
 4808.00    1.24692   1.26927   55.438
 4809.00    1.24892   1.27287   55.306
 4810.00    1.25120   1.27468   55.108
 4811.00    1.24458   1.27588   54.763
 4812.00    1.24801   1.27810   54.423
 4813.00    1.25266   1.28171   54.199
 4814.00    1.25739   1.28562   54.175
 4815.00    1.26145   1.28862   54.177
 4816.00    1.25701   1.29034   54.645
 4817.00    1.25131   1.29091   56.077
 4818.00    1.25714   1.29049   57.160
 4819.00    1.26261   1.28882   57.075
 4820.00    1.25453   1.28526   56.075
 4821.00    1.24575   1.27907   55.203
 4822.00    1.24474   1.27063   55.415
 4823.00    1.24104   1.26247   56.070
 4824.00    1.23696   1.25803   56.425
 4825.00    1.24448   1.25870   56.414
 4826.00    1.25259   1.26264   56.932
 4827.00    1.25771   1.26645   57.035
 4828.00    1.25286   1.26805   56.128
 4829.00    1.24500   1.26772   55.378
 4830.00    1.25239   1.26657   55.169
 4831.00    1.24822   1.26539   55.259
 4832.00    1.24214   1.26451   55.523
 4833.00    1.24365   1.26393   56.283
 4834.00    1.24537   1.26346   57.296
 4835.00    1.25393   1.26300   57.334
 4836.00    1.26149   1.26270   57.211
 4837.00    1.25802   1.26254   56.923
 4838.00    1.24521   1.26208   56.497
 4839.00    1.22849   1.26118   55.931
 4840.00    1.22971   1.26009   55.049
 4841.00    1.22689   1.25893   54.766
 4842.00    1.23654   1.25750   55.887
 4843.00    1.23579   1.25576   56.725
 4844.00    1.23551   1.25384   56.716
 4845.00    1.23423   1.25149   55.912
 4846.00    1.23620   1.24766   55.784
 4847.00    1.22937   1.24195   56.108
 4848.00    1.21937   1.23586   56.589
 4849.00    1.21260   1.23111   58.299
 4850.00    1.22147   1.22765   59.958
 4851.00    1.21265   1.22333   59.807
 4852.00    1.20417   1.21502   59.190
 4853.00    1.19492   1.20064   60.842
 4854.00    1.17415   1.18081   66.162
 4855.00    1.15126   1.15807   74.039
 4856.00    1.13432   1.13274   77.566
 4857.00    1.11363   1.09973   72.711
 4858.00    1.08888   1.05081   66.188
 4859.00    1.01029   0.98477   62.303
 4860.00    0.89584   0.91745   60.121
 4861.00    0.82425   0.87660   -1.000
 4862.00    0.86392   0.88228   58.337
 4863.00    0.97124   0.93052   58.091
 4864.00    1.06073   0.99845   -1.000
 4865.00    1.10682   1.06297   60.302
 4866.00    1.13541   1.11294   61.780
 4867.00    1.16158   1.14804   61.207
 4868.00    1.17563   1.17056   59.424
 4869.00    1.17368   1.18187   58.408
 4870.00    1.16620   1.18460   57.969
 4871.00    1.15890   1.18449   57.655
 4872.00    1.15752   1.18775   57.466
 4873.00    1.17494   1.19668   56.606
 4874.00    1.19974   1.20860   56.009
 4875.00    1.20954   1.21938   56.541
 4876.00    1.20597   1.22736   57.496
 4877.00    1.20077   1.23417   57.820
 4878.00    1.20780   1.24214   57.605
 4879.00    1.22228   1.25125   57.934
 4880.00    1.23056   1.25864   58.856
 4881.00    1.22784   1.26140   59.151
 4882.00    1.22643   1.25970   58.811
 4883.00    1.23131   1.25666   58.739
 4884.00    1.23370   1.25561   59.648
 4885.00    1.23247   1.25739   60.998
 4886.00    1.23942   1.26022   60.527
 4887.00    1.23953   1.26130   58.015
 4888.00    1.23534   1.25860   55.288
 4889.00    1.21932   1.25245   53.693
 4890.00    1.20524   1.24646   52.707
 4891.00    1.20425   1.24632   52.483
 4892.00    1.21843   1.25507   52.615
 4893.00    1.24183   1.27042   53.808
 4894.00    1.25740   1.28704   55.089
 4895.00    1.27485   1.30018   55.665
 4896.00    1.27110   1.30791   55.357
 4897.00    1.27271   1.31018   55.455
 4898.00    1.27647   1.30772   56.160
 4899.00    1.26166   1.30251   55.488
 4900.00    1.25716   1.29733   54.276
 4901.00    1.26790   1.29400   53.895
 4902.00    1.26274   1.29277   54.443
 4903.00    1.25400   1.29376   55.803
 4904.00    1.26115   1.29751   57.425
 4905.00    1.26957   1.30327   58.095
 4906.00    1.27436   1.30814   57.265
 4907.00    1.27315   1.30911   56.217
 4908.00    1.27721   1.30529   55.456
 4909.00    1.27198   1.29844   54.738
 4910.00    1.26233   1.29212   54.278
 4911.00    1.26476   1.28950   54.602
 4912.00    1.26893   1.29157   56.612
 4913.00    1.27214   1.29689   59.771
 4914.00    1.27656   1.30245   62.562
 4915.00    1.27451   1.30461   63.126
 4916.00    1.27610   1.30018   60.963
 4917.00    1.26907   1.28766   58.771
 4918.00    1.24558   1.26913   57.968
 4919.00    1.22191   1.25007   57.920
 4920.00    1.21238   1.23678   57.129
 4921.00    1.22399   1.23203   55.616
 4922.00    1.23465   1.23372   54.654
 4923.00    1.23441   1.23911   54.161
 4924.00    1.23630   1.24819   53.796
 4925.00    1.24552   1.26174   53.503
 4926.00    1.26570   1.27823   54.099
 4927.00    1.28179   1.29408   55.635
 4928.00    1.28210   1.30611   57.615
 4929.00    1.29312   1.31282   57.642
 4930.00    1.30118   1.31347   56.602
 4931.00    1.28338   1.30750   56.672
 4932.00    1.27123   1.29600   58.411
 4933.00    1.25190   1.28363   59.928
 4934.00    1.24428   1.27626   59.260
 4935.00    1.24782   1.27538   57.187
 4936.00    1.26910   1.27725   55.390
 4937.00    1.26523   1.27745   54.417
 4938.00    1.24074   1.27605   53.962
 4939.00    1.23621   1.27728   54.037
 4940.00    1.25407   1.28445   54.423
 4941.00    1.27797   1.29661   54.499
 4942.00    1.27806   1.30933   53.976
 4943.00    1.28384   1.31857   53.355
 4944.00    1.28892   1.32272   53.207
 4945.00    1.28933   1.32320   53.009
 4946.00    1.28138   1.32275   53.309
 4947.00    1.28560   1.32347   53.694
 4948.00    1.29548   1.32565   54.330
 4949.00    1.29828   1.32804   55.058
 4950.00    1.29041   1.32943   56.646
 4951.00    1.29317   1.32928   59.598
 4952.00    1.29600   1.32748   61.749
 4953.00    1.29599   1.32320   60.227
 4954.00    1.28947   1.31422   56.789
 4955.00    1.27721   1.29893   54.975
 4956.00    1.25239   1.28013   54.642
 4957.00    1.22121   1.26637   54.933
 4958.00    1.22477   1.26568   55.393
 4959.00    1.25564   1.27831   56.096
 4960.00    1.27713   1.29729   57.277
 4961.00    1.28657   1.31383   57.953
 4962.00    1.29478   1.32329   57.930
 4963.00    1.29423   1.32542   57.734
 4964.00    1.28845   1.32218   57.283
 4965.00    1.28244   1.31633   56.663
 4966.00    1.27869   1.31101   56.049
 4967.00    1.28929   1.30825   55.386
 4968.00    1.29312   1.30865   54.892
 4969.00    1.29014   1.31173   54.727
 4970.00    1.29060   1.31639   55.145
 4971.00    1.29204   1.32142   55.748
 4972.00    1.29900   1.32585   56.526
 4973.00    1.29812   1.32875   57.436
 4974.00    1.30251   1.32973   58.148
 4975.00    1.30205   1.32876   59.072
 4976.00    1.29241   1.32598   61.060
 4977.00    1.29463   1.32196   62.866
 4978.00    1.29535   1.31728   62.697
 4979.00    1.27845   1.31093   61.425
 4980.00    1.27211   1.30157   59.657
 4981.00    1.25918   1.28959   57.793
 4982.00    1.23958   1.27813   56.512
 4983.00    1.22735   1.27192   56.680
 4984.00    1.24089   1.27345   57.518
 4985.00    1.25454   1.28189   58.047
 4986.00    1.27011   1.29397   58.001
 4987.00    1.28477   1.30525   57.494
 4988.00    1.29139   1.31163   57.281
 4989.00    1.28316   1.31173   57.232
 4990.00    1.27889   1.30750   56.929
 4991.00    1.26770   1.30316   56.713
 4992.00    1.27374   1.30203   57.120
 4993.00    1.27282   1.30477   57.942
 4994.00    1.27073   1.31021   59.082
 4995.00    1.27814   1.31586   59.734
 4996.00    1.28584   1.31866   59.688
 4997.00    1.29382   1.31603   59.122
 4998.00    1.28646   1.30737   58.876
 4999.00    1.27995   1.29581   59.833
 5000.00    1.26380   1.28741   61.250
 5001.00    1.26349   1.28509   61.340
 5002.00    1.27473   1.28723   59.738
 5003.00    1.27849   1.28887   58.043
 5004.00    1.26911   1.28630   57.619
 5005.00    1.25655   1.28069   58.531
 5006.00    1.24652   1.27690   60.379
 5007.00    1.25319   1.27892   62.563
 5008.00    1.26864   1.28551   63.780
 5009.00    1.28506   1.29172   63.282
 5010.00    1.29154   1.29269   61.856
 5011.00    1.27149   1.28733   60.693
 5012.00    1.24859   1.27871   60.500
 5013.00    1.24193   1.27129   60.428
 5014.00    1.23858   1.26801   59.744
 5015.00    1.24821   1.26779   59.359
 5016.00    1.26181   1.26717   59.628
 5017.00    1.26005   1.26447   59.692
 5018.00    1.25720   1.26294   59.296
 5019.00    1.26305   1.26712   58.690
 5020.00    1.27445   1.27707   58.394
 5021.00    1.27908   1.28924   58.694
 5022.00    1.28611   1.30004   58.861
 5023.00    1.28379   1.30865   58.216
 5024.00    1.28572   1.31557   57.138
 5025.00    1.29695   1.32045   56.313
 5026.00    1.29740   1.32257   55.431
 5027.00    1.29212   1.32251   54.904
 5028.00    1.29949   1.32171   55.254
 5029.00    1.30003   1.32144   57.145
 5030.00    1.29361   1.32264   59.246
 5031.00    1.29212   1.32547   60.075
 5032.00    1.29620   1.32852   60.344
 5033.00    1.30637   1.32931   61.348
 5034.00    1.29328   1.32627   63.835
 5035.00    1.28228   1.32037   66.053
 5036.00    1.27756   1.31412   65.489
 5037.00    1.27801   1.30798   62.081
 5038.00    1.27469   1.30000   58.419
 5039.00    1.26590   1.28911   56.253
 5040.00    1.08998   1.27823   -1.000
 5041.00    0.33371   1.27408   -1.000
 5042.00    0.08161   1.28066   -1.000
 5043.00    0.16046   1.29645   -1.000
 5044.00    0.97862   1.31539   -1.000
 5045.00    1.33672   1.33105   58.327
 5046.00    1.31614   1.33939   59.054
 5047.00    1.31217   1.33911   57.663
 5048.00    1.30732   1.33126   56.268
 5049.00    1.28986   1.31930   55.336
 5050.00    1.28030   1.30761   54.882
 5051.00    1.28235   1.30124   54.763
 5052.00    1.29409   1.30402   54.873
 5053.00    1.30867   1.31517   54.953
 5054.00    1.32454   1.32942   54.866
 5055.00    1.32976   1.34140   54.550
 5056.00    1.32808   1.34872   54.717
 5057.00    1.32578   1.35249   55.630
 5058.00    1.32256   1.35480   57.350
 5059.00    1.32098   1.35656   59.169
 5060.00    1.31917   1.35759   59.551
 5061.00    1.32213   1.35679   58.749
 5062.00    1.32495   1.35295   57.980
 5063.00    1.32003   1.34594   57.801
 5064.00    1.30976   1.33759   57.503
 5065.00    1.30546   1.33088   57.275
 5066.00    1.30599   1.32746   57.767
 5067.00    1.30841   1.32689   58.002
 5068.00    1.30625   1.32789   57.297
 5069.00    1.30682   1.32947   56.928
 5070.00    1.31727   1.33087   56.870
 5071.00    1.32015   1.33135   56.941
 5072.00    1.31817   1.33079   57.789
 5073.00    1.31716   1.32977   60.004
 5074.00    1.31948   1.32888   62.482
 5075.00    1.31864   1.32789   62.721
 5076.00    1.31677   1.32532   61.327
 5077.00    1.32006   1.31957   60.113
 5078.00    1.30623   1.31127   59.253
 5079.00    1.27894   1.30379   58.141
 5080.00    1.26927   1.30078   57.265
 5081.00    1.28553   1.30281   56.942
 5082.00    1.29231   1.30819   56.831
 5083.00    1.30443   1.31524   56.511
 5084.00    1.31607   1.32310   56.117
 5085.00    1.32410   1.33071   55.815
 5086.00    1.32594   1.33694   55.450
 5087.00    1.33012   1.34133   54.826
 5088.00    1.32993   1.34467   54.547
 5089.00    1.32587   1.34800   55.216
 5090.00    1.33251   1.35152   56.405
 5091.00    1.33615   1.35509   57.659
 5092.00    1.33839   1.35832   59.026
 5093.00    1.34234   1.36039   60.031
 5094.00    1.34058   1.36004   59.815
 5095.00    1.34069   1.35603   58.227
 5096.00    1.33420   1.34850   56.788
 5097.00    1.31984   1.33941   56.513
 5098.00    1.31180   1.33201   56.966
 5099.00    1.31253   1.32969   57.728
 5100.00    1.32144   1.33297   58.453
 5101.00    1.33311   1.33980   59.173
 5102.00    1.33902   1.34647   59.729
 5103.00    1.33559   1.35005   59.541
 5104.00    1.33221   1.34914   59.138
 5105.00    1.32704   1.34376   58.612
 5106.00    1.30820   1.33529   57.781
 5107.00    1.29469   1.32718   57.078
 5108.00    1.29983   1.32243   56.424
 5109.00    1.30515   1.32272   55.969
 5110.00    1.30510   1.32791   55.607
 5111.00    1.31509   1.33672   55.036
 5112.00    1.32886   1.34680   54.728
 5113.00    1.33717   1.35598   55.045
 5114.00    1.34435   1.36288   55.814
 5115.00    1.34310   1.36764   56.680
 5116.00    1.35167   1.37092   57.746
 5117.00    1.35252   1.37275   59.319
 5118.00    1.35487   1.37251   60.789
 5119.00    1.35673   1.36964   60.922
 5120.00    1.35060   1.36398   60.405
 5121.00    1.33519   1.35606   60.103
 5122.00    1.32188   1.34705   59.852
 5123.00    1.31380   1.33894   59.920
 5124.00    1.30836   1.33359   59.676
 5125.00    1.30501   1.33114   58.807
 5126.00    1.30899   1.33003   57.927
 5127.00    1.30978   1.32908   57.454
 5128.00    1.30853   1.32865   56.913
 5129.00    1.31796   1.33019   56.504
 5130.00    1.32173   1.33453   56.668
 5131.00    1.32871   1.34051   57.829
 5132.00    1.33442   1.34654   59.130
 5133.00    1.33375   1.35131   59.831
 5134.00    1.33963   1.35398   59.717
 5135.00    1.34276   1.35370   59.413
 5136.00    1.33930   1.34992   60.034
 5137.00    1.32483   1.34318   60.681
 5138.00    1.30631   1.33603   60.094
 5139.00    1.29650   1.33136   59.271
 5140.00    1.30716   1.33066   59.300
 5141.00    1.31763   1.33281   59.776
 5142.00    1.30958   1.33620   59.665
 5143.00    1.31006   1.34021   59.006
 5144.00    1.32496   1.34439   58.978
 5145.00    1.33309   1.34775   59.847
 5146.00    1.33602   1.34962   60.765
 5147.00    1.33620   1.34978   60.941
 5148.00    1.33242   1.34831   60.363
 5149.00    1.33153   1.34495   59.067
 5150.00    1.32406   1.33978   57.549
 5151.00    1.31151   1.33425   56.194
 5152.00    1.31357   1.33100   55.336
 5153.00    1.32478   1.33168   55.064
 5154.00    1.33441   1.33716   55.125
 5155.00    1.34365   1.34649   55.355
 5156.00    1.35493   1.35741   55.767
 5157.00    1.36153   1.36706   56.477
 5158.00    1.36655   1.37346   57.727
 5159.00    1.37245   1.37596   60.699
 5160.00    1.36560   1.37508   66.213
 5161.00    1.35664   1.37147   72.533
 5162.00    1.35330   1.36482   75.421
 5163.00    1.34795   1.35245   72.786
 5164.00    1.34370   1.32990   69.444
 5165.00    1.31609   1.29567   70.173
 5166.00    1.25877   1.25530   75.019
 5167.00    1.21762   1.22206   77.630
 5168.00    1.21560   1.20606   72.425
 5169.00    1.24182   1.20752   64.980
 5170.00    1.26256   1.21574   60.581
 5171.00    1.25994   1.22199   58.889
 5172.00    1.23552   1.22887   58.440
 5173.00    1.24500   1.24473   58.553
 5174.00    1.29164   1.27332   59.605
 5175.00    1.34025   1.30735   62.416
 5176.00    1.36461   1.33647   67.841
 5177.00    1.37487   1.35484   75.136
 5178.00    1.37137   1.36179   77.899
 5179.00    1.37372   1.35800   72.192
 5180.00    1.36617   1.34263   64.542
 5181.00    1.34367   1.31536   60.169
 5182.00    1.30318   1.28304   58.832
 5183.00    1.25936   1.25788   58.450
 5184.00    1.25240   1.25249   58.492
 5185.00    1.29659   1.26747   59.547
 5186.00    1.33879   1.29199   61.422
 5187.00    1.34793   1.31361   62.410
 5188.00    1.35049   1.32560   61.651
 5189.00    1.35075   1.32901   60.614
 5190.00    1.34100   1.32655   59.728
 5191.00    1.32305   1.32139   58.745
 5192.00    1.31335   1.31696   57.608
 5193.00    1.32423   1.31619   56.803
 5194.00    1.33756   1.31914   56.493
 5195.00    1.34300   1.32442   56.622
 5196.00    1.34798   1.33053   57.290
 5197.00    1.35363   1.33715   58.446
 5198.00    1.35522   1.34440   59.964
 5199.00    1.36252   1.35094   61.866
 5200.00    1.36750   1.35453   63.206
 5201.00    1.36740   1.35265   63.401
 5202.00    1.35979   1.34435   63.763
 5203.00    1.34282   1.33077   63.698
 5204.00    1.32123   1.31577   62.311
 5205.00    1.30773   1.30392   60.062
 5206.00    1.31212   1.29788   57.647
 5207.00    1.31862   1.29746   55.763
 5208.00    1.31706   1.30137   55.257
 5209.00    1.31952   1.30977   56.185
 5210.00    1.33326   1.32298   57.325
 5211.00    1.35556   1.33851   57.582
 5212.00    1.37081   1.35235   56.782
 5213.00    1.38165   1.35956   55.651
 5214.00    1.37705   1.35930   54.971
 5215.00    1.36315   1.35478   54.636
 5216.00    1.35079   1.35174   54.751
 5217.00    1.36049   1.35462   55.841
 5218.00    1.38034   1.36317   57.804
 5219.00    1.39028   1.37407   60.338
 5220.00    1.39792   1.38284   62.779
 5221.00    1.40278   1.38652   63.345
 5222.00    1.39596   1.38294   61.052
 5223.00    1.38606   1.37091   57.898
 5224.00    1.36702   1.35088   56.058
 5225.00    1.33445   1.32761   55.445
 5226.00    1.30429   1.30983   55.834
 5227.00    1.29889   1.30604   56.972
 5228.00    1.32423   1.31660   57.560
 5229.00    1.35508   1.33423   56.935
 5230.00    1.37352   1.34797   55.558
 5231.00    1.37663   1.35216   54.492
 5232.00    1.36303   1.34815   54.119
 5233.00    1.34953   1.34285   54.175
 5234.00    1.35493   1.34302   54.256
 5235.00    1.37155   1.35037   54.061
 5236.00    1.38738   1.36233   53.884
 5237.00    1.39664   1.37394   53.911
 5238.00    1.39818   1.38227   53.800
 5239.00    1.40299   1.38696   54.157
 5240.00    1.39627   1.38925   55.532
 5241.00    1.39143   1.39047   57.135
 5242.00    1.39747   1.39128   57.989
 5243.00    1.40145   1.39166   58.070
 5244.00    1.40222   1.39083   58.282
 5245.00    1.39492   1.38754   58.416
 5246.00    1.38189   1.38161   57.898
 5247.00    1.37301   1.37455   57.162
 5248.00    1.36887   1.36842   56.832
 5249.00    1.36336   1.36446   56.701
 5250.00    1.36288   1.36312   55.905
 5251.00    1.36914   1.36410   54.475
 5252.00    1.37836   1.36632   53.388
 5253.00    1.37949   1.36877   53.344
 5254.00    1.37874   1.37153   54.265
 5255.00    1.38556   1.37579   56.119
 5256.00    1.39228   1.38254   58.658
 5257.00    1.40172   1.38979   61.170
 5258.00    1.40752   1.39411   62.913
 5259.00    1.40468   1.39190   63.721
 5260.00    1.39199   1.38200   63.322
 5261.00    1.37660   1.36580   62.154
 5262.00    1.35796   1.34719   62.037
 5263.00    1.34118   1.32978   63.966
 5264.00    1.32809   1.31720   65.094
 5265.00    1.32717   1.31018   62.656
 5266.00    1.33491   1.30698   59.240
 5267.00    1.33935   1.30336   57.548
 5268.00    1.32602   1.29665   57.294
 5269.00    1.29795   1.29087   57.278
 5270.00    1.29261   1.29261   56.727
 5271.00    1.32616   1.30521   55.231
 5272.00    1.36011   1.32338   53.669
 5273.00    1.37318   1.33916   53.260
 5274.00    1.37820   1.34908   54.040
 5275.00    1.38010   1.35561   55.431
 5276.00    1.38590   1.36361   56.701
 5277.00    1.40173   1.37406   57.399
 5278.00    1.41398   1.38360   57.027
 5279.00    1.40561   1.38791   55.555
 5280.00    1.39404   1.38516   53.809
 5281.00    1.39197   1.37761   52.666
 5282.00    1.38652   1.36965   52.613
 5283.00    1.38515   1.36671   52.795
 5284.00    1.38976   1.37133   52.642
 5285.00    1.40489   1.38298   52.406
 5286.00    1.42405   1.39675   52.486
 5287.00    1.43205   1.40819   52.895
 5288.00    1.42762   1.41513   53.492
 5289.00    1.42220   1.41808   54.535
 5290.00    1.42289   1.41847   56.320
 5291.00    1.42184   1.41740   58.234
 5292.00    1.42069   1.41546   58.913
 5293.00    1.42550   1.41252   57.957
 5294.00    1.42105   1.40779   56.618
 5295.00    1.41257   1.40036   55.891
 5296.00    1.40269   1.39115   55.412
 5297.00    1.39300   1.38285   54.343
 5298.00    1.39024   1.37868   53.054
 5299.00    1.39906   1.37968   52.476
 5300.00    1.40871   1.38415   52.666
 5301.00    1.40725   1.39002   53.182
 5302.00    1.40620   1.39616   53.272
 5303.00    1.41927   1.40214   52.793
 5304.00    1.42322   1.40723   52.329
 5305.00    1.41778   1.41022   52.181
 5306.00    1.41624   1.41111   52.359
 5307.00    1.41820   1.41120   52.633
 5308.00    1.42467   1.41209   52.929
 5309.00    1.43133   1.41422   53.385
 5310.00    1.43150   1.41635   53.896
 5311.00    1.42798   1.41700   54.158
 5312.00    1.42789   1.41505   53.960
 5313.00    1.42633   1.41001   53.622
 5314.00    1.42435   1.40225   53.600
 5315.00    1.41788   1.39378   53.900
 5316.00    1.40701   1.38788   54.407
 5317.00    1.40892   1.38779   55.206
 5318.00    1.42244   1.39307   55.975
 5319.00    1.42848   1.40040   56.218
 5320.00    1.42461   1.40517   56.908
 5321.00    1.41966   1.40444   59.522
 5322.00    1.41136   1.39813   62.564
 5323.00    1.39840   1.38830   62.320
 5324.00    1.39421   1.37720   59.086
 5325.00    1.40028   1.36472   56.299
 5326.00    1.39362   1.35006   55.140
 5327.00    1.35976   1.33618   54.629
 5328.00    1.33406   1.32959   54.050
 5329.00    1.35558   1.33658   53.607
 5330.00    1.38968   1.35431   53.672
 5331.00    1.41105   1.37477   54.042
 5332.00    1.41877   1.39007   54.509
 5333.00    1.41706   1.39775   55.498
 5334.00    1.41828   1.39962   56.731
 5335.00    1.42704   1.39833   56.984
 5336.00    1.43144   1.39562   55.918
 5337.00    1.41526   1.39213   54.618
 5338.00    1.40883   1.38782   54.143
 5339.00    1.40979   1.38348   54.355
 5340.00    1.39752   1.38110   54.721
 5341.00    1.40148   1.38323   55.031
 5342.00    1.41645   1.38919   55.412
 5343.00    1.42502   1.39594   55.739
 5344.00    1.43295   1.40004   55.352
 5345.00    1.42977   1.40035   54.235
 5346.00    1.42302   1.39820   53.254
 5347.00    1.42386   1.39587   52.865
 5348.00    1.41975   1.39488   52.588
 5349.00    1.41813   1.39661   52.029
 5350.00    1.42314   1.40122   51.493
 5351.00    1.43154   1.40749   51.338
 5352.00    1.44058   1.41401   51.418
 5353.00    1.44026   1.41962   51.554
 5354.00    1.43887   1.42445   51.961
 5355.00    1.44429   1.42864   52.725
 5356.00    1.44789   1.43183   53.565
 5357.00    1.45122   1.43355   54.134
 5358.00    1.45182   1.43327   54.464
 5359.00    1.44849   1.43066   54.785
 5360.00    1.44601   1.42578   54.856
 5361.00    1.43991   1.41907   54.753
 5362.00    1.43262   1.41201   55.051
 5363.00    1.42726   1.40607   56.059
 5364.00    1.42404   1.40234   57.656
 5365.00    1.42318   1.40081   58.595
 5366.00    1.42324   1.39994   57.457
 5367.00    1.42523   1.39745   54.967
 5368.00    1.42205   1.39132   53.051
 5369.00    1.40649   1.38194   52.282
 5370.00    1.38908   1.37304   52.216
 5371.00    1.38448   1.37021   52.320
 5372.00    1.39849   1.37710   52.378
 5373.00    1.42458   1.39120   52.593
 5374.00    1.44605   1.40727   53.023
 5375.00    1.45598   1.41950   53.557
 5376.00    1.45719   1.42637   53.941
 5377.00    1.45757   1.42868   54.031
 5378.00    1.45541   1.42775   53.864
 5379.00    1.44927   1.42453   53.422
 5380.00    1.44539   1.41996   53.090
 5381.00    1.43914   1.41553   53.195
 5382.00    1.43056   1.41313   53.600
 5383.00    1.43171   1.41361   54.297
 5384.00    1.44243   1.41700   55.020
 5385.00    1.45446   1.42196   55.423
 5386.00    1.45888   1.42643   55.534
 5387.00    1.45394   1.42849   55.632
 5388.00    1.45130   1.42731   55.945
 5389.00    1.45319   1.42319   56.551
 5390.00    1.45383   1.41770   57.536
 5391.00    1.44696   1.41197   58.091
 5392.00    1.43749   1.40692   57.078
 5393.00    1.43426   1.40212   55.344
 5394.00    1.43045   1.39651   54.469
 5395.00    1.41743   1.38954   54.434
 5396.00    1.40104   1.38285   54.737
 5397.00    1.39912   1.38074   55.878
 5398.00    1.41028   1.38496   57.705
 5399.00    1.42378   1.39388   59.017
 5400.00    1.43496   1.40224   58.989
 5401.00    1.44025   1.40550   57.938
 5402.00    1.44067   1.40141   -1.000
 5403.00    1.42404   1.39120   57.214
 5404.00    1.40063   1.37916   57.307
 5405.00    1.39188   1.37073   56.270
 5406.00    1.39788   1.36961   54.836
 5407.00    1.41373   1.37390   53.979
 5408.00    1.42262   1.37982   53.788
 5409.00    1.41571   1.38435   53.839
 5410.00    1.41368   1.38842   53.610
 5411.00    1.42731   1.39378   53.226
 5412.00    1.43891   1.39974   53.217
 5413.00    1.43535   1.40492   53.642
 5414.00    1.43011   1.40855   54.063
 5415.00    1.42887   1.41166   54.057
 5416.00    1.43938   1.41533   53.818
 5417.00    1.44548   1.41907   54.176
 5418.00    1.44490   1.42200   54.822
 5419.00    1.44693   1.42352   54.662
 5420.00    1.44153   1.42344   53.829
 5421.00    1.44258   1.42167   53.550
 5422.00    1.44422   1.41868   54.545
 5423.00    1.43855   1.41537   56.256
 5424.00    1.43261   1.41384   57.048
 5425.00    1.43719   1.41480   56.397
 5426.00    1.44862   1.41632   55.938
 5427.00    1.44859   1.41528   56.453
 5428.00    1.43253   1.41008   57.199
 5429.00    1.40625   1.40377   57.323
 5430.00    1.40379   1.39976   56.508
 5431.00    1.42252   1.39844   55.079
 5432.00    1.42590   1.39788   53.769
 5433.00    1.41684   1.39612   52.887
 5434.00    1.40882   1.39569   52.344
 5435.00    1.41183   1.39981   52.132
 5436.00    1.42671   1.40911   52.109
 5437.00    1.44221   1.42141   52.449
 5438.00    1.45425   1.43259   53.546
 5439.00    1.46189   1.44073   55.494
 5440.00    1.46434   1.44528   57.543
 5441.00    1.46448   1.44649   57.981
 5442.00    1.46400   1.44391   56.557
 5443.00    1.45777   1.43637   54.837
 5444.00    1.44081   1.42388   53.948
 5445.00    1.41568   1.40892   53.797
 5446.00    1.39604   1.39729   54.106
 5447.00    1.39755   1.39400   55.086
 5448.00    1.42022   1.40002   56.595
 5449.00    1.45045   1.41140   -1.000
 5450.00    1.46740   1.42189   -1.000
 5451.00    1.46626   1.42684   -1.000
 5452.00    1.45831   1.42428   54.505
 5453.00    1.44581   1.41567   53.785
 5454.00    1.42452   1.40490   54.119
 5455.00    1.41115   1.39849   55.035
 5456.00    1.41285   1.40034   55.901
 5457.00    1.43602   1.41065   56.358
 5458.00    1.46063   1.42360   56.000
 5459.00    1.46643   1.43371   55.294
 5460.00    1.46017   1.43751   54.901
 5461.00    1.45599   1.43583   54.426
 5462.00    1.45689   1.43156   54.049
 5463.00    1.45297   1.42829   54.314
 5464.00    1.44975   1.42801   54.891
 5465.00    1.45756   1.43055   55.219
 5466.00    1.46394   1.43447   55.457
 5467.00    1.47034   1.43828   55.932
 5468.00    1.47396   1.44115   56.662
 5469.00    1.47092   1.44284   57.744
 5470.00    1.46531   1.44259   58.780
 5471.00    1.46214   1.44037   58.727
 5472.00    1.46009   1.43594   57.296
 5473.00    1.45147   1.42944   55.940
 5474.00    1.44633   1.42090   55.885
 5475.00    1.43702   1.41206   56.544
 5476.00    1.42447   1.40580   56.715
 5477.00    1.42688   1.40574   55.984
 5478.00    1.44251   1.41147   54.861
 5479.00    1.45163   1.41954   54.164
 5480.00    1.45530   1.42616   54.381
 5481.00    1.45210   1.43010   55.117
 5482.00    1.43978   1.43295   55.602
 5483.00    1.44704   1.43642   55.697
 5484.00    1.46356   1.44024   55.425
 5485.00    1.46924   1.44320   55.011
 5486.00    1.46842   1.44392   54.744
 5487.00    1.46509   1.44280   54.768
 5488.00    1.46229   1.44099   54.833
 5489.00    1.45713   1.44005   54.829
 5490.00    1.45963   1.44050   55.100
 5491.00    1.46304   1.44208   55.509
 5492.00    1.46314   1.44352   55.426
 5493.00    1.46677   1.44377   54.874
 5494.00    1.46653   1.44186   54.968
 5495.00    1.46257   1.43801   55.756
 5496.00    1.45267   1.43321   56.118
 5497.00    1.43891   1.42947   55.796
 5498.00    1.44060   1.42786   55.556
 5499.00    1.45246   1.42730   56.055
 5500.00    1.44616   1.42655   56.707
 5501.00    1.43434   1.42528   56.506
 5502.00    1.43976   1.42457   55.675
 5503.00    1.45253   1.42487   55.225
 5504.00    1.45854   1.42443   55.431
 5505.00    1.45143   1.42247   56.322
 5506.00    1.43506   1.42026   57.334
 5507.00    1.43958   1.42021   57.968
 5508.00    1.45327   1.42361   57.621
 5509.00    1.46657   1.42794   -1.000
 5510.00    1.46873   1.43074   55.759
 5511.00    1.46374   1.43080   54.773
 5512.00    1.45720   1.42942   53.821
 5513.00    1.45360   1.42889   53.469
 5514.00    1.45707   1.43046   53.513
 5515.00    1.46390   1.43448   53.618
 5516.00    1.46948   1.44004   53.783
 5517.00    1.47229   1.44607   53.905
 5518.00    1.47424   1.45106   54.160
 5519.00    1.47327   1.45437   54.788
 5520.00    1.47460   1.45570   55.920
 5521.00    1.47618   1.45575   57.344
 5522.00    1.47227   1.45468   58.003
 5523.00    1.47412   1.45156   57.147
 5524.00    1.47913   1.44528   55.659
 5525.00    1.46919   1.43494   54.722
 5526.00    1.44776   1.42322   54.629
 5527.00    1.42662   1.41404   55.057
 5528.00    1.42153   1.41187   55.407
 5529.00    1.43622   1.41728   55.335
 5530.00    1.45565   1.42680   54.937
 5531.00    1.46711   1.43525   54.708
 5532.00    1.46746   1.43895   54.508
 5533.00    1.46644   1.43853   54.048
 5534.00    1.46823   1.43686   53.584
 5535.00    1.46453   1.43759   53.492
 5536.00    1.46537   1.44126   53.919
 5537.00    1.47498   1.44683   54.486
 5538.00    1.47304   1.45212   54.734
 5539.00    1.47456   1.45588   54.645
 5540.00    1.47805   1.45772   54.506
 5541.00    1.47798   1.45776   54.220
 5542.00    1.47637   1.45644   53.724
 5543.00    1.47451   1.45473   53.247
 5544.00    1.47400   1.45365   53.044
 5545.00    1.47320   1.45400   53.234
 5546.00    1.47034   1.45581   53.666
 5547.00    1.47738   1.45876   54.252
 5548.00    1.48156   1.46201   54.609
 5549.00    1.48463   1.46454   54.603
 5550.00    1.48619   1.46570   54.443
 5551.00    1.48992   1.46536   54.328
 5552.00    1.49135   1.46438   54.257
 5553.00    1.48616   1.46320   54.196
 5554.00    1.48018   1.46258   54.270
 5555.00    1.48002   1.46243   54.516
 5556.00    1.48516   1.46288   55.012
 5557.00    1.48744   1.46349   55.448
 5558.00    1.48602   1.46396   55.655
 5559.00    1.48736   1.46404   55.773
 5560.00    1.48485   1.46338   55.843
 5561.00    1.48830   1.46192   55.765
 5562.00    1.48573   1.46005   55.642
 5563.00    1.47819   1.45825   55.740
 5564.00    1.47293   1.45685   55.754
 5565.00    1.47181   1.45543   55.743
 5566.00    1.46957   1.45361   55.873
 5567.00    1.46329   1.45138   55.730
 5568.00    1.43004   1.44882   55.200
 5569.00    1.30885   1.44648   -1.000
 5570.00    1.23349   1.44424   -1.000
 5571.00    1.30010   1.44209   -1.000
 5572.00    1.60900   1.44107   -1.000
 5573.00    1.83201   1.44174   -1.000
 5574.00    1.65857   1.44463   -1.000
 5575.00    1.48576   1.44881   -1.000
 5576.00    1.47640   1.45321   55.155
 5577.00    1.47319   1.45711   54.933
 5578.00    1.47626   1.45996   55.169
 5579.00    1.48277   1.46163   56.217
 5580.00    1.48038   1.46171   57.636
 5581.00    1.47617   1.46092   58.971
 5582.00    1.47624   1.45919   59.601
 5583.00    1.48220   1.45617   59.114
 5584.00    1.47730   1.45030   58.090
 5585.00    1.46274   1.44113   57.218
 5586.00    1.44907   1.43047   56.922
 5587.00    1.43721   1.42155   57.086
 5588.00    1.43698   1.41778   56.868
 5589.00    1.43940   1.41964   56.124
 5590.00    1.45299   1.42592   55.577
 5591.00    1.46693   1.43295   55.917
 5592.00    1.47098   1.43866   56.836
 5593.00    1.46323   1.44215   57.530
 5594.00    1.45570   1.44465   57.608
 5595.00    1.46820   1.44685   57.850
 5596.00    1.47667   1.44781   58.151
 5597.00    1.47127   1.44673   57.427
 5598.00    1.46510   1.44360   55.934
 5599.00    1.45614   1.43957   54.593
 5600.00    1.45213   1.43595   53.837
 5601.00    1.45521   1.43447   53.636
 5602.00    1.45511   1.43670   53.693
 5603.00    1.46328   1.44341   53.802
 5604.00    1.47759   1.45331   53.778
 5605.00    1.49087   1.46349   53.625
 5606.00    1.50281   1.47160   53.802
 5607.00    1.50408   1.47665   54.774
 5608.00    1.50248   1.47932   56.572
 5609.00    1.49541   1.48053   58.026
 5610.00    1.49699   1.48047   57.852
 5611.00    1.50019   1.47816   56.573
 5612.00    1.49481   1.47221   55.675
 5613.00    1.48803   1.46292   55.451
 5614.00    1.46831   1.45265   55.233
 5615.00    1.45271   1.44661   54.956
 5616.00    1.45823   1.44690   55.107
 5617.00    1.47374   1.45323   56.073
 5618.00    1.48917   1.46119   57.148
 5619.00    1.49408   1.46769   57.112
 5620.00    1.49540   1.47108   56.228
 5621.00    1.49585   1.47175   55.379
 5622.00    1.48904   1.47014   54.716
 5623.00    1.48243   1.46747   54.278
 5624.00    1.47970   1.46513   54.092
 5625.00    1.48221   1.46483   53.888
 5626.00    1.48843   1.46695   53.901
 5627.00    1.49483   1.47050   54.276
 5628.00    1.50054   1.47429   54.680
 5629.00    1.50124   1.47708   55.030
 5630.00    1.50432   1.47867   55.427
 5631.00    1.50365   1.47905   55.810
 5632.00    1.49753   1.47840   55.869
 5633.00    1.49547   1.47733   55.811
 5634.00    1.49231   1.47603   55.965
 5635.00    1.49931   1.47452   56.024
 5636.00    1.49173   1.47277   55.830
 5637.00    1.48714   1.47076   55.570
 5638.00    1.49326   1.46875   55.459
 5639.00    1.48937   1.46690   55.113
 5640.00    1.48893   1.46560   54.921
 5641.00    1.48454   1.46534   54.781
 5642.00    1.48767   1.46640   54.692
 5643.00    1.49171   1.46842   54.800
 5644.00    1.49920   1.47074   54.818
 5645.00    1.49947   1.47274   54.432
 5646.00    1.49730   1.47412   54.242
 5647.00    1.49807   1.47505   54.414
 5648.00    1.49266   1.47556   54.831
 5649.00    1.49130   1.47590   55.353
 5650.00    1.49770   1.47634   56.357
 5651.00    1.49947   1.47681   58.034
 5652.00    1.50268   1.47699   59.096
 5653.00    1.49750   1.47588   58.439
 5654.00    1.49452   1.47221   57.174
 5655.00    1.48813   1.46525   56.829
 5656.00    1.48093   1.45561   56.907
 5657.00    1.46591   1.44659   56.355
 5658.00    1.45226   1.44175   55.557
 5659.00    1.45646   1.44256   55.271
 5660.00    1.46747   1.44756   55.520
 5661.00    1.47043   1.45361   55.858
 5662.00    1.47388   1.45957   55.955
 5663.00    1.47762   1.46496   55.829
 5664.00    1.48822   1.46904   55.485
 5665.00    1.50091   1.47065   55.010
 5666.00    1.49656   1.46933   54.462
 5667.00    1.48552   1.46670   53.934
 5668.00    1.48476   1.46525   53.896
 5669.00    1.48876   1.46620   54.069
 5670.00    1.49269   1.46941   53.933
 5671.00    1.49830   1.47354   53.834
 5672.00    1.50272   1.47739   54.078
 5673.00    1.51152   1.48035   54.309
 5674.00    1.51412   1.48237   54.621
 5675.00    1.50465   1.48373   55.236
 5676.00    1.50336   1.48458   55.899
 5677.00    1.50628   1.48473   56.071
 5678.00    1.50274   1.48383   55.773
 5679.00    1.50302   1.48155   55.512
 5680.00    1.49761   1.47773   55.736
 5681.00    1.50121   1.47295   56.374
 5682.00    1.50028   1.46820   -1.000
 5683.00    1.49238   1.46512   56.023
 5684.00    1.48760   1.46437   55.003
 5685.00    1.49095   1.46555   54.442
 5686.00    1.49141   1.46724   54.089
 5687.00    1.48652   1.46851   53.975
 5688.00    1.49133   1.46949   54.033
 5689.00    1.49746   1.47103   54.078
 5690.00    1.49988   1.47369   54.225
 5691.00    1.50048   1.47719   54.740
 5692.00    1.50261   1.48073   55.376
 5693.00    1.50769   1.48349   55.875
 5694.00    1.51116   1.48514   56.470
 5695.00    1.50994   1.48562   56.751
 5696.00    1.50330   1.48506   56.364
 5697.00    1.49837   1.48336   55.774
 5698.00    1.49172   1.48059   55.612
 5699.00    1.48203   1.47721   55.964
 5700.00    1.47965   1.47411   56.742
 5701.00    1.48548   1.47233   57.796
 5702.00    1.48865   1.47232   58.711
 5703.00    1.49722   1.47333   59.079
 5704.00    1.50623   1.47385   -1.000
 5705.00    1.49805   1.47251   58.368
 5706.00    1.49214   1.46856   57.184
 5707.00    1.48545   1.46279   55.769
 5708.00    1.47406   1.45670   54.891
 5709.00    1.46782   1.45252   54.671
 5710.00    1.46826   1.45187   54.554
 5711.00    1.47670   1.45536   54.384
 5712.00    1.48677   1.46166   54.119
 5713.00    1.49229   1.46895   53.770
 5714.00    1.50382   1.47528   53.515
 5715.00    1.50968   1.48021   53.383
 5716.00    1.51184   1.48377   53.300
 5717.00    1.51273   1.48649   53.236
 5718.00    1.50994   1.48870   53.358
 5719.00    1.51661   1.49058   53.802
 5720.00    1.52096   1.49220   54.373
 5721.00    1.51740   1.49349   54.810
 5722.00    1.51671   1.49435   54.532
 5723.00    1.52583   1.49447   -1.000
 5724.00    1.52083   1.49363   54.339
 5725.00    1.51376   1.49163   54.618
 5726.00    1.50946   1.48913   54.422
 5727.00    1.50742   1.48698   53.892
 5728.00    1.51043   1.48603   53.547
 5729.00    1.51551   1.48638   53.590
 5730.00    1.51526   1.48756   53.655
 5731.00    1.51359   1.48922   53.817
 5732.00    1.51014   1.49112   53.858
 5733.00    1.51353   1.49331   53.976
 5734.00    1.51884   1.49521   54.056
 5735.00    1.51722   1.49653   54.179
 5736.00    1.51733   1.49710   54.051
 5737.00    1.51748   1.49704   54.000
 5738.00    1.51684   1.49698   53.600
 5739.00    1.51351   1.49693   53.311
 5740.00    1.50779   1.49708   53.602
 5741.00    1.50543   1.49722   54.141
 5742.00    1.51066   1.49749   54.347
 5743.00    1.52153   1.49785   54.025
 5744.00    1.52427   1.49826   53.859
 5745.00    1.52430   1.49838   54.287
 5746.00    1.52176   1.49811   54.954
 5747.00    1.51706   1.49768   55.504
 5748.00    1.51780   1.49765   55.489
 5749.00    1.51650   1.49769   54.772
 5750.00    1.52340   1.49716   53.747
 5751.00    1.52566   1.49539   -1.000
 5752.00    1.51768   1.49276   53.288
 5753.00    1.50682   1.49103   53.894
 5754.00    1.50718   1.49150   54.605
 5755.00    1.51289   1.49465   55.354
 5756.00    1.52343   1.49910   55.623
 5757.00    1.52536   1.50313   55.008
 5758.00    1.52203   1.50485   54.015
 5759.00    1.52273   1.50395   53.360
 5760.00    1.52106   1.50102   53.203
 5761.00    1.50575   1.49792   53.150
 5762.00    1.50042   1.49657   53.059
 5763.00    1.50824   1.49800   53.173
 5764.00    1.52121   1.50139   53.350
 5765.00    1.52391   1.50502   53.652
 5766.00    1.51789   1.50758   53.987
 5767.00    1.52153   1.50843   54.116
 5768.00    1.52262   1.50833   54.181
 5769.00    1.51878   1.50759   54.062
 5770.00    1.51448   1.50665   53.785
 5771.00    1.50810   1.50541   53.741
 5772.00    1.49450   1.50385   53.918
 5773.00    1.47506   1.50192   54.726
 5774.00    1.46454   1.49979   55.983
 5775.00    1.47700   1.49793   56.693
 5776.00    1.49677   1.49617   56.567
 5777.00    1.51042   1.49409   56.344
 5778.00    1.52071   1.49128   -1.000
 5779.00    1.52546   1.48766   -1.000
 5780.00    1.51683   1.48416   -1.000
 5781.00    1.51926   1.48162   -1.000
 5782.00    1.52345   1.48070   -1.000
 5783.00    1.51943   1.48127   -1.000
 5784.00    1.52382   1.48294   -1.000
 5785.00    1.52764   1.48507   -1.000
 5786.00    1.52585   1.48738   -1.000
 5787.00    1.53602   1.48965   -1.000
 5788.00    1.52583   1.49187   -1.000
 5789.00    1.50707   1.49378   53.207
 5790.00    1.50770   1.49555   53.542
 5791.00    1.51049   1.49763   53.886
 5792.00    1.52124   1.50026   53.600
 5793.00    1.53560   1.50345   -1.000
 5794.00    1.53405   1.50622   52.166
 5795.00    1.53336   1.50783   52.075
 5796.00    1.54562   1.50810   -1.000
 5797.00    1.53956   1.50800   -1.000
 5798.00    1.53903   1.50855   -1.000
 5799.00    1.54235   1.51014   -1.000
 5800.00    1.53959   1.51227   -1.000
 5801.00    1.54170   1.51399   -1.000
 5802.00    1.53810   1.51472   53.104
 5803.00    1.53074   1.51460   53.111
 5804.00    1.53365   1.51441   53.055
 5805.00    1.53882   1.51462   52.845
 5806.00    1.54251   1.51567   52.694
 5807.00    1.54039   1.51702   52.815
 5808.00    1.54161   1.51828   53.278
 5809.00    1.53856   1.51919   53.507
 5810.00    1.54357   1.51971   53.200
 5811.00    1.55255   1.51981   -1.000
 5812.00    1.55145   1.51936   -1.000
 5813.00    1.54838   1.51821   -1.000
 5814.00    1.54390   1.51687   52.121
 5815.00    1.54251   1.51591   52.224
 5816.00    1.55406   1.51615   -1.000
 5817.00    1.55651   1.51751   -1.000
 5818.00    1.54759   1.51954   52.226
 5819.00    1.54768   1.52151   52.125
 5820.00    1.54955   1.52299   52.080
 5821.00    1.54829   1.52393   52.099
 5822.00    1.55429   1.52440   -1.000
 5823.00    1.55613   1.52467   -1.000
 5824.00    1.54938   1.52491   52.116
 5825.00    1.54639   1.52549   52.033
 5826.00    1.54745   1.52636   52.156
 5827.00    1.55646   1.52749   -1.000
 5828.00    1.55550   1.52860   -1.000
 5829.00    1.55550   1.52926   -1.000
 5830.00    1.56533   1.52942   -1.000
 5831.00    1.56412   1.52895   -1.000
 5832.00    1.55180   1.52798   52.603
 5833.00    1.55297   1.52700   52.408
 5834.00    1.55248   1.52620   52.001
 5835.00    1.54385   1.52620   51.744
 5836.00    1.55616   1.52689   -1.000
 5837.00    1.55203   1.52832   51.969
 5838.00    1.54737   1.52992   52.173
 5839.00    1.54159   1.53125   52.540
 5840.00    1.54662   1.53182   52.789
 5841.00    1.55574   1.53150   53.053
 5842.00    1.55959   1.53014   -1.000
 5843.00    1.54814   1.52823   53.065
 5844.00    1.54733   1.52599   53.391
 5845.00    1.54998   1.52400   -1.000
 5846.00    1.55985   1.52239   -1.000
 5847.00    1.56492   1.52116   -1.000
 5848.00    1.55373   1.51978   -1.000
 5849.00    1.55401   1.51775   -1.000
 5850.00    1.55522   1.51456   -1.000
 5851.00    1.54540   1.51024   -1.000
 5852.00    1.53820   1.50557   -1.000
 5853.00    1.53645   1.50143   -1.000
 5854.00    1.53684   1.49811   -1.000
 5855.00    1.53850   1.49514   -1.000
 5856.00    1.53137   1.49245   -1.000
 5857.00    1.52866   1.49089   -1.000
 5858.00    1.54014   1.49160   -1.000
 5859.00    1.54593   1.49511   -1.000
 5860.00    1.55427   1.49999   -1.000
 5861.00    1.55302   1.50478   -1.000
 5862.00    1.55289   1.50813   -1.000
 5863.00    1.55077   1.50979   -1.000
 5864.00    1.54952   1.50991   -1.000
 5865.00    1.54400   1.50915   -1.000
 5866.00    1.54869   1.50860   -1.000
 5867.00    1.55034   1.50921   -1.000
 5868.00    1.55457   1.51106   -1.000
 5869.00    1.56675   1.51349   -1.000
 5870.00    1.56416   1.51522   -1.000
 5871.00    1.55454   1.51552   -1.000
 5872.00    1.54943   1.51420   -1.000
 5873.00    1.54954   1.51179   -1.000
 5874.00    1.55575   1.50894   -1.000
 5875.00    1.55217   1.50649   -1.000
 5876.00    1.54066   1.50465   -1.000
 5877.00    1.53756   1.50309   -1.000
 5878.00    1.53374   1.50152   -1.000
 5879.00    1.51721   1.49957   54.703
 5880.00    1.48284   1.49732   55.451
 5881.00    1.41123   1.49470   -1.000
 5882.00    1.29542   1.49139   -1.000
 5883.00    1.19618   1.48695   -1.000
 5884.00    1.22263   1.48036   -1.000
 5885.00    1.35285   1.46969   -1.000
 5886.00    1.44845   1.45225   61.461
 5887.00    1.42934   1.42757   60.523
 5888.00    1.33415   1.40008   -1.000
 5889.00    1.23232   1.37943   -1.000
 5890.00    1.23494   1.37198   -1.000
 5891.00    1.35235   1.37805   60.769
 5892.00    1.45135   1.38832   -1.000
 5893.00    1.47888   1.39392   -1.000
 5894.00    1.46218   1.39218   -1.000
 5895.00    1.44598   1.38908   -1.000
 5896.00    1.44426   1.39282   -1.000
 5897.00    1.47542   1.40542   -1.000
 5898.00    1.51409   1.42462   -1.000
 5899.00    1.54058   1.44404   -1.000
 5900.00    1.53880   1.46022   -1.000
 5901.00    1.54107   1.47240   -1.000
 5902.00    1.54291   1.48115   -1.000
 5903.00    1.53343   1.48719   -1.000
 5904.00    1.54112   1.49124   -1.000
 5905.00    1.54023   1.49386   -1.000
 5906.00    1.54165   1.49556   -1.000
 5907.00    1.54558   1.49683   -1.000
 5908.00    1.54506   1.49775   -1.000
 5909.00    1.54328   1.49815   -1.000
 5910.00    1.54717   1.49760   -1.000
 5911.00    1.53478   1.49573   -1.000
 5912.00    1.51713   1.49252   55.230
 5913.00    1.51492   1.48872   55.115
 5914.00    1.52334   1.48538   -1.000
 5915.00    1.52548   1.48351   -1.000
 5916.00    1.52675   1.48341   -1.000
 5917.00    1.52946   1.48505   -1.000
 5918.00    1.52859   1.48757   -1.000
 5919.00    1.53039   1.49028   -1.000
 5920.00    1.54643   1.49260   -1.000
 5921.00    1.55491   1.49430   -1.000
 5922.00    1.55042   1.49565   -1.000
 5923.00    1.54604   1.49728   -1.000
 5924.00    1.54771   1.49927   -1.000
 5925.00    1.54631   1.50134   -1.000
 5926.00    1.54705   1.50290   -1.000
 5927.00    1.55531   1.50314   -1.000
 5928.00    1.54814   1.50229   -1.000
 5929.00    1.54642   1.50118   -1.000
 5930.00    1.54938   1.50064   -1.000
 5931.00    1.54780   1.50090   -1.000
 5932.00    1.54728   1.50163   -1.000
 5933.00    1.53845   1.50194   -1.000
 5934.00    1.53484   1.50194   -1.000
 5935.00    1.52750   1.50190   55.501
 5936.00    1.52065   1.50209   55.395
 5937.00    1.53043   1.50202   -1.000
 5938.00    1.53624   1.50110   -1.000
 5939.00    1.53722   1.49911   -1.000
 5940.00    1.53609   1.49679   -1.000
 5941.00    1.53414   1.49496   -1.000
 5942.00    1.53450   1.49445   -1.000
 5943.00    1.53654   1.49523   -1.000
 5944.00    1.54391   1.49657   -1.000
 5945.00    1.55038   1.49779   -1.000
 5946.00    1.55312   1.49827   -1.000
 5947.00    1.55261   1.49821   -1.000
 5948.00    1.54414   1.49850   -1.000
 5949.00    1.54211   1.49946   -1.000
 5950.00    1.54228   1.50092   -1.000
 5951.00    1.53868   1.50249   -1.000
 5952.00    1.54191   1.50331   -1.000
 5953.00    1.53776   1.50335   -1.000
 5954.00    1.54269   1.50242   -1.000
 5955.00    1.55697   1.50111   -1.000
 5956.00    1.54694   1.50021   -1.000
 5957.00    1.53567   1.50061   -1.000
 5958.00    1.54254   1.50262   -1.000
 5959.00    1.55161   1.50565   -1.000
 5960.00    1.54520   1.50892   -1.000
 5961.00    1.54468   1.51140   -1.000
 5962.00    1.54245   1.51252   -1.000
 5963.00    1.54286   1.51221   -1.000
 5964.00    1.55059   1.51081   -1.000
 5965.00    1.55863   1.50920   -1.000
 5966.00    1.55508   1.50823   -1.000
 5967.00    1.55886   1.50826   -1.000
 5968.00    1.56036   1.50930   -1.000
 5969.00    1.55169   1.51082   -1.000
 5970.00    1.54281   1.51231   -1.000
 5971.00    1.54592   1.51327   -1.000
 5972.00    1.55133   1.51345   -1.000
 5973.00    1.55926   1.51282   -1.000
 5974.00    1.56204   1.51124   -1.000
 5975.00    1.56006   1.50933   -1.000
 5976.00    1.55399   1.50761   -1.000
 5977.00    1.54144   1.50680   -1.000
 5978.00    1.54989   1.50745   -1.000
 5979.00    1.56153   1.50883   -1.000
 5980.00    1.55888   1.51017   -1.000
 5981.00    1.55286   1.51037   -1.000
 5982.00    1.54867   1.50936   -1.000
 5983.00    1.54688   1.50790   -1.000
 5984.00    1.54560   1.50705   -1.000
 5985.00    1.54403   1.50744   -1.000
 5986.00    1.54659   1.50881   -1.000
 5987.00    1.54958   1.51053   -1.000
 5988.00    1.54956   1.51184   -1.000
 5989.00    1.54929   1.51264   -1.000
 5990.00    1.55270   1.51346   -1.000
 5991.00    1.55553   1.51495   -1.000
 5992.00    1.55469   1.51741   -1.000
 5993.00    1.55608   1.52030   -1.000
 5994.00    1.56023   1.52258   -1.000
 5995.00    1.55764   1.52346   -1.000
 5996.00    1.55772   1.52305   -1.000
 5997.00    1.56123   1.52205   -1.000
 5998.00    1.56043   1.52118   -1.000
 5999.00    1.56220   1.52044   -1.000
 6000.00    1.55560   1.51971   -1.000
 6001.00    1.54774   1.51870   -1.000
 6002.00    1.54681   1.51751   -1.000
 6003.00    1.54329   1.51626   -1.000
 6004.00    1.54702   1.51472   -1.000
 6005.00    1.55369   1.51288   -1.000
 6006.00    1.55451   1.51095   -1.000
 6007.00    1.54567   1.50978   -1.000
 6008.00    1.54082   1.51014   -1.000
 6009.00    1.54833   1.51197   -1.000
 6010.00    1.55396   1.51437   -1.000
 6011.00    1.55189   1.51649   -1.000
 6012.00    1.56520   1.51776   -1.000
 6013.00    1.56728   1.51856   -1.000
 6014.00    1.56074   1.51908   -1.000
 6015.00    1.56241   1.51915   -1.000
 6016.00    1.55960   1.51871   -1.000
 6017.00    1.56317   1.51752   -1.000
 6018.00    1.56589   1.51600   -1.000
 6019.00    1.55976   1.51462   -1.000
 6020.00    1.55197   1.51367   -1.000
 6021.00    1.55280   1.51346   -1.000
 6022.00    1.55930   1.51408   -1.000
 6023.00    1.54878   1.51567   -1.000
 6024.00    1.54510   1.51807   -1.000
 6025.00    1.55046   1.52093   -1.000
 6026.00    1.55632   1.52376   -1.000
 6027.00    1.55380   1.52618   -1.000
 6028.00    1.56153   1.52797   -1.000
 6029.00    1.56329   1.52925   -1.000
 6030.00    1.55849   1.53025   -1.000
 6031.00    1.56294   1.53109   -1.000
 6032.00    1.56069   1.53209   -1.000
 6033.00    1.56399   1.53322   -1.000
 6034.00    1.56672   1.53430   -1.000
 6035.00    1.57073   1.53474   -1.000
 6036.00    1.56932   1.53412   -1.000
 6037.00    1.56848   1.53247   -1.000
 6038.00    1.56925   1.52996   -1.000
 6039.00    1.57049   1.52713   -1.000
 6040.00    1.56517   1.52443   -1.000
 6041.00    1.55753   1.52169   -1.000
 6042.00    1.56027   1.52028   -1.000
 6043.00    1.56477   1.52155   -1.000
 6044.00    1.56221   1.52497   -1.000
 6045.00    1.56881   1.52988   -1.000
 6046.00    1.57236   1.53396   -1.000
 6047.00    1.57129   1.53600   -1.000
 6048.00    1.57274   1.53609   -1.000
 6049.00    1.57326   1.53535   -1.000
 6050.00    1.57135   1.53448   -1.000
 6051.00    1.56664   1.53376   -1.000
 6052.00    1.56487   1.53332   -1.000
 6053.00    1.56205   1.53259   -1.000
 6054.00    1.55896   1.53153   -1.000
 6055.00    1.54992   1.53026   54.735
 6056.00    1.53253   1.52917   55.675
 6057.00    1.52761   1.52846   56.110
 6058.00    1.40959   1.52834   -1.000
 6059.00    1.43493   1.52832   48.665
 6060.00    1.50832   1.52765   18.912
 6061.00    1.54489   1.52561   -1.000
 6062.00    1.58995   1.52188   -1.000
 6063.00    1.45858   1.51757   54.202
 6064.00    0.66759   1.51432   -1.000
 6065.00    0.95485   1.51390   -1.000
 6066.00    1.62063   1.51675   -1.000
 6067.00    1.54112   1.52177   53.930
 6068.00    1.56060   1.52730   -1.000
 6069.00    1.56239   1.53197   -1.000
 6070.00    1.56811   1.53517   -1.000
 6071.00    1.57027   1.53725   -1.000
 6072.00    1.56608   1.53833   -1.000
 6073.00    1.56952   1.53853   -1.000
 6074.00    1.56795   1.53786   -1.000
 6075.00    1.56843   1.53638   -1.000
 6076.00    1.56903   1.53451   -1.000
 6077.00    1.56179   1.53268   -1.000
 6078.00    1.55851   1.53112   -1.000
 6079.00    1.55300   1.52982   -1.000
 6080.00    1.55679   1.52857   -1.000
 6081.00    1.56248   1.52730   -1.000
 6082.00    1.55547   1.52635   -1.000
 6083.00    1.55586   1.52609   -1.000
 6084.00    1.55563   1.52672   -1.000
 6085.00    1.55938   1.52806   -1.000
 6086.00    1.55588   1.52967   -1.000
 6087.00    1.55519   1.53091   -1.000
 6088.00    1.56176   1.53145   -1.000
 6089.00    1.56093   1.53114   -1.000
 6090.00    1.56362   1.53044   -1.000
 6091.00    1.56381   1.53012   -1.000
 6092.00    1.56342   1.53061   -1.000
 6093.00    1.56078   1.53212   -1.000
 6094.00    1.56025   1.53427   -1.000
 6095.00    1.55758   1.53652   -1.000
 6096.00    1.55722   1.53837   -1.000
 6097.00    1.56094   1.53904   -1.000
 6098.00    1.56175   1.53762   -1.000
 6099.00    1.55642   1.53357   -1.000
 6100.00    1.55090   1.52712   -1.000
 6101.00    1.53499   1.52013   55.564
 6102.00    1.51977   1.51537   55.643
 6103.00    1.52198   1.51460   55.577
 6104.00    1.53724   1.51806   55.413
 6105.00    1.54787   1.52393   -1.000
 6106.00    1.55211   1.53015   -1.000
 6107.00    1.54859   1.53517   54.874
 6108.00    1.54502   1.53858   54.861
 6109.00    1.55017   1.54032   55.152
 6110.00    1.55576   1.54071   55.448
 6111.00    1.55105   1.54027   55.546
 6112.00    1.54799   1.53973   55.996
 6113.00    1.55441   1.53948   56.842
 6114.00    1.56580   1.53960   -1.000
 6115.00    1.56087   1.53942   -1.000
 6116.00    1.55653   1.53827   -1.000
 6117.00    1.55412   1.53480   -1.000
 6118.00    1.54918   1.52842   -1.000
 6119.00    1.54130   1.52007   -1.000
 6120.00    1.53248   1.51121   -1.000
 6121.00    1.52264   1.50560   56.393
 6122.00    1.51540   1.50552   56.169
 6123.00    1.52653   1.51031   55.652
 6124.00    1.54182   1.51783   -1.000
 6125.00    1.54450   1.52458   55.241
 6126.00    1.54917   1.52836   -1.000
 6127.00    1.55290   1.52958   -1.000
 6128.00    1.54671   1.53064   57.753
 6129.00    1.54828   1.53306   59.425
 6130.00    1.55262   1.53649   -1.000
 6131.00    1.55262   1.53936   59.995
 6132.00    1.54799   1.53865   58.278
 6133.00    1.54184   1.53268   56.941
 6134.00    1.52925   1.52207   56.637
 6135.00    1.51344   1.50973   56.795
 6136.00    1.49792   1.50001   56.667
 6137.00    1.49080   1.49553   55.992
 6138.00    1.50821   1.49625   55.505
 6139.00    1.51957   1.49941   55.589
 6140.00    1.51839   1.50321   55.904
 6141.00    1.51734   1.50762   56.283
 6142.00    1.52208   1.51312   56.670
 6143.00    1.53877   1.51970   -1.000
 6144.00    1.55227   1.52537   -1.000
 6145.00    1.55685   1.52832   -1.000
 6146.00    1.55438   1.52821   -1.000
 6147.00    1.54761   1.52616   -1.000
 6148.00    1.54412   1.52411   -1.000
 6149.00    1.54264   1.52333   -1.000
 6150.00    1.54342   1.52418   -1.000
 6151.00    1.55100   1.52602   -1.000
 6152.00    1.54974   1.52765   -1.000
 6153.00    1.54396   1.52806   59.651
 6154.00    1.54299   1.52708   -1.000
 6155.00    1.53983   1.52487   -1.000
 6156.00    1.53700   1.52161   62.833
 6157.00    1.53678   1.51709   -1.000
 6158.00    1.53264   1.51030   -1.000
 6159.00    1.52051   1.50063   59.376
 6160.00    1.50764   1.48936   59.315
 6161.00    1.49210   1.47970   59.718
 6162.00    1.48022   1.47491   60.499
 6163.00    1.48430   1.47615   60.713
 6164.00    1.50512   1.48179   59.904
 6165.00    1.52295   1.48828   -1.000
 6166.00    1.52198   1.49296   -1.000
 6167.00    1.51661   1.49483   58.460
 6168.00    1.50764   1.49503   58.425
 6169.00    1.50664   1.49543   58.275
 6170.00    1.51005   1.49739   58.153
 6171.00    1.51002   1.50123   57.942
 6172.00    1.51612   1.50615   57.670
 6173.00    1.52275   1.51111   57.481
 6174.00    1.52771   1.51521   57.267
 6175.00    1.52811   1.51812   57.035
 6176.00    1.52825   1.52009   57.000
 6177.00    1.52214   1.52122   57.171
 6178.00    1.52596   1.52188   57.472
 6179.00    1.53291   1.52258   58.022
 6180.00    1.52880   1.52348   58.660
 6181.00    1.52404   1.52446   59.242
 6182.00    1.52868   1.52534   59.752
 6183.00    1.53541   1.52576   60.303
 6184.00    1.53472   1.52530   60.985
 6185.00    1.53664   1.52359   60.917
 6186.00    1.53903   1.52043   59.815
 6187.00    1.53078   1.51543   58.453
 6188.00    1.51694   1.50889   57.789
 6189.00    1.50973   1.50208   57.585
 6190.00    1.50693   1.49709   57.696
 6191.00    1.49564   1.49605   58.233
 6192.00    1.50108   1.49947   58.858
 6193.00    1.51515   1.50605   59.104
 6194.00    1.52039   1.51330   58.785
 6195.00    1.51820   1.51902   58.084
 6196.00    1.51397   1.52206   57.569
 6197.00    1.51762   1.52263   57.532
 6198.00    1.51560   1.52195   57.504
 6199.00    1.51276   1.52165   57.431
 6200.00    1.51380   1.52262   57.531
 6201.00    1.52019   1.52519   57.685
 6202.00    1.53515   1.52855   57.757
 6203.00    1.53456   1.53161   58.155
 6204.00    1.53073   1.53388   58.681
 6205.00    1.52990   1.53528   59.174
 6206.00    1.53389   1.53598   59.902
 6207.00    1.54091   1.53610   60.724
 6208.00    1.53642   1.53540   61.114
 6209.00    1.53534   1.53368   60.840
 6210.00    1.53015   1.53067   60.159
 6211.00    1.52609   1.52636   60.242
 6212.00    1.51431   1.52144   60.485
 6213.00    1.50829   1.51680   60.087
 6214.00    1.50823   1.51323   59.971
 6215.00    1.46605   1.51091   62.070
 6216.00    1.42899   1.50940   -1.000
 6217.00    1.50143   1.50820   61.104
 6218.00    1.51944   1.50730   59.403
 6219.00    1.51430   1.50719   59.583
 6220.00    1.51373   1.50825   59.722
 6221.00    1.52150   1.51020   60.295
 6222.00    1.52847   1.51237   61.238
 6223.00    1.52868   1.51424   62.170
 6224.00    1.53243   1.51520   62.489
 6225.00    1.52903   1.51490   61.855
 6226.00    1.52109   1.51279   60.799
 6227.00    1.52119   1.50837   59.697
 6228.00    1.50741   1.50214   59.042
 6229.00    1.48999   1.49587   59.116
 6230.00    1.49016   1.49201   59.654
 6231.00    1.49726   1.49224   60.271
 6232.00    1.50660   1.49648   60.896
 6233.00    1.51120   1.50282   61.378
 6234.00    1.51128   1.50848   61.475
 6235.00    1.51699   1.51141   61.639
 6236.00    1.51314   1.51124   62.120
 6237.00    1.51284   1.50891   62.320
 6238.00    1.51118   1.50618   62.084
 6239.00    1.50888   1.50416   61.564
 6240.00    1.51211   1.50291   60.860
 6241.00    1.50824   1.50154   60.133
 6242.00    1.50082   1.49927   59.770
 6243.00    1.49727   1.49607   60.029
 6244.00    1.49634   1.49298   60.881
 6245.00    1.49384   1.49174   61.888
 6246.00    1.49120   1.49326   62.459
 6247.00    1.50072   1.49708   62.750
 6248.00    1.50801   1.50144   62.817
 6249.00    1.50303   1.50397   63.045
 6250.00    1.49499   1.50328   63.669
 6251.00    1.48577   1.49999   63.847
 6252.00    1.47842   1.49586   63.191
 6253.00    1.47810   1.49278   62.192
 6254.00    1.47799   1.49169   61.306
 6255.00    1.47250   1.49227   60.425
 6256.00    1.46982   1.49391   59.766
 6257.00    1.48020   1.49642   59.875
 6258.00    1.48818   1.49982   60.372
 6259.00    1.48891   1.50400   60.449
 6260.00    1.49263   1.50854   60.048
 6261.00    1.49584   1.51277   59.903
 6262.00    1.49240   1.51589   60.211
 6263.00    1.49253   1.51779   60.338
 6264.00    1.49567   1.51875   60.168
 6265.00    1.49026   1.51927   59.985
 6266.00    1.48704   1.51948   59.990
 6267.00    1.48856   1.51924   60.301
 6268.00    1.48150   1.51839   60.782
 6269.00    1.46526   1.51678   61.502
 6270.00    1.44024   1.51460   62.799
 6271.00    1.41350   1.51165   -1.000
 6272.00    1.40935   1.50731   -1.000
 6273.00    1.41596   1.50082   -1.000
 6274.00    1.41599   1.49219   64.365
 6275.00    1.41783   1.48240   63.251
 6276.00    1.42195   1.47327   62.214
 6277.00    1.42481   1.46674   61.363
 6278.00    1.42938   1.46384   60.750
 6279.00    1.43686   1.46506   60.238
 6280.00    1.44733   1.46992   59.743
 6281.00    1.45994   1.47741   59.481
 6282.00    1.46705   1.48626   59.593
 6283.00    1.47077   1.49512   60.033
 6284.00    1.47920   1.50278   60.524
 6285.00    1.48420   1.50864   60.807
 6286.00    1.48207   1.51240   60.877
 6287.00    1.48400   1.51398   60.963
 6288.00    1.49039   1.51366   61.254
 6289.00    1.50356   1.51206   61.721
 6290.00    1.52850   1.50991   -1.000
 6291.00    1.57634   1.50786   -1.000
 6292.00    1.65722   1.50604   -1.000
 6293.00    1.75313   1.50415   -1.000
 6294.00    1.81236   1.50174   -1.000
 6295.00    1.76829   1.49895   -1.000
 6296.00    1.64334   1.49630   -1.000
 6297.00    1.53668   1.49435   -1.000
 6298.00    1.48863   1.49337   60.645
 6299.00    1.47343   1.49323   60.032
 6300.00    1.46489   1.49406   59.514
 6301.00    1.46571   1.49609   59.192
 6302.00    1.47312   1.49937   59.307
 6303.00    1.47789   1.50357   59.661
 6304.00    1.48306   1.50787   59.986
 6305.00    1.48645   1.51177   60.212
 6306.00    1.48914   1.51498   60.366
 6307.00    1.49335   1.51753   60.664
 6308.00    1.49094   1.51955   61.088
 6309.00    1.48448   1.52079   61.146
 6310.00    1.47881   1.52107   61.082
 6311.00    1.47547   1.52041   61.098
 6312.00    1.47539   1.51896   61.034
 6313.00    1.47549   1.51698   60.520
 6314.00    1.47383   1.51483   59.829
 6315.00    1.47331   1.51274   59.440
 6316.00    1.46949   1.51110   59.248
 6317.00    1.46758   1.51080   58.984
 6318.00    1.47051   1.51228   58.726
 6319.00    1.47599   1.51534   58.631
 6320.00    1.47778   1.51954   58.469
 6321.00    1.47600   1.52406   58.340
 6322.00    1.48045   1.52824   58.413
 6323.00    1.48881   1.53169   58.450
 6324.00    1.49380   1.53415   58.357
 6325.00    1.49559   1.53559   58.189
 6326.00    1.50708   1.53610   58.237
 6327.00    1.54199   1.53604   58.404
 6328.00    1.53285   1.53598   59.191
 6329.00    1.49470   1.53615   59.994
 6330.00    1.49484   1.53629   59.702
 6331.00    1.49295   1.53569   59.115
 6332.00    1.48738   1.53364   58.481
 6333.00    1.48422   1.53003   58.026
 6334.00    1.47341   1.52600   57.764
 6335.00    1.46847   1.52339   57.653
 6336.00    1.47096   1.52330   57.976
 6337.00    1.47550   1.52581   58.290
 6338.00    1.48110   1.52976   58.212
 6339.00    1.48559   1.53355   57.956
 6340.00    1.48513   1.53608   57.583
 6341.00    1.48498   1.53687   57.274
 6342.00    1.49008   1.53601   57.193
 6343.00    1.48440   1.53410   57.142
 6344.00    1.47979   1.53190   57.105
 6345.00    1.48485   1.53055   57.275
 6346.00    1.48685   1.53107   57.541
 6347.00    1.48450   1.53371   58.025
 6348.00    1.48426   1.53783   58.627
 6349.00    1.48787   1.54206   58.857
 6350.00    1.48716   1.54506   58.938
 6351.00    1.48766   1.54606   59.399
 6352.00    1.49156   1.54515   59.871
 6353.00    1.49276   1.54318   59.825
 6354.00    1.49885   1.54095   59.587
 6355.00    1.51551   1.53888   59.476
 6356.00    1.54360   1.53695   59.343
 6357.00    1.56504   1.53507   -1.000
 6358.00    1.55655   1.53331   -1.000
 6359.00    1.52121   1.53173   58.292
 6360.00    1.48809   1.53055   57.949
 6361.00    1.47049   1.53008   57.566
 6362.00    1.46271   1.53054   57.314
 6363.00    1.46266   1.53190   57.285
 6364.00    1.45873   1.53384   57.201
 6365.00    1.45282   1.53593   56.976
 6366.00    1.45261   1.53744   56.963
 6367.00    1.45239   1.53776   57.073
 6368.00    1.45217   1.53694   57.155
 6369.00    1.44586   1.53559   57.335
 6370.00    1.44049   1.53468   -1.000
 6371.00    1.44296   1.53520   -1.000
 6372.00    1.44028   1.53719   -1.000
 6373.00    1.43633   1.53985   -1.000
 6374.00    1.43603   1.54223   -1.000
 6375.00    1.43507   1.54343   -1.000
 6376.00    1.43226   1.54323   -1.000
 6377.00    1.42931   1.54201   -1.000
 6378.00    1.41993   1.54023   -1.000
 6379.00    1.41146   1.53841   -1.000
 6380.00    1.41309   1.53704   -1.000
 6381.00    1.40953   1.53640   -1.000
 6382.00    1.40194   1.53658   -1.000
 6383.00    1.40065   1.53742   -1.000
 6384.00    1.39773   1.53870   -1.000
 6385.00    1.39200   1.54021   -1.000
 6386.00    1.38709   1.54145   -1.000
 6387.00    1.38136   1.54202   -1.000
 6388.00    1.37283   1.54151   -1.000
 6389.00    1.36879   1.53941   -1.000
 6390.00    1.36435   1.53582   -1.000
 6391.00    1.35062   1.53161   -1.000
 6392.00    1.33453   1.52839   -1.000
 6393.00    1.32144   1.52747   -1.000
 6394.00    1.32085   1.52887   -1.000
 6395.00    1.32742   1.53131   -1.000
 6396.00    1.32274   1.53272   -1.000
 6397.00    1.30807   1.53194   -1.000
 6398.00    1.29112   1.52973   -1.000
 6399.00    1.27450   1.52826   -1.000
 6400.00    1.26572   1.52933   -1.000
 6401.00    1.26911   1.53312   -1.000
 6402.00    1.26980   1.53822   -1.000
 6403.00    1.26571   1.54236   -1.000
 6404.00    1.26220   1.54378   -1.000
 6405.00    1.25295   1.54225   -1.000
 6406.00    1.24313   1.53863   -1.000
 6407.00    1.23247   1.53494   -1.000
 6408.00    1.21888   1.53295   -1.000
 6409.00    1.21277   1.53256   -1.000
 6410.00    1.20854   1.53351   -1.000
 6411.00    1.19742   1.53515   -1.000
 6412.00    1.18234   1.53646   -1.000
 6413.00    1.17252   1.53722   -1.000
 6414.00    1.17116   1.53801   -1.000
 6415.00    1.16354   1.53882   -1.000
 6416.00    1.15285   1.53902   -1.000
 6417.00    1.14364   1.53829   -1.000
 6418.00    1.13080   1.53654   -1.000
 6419.00    1.11327   1.53455   -1.000
 6420.00    1.09389   1.53385   -1.000
 6421.00    1.07751   1.53553   -1.000
 6422.00    1.07149   1.53954   -1.000
 6423.00    1.06739   1.54474   -1.000
 6424.00    0.45933   1.54958   -1.000
 6425.00    0.00000   1.55266   -2.000
 6426.00    0.00000   1.55309   -2.000
 6427.00    0.00000   1.55060   -2.000
 6428.00    0.00000   1.54597   -2.000
