###################################################################
## OUTPUT of StarlightChains_v04.for    [Cid@UFSC - 01/Apr/2007] ##
###################################################################

## Some input info
NGC7078_a_2.cxt                          [arq_obs]
Base.BC03.S                              [arq_base]
NGC7078_a_2.msk                          [arq_masks]
StCv04.C11.config                        [arq_config]
  150                                    [N_base]
    0                                    [N_YAV_components = # of components with extra extinction!]
    0                                    [i_FitPowerLaw (1/0 = Yes/No)]
-9.99                                    [alpha_PowerLaw]
CCM                                      [red_law_option]
 1.458241                                [q_norm = A(l_norm)/A(V)]

## (Re)Sampling Parameters
 3359.00                                 [l_ini (A)]
 6428.00                                 [l_fin (A)]
    1.00                                 [dl    (A)]     (OBS: dl_cushion =    50.00 A)

## Normalization info
 4020.00                                 [l_norm (A) - for base]
 4010.00                                 [llow_norm (A) - window for f_obs]
 4060.00                                 [lupp_norm (A) - window for f_obs]
1.263103E-13                             [fobs_norm (in input units)]

## S/N
 4730.00                                 [llow_SN (A) - window for S/N]
 4780.00                                 [lupp_SN (A) - window for S/N]
 205.831                                 [S/N in S/N window]
 202.695                                 [S/N in norm. window]
 485.220                                 [S/N_err in S/N window]
 477.827                                 [S/N_err in norm. window]
  1.0000                                 [fscale_chi2]

## etc...
  2147483587                             [idum_orig]
  3067                                   [NOl_eff]
   696                                   [Nl_eff]
  2371    NSIGMA                         [Ntot_cliped & clip_method]
  4375350                                [Nglobal_steps]
   7                                     [N_chains]
  15                                     [NEX0s_base = N_base in EX0s-fits]
 0   0   1      254   2.0   1.005E+03    [Clip-Bug, RC-Crash & Burn-In warning-flags, n_censored_weights, wei_nsig_threshold & wei_limit]
   242    242.029    241.960      0.068  [idt_all, wdt_TotTime, wdt_UsrTime & wdt_SysTime (sec)]

## Synthesis Results - Best model ##

 2.80192E+00                             [chi2/Nl_eff]
     0.35717                             [adev (%)]

   103.85087                             [sum-of-x (%)]
 3.11360E-13                             [Flux_tot (units of input spectrum!)]
 2.14490E-09                             [Mini_tot (???)]
 1.09027E-09                             [Mcor_tot (???)]

 -54.83                                  [v0_min  (km/s)]
  88.25                                  [vd_min  (km/s)]
 0.6436                                  [AV_min  (mag)]
 0.0000                                  [YAV_min (mag)]

# j     x_j(%)      Mini_j(%)     Mcor_j(%)     age_j(yr)     Z_j      (L/M)_j    YAV?  Mstars   component_j        a/Fe...       SSP_chi2r SSP_adev(%)   SSP_AV   SSP_x(%)
  1      0.0000     0.0000E+00    0.0000E+00    1.000000E+06  0.00010  8.160E-03    0   1.0000   age020_m22            0.0000     4.5364E+03    11.3224   3.4642    77.7765
  2     33.7050     9.8998E-02    1.9476E-01    3.160000E+06  0.00010  4.759E-02    0   1.0000   age045_m22            0.0000     3.6647E+02     3.0324   1.4101    99.1037
  3      0.0000     0.0000E+00    0.0000E+00    5.010000E+06  0.00010  1.932E-02    0   0.9582   age055_m22            0.0000     4.1469E+03    11.4028   1.7449    83.8439
  4      0.0000     0.0000E+00    0.0000E+00    6.610000E+06  0.00010  9.973E-03    0   0.9297   age061_m22            0.0000     4.5223E+03    11.6443   3.4153    80.5727
  5      0.0000     0.0000E+00    0.0000E+00    8.710000E+06  0.00010  7.690E-03    0   0.9030   age067_m22            0.0000     4.2607E+03    11.2840   3.4080    81.0590
  6      0.0000     0.0000E+00    0.0000E+00    1.000000E+07  0.00010  6.375E-03    0   0.8902   age070_m22            0.0000     4.0444E+03    10.9649   3.4213    81.3173
  7      0.0000     0.0000E+00    0.0000E+00    1.445000E+07  0.00010  4.874E-03    0   0.8589   age078_m22            0.0000     2.8818E+03     9.1577   3.2372    84.4979
  8      0.0000     0.0000E+00    0.0000E+00    2.512000E+07  0.00010  4.103E-03    0   0.8174   age090_m22            0.0000     9.2787E+02     5.1607   2.8146    91.8724
  9      0.0068     2.5906E-04    3.9905E-04    4.000000E+07  0.00010  3.654E-03    0   0.7830   age104_m22            0.0000     1.9538E+02     2.0830   2.4990    97.6428
 10      0.0000     0.0000E+00    0.0000E+00    5.500000E+07  0.00010  3.093E-03    0   0.7597   age110_m22            0.0000     1.4329E+02     1.5232   2.3917    99.5352
 11      6.8594     3.9441E-01    5.5386E-01    1.015200E+08  0.00010  2.431E-03    0   0.7138   age116_m22            0.0000     3.2255E+02     2.0162   2.0340   102.9586
 12      0.0000     0.0000E+00    0.0000E+00    1.609000E+08  0.00010  1.319E-03    0   0.6775   age120_m22            0.0000     3.9332E+02     2.3636   1.5594   105.0387
 13      0.0000     0.0000E+00    0.0000E+00    2.861200E+08  0.00010  1.075E-03    0   0.6412   age125_m22            0.0000     2.3446E+03     7.0985   1.6083   109.8773
 14      0.0000     0.0000E+00    0.0000E+00    5.088000E+08  0.00010  7.183E-04    0   0.6083   age130_m22            0.0000     3.2455E+03     8.5463   1.3753   111.8184
 15      0.0000     0.0000E+00    0.0000E+00    9.047900E+08  0.00010  4.524E-04    0   0.5785   age135_m22            0.0000     3.3752E+03     8.8438   1.1797   113.0060
 16      0.0000     0.0000E+00    0.0000E+00    1.278050E+09  0.00010  3.018E-04    0   0.5588   age138_m22            0.0000     1.3212E+03     5.8595   0.6563   110.1558
 17      0.0000     0.0000E+00    0.0000E+00    1.434000E+09  0.00010  2.691E-04    0   0.5532   age139_m22            0.0000     1.0176E+03     5.2694   0.5036   109.3103
 18      0.0000     0.0000E+00    0.0000E+00    2.500000E+09  0.00010  1.582E-04    0   0.5296   age150_m22            0.0000     7.3534E+02     4.3523   0.3923   109.8869
 19      0.0000     0.0000E+00    0.0000E+00    4.250000E+09  0.00010  1.007E-04    0   0.5110   age158_m22            0.0000     2.7035E+02     2.8182   0.2497   107.5624
 20      0.9824     1.9991E+00    1.9605E+00    6.250000E+09  0.00010  6.869E-05    0   0.4985   age166_m22            0.0000     7.6977E+01     1.4591   0.2015   104.1762
 21     17.0438     4.0565E+01    3.9351E+01    7.500000E+09  0.00010  5.873E-05    0   0.4931   age171_m22            0.0000     5.8683E+01     1.1284   0.1903   103.5273
 22      0.0000     0.0000E+00    0.0000E+00    1.000000E+10  0.00010  4.481E-05    0   0.4854   age181_m22            0.0000     6.4650E+01     1.1788   0.1525   103.1243
 23      4.5307     1.8152E+01    1.7109E+01    1.300000E+10  0.00010  3.489E-05    0   0.4791   age193_m22            0.0000     7.9453E+01     1.2812   0.0967   102.4855
 24      0.1358     6.2565E-01    5.8662E-01    1.500000E+10  0.00010  3.035E-05    0   0.4766   age201_m22            0.0000     8.6737E+01     1.3006   0.0578   102.2367
 25      0.0000     0.0000E+00    0.0000E+00    1.800000E+10  0.00010  2.510E-05    0   0.4735   age213_m22            0.0000     1.1002E+02     1.3212  -0.0096   101.4820
 26      0.0000     0.0000E+00    0.0000E+00    1.000000E+06  0.00040  8.458E-03    0   1.0000   age020_m32            0.0000     4.4867E+03    11.3493   3.4774    78.4427
 27      0.0000     0.0000E+00    0.0000E+00    3.160000E+06  0.00040  3.973E-02    0   1.0000   age045_m32            0.0000     1.1252E+03     5.6814   2.7059    91.8286
 28      0.0000     0.0000E+00    0.0000E+00    5.010000E+06  0.00040  1.935E-02    0   0.9532   age055_m32            0.0000     3.2569E+03    10.0798   2.9498    84.8232
 29      0.0000     0.0000E+00    0.0000E+00    6.610000E+06  0.00040  1.204E-02    0   0.9243   age061_m32            0.0000     3.6859E+03    10.4923   3.2728    82.7566
 30      0.0000     0.0000E+00    0.0000E+00    8.710000E+06  0.00040  9.433E-03    0   0.9001   age067_m32            0.0000     3.2476E+03     9.8044   3.2431    83.8105
 31      0.0000     0.0000E+00    0.0000E+00    1.000000E+07  0.00040  8.053E-03    0   0.8877   age070_m32            0.0000     3.0794E+03     9.5293   3.2070    84.3124
 32      0.0000     0.0000E+00    0.0000E+00    1.445000E+07  0.00040  7.027E-03    0   0.8578   age078_m32            0.0000     1.5720E+03     6.9563   2.6680    90.1860
 33      0.0000     0.0000E+00    0.0000E+00    2.512000E+07  0.00040  4.707E-03    0   0.8166   age090_m32            0.0000     6.8235E+02     4.5827   2.3629    94.6653
 34      0.0000     0.0000E+00    0.0000E+00    4.000000E+07  0.00040  3.714E-03    0   0.7827   age104_m32            0.0000     1.8436E+02     2.1923   2.1486    98.7836
 35      0.0000     0.0000E+00    0.0000E+00    5.500000E+07  0.00040  2.982E-03    0   0.7593   age110_m32            0.0000     1.2536E+02     1.5058   2.0842   100.2587
 36      1.9428     1.2412E-01    1.7442E-01    1.015200E+08  0.00040  2.188E-03    0   0.7143   age116_m32            0.0000     7.6429E+02     3.7558   1.8011   105.7192
 37      1.0666     8.8218E-02    1.1899E-01    1.609000E+08  0.00040  1.690E-03    0   0.6856   age120_m32            0.0000     1.6235E+03     5.6384   1.5831   108.9736
 38      0.0000     0.0000E+00    0.0000E+00    2.861200E+08  0.00040  1.152E-03    0   0.6509   age125_m32            0.0000     2.5809E+03     7.5296   1.3584   111.1281
 39      0.0000     0.0000E+00    0.0000E+00    5.088000E+08  0.00040  7.331E-04    0   0.6182   age130_m32            0.0000     3.0354E+03     8.3796   1.1967   111.8743
 40      0.0000     0.0000E+00    0.0000E+00    9.047900E+08  0.00040  3.960E-04    0   0.5890   age135_m32            0.0000     1.4882E+03     6.4870   0.7540   109.4392
 41      0.0000     0.0000E+00    0.0000E+00    1.278050E+09  0.00040  2.854E-04    0   0.5687   age138_m32            0.0000     9.6003E+02     5.0704   0.4598   111.0062
 42      0.1688     9.3249E-02    1.0332E-01    1.434000E+09  0.00040  2.531E-04    0   0.5632   age139_m32            0.0000     9.1349E+02     4.9102   0.3971   110.9621
 43     33.7261     3.1682E+01    3.3570E+01    2.500000E+09  0.00040  1.488E-04    0   0.5386   age150_m32            0.0000     5.4767E+02     4.0228   0.1430   108.8232
 44      3.1385     4.8304E+00    4.9406E+00    4.250000E+09  0.00040  9.082E-05    0   0.5199   age158_m32            0.0000     1.2821E+02     2.0355   0.0574   104.4345
 45      0.2034     4.4684E-01    4.4622E-01    6.250000E+09  0.00040  6.362E-05    0   0.5076   age166_m32            0.0000     2.4402E+02     1.5032   0.0277   100.1592
 46      0.3407     9.0049E-01    8.9056E-01    7.500000E+09  0.00040  5.289E-05    0   0.5027   age171_m32            0.0000     3.3265E+02     1.7287  -0.0057    98.7459
 47      0.0000     0.0000E+00    0.0000E+00    1.000000E+10  0.00040  3.972E-05    0   0.4948   age181_m32            0.0000     4.1764E+02     1.9848  -0.0654    97.3105
 48      0.0000     0.0000E+00    0.0000E+00    1.300000E+10  0.00040  3.283E-05    0   0.4870   age193_m32            0.0000     2.3072E+02     1.9019  -0.1171   100.4427
 49      0.0000     0.0000E+00    0.0000E+00    1.500000E+10  0.00040  2.925E-05    0   0.4854   age201_m32            0.0000     1.8202E+02     2.0578  -0.1401   102.2871
 50      0.0000     0.0000E+00    0.0000E+00    1.800000E+10  0.00040  2.469E-05    0   0.4819   age213_m32            0.0000     1.8727E+02     2.2169  -0.1829   102.8769
 51      0.0000     0.0000E+00    0.0000E+00    1.000000E+06  0.00400  1.114E-02    0   1.0000   age020_m42            0.0000     4.3159E+03    11.0089   3.4080    78.8938
 52      0.0000     0.0000E+00    0.0000E+00    3.160000E+06  0.00400  4.073E-02    0   0.9999   age045_m42            0.0000     6.2824E+02     4.0945   2.3976    94.8559
 53      0.0000     0.0000E+00    0.0000E+00    5.010000E+06  0.00400  2.534E-02    0   0.9488   age055_m42            0.0000     2.0601E+03     7.6007   2.8247    87.5028
 54      0.0000     2.6611E-08    4.8268E-08    6.610000E+06  0.00400  2.583E-02    0   0.9220   age061_m42            0.0000     3.6174E+02     2.9872   2.2085    95.9448
 55      0.0000     0.0000E+00    0.0000E+00    8.710000E+06  0.00400  1.706E-02    0   0.8983   age067_m42            0.0000     9.8881E+02     5.4741   2.0354    93.2761
 56      0.0000     0.0000E+00    0.0000E+00    1.000000E+07  0.00400  1.271E-02    0   0.8862   age070_m42            0.0000     1.6469E+03     7.2664   2.0230    91.2663
 57      0.0000     0.0000E+00    0.0000E+00    1.445000E+07  0.00400  7.666E-03    0   0.8571   age078_m42            0.0000     2.4312E+03     8.4858   2.4419    87.6200
 58      0.0000     0.0000E+00    0.0000E+00    2.512000E+07  0.00400  5.070E-03    0   0.8174   age090_m42            0.0000     1.3829E+03     6.5537   1.8883    92.9477
 59      0.0000     0.0000E+00    0.0000E+00    4.000000E+07  0.00400  3.505E-03    0   0.7851   age104_m42            0.0000     7.2302E+02     4.3501   1.5625    96.2575
 60      0.0000     0.0000E+00    0.0000E+00    5.500000E+07  0.00400  3.059E-03    0   0.7629   age110_m42            0.0000     1.0853E+02     1.3792   1.6023   102.3486
 61      0.0000     0.0000E+00    0.0000E+00    1.015200E+08  0.00400  2.268E-03    0   0.7207   age116_m42            0.0000     1.4082E+03     5.6752   1.4950   109.2916
 62      0.0000     0.0000E+00    0.0000E+00    1.609000E+08  0.00400  1.720E-03    0   0.6930   age120_m42            0.0000     1.7428E+03     6.5533   1.3547   111.1410
 63      0.0000     0.0000E+00    0.0000E+00    2.861200E+08  0.00400  1.079E-03    0   0.6613   age125_m42            0.0000     1.8668E+03     6.8166   1.0058   111.2435
 64      0.0000     0.0000E+00    0.0000E+00    5.088000E+08  0.00400  6.261E-04    0   0.6313   age130_m42            0.0000     2.3224E+03     7.4832   0.8099   114.3746
 65      0.0000     0.0000E+00    0.0000E+00    9.047900E+08  0.00400  3.535E-04    0   0.6024   age135_m42            0.0000     1.2992E+03     6.0629   0.4177   113.7473
 66      0.0000     0.0000E+00    0.0000E+00    1.278050E+09  0.00400  2.677E-04    0   0.5837   age138_m42            0.0000     1.1709E+03     6.1595  -0.2519   109.2808
 67      0.0000     0.0000E+00    0.0000E+00    1.434000E+09  0.00400  1.910E-04    0   0.5716   age139_m42            0.0000     1.0578E+03     6.0786  -0.0877   110.7273
 68      0.0000     0.0000E+00    0.0000E+00    2.500000E+09  0.00400  9.818E-05    0   0.5463   age150_m42            0.0000     1.1190E+03     5.3578  -0.3344   104.4458
 69      0.0000     0.0000E+00    0.0000E+00    4.250000E+09  0.00400  5.491E-05    0   0.5269   age158_m42            0.0000     1.3757E+03     5.2323  -0.4494   100.9951
 70      0.0000     0.0000E+00    0.0000E+00    6.250000E+09  0.00400  3.857E-05    0   0.5151   age166_m42            0.0000     1.7808E+03     5.8471  -0.5678    99.2447
 71      0.0000     0.0000E+00    0.0000E+00    7.500000E+09  0.00400  3.243E-05    0   0.5110   age171_m42            0.0000     2.0532E+03     6.2654  -0.6424    98.4796
 72      0.0000     0.0000E+00    0.0000E+00    1.000000E+10  0.00400  2.424E-05    0   0.5028   age181_m42            0.0000     2.4374E+03     6.7851  -0.7166    97.5812
 73      0.0000     0.0000E+00    0.0000E+00    1.300000E+10  0.00400  1.883E-05    0   0.4927   age193_m42            0.0000     2.7330E+03     7.0998  -0.7539    97.0773
 74      0.0000     0.0000E+00    0.0000E+00    1.500000E+10  0.00400  1.685E-05    0   0.4919   age201_m42            0.0000     2.6379E+03     6.9573  -0.7508    97.1243
 75      0.0000     0.0000E+00    0.0000E+00    1.800000E+10  0.00400  1.452E-05    0   0.4874   age213_m42            0.0000     2.4673E+03     6.7087  -0.7391    97.4624
 76      0.0000     0.0000E+00    0.0000E+00    1.000000E+06  0.00800  1.286E-02    0   1.0000   age020_m52            0.0000     3.7809E+03    10.2652   3.3829    80.7945
 77      0.0000     0.0000E+00    0.0000E+00    3.160000E+06  0.00800  3.147E-02    0   0.9966   age045_m52            0.0000     3.6059E+03    10.0833   3.2897    82.3927
 78      0.0000     0.0000E+00    0.0000E+00    5.010000E+06  0.00800  2.664E-02    0   0.9443   age055_m52            0.0000     2.4857E+03     8.1559   2.9521    86.2371
 79      0.0000     0.0000E+00    0.0000E+00    6.610000E+06  0.00800  2.151E-02    0   0.9177   age061_m52            0.0000     1.5545E+03     6.3472   1.6201    92.7419
 80      0.0000     0.0000E+00    0.0000E+00    8.710000E+06  0.00800  1.628E-02    0   0.8948   age067_m52            0.0000     1.2315E+03     6.0515   1.9897    93.4295
 81      0.0000     0.0000E+00    0.0000E+00    1.000000E+07  0.00800  1.215E-02    0   0.8827   age070_m52            0.0000     1.5984E+03     6.9147   2.3364    91.3980
 82      0.0000     0.0000E+00    0.0000E+00    1.445000E+07  0.00800  8.739E-03    0   0.8552   age078_m52            0.0000     1.1352E+03     5.7225   2.3725    93.1343
 83      0.0000     0.0000E+00    0.0000E+00    2.512000E+07  0.00800  5.676E-03    0   0.8162   age090_m52            0.0000     4.1675E+02     3.5437   1.9482    98.8013
 84      0.0000     0.0000E+00    0.0000E+00    4.000000E+07  0.00800  3.939E-03    0   0.7841   age104_m52            0.0000     1.9842E+02     2.0030   1.7819   101.8856
 85      0.0000     0.0000E+00    0.0000E+00    5.500000E+07  0.00800  3.155E-03    0   0.7627   age110_m52            0.0000     2.4859E+02     1.6106   1.7503   104.0835
 86      0.0000     0.0000E+00    0.0000E+00    1.015200E+08  0.00800  2.206E-03    0   0.7226   age116_m52            0.0000     8.7093E+02     4.4071   1.5589   108.7113
 87      0.0000     0.0000E+00    0.0000E+00    1.609000E+08  0.00800  1.596E-03    0   0.6963   age120_m52            0.0000     1.2886E+03     5.6061   1.3452   110.5041
 88      0.0000     0.0000E+00    0.0000E+00    2.861200E+08  0.00800  1.002E-03    0   0.6665   age125_m52            0.0000     2.6473E+03     8.3645   1.0459   113.6500
 89      0.0000     0.0000E+00    0.0000E+00    5.088000E+08  0.00800  5.759E-04    0   0.6377   age130_m52            0.0000     3.1808E+03     9.5673   0.6956   117.6310
 90      0.0000     0.0000E+00    0.0000E+00    9.047900E+08  0.00800  2.972E-04    0   0.6086   age135_m52            0.0000     2.1542E+03     8.6026   0.1783   115.1606
 91      0.0000     0.0000E+00    0.0000E+00    1.278050E+09  0.00800  2.242E-04    0   0.5907   age138_m52            0.0000     1.7778E+03     7.3312  -0.4176   111.8273
 92      0.0000     0.0000E+00    0.0000E+00    1.434000E+09  0.00800  1.645E-04    0   0.5787   age139_m52            0.0000     1.4682E+03     6.6844  -0.2696   111.2814
 93      0.0000     0.0000E+00    0.0000E+00    2.500000E+09  0.00800  7.723E-05    0   0.5519   age150_m52            0.0000     1.9219E+03     6.8516  -0.5883   106.3184
 94      0.0000     0.0000E+00    0.0000E+00    4.250000E+09  0.00800  4.151E-05    0   0.5320   age158_m52            0.0000     2.0572E+03     6.7262  -0.6494   103.3786
 95      0.0000     0.0000E+00    0.0000E+00    6.250000E+09  0.00800  3.010E-05    0   0.5197   age166_m52            0.0000     2.7565E+03     7.5894  -0.8324   101.4694
 96      0.0000     0.0000E+00    0.0000E+00    7.500000E+09  0.00800  2.467E-05    0   0.5139   age171_m52            0.0000     2.9595E+03     7.8554  -0.8715   100.9741
 97      0.0000     0.0000E+00    0.0000E+00    1.000000E+10  0.00800  1.862E-05    0   0.5054   age181_m52            0.0000     3.5855E+03     8.6903  -0.9962   100.3485
 98      0.0000     0.0000E+00    0.0000E+00    1.300000E+10  0.00800  1.433E-05    0   0.4988   age193_m52            0.0000     4.4096E+03     8.9962  -1.0000    98.5733
 99      0.0000     0.0000E+00    0.0000E+00    1.500000E+10  0.00800  1.244E-05    0   0.4936   age201_m52            0.0000     4.7675E+03     9.1738  -1.0000    98.2113
100      0.0000     0.0000E+00    0.0000E+00    1.800000E+10  0.00800  1.070E-05    0   0.4888   age213_m52            0.0000     5.0618E+03     9.3215  -1.0000    97.1500
101      0.0000     0.0000E+00    0.0000E+00    1.000000E+06  0.02000  1.989E-02    0   1.0000   age020_m62            0.0000     4.4025E+03    10.9810   3.3687    79.6360
102      0.0000     0.0000E+00    0.0000E+00    3.160000E+06  0.02000  3.772E-02    0   0.9858   age045_m62            0.0000     3.9097E+03    10.3739   3.2202    81.9642
103      0.0000     0.0000E+00    0.0000E+00    5.010000E+06  0.02000  3.227E-02    0   0.9342   age055_m62            0.0000     1.1766E+03     5.6054   2.6689    91.0477
104      0.0000     0.0000E+00    0.0000E+00    6.610000E+06  0.02000  2.387E-02    0   0.9090   age061_m62            0.0000     2.1020E+03     8.0595   2.4140    89.7586
105      0.0000     0.0000E+00    0.0000E+00    8.710000E+06  0.02000  1.102E-02    0   0.8861   age067_m62            0.0000     6.2511E+03    14.4427   2.0422    83.3004
106      0.0000     0.0000E+00    0.0000E+00    1.000000E+07  0.02000  1.011E-02    0   0.8751   age070_m62            0.0000     4.3764E+03    11.9932   2.0600    86.3891
107      0.0000     0.0000E+00    0.0000E+00    1.445000E+07  0.02000  7.331E-03    0   0.8472   age078_m62            0.0000     3.0800E+03     9.8553   2.0755    88.4023
108      0.0000     0.0000E+00    0.0000E+00    2.512000E+07  0.02000  4.206E-03    0   0.8099   age090_m62            0.0000     3.1495E+03     9.7163   1.9883    87.7486
109      0.0000     0.0000E+00    0.0000E+00    4.000000E+07  0.02000  3.373E-03    0   0.7799   age104_m62            0.0000     4.9131E+02     3.6946   1.7613    98.5318
110      0.0000     0.0000E+00    0.0000E+00    5.500000E+07  0.02000  2.747E-03    0   0.7595   age110_m62            0.0000     2.2343E+02     1.8675   1.6814   103.0369
111      0.0000     0.0000E+00    0.0000E+00    1.015200E+08  0.02000  1.878E-03    0   0.7221   age116_m62            0.0000     1.0248E+03     4.2853   1.5238   109.3220
112      0.0000     0.0000E+00    0.0000E+00    1.609000E+08  0.02000  1.378E-03    0   0.6978   age120_m62            0.0000     1.9861E+03     6.4948   1.3643   112.5422
113      0.0000     0.0000E+00    0.0000E+00    2.861200E+08  0.02000  8.869E-04    0   0.6700   age125_m62            0.0000     3.7999E+03     9.3326   0.9847   117.4521
114      0.0000     0.0000E+00    0.0000E+00    5.088000E+08  0.02000  4.834E-04    0   0.6430   age130_m62            0.0000     3.6050E+03    10.0979   0.5575   119.3907
115      0.0000     0.0000E+00    0.0000E+00    9.047900E+08  0.02000  2.312E-04    0   0.6152   age135_m62            0.0000     1.9059E+03     8.2270  -0.0248   116.9587
116      0.0000     0.0000E+00    0.0000E+00    1.278050E+09  0.02000  1.387E-04    0   0.5927   age138_m62            0.0000     1.4230E+03     6.6550  -0.3836   110.8435
117      0.0000     0.0000E+00    0.0000E+00    1.434000E+09  0.02000  1.168E-04    0   0.5865   age139_m62            0.0000     1.4577E+03     6.5213  -0.4028   108.8899
118      0.0000     0.0000E+00    0.0000E+00    2.500000E+09  0.02000  5.505E-05    0   0.5610   age150_m62            0.0000     2.3407E+03     7.5096  -0.7601   104.8293
119      0.0000     0.0000E+00    0.0000E+00    4.250000E+09  0.02000  3.070E-05    0   0.5407   age158_m62            0.0000     3.7776E+03     9.0198  -1.0000   103.0568
120      0.0000     0.0000E+00    0.0000E+00    6.250000E+09  0.02000  2.104E-05    0   0.5277   age166_m62            0.0000     4.8989E+03     9.3909  -1.0000    99.9596
121      0.0000     0.0000E+00    0.0000E+00    7.500000E+09  0.02000  1.770E-05    0   0.5223   age171_m62            0.0000     5.6664E+03     9.9498  -1.0000    97.9491
122      0.0000     0.0000E+00    0.0000E+00    1.000000E+10  0.02000  1.297E-05    0   0.5121   age181_m62            0.0000     7.5143E+03    11.6477  -1.0000    94.0232
123      0.0000     0.0000E+00    0.0000E+00    1.300000E+10  0.02000  9.691E-06    0   0.5047   age193_m62            0.0000     8.7718E+03    12.7463  -1.0000    91.9666
124      0.0000     0.0000E+00    0.0000E+00    1.500000E+10  0.02000  8.360E-06    0   0.4999   age201_m62            0.0000     9.9006E+03    13.6775  -1.0000    90.1836
125      0.0000     0.0000E+00    0.0000E+00    1.800000E+10  0.02000  6.911E-06    0   0.4946   age213_m62            0.0000     1.1233E+04    14.6870  -1.0000    88.3299
126      0.0000     0.0000E+00    0.0000E+00    1.000000E+06  0.05000  2.651E-02    0   0.9998   age020_m72            0.0000     4.1523E+03    10.3907   3.3733    80.5683
127      0.0000     0.0000E+00    0.0000E+00    3.160000E+06  0.05000  4.817E-02    0   0.9577   age045_m72            0.0000     2.6665E+03     8.1825   3.0700    85.7812
128      0.0000     0.0000E+00    0.0000E+00    5.010000E+06  0.05000  3.101E-02    0   0.9147   age055_m72            0.0000     2.4176E+03     8.0878   2.7050    88.4279
129      0.0000     0.0000E+00    0.0000E+00    6.610000E+06  0.05000  1.472E-02    0   0.8877   age061_m72            0.0000     5.1656E+03    12.6149   2.2697    85.1165
130      0.0000     0.0000E+00    0.0000E+00    8.710000E+06  0.05000  1.050E-02    0   0.8638   age067_m72            0.0000     3.6204E+03    10.0693   2.6689    86.2349
131      0.0000     0.0000E+00    0.0000E+00    1.000000E+07  0.05000  8.954E-03    0   0.8524   age070_m72            0.0000     2.6773E+03     8.0127   2.9557    86.7934
132      0.0000     0.0000E+00    0.0000E+00    1.445000E+07  0.05000  6.392E-03    0   0.8262   age078_m72            0.0000     2.2358E+03     7.1523   2.8973    88.0721
133      0.0000     0.0000E+00    0.0000E+00    2.512000E+07  0.05000  4.207E-03    0   0.7902   age090_m72            0.0000     1.0510E+03     4.8293   2.4908    93.4433
134      0.0000     0.0000E+00    0.0000E+00    4.000000E+07  0.05000  3.198E-03    0   0.7618   age104_m72            0.0000     4.2918E+02     2.6984   1.9216   103.8882
135      0.0000     0.0000E+00    0.0000E+00    5.500000E+07  0.05000  2.593E-03    0   0.7432   age110_m72            0.0000     6.9678E+02     3.5452   1.8138   106.3827
136      0.0000     0.0000E+00    0.0000E+00    1.015200E+08  0.05000  1.716E-03    0   0.7092   age116_m72            0.0000     1.4581E+03     5.2534   1.6060   109.8428
137      0.0000     0.0000E+00    0.0000E+00    1.609000E+08  0.05000  1.218E-03    0   0.6876   age120_m72            0.0000     2.5975E+03     7.5422   1.3310   113.1703
138      0.0000     0.0000E+00    0.0000E+00    2.861200E+08  0.05000  7.047E-04    0   0.6618   age125_m72            0.0000     3.9416E+03    10.0346   0.7791   117.5507
139      0.0000     0.0000E+00    0.0000E+00    5.088000E+08  0.05000  3.590E-04    0   0.6356   age130_m72            0.0000     3.3831E+03    10.2463   0.2083   119.6125
140      0.0000     0.0000E+00    0.0000E+00    9.047900E+08  0.05000  1.484E-04    0   0.6088   age135_m72            0.0000     2.1059E+03     8.2094  -0.4882   110.4569
141      0.0000     0.0000E+00    0.0000E+00    1.278050E+09  0.05000  9.435E-05    0   0.5924   age138_m72            0.0000     3.1025E+03     9.2817  -0.8699   106.1691
142      0.0000     0.0000E+00    0.0000E+00    1.434000E+09  0.05000  7.827E-05    0   0.5847   age139_m72            0.0000     3.1263E+03     9.0577  -0.8529   105.3610
143      0.0000     0.0000E+00    0.0000E+00    2.500000E+09  0.05000  3.759E-05    0   0.5583   age150_m72            0.0000     4.7669E+03     9.5569  -1.0000    99.5729
144      0.0000     0.0000E+00    0.0000E+00    4.250000E+09  0.05000  1.842E-05    0   0.5374   age158_m72            0.0000     7.9786E+03    12.6322  -1.0000    90.4373
145      0.0000     0.0000E+00    0.0000E+00    6.250000E+09  0.05000  1.207E-05    0   0.5242   age166_m72            0.0000     1.1614E+04    15.5590  -1.0000    83.6208
146      0.0000     0.0000E+00    0.0000E+00    7.500000E+09  0.05000  9.993E-06    0   0.5183   age171_m72            0.0000     1.2310E+04    16.0782  -1.0000    82.3682
147      0.0000     0.0000E+00    0.0000E+00    1.000000E+10  0.05000  7.291E-06    0   0.5081   age181_m72            0.0000     1.4652E+04    17.5312  -1.0000    78.9544
148      0.0000     0.0000E+00    0.0000E+00    1.300000E+10  0.05000  5.316E-06    0   0.5018   age193_m72            0.0000     1.8461E+04    19.5839  -1.0000    73.9594
149      0.0000     0.0000E+00    0.0000E+00    1.500000E+10  0.05000  4.497E-06    0   0.4972   age201_m72            0.0000     2.0130E+04    20.3690  -1.0000    72.2218
150      0.0000     0.0000E+00    0.0000E+00    1.800000E+10  0.05000  3.739E-06    0   0.4924   age213_m72            0.0000     2.2479E+04    21.3910  -1.0000    69.6386


## Synthesis Results - Average & Chains ##

# j      x_j: min, <> & last-chain-values for 1 ...  7 chains
  1      0.0000      0.0026      0.0000      0.0000      0.0000      0.0000      0.0000      0.0000      0.0000
  2     33.7050     32.7590     32.8816     33.0717     32.9466     33.1110     33.1238     33.2070     32.8978
  3      0.0000      0.0096      0.0000      0.0000      0.0000      0.0000      0.0000      0.0000      0.0000
  4      0.0000      0.0021      0.0000      0.0000      0.0000      0.0000      0.0000      0.0000      0.0000
  5      0.0000      0.0018      0.0000      0.0000      0.0000      0.0000      0.0000      0.0000      0.0000
  6      0.0000      0.0017      0.0000      0.0000      0.0000      0.0000      0.0000      0.0000      0.0000
  7      0.0000      0.0030      0.0000      0.0000      0.0000      0.0000      0.0000      0.0000      0.0000
  8      0.0000      0.0081      0.0000      0.0000      0.0000      0.0622      0.0221      0.0483      0.0000
  9      0.0068      0.0316      0.0144      0.0000      0.1362      0.1507      0.0000      0.0668      0.0282
 10      0.0000      0.0244      0.0823      0.0583      0.0508      0.0000      0.0215      0.0143      0.0585
 11      6.8594      6.6649      6.6696      6.7781      6.7048      6.5866      6.5454      6.7008      6.6311
 12      0.0000      0.0379      0.0000      0.0339      0.0513      0.0000      0.0995      0.0000      0.1798
 13      0.0000      0.0370      0.0000      0.0000      0.0000      0.0140      0.2540      0.0602      0.0000
 14      0.0000      0.0163      0.0143      0.0000      0.0000      0.0214      0.0000      0.0031      0.0000
 15      0.0000      0.0311      0.1536      0.0247      0.0195      0.0000      0.0000      0.0114      0.0000
 16      0.0000      0.0353      0.0000      0.0471      0.0271      0.0540      0.0000      0.0167      0.0000
 17      0.0000      0.0429      0.0335      0.0000      0.0375      0.1002      0.0533      0.0000      0.1116
 18      0.0000      0.0756      0.3174      0.0000      0.0000      0.0000      0.0303      0.0000      0.0000
 19      0.0000      0.0861      0.0007      0.0736      0.0925      0.0812      0.0000      0.0000      0.0289
 20      0.9824      0.8330      0.9152      0.9611      0.8161      0.8347      0.7920      0.8855      0.7532
 21     17.0438     16.2784     16.4148     16.2860     16.2709     16.8162     16.2727     16.6354     16.3426
 22      0.0000      0.1217      0.1026      0.1803      0.0000      0.0017      0.2084      0.0207      0.1561
 23      4.5307      4.5140      4.2616      4.5437      4.6562      4.5307      4.5156      4.7856      4.5012
 24      0.1358      0.0713      0.0838      0.0033      0.1746      0.0000      0.0204      0.0750      0.1254
 25      0.0000      0.0406      0.0211      0.0232      0.0130      0.0660      0.0000      0.0000      0.0637
 26      0.0000      0.0024      0.0197      0.0000      0.0134      0.0000      0.0000      0.0000      0.0000
 27      0.0000      0.0070      0.0000      0.0000      0.0129      0.0000      0.0000      0.0000      0.0000
 28      0.0000      0.0031      0.0000      0.0000      0.0011      0.0000      0.0000      0.0000      0.0188
 29      0.0000      0.0025      0.0000      0.0000      0.0000      0.0000      0.0000      0.0000      0.0000
 30      0.0000      0.0051      0.0000      0.0000      0.0000      0.0000      0.0000      0.0000      0.0000
 31      0.0000      0.0023      0.0000      0.0000      0.0000      0.0000      0.0000      0.0000      0.0000
 32      0.0000      0.0074      0.0049      0.0000      0.0000      0.0000      0.0450      0.0000      0.0000
 33      0.0000      0.0082      0.0087      0.0086      0.0087      0.0000      0.0000      0.0000      0.0000
 34      0.0000      0.0289      0.0274      0.0000      0.0000      0.0000      0.0000      0.0000      0.0000
 35      0.0000      0.0384      0.0559      0.0000      0.0636      0.0916      0.0642      0.0000      0.0000
 36      1.9428      1.8728      1.9031      1.9190      2.0519      1.8824      1.9762      1.9845      1.8703
 37      1.0666      0.7623      0.7469      0.7173      0.7886      0.9101      0.6949      0.8694      0.8600
 38      0.0000      0.0508      0.0000      0.0773      0.0515      0.0655      0.0275      0.0000      0.0000
 39      0.0000      0.0406      0.0000      0.0806      0.0000      0.0000      0.0093      0.0612      0.0190
 40      0.0000      0.0317      0.0000      0.0417      0.0374      0.0000      0.1203      0.0000      0.0114
 41      0.0000      0.0456      0.0000      0.1007      0.0218      0.0040      0.0000      0.0000      0.0000
 42      0.1688      0.0805      0.0000      0.0000      0.0424      0.0247      0.0420      0.0614      0.0587
 43     33.7261     33.7942     34.1422     33.9027     33.8998     33.6993     33.8567     33.8035     34.1564
 44      3.1385      3.3534      3.3807      3.2904      3.2839      3.4188      3.2731      3.3448      3.3743
 45      0.2034      0.2869      0.2863      0.0895      0.3166      0.2701      0.2860      0.2857      0.2817
 46      0.3407      0.3040      0.3380      0.3710      0.3444      0.3242      0.3131      0.2614      0.2868
 47      0.0000      0.0229      0.0340      0.0019      0.0000      0.0187      0.0000      0.0000      0.0400
 48      0.0000      0.0451      0.0812      0.1986      0.0233      0.0000      0.0164      0.0000      0.0279
 49      0.0000      0.0332      0.0000      0.0517      0.0680      0.0000      0.0554      0.0000      0.0000
 50      0.0000      0.0355      0.0602      0.0000      0.0226      0.0000      0.1108      0.0000      0.0159
 51      0.0000      0.0022      0.0000      0.0000      0.0000      0.0000      0.0000      0.0000      0.0000
 52      0.0000      0.0195      0.0000      0.0716      0.0000      0.0000      0.0000      0.0007      0.0000
 53      0.0000      0.0116      0.0198      0.0000      0.0000      0.0000      0.0166      0.0000      0.0000
 54      0.0000      0.1054      0.0044      0.1080      0.0452      0.0349      0.1279      0.0933      0.2516
 55      0.0000      0.0149      0.0000      0.0000      0.0000      0.0000      0.0000      0.0000      0.0000
 56      0.0000      0.0167      0.0000      0.0000      0.0000      0.0000      0.0000      0.0143      0.1025
 57      0.0000      0.0093      0.0000      0.0000      0.0000      0.0000      0.0000      0.0000      0.0000
 58      0.0000      0.0084      0.0000      0.0000      0.0000      0.0000      0.0000      0.0000      0.0000
 59      0.0000      0.0096      0.0348      0.0000      0.0022      0.0000      0.0230      0.0000      0.0054
 60      0.0000      0.0219      0.0000      0.0000      0.0000      0.0000      0.0000      0.0000      0.0239
 61      0.0000      0.0313      0.0000      0.0941      0.0000      0.0000      0.0241      0.0281      0.0000
 62      0.0000      0.0348      0.0000      0.0203      0.1609      0.0299      0.0965      0.0000      0.0000
 63      0.0000      0.0251      0.0000      0.0142      0.0000      0.0000      0.0303      0.0256      0.0000
 64      0.0000      0.0188      0.0127      0.0000      0.0394      0.0000      0.0000      0.0391      0.0045
 65      0.0000      0.0177      0.0000      0.0000      0.0000      0.0000      0.0000      0.0055      0.0000
 66      0.0000      0.0050      0.0000      0.0000      0.0000      0.0000      0.0000      0.0000      0.0000
 67      0.0000      0.0121      0.0000      0.0574      0.0000      0.0000      0.0069      0.0000      0.0000
 68      0.0000      0.0050      0.0000      0.0000      0.0000      0.0000      0.0000      0.0000      0.0000
 69      0.0000      0.0046      0.0209      0.0000      0.0000      0.0000      0.0000      0.0000      0.0000
 70      0.0000      0.0091      0.0000      0.0000      0.0000      0.0000      0.0000      0.0000      0.0000
 71      0.0000      0.0045      0.0000      0.0000      0.0378      0.0000      0.0000      0.0000      0.0116
 72      0.0000      0.0031      0.0000      0.0000      0.0000      0.0000      0.0023      0.0000      0.0000
 73      0.0000      0.0063      0.0000      0.0046      0.0000      0.0000      0.0000      0.0422      0.0000
 74      0.0000      0.0031      0.0000      0.0000      0.0000      0.0000      0.0000      0.0000      0.0000
 75      0.0000      0.0024      0.0000      0.0000      0.0000      0.0000      0.0000      0.0000      0.0000
 76      0.0000      0.0023      0.0000      0.0000      0.0295      0.0000      0.0000      0.0000      0.0000
 77      0.0000      0.0025      0.0000      0.0000      0.0000      0.0000      0.0000      0.0000      0.0000
 78      0.0000      0.0034      0.0000      0.0000      0.0000      0.0000      0.0000      0.0034      0.0000
 79      0.0000      0.0114      0.0072      0.0116      0.0000      0.0000      0.0000      0.0474      0.0000
 80      0.0000      0.0081      0.0000      0.0000      0.0000      0.0000      0.0000      0.0000      0.0000
 81      0.0000      0.0099      0.0150      0.0000      0.0000      0.0000      0.0000      0.0242      0.0000
 82      0.0000      0.0155      0.0000      0.0000      0.0000      0.0172      0.0000      0.0000      0.0000
 83      0.0000      0.0463      0.0425      0.0126      0.1362      0.0000      0.0730      0.0000      0.0000
 84      0.0000      0.0424      0.1804      0.0127      0.0000      0.0000      0.0000      0.0102      0.1067
 85      0.0000      0.0319      0.0000      0.0000      0.0000      0.0597      0.0205      0.0471      0.0000
 86      0.0000      0.0246      0.0000      0.1195      0.0000      0.0292      0.0215      0.0000      0.0000
 87      0.0000      0.0233      0.0000      0.0001      0.0331      0.0764      0.0594      0.0000      0.0000
 88      0.0000      0.0138      0.0000      0.0000      0.0000      0.0000      0.0000      0.0000      0.0000
 89      0.0000      0.0082      0.0000      0.0164      0.0000      0.0000      0.0000      0.0000      0.0070
 90      0.0000      0.0044      0.0000      0.0000      0.0000      0.0000      0.0000      0.0000      0.0000
 91      0.0000      0.0049      0.0000      0.0000      0.0000      0.0000      0.0000      0.0000      0.0014
 92      0.0000      0.0057      0.0000      0.0000      0.0000      0.0000      0.0000      0.0000      0.0000
 93      0.0000      0.0055      0.0000      0.0000      0.0000      0.0000      0.0000      0.0000      0.0000
 94      0.0000      0.0046      0.0000      0.0000      0.0000      0.0000      0.0000      0.0000      0.0000
 95      0.0000      0.0028      0.0000      0.0000      0.0000      0.0024      0.0054      0.0000      0.0033
 96      0.0000      0.0046      0.0007      0.0000      0.0000      0.0000      0.0000      0.0000      0.0000
 97      0.0000      0.0029      0.0000      0.0061      0.0000      0.0051      0.0000      0.0000      0.0000
 98      0.0000      0.0025      0.0000      0.0000      0.0000      0.0229      0.0000      0.0000      0.0000
 99      0.0000      0.0011      0.0000      0.0000      0.0000      0.0000      0.0000      0.0000      0.0000
100      0.0000      0.0017      0.0000      0.0000      0.0000      0.0000      0.0000      0.0000      0.0000
101      0.0000      0.0023      0.0055      0.0000      0.0000      0.0000      0.0000      0.0051      0.0000
102      0.0000      0.0025      0.0000      0.0000      0.0000      0.0000      0.0000      0.0000      0.0000
103      0.0000      0.0289      0.1196      0.0000      0.0000      0.0000      0.0000      0.0000      0.0585
104      0.0000      0.0086      0.0000      0.0000      0.0000      0.0000      0.0000      0.0000      0.0000
105      0.0000      0.0072      0.0000      0.0000      0.0000      0.0000      0.0000      0.0000      0.0000
106      0.0000      0.0077      0.0000      0.0177      0.0000      0.0000      0.0000      0.0000      0.0000
107      0.0000      0.0070      0.0000      0.0000      0.0000      0.0340      0.0000      0.0000      0.0000
108      0.0000      0.0098      0.0291      0.0000      0.0000      0.0000      0.0000      0.0000      0.0000
109      0.0000      0.0163      0.0000      0.0000      0.0266      0.0000      0.0000      0.0000      0.0000
110      0.0000      0.0230      0.0052      0.0000      0.0000      0.0069      0.0215      0.0067      0.0000
111      0.0000      0.0195      0.0000      0.0114      0.0000      0.0547      0.0136      0.0000      0.0000
112      0.0000      0.0309      0.0519      0.0000      0.0000      0.0409      0.0654      0.0000      0.0000
113      0.0000      0.0178      0.0000      0.0000      0.0182      0.0000      0.0000      0.0000      0.0000
114      0.0000      0.0106      0.0000      0.0000      0.0000      0.0000      0.0000      0.0279      0.0188
115      0.0000      0.0086      0.0000      0.0000      0.0181      0.0000      0.0000      0.0000      0.0638
116      0.0000      0.0118      0.0000      0.0056      0.0000      0.0000      0.0000      0.0000      0.0000
117      0.0000      0.0066      0.0019      0.0028      0.0000      0.0237      0.0000      0.0000      0.0000
118      0.0000      0.0075      0.0000      0.0000      0.0000      0.0620      0.0000      0.0000      0.0000
119      0.0000      0.0032      0.0000      0.0000      0.0261      0.0000      0.0000      0.0000      0.0220
120      0.0000      0.0013      0.0000      0.0000      0.0000      0.0000      0.0000      0.0000      0.0000
121      0.0000      0.0026      0.0000      0.0000      0.0000      0.0000      0.0000      0.0000      0.0000
122      0.0000      0.0037      0.0000      0.0000      0.0000      0.0000      0.0000      0.0000      0.0000
123      0.0000      0.0018      0.0000      0.0000      0.0000      0.0000      0.0000      0.0000      0.0000
124      0.0000      0.0026      0.0000      0.0000      0.0000      0.0000      0.0000      0.0000      0.0000
125      0.0000      0.0062      0.0260      0.0000      0.0320      0.0000      0.0000      0.0000      0.0000
126      0.0000      0.0039      0.0000      0.0000      0.0000      0.0000      0.0000      0.0013      0.0128
127      0.0000      0.0040      0.0000      0.0000      0.0000      0.0000      0.0000      0.0000      0.0000
128      0.0000      0.0093      0.0000      0.0000      0.0000      0.0000      0.0000      0.0000      0.0000
129      0.0000      0.0182      0.0000      0.0164      0.0000      0.0000      0.1131      0.0000      0.0000
130      0.0000      0.0093      0.0000      0.0697      0.0168      0.0000      0.0082      0.0000      0.0000
131      0.0000      0.0036      0.0052      0.0000      0.0000      0.0303      0.0000      0.0000      0.0000
132      0.0000      0.0019      0.0000      0.0000      0.0000      0.0000      0.0000      0.0000      0.0000
133      0.0000      0.0044      0.0364      0.0107      0.0000      0.0000      0.0000      0.0000      0.0000
134      0.0000      0.0188      0.0671      0.0043      0.0000      0.0240      0.0000      0.0000      0.0000
135      0.0000      0.0153      0.0000      0.0545      0.0000      0.0633      0.0000      0.0156      0.0000
136      0.0000      0.0454      0.0000      0.0140      0.1015      0.0000      0.0518      0.0524      0.0933
137      0.0000      0.0233      0.0039      0.0000      0.0000      0.0000      0.0375      0.0028      0.0714
138      0.0000      0.0258      0.0000      0.0193      0.0000      0.0000      0.0000      0.0521      0.0000
139      0.0000      0.0203      0.0000      0.0000      0.0000      0.0677      0.0000      0.0000      0.0000
140      0.0000      0.0083      0.0000      0.0000      0.0000      0.0000      0.0000      0.0000      0.0153
141      0.0000      0.0081      0.0088      0.0000      0.0000      0.0000      0.0000      0.0066      0.0000
142      0.0000      0.0099      0.0085      0.0000      0.0000      0.0000      0.0068      0.0000      0.0000
143      0.0000      0.0078      0.0000      0.0282      0.0000      0.0000      0.0194      0.0000      0.0000
144      0.0000      0.0187      0.0134      0.0217      0.0127      0.0000      0.0589      0.0000      0.0363
145      0.0000      0.0035      0.0000      0.0000      0.0000      0.0000      0.0000      0.0000      0.0000
146      0.0000      0.0183      0.0149      0.0000      0.0038      0.0000      0.0404      0.0075      0.0502
147      0.0000      0.0293      0.0288      0.1227      0.0471      0.0000      0.0417      0.0403      0.0181
148      0.0000      0.0030      0.0097      0.0000      0.0000      0.0000      0.0000      0.0000      0.0000
149      0.0000      0.0276      0.0324      0.0000      0.0302      0.0504      0.0255      0.0241      0.0000
150      0.0000      0.0094      0.0000      0.0000      0.0048      0.0085      0.0160      0.0469      0.0000

# j      m_j: min, <> & last-chain-values for 1 ...  7 chains
  1  0.0000E+00  8.5482E-05  0.0000E+00  0.0000E+00  0.0000E+00  0.0000E+00  0.0000E+00  0.0000E+00  0.0000E+00
  2  1.9476E-01  1.8451E-01  1.8574E-01  1.8634E-01  1.8477E-01  1.8755E-01  1.8637E-01  1.8516E-01  1.8749E-01
  3  0.0000E+00  1.2782E-04  0.0000E+00  0.0000E+00  0.0000E+00  0.0000E+00  0.0000E+00  0.0000E+00  0.0000E+00
  4  0.0000E+00  5.2639E-05  0.0000E+00  0.0000E+00  0.0000E+00  0.0000E+00  0.0000E+00  0.0000E+00  0.0000E+00
  5  0.0000E+00  5.7159E-05  0.0000E+00  0.0000E+00  0.0000E+00  0.0000E+00  0.0000E+00  0.0000E+00  0.0000E+00
  6  0.0000E+00  6.4400E-05  0.0000E+00  0.0000E+00  0.0000E+00  0.0000E+00  0.0000E+00  0.0000E+00  0.0000E+00
  7  0.0000E+00  1.4337E-04  0.0000E+00  0.0000E+00  0.0000E+00  0.0000E+00  0.0000E+00  0.0000E+00  0.0000E+00
  8  0.0000E+00  4.3469E-04  0.0000E+00  0.0000E+00  0.0000E+00  3.3380E-03  1.1801E-03  2.5549E-03  0.0000E+00
  9  3.9905E-04  1.8139E-03  8.2678E-04  0.0000E+00  7.7917E-03  8.7079E-03  0.0000E+00  3.7982E-03  1.6394E-03
 10  0.0000E+00  1.6044E-03  5.4308E-03  3.8415E-03  3.3269E-03  0.0000E+00  1.4118E-03  9.3319E-04  3.8979E-03
 11  5.5386E-01  5.2456E-01  5.2644E-01  5.3366E-01  5.2543E-01  5.2134E-01  5.1460E-01  5.2211E-01  5.2809E-01
 12  0.0000E+00  5.2149E-03  0.0000E+00  4.6729E-03  7.0377E-03  0.0000E+00  1.3680E-02  0.0000E+00  2.5043E-02
 13  0.0000E+00  5.9140E-03  0.0000E+00  0.0000E+00  0.0000E+00  2.2529E-03  4.0561E-02  9.5355E-03  0.0000E+00
 14  0.0000E+00  3.7037E-03  3.2468E-03  0.0000E+00  0.0000E+00  4.8747E-03  0.0000E+00  6.9425E-04  0.0000E+00
 15  0.0000E+00  1.0651E-02  5.2789E-02  8.4852E-03  6.6552E-03  0.0000E+00  0.0000E+00  3.8831E-03  0.0000E+00
 16  0.0000E+00  1.7544E-02  0.0000E+00  2.3399E-02  1.3376E-02  2.6929E-02  0.0000E+00  8.1899E-03  0.0000E+00
 17  0.0000E+00  2.3642E-02  1.8501E-02  0.0000E+00  2.0558E-02  5.5501E-02  2.9343E-02  0.0000E+00  6.2228E-02
 18  0.0000E+00  6.7883E-02  2.8565E-01  0.0000E+00  0.0000E+00  0.0000E+00  2.7194E-02  0.0000E+00  0.0000E+00
 19  0.0000E+00  1.1708E-01  9.3666E-04  1.0015E-01  1.2524E-01  1.1111E-01  0.0000E+00  0.0000E+00  3.9724E-02
 20  1.9605E+00  1.6204E+00  1.7854E+00  1.8703E+00  1.5807E+00  1.6330E+00  1.5390E+00  1.7054E+00  1.4825E+00
 21  3.9351E+01  3.6635E+01  3.7048E+01  3.6665E+01  3.6461E+01  3.8060E+01  3.6583E+01  3.7064E+01  3.7215E+01
 22  0.0000E+00  3.5347E-01  2.9870E-01  5.2369E-01  0.0000E+00  4.9680E-03  6.0432E-01  5.9500E-02  4.5876E-01
 23  1.7109E+01  1.6615E+01  1.5731E+01  1.6730E+01  1.7064E+01  1.6771E+01  1.6603E+01  1.7438E+01  1.6764E+01
 24  5.8662E-01  3.0008E-01  3.5364E-01  1.4100E-02  7.3190E-01  0.0000E+00  8.5642E-02  3.1248E-01  5.3395E-01
 25  0.0000E+00  2.0542E-01  1.0684E-01  1.1753E-01  6.5449E-02  3.3575E-01  0.0000E+00  0.0000E+00  3.2606E-01
 26  0.0000E+00  7.4913E-05  6.2755E-04  0.0000E+00  4.2327E-04  0.0000E+00  0.0000E+00  0.0000E+00  0.0000E+00
 27  0.0000E+00  4.7051E-05  0.0000E+00  0.0000E+00  8.6398E-05  0.0000E+00  0.0000E+00  0.0000E+00  0.0000E+00
 28  0.0000E+00  4.0502E-05  0.0000E+00  0.0000E+00  1.4385E-05  0.0000E+00  0.0000E+00  0.0000E+00  2.5166E-04
 29  0.0000E+00  5.1832E-05  0.0000E+00  0.0000E+00  0.0000E+00  0.0000E+00  0.0000E+00  0.0000E+00  0.0000E+00
 30  0.0000E+00  1.3143E-04  0.0000E+00  0.0000E+00  0.0000E+00  0.0000E+00  0.0000E+00  0.0000E+00  0.0000E+00
 31  0.0000E+00  6.8964E-05  0.0000E+00  0.0000E+00  0.0000E+00  0.0000E+00  0.0000E+00  0.0000E+00  0.0000E+00
 32  0.0000E+00  2.4065E-04  1.6019E-04  0.0000E+00  0.0000E+00  0.0000E+00  1.4705E-03  0.0000E+00  0.0000E+00
 33  0.0000E+00  3.8234E-04  4.0408E-04  3.9833E-04  4.0183E-04  0.0000E+00  0.0000E+00  0.0000E+00  0.0000E+00
 34  0.0000E+00  1.6319E-03  1.5514E-03  0.0000E+00  0.0000E+00  0.0000E+00  0.0000E+00  0.0000E+00  0.0000E+00
 35  0.0000E+00  2.6239E-03  3.8269E-03  0.0000E+00  4.3217E-03  6.2881E-03  4.3741E-03  0.0000E+00  0.0000E+00
 36  1.7442E-01  1.6389E-01  1.6701E-01  1.6799E-01  1.7878E-01  1.6566E-01  1.7275E-01  1.7192E-01  1.6560E-01
 37  1.1899E-01  8.2897E-02  8.1456E-02  7.8032E-02  8.5384E-02  9.9522E-02  7.5483E-02  9.3598E-02  9.4623E-02
 38  0.0000E+00  7.6999E-03  0.0000E+00  1.1707E-02  7.7589E-03  9.9727E-03  4.1650E-03  0.0000E+00  0.0000E+00
 39  0.0000E+00  9.1824E-03  0.0000E+00  1.8218E-02  0.0000E+00  0.0000E+00  2.1012E-03  1.3696E-02  4.3531E-03
 40  0.0000E+00  1.2639E-02  0.0000E+00  1.6644E-02  1.4834E-02  0.0000E+00  4.7914E-02  0.0000E+00  4.6118E-03
 41  0.0000E+00  2.4348E-02  0.0000E+00  5.3830E-02  1.1596E-02  2.1268E-03  0.0000E+00  0.0000E+00  0.0000E+00
 42  1.0332E-01  4.7997E-02  0.0000E+00  0.0000E+00  2.5187E-02  1.4839E-02  2.5046E-02  3.6227E-02  3.5456E-02
 43  3.3570E+01  3.2788E+01  3.3221E+01  3.2905E+01  3.2749E+01  3.2882E+01  3.2813E+01  3.2469E+01  3.3532E+01
 44  4.9406E+00  5.1456E+00  5.2024E+00  5.0507E+00  5.0173E+00  5.2757E+00  5.0170E+00  5.0810E+00  5.2390E+00
 45  4.4622E-01  6.1352E-01  6.1397E-01  1.9157E-01  6.7412E-01  5.8090E-01  6.1090E-01  6.0496E-01  6.0952E-01
 46  8.9056E-01  7.7440E-01  8.6365E-01  9.4553E-01  8.7355E-01  8.3053E-01  7.9681E-01  6.5938E-01  7.3945E-01
 47  0.0000E+00  7.6320E-02  1.1402E-01  6.1965E-03  0.0000E+00  6.2762E-02  0.0000E+00  0.0000E+00  1.3512E-01
 48  0.0000E+00  1.7939E-01  3.2361E-01  7.8995E-01  9.2308E-02  0.0000E+00  6.5109E-02  0.0000E+00  1.1236E-01
 49  0.0000E+00  1.4773E-01  0.0000E+00  2.2989E-01  3.0134E-01  0.0000E+00  2.4610E-01  0.0000E+00  0.0000E+00
 50  0.0000E+00  1.8556E-01  3.1565E-01  0.0000E+00  1.1768E-01  0.0000E+00  5.7908E-01  0.0000E+00  8.4078E-02
 51  0.0000E+00  5.3985E-05  0.0000E+00  0.0000E+00  0.0000E+00  0.0000E+00  0.0000E+00  0.0000E+00  0.0000E+00
 52  0.0000E+00  1.2856E-04  0.0000E+00  4.7100E-04  0.0000E+00  0.0000E+00  0.0000E+00  4.6887E-06  0.0000E+00
 53  0.0000E+00  1.1599E-04  1.9973E-04  0.0000E+00  0.0000E+00  0.0000E+00  1.6601E-04  0.0000E+00  0.0000E+00
 54  4.8268E-08  1.0083E-03  4.2323E-05  1.0338E-03  4.3037E-04  3.3591E-04  1.2223E-03  8.8400E-04  2.4357E-03
 55  0.0000E+00  2.1068E-04  0.0000E+00  0.0000E+00  0.0000E+00  0.0000E+00  0.0000E+00  0.0000E+00  0.0000E+00
 56  0.0000E+00  3.1133E-04  0.0000E+00  0.0000E+00  0.0000E+00  0.0000E+00  0.0000E+00  2.6439E-04  1.9379E-03
 57  0.0000E+00  2.7998E-04  0.0000E+00  0.0000E+00  0.0000E+00  0.0000E+00  0.0000E+00  0.0000E+00  0.0000E+00
 58  0.0000E+00  3.6474E-04  0.0000E+00  0.0000E+00  0.0000E+00  0.0000E+00  0.0000E+00  0.0000E+00  0.0000E+00
 59  0.0000E+00  5.7870E-04  2.0952E-03  0.0000E+00  1.3089E-04  0.0000E+00  1.3772E-03  0.0000E+00  3.3052E-04
 60  0.0000E+00  1.4659E-03  0.0000E+00  0.0000E+00  0.0000E+00  0.0000E+00  0.0000E+00  0.0000E+00  1.6200E-03
 61  0.0000E+00  2.6683E-03  0.0000E+00  8.0172E-03  0.0000E+00  0.0000E+00  2.0471E-03  2.3713E-03  0.0000E+00
 62  0.0000E+00  3.7624E-03  0.0000E+00  2.1974E-03  1.7298E-02  3.2459E-03  1.0411E-02  0.0000E+00  0.0000E+00
 63  0.0000E+00  4.1281E-03  0.0000E+00  2.3280E-03  0.0000E+00  0.0000E+00  4.9747E-03  4.1597E-03  0.0000E+00
 64  0.0000E+00  5.0813E-03  3.4369E-03  0.0000E+00  1.0604E-02  0.0000E+00  0.0000E+00  1.0451E-02  1.2359E-03
 65  0.0000E+00  8.0623E-03  0.0000E+00  0.0000E+00  0.0000E+00  0.0000E+00  0.0000E+00  2.4935E-03  0.0000E+00
 66  0.0000E+00  2.9134E-03  0.0000E+00  0.0000E+00  0.0000E+00  0.0000E+00  0.0000E+00  0.0000E+00  0.0000E+00
 67  0.0000E+00  9.7371E-03  0.0000E+00  4.6035E-02  0.0000E+00  0.0000E+00  5.5284E-03  0.0000E+00  0.0000E+00
 68  0.0000E+00  7.4931E-03  0.0000E+00  0.0000E+00  0.0000E+00  0.0000E+00  0.0000E+00  0.0000E+00  0.0000E+00
 69  0.0000E+00  1.1718E-02  5.3858E-02  0.0000E+00  0.0000E+00  0.0000E+00  0.0000E+00  0.0000E+00  0.0000E+00
 70  0.0000E+00  3.2448E-02  0.0000E+00  0.0000E+00  0.0000E+00  0.0000E+00  0.0000E+00  0.0000E+00  0.0000E+00
 71  0.0000E+00  1.8939E-02  0.0000E+00  0.0000E+00  1.5893E-01  0.0000E+00  0.0000E+00  0.0000E+00  4.9685E-02
 72  0.0000E+00  1.7495E-02  0.0000E+00  0.0000E+00  0.0000E+00  0.0000E+00  1.2654E-02  0.0000E+00  0.0000E+00
 73  0.0000E+00  4.4366E-02  0.0000E+00  3.1972E-02  0.0000E+00  0.0000E+00  0.0000E+00  2.9333E-01  0.0000E+00
 74  0.0000E+00  2.4102E-02  0.0000E+00  0.0000E+00  0.0000E+00  0.0000E+00  0.0000E+00  0.0000E+00  0.0000E+00
 75  0.0000E+00  2.1233E-02  0.0000E+00  0.0000E+00  0.0000E+00  0.0000E+00  0.0000E+00  0.0000E+00  0.0000E+00
 76  0.0000E+00  4.6908E-05  0.0000E+00  0.0000E+00  6.1224E-04  0.0000E+00  0.0000E+00  0.0000E+00  0.0000E+00
 77  0.0000E+00  2.1246E-05  0.0000E+00  0.0000E+00  0.0000E+00  0.0000E+00  0.0000E+00  0.0000E+00  0.0000E+00
 78  0.0000E+00  3.1917E-05  0.0000E+00  0.0000E+00  0.0000E+00  0.0000E+00  0.0000E+00  3.1810E-05  0.0000E+00
 79  0.0000E+00  1.3001E-04  8.2524E-05  1.3248E-04  0.0000E+00  0.0000E+00  0.0000E+00  5.3719E-04  0.0000E+00
 80  0.0000E+00  1.1871E-04  0.0000E+00  0.0000E+00  0.0000E+00  0.0000E+00  0.0000E+00  0.0000E+00  0.0000E+00
 81  0.0000E+00  1.9226E-04  2.9224E-04  0.0000E+00  0.0000E+00  0.0000E+00  0.0000E+00  4.6655E-04  0.0000E+00
 82  0.0000E+00  4.0636E-04  0.0000E+00  0.0000E+00  0.0000E+00  4.5354E-04  0.0000E+00  0.0000E+00  0.0000E+00
 83  0.0000E+00  1.7865E-03  1.6428E-03  4.8498E-04  5.2256E-03  0.0000E+00  2.8107E-03  0.0000E+00  0.0000E+00
 84  0.0000E+00  2.2599E-03  9.6538E-03  6.7657E-04  0.0000E+00  0.0000E+00  0.0000E+00  5.4053E-04  5.7630E-03
 85  0.0000E+00  2.0653E-03  0.0000E+00  0.0000E+00  0.0000E+00  3.8921E-03  1.3268E-03  3.0200E-03  0.0000E+00
 86  0.0000E+00  2.1607E-03  0.0000E+00  1.0498E-02  0.0000E+00  2.5821E-03  1.8887E-03  0.0000E+00  0.0000E+00
 87  0.0000E+00  2.7191E-03  0.0000E+00  6.2762E-06  3.8577E-03  8.9839E-03  6.9360E-03  0.0000E+00  0.0000E+00
 88  0.0000E+00  2.4645E-03  0.0000E+00  0.0000E+00  0.0000E+00  0.0000E+00  0.0000E+00  0.0000E+00  0.0000E+00
 89  0.0000E+00  2.4192E-03  0.0000E+00  4.8625E-03  0.0000E+00  0.0000E+00  0.0000E+00  0.0000E+00  2.0928E-03
 90  0.0000E+00  2.4092E-03  0.0000E+00  0.0000E+00  0.0000E+00  0.0000E+00  0.0000E+00  0.0000E+00  0.0000E+00
 91  0.0000E+00  3.4462E-03  0.0000E+00  0.0000E+00  0.0000E+00  0.0000E+00  0.0000E+00  0.0000E+00  1.0263E-03
 92  0.0000E+00  5.3709E-03  0.0000E+00  0.0000E+00  0.0000E+00  0.0000E+00  0.0000E+00  0.0000E+00  0.0000E+00
 93  0.0000E+00  1.0555E-02  0.0000E+00  0.0000E+00  0.0000E+00  0.0000E+00  0.0000E+00  0.0000E+00  0.0000E+00
 94  0.0000E+00  1.5667E-02  0.0000E+00  0.0000E+00  0.0000E+00  0.0000E+00  0.0000E+00  0.0000E+00  0.0000E+00
 95  0.0000E+00  1.2858E-02  0.0000E+00  0.0000E+00  0.0000E+00  1.1059E-02  2.4838E-02  0.0000E+00  1.5678E-02
 96  0.0000E+00  2.5948E-02  3.7977E-03  0.0000E+00  0.0000E+00  0.0000E+00  0.0000E+00  0.0000E+00  0.0000E+00
 97  0.0000E+00  2.1181E-02  0.0000E+00  4.4677E-02  0.0000E+00  3.7334E-02  0.0000E+00  0.0000E+00  0.0000E+00
 98  0.0000E+00  2.2964E-02  0.0000E+00  0.0000E+00  0.0000E+00  2.1522E-01  0.0000E+00  0.0000E+00  0.0000E+00
 99  0.0000E+00  1.1971E-02  0.0000E+00  0.0000E+00  0.0000E+00  0.0000E+00  0.0000E+00  0.0000E+00  0.0000E+00
100  0.0000E+00  2.0228E-02  0.0000E+00  0.0000E+00  0.0000E+00  0.0000E+00  0.0000E+00  0.0000E+00  0.0000E+00
101  0.0000E+00  3.0515E-05  7.4570E-05  0.0000E+00  0.0000E+00  0.0000E+00  0.0000E+00  6.7541E-05  0.0000E+00
102  0.0000E+00  1.7425E-05  0.0000E+00  0.0000E+00  0.0000E+00  0.0000E+00  0.0000E+00  0.0000E+00  0.0000E+00
103  0.0000E+00  2.2432E-04  9.3070E-04  0.0000E+00  0.0000E+00  0.0000E+00  0.0000E+00  0.0000E+00  4.5961E-04
104  0.0000E+00  8.7992E-05  0.0000E+00  0.0000E+00  0.0000E+00  0.0000E+00  0.0000E+00  0.0000E+00  0.0000E+00
105  0.0000E+00  1.5568E-04  0.0000E+00  0.0000E+00  0.0000E+00  0.0000E+00  0.0000E+00  0.0000E+00  0.0000E+00
106  0.0000E+00  1.7844E-04  0.0000E+00  4.0996E-04  0.0000E+00  0.0000E+00  0.0000E+00  0.0000E+00  0.0000E+00
107  0.0000E+00  2.1779E-04  0.0000E+00  0.0000E+00  0.0000E+00  1.0601E-03  0.0000E+00  0.0000E+00  0.0000E+00
108  0.0000E+00  5.0538E-04  1.5062E-03  0.0000E+00  0.0000E+00  0.0000E+00  0.0000E+00  0.0000E+00  0.0000E+00
109  0.0000E+00  1.0085E-03  0.0000E+00  0.0000E+00  1.6406E-03  0.0000E+00  0.0000E+00  0.0000E+00  0.0000E+00
110  0.0000E+00  1.7064E-03  3.8970E-04  0.0000E+00  0.0000E+00  5.1124E-04  1.5932E-03  4.9374E-04  0.0000E+00
111  0.0000E+00  2.0092E-03  0.0000E+00  1.1747E-03  0.0000E+00  5.6699E-03  1.4050E-03  0.0000E+00  0.0000E+00
112  0.0000E+00  4.1995E-03  7.0711E-03  0.0000E+00  0.0000E+00  5.5896E-03  8.8708E-03  0.0000E+00  0.0000E+00
113  0.0000E+00  3.6042E-03  0.0000E+00  0.0000E+00  3.6654E-03  0.0000E+00  0.0000E+00  0.0000E+00  0.0000E+00
114  0.0000E+00  3.7625E-03  0.0000E+00  0.0000E+00  0.0000E+00  0.0000E+00  0.0000E+00  9.8552E-03  6.7820E-03
115  0.0000E+00  6.1583E-03  0.0000E+00  0.0000E+00  1.2836E-02  0.0000E+00  0.0000E+00  0.0000E+00  4.6032E-02
116  0.0000E+00  1.3465E-02  0.0000E+00  6.4598E-03  0.0000E+00  0.0000E+00  0.0000E+00  0.0000E+00  0.0000E+00
117  0.0000E+00  8.8834E-03  2.6318E-03  3.7840E-03  0.0000E+00  3.2030E-02  0.0000E+00  0.0000E+00  0.0000E+00
118  0.0000E+00  2.0408E-02  0.0000E+00  0.0000E+00  0.0000E+00  1.7019E-01  0.0000E+00  0.0000E+00  0.0000E+00
119  0.0000E+00  1.5082E-02  0.0000E+00  0.0000E+00  1.2253E-01  0.0000E+00  0.0000E+00  0.0000E+00  1.0493E-01
120  0.0000E+00  8.6946E-03  0.0000E+00  0.0000E+00  0.0000E+00  0.0000E+00  0.0000E+00  0.0000E+00  0.0000E+00
121  0.0000E+00  2.0633E-02  0.0000E+00  0.0000E+00  0.0000E+00  0.0000E+00  0.0000E+00  0.0000E+00  0.0000E+00
122  0.0000E+00  3.9200E-02  0.0000E+00  0.0000E+00  0.0000E+00  0.0000E+00  0.0000E+00  0.0000E+00  0.0000E+00
123  0.0000E+00  2.5214E-02  0.0000E+00  0.0000E+00  0.0000E+00  0.0000E+00  0.0000E+00  0.0000E+00  0.0000E+00
124  0.0000E+00  4.1061E-02  0.0000E+00  0.0000E+00  0.0000E+00  6.2077E-04  0.0000E+00  0.0000E+00  0.0000E+00
125  0.0000E+00  1.1929E-01  4.9947E-01  0.0000E+00  6.1042E-01  0.0000E+00  0.0000E+00  0.0000E+00  0.0000E+00
126  0.0000E+00  3.9245E-05  0.0000E+00  0.0000E+00  0.0000E+00  0.0000E+00  0.0000E+00  1.3093E-05  1.3092E-04
127  0.0000E+00  2.1521E-05  0.0000E+00  0.0000E+00  0.0000E+00  0.0000E+00  0.0000E+00  0.0000E+00  0.0000E+00
128  0.0000E+00  7.3297E-05  0.0000E+00  0.0000E+00  0.0000E+00  0.0000E+00  0.0000E+00  0.0000E+00  0.0000E+00
129  0.0000E+00  2.9473E-04  0.0000E+00  2.6485E-04  0.0000E+00  0.0000E+00  1.8255E-03  0.0000E+00  0.0000E+00
130  0.0000E+00  2.0419E-04  0.0000E+00  1.5377E-03  3.6902E-04  0.0000E+00  1.7988E-04  0.0000E+00  0.0000E+00
131  0.0000E+00  9.2167E-05  1.3348E-04  0.0000E+00  0.0000E+00  7.7778E-04  0.0000E+00  0.0000E+00  0.0000E+00
132  0.0000E+00  6.7119E-05  0.0000E+00  0.0000E+00  0.0000E+00  0.0000E+00  0.0000E+00  0.0000E+00  0.0000E+00
133  0.0000E+00  2.2133E-04  1.8392E-03  5.4072E-04  0.0000E+00  0.0000E+00  0.0000E+00  0.0000E+00  0.0000E+00
134  0.0000E+00  1.1994E-03  4.2969E-03  2.7267E-04  0.0000E+00  1.5399E-03  0.0000E+00  0.0000E+00  0.0000E+00
135  0.0000E+00  1.1785E-03  0.0000E+00  4.1885E-03  0.0000E+00  4.8883E-03  0.0000E+00  1.1860E-03  0.0000E+00
136  0.0000E+00  5.0305E-03  0.0000E+00  1.5508E-03  1.1191E-02  0.0000E+00  5.7325E-03  5.7519E-03  1.0461E-02
137  0.0000E+00  3.5323E-03  5.9884E-04  0.0000E+00  0.0000E+00  0.0000E+00  5.6754E-03  4.1252E-04  1.0933E-02
138  0.0000E+00  6.4821E-03  0.0000E+00  4.8481E-03  0.0000E+00  0.0000E+00  0.0000E+00  1.2977E-02  0.0000E+00
139  0.0000E+00  9.6179E-03  0.0000E+00  0.0000E+00  0.0000E+00  3.2317E-02  0.0000E+00  0.0000E+00  0.0000E+00
140  0.0000E+00  9.1728E-03  0.0000E+00  0.0000E+00  0.0000E+00  0.0000E+00  0.0000E+00  0.0000E+00  1.6973E-02
141  0.0000E+00  1.3683E-02  1.4930E-02  0.0000E+00  0.0000E+00  0.0000E+00  0.0000E+00  1.0988E-02  0.0000E+00
142  0.0000E+00  1.9838E-02  1.7050E-02  0.0000E+00  0.0000E+00  0.0000E+00  1.3698E-02  0.0000E+00  0.0000E+00
143  0.0000E+00  3.0888E-02  0.0000E+00  1.1213E-01  0.0000E+00  0.0000E+00  7.7189E-02  0.0000E+00  0.0000E+00
144  0.0000E+00  1.4596E-01  1.0512E-01  1.7003E-01  9.8896E-02  0.0000E+00  4.5997E-01  0.0000E+00  2.8716E-01
145  0.0000E+00  4.1041E-02  0.0000E+00  0.0000E+00  0.0000E+00  0.0000E+00  0.0000E+00  0.0000E+00  0.0000E+00
146  0.0000E+00  2.5439E-01  2.0835E-01  0.0000E+00  5.2913E-02  0.0000E+00  5.6173E-01  1.0377E-01  7.0639E-01
147  0.0000E+00  5.4771E-01  5.3938E-01  2.2922E+00  8.7557E-01  0.0000E+00  7.7765E-01  7.4610E-01  3.4252E-01
148  0.0000E+00  7.6193E-02  2.4632E-01  0.0000E+00  0.0000E+00  0.0000E+00  0.0000E+00  0.0000E+00  0.0000E+00
149  0.0000E+00  8.1689E-01  9.6162E-01  0.0000E+00  8.9226E-01  1.5020E+00  7.5375E-01  7.0646E-01  0.0000E+00
150  0.0000E+00  3.3337E-01  0.0000E+00  0.0000E+00  1.6958E-01  3.0310E-01  5.6394E-01  1.6373E+00  0.0000E+00

# AV, chi2 & Mass for <> & i_chain = 1 ...  7 solutions
AV       0.6436      0.6367      0.6360      0.6364      0.6377      0.6380      0.6380      0.6365      0.6370
chi2 2.8019E+00  2.8612E+00  2.8417E+00  2.8422E+00  2.8280E+00  2.8332E+00  2.8234E+00  2.8202E+00  2.8391E+00
Mass 1.0903E-09  1.1081E-09  1.1039E-09  1.1074E-09  1.1145E-09  1.1038E-09  1.1113E-09  1.1190E-09  1.0957E-09
 -54.83                                  [v0_min (km/s) before EX0s...]
  88.25                                  [vd_min (km/s) before EX0s...]


## Synthetic spectrum (Best Model) ##l_obs f_obs f_syn wei
 3070    [Nl_obs]
 3359.00    0.00000   0.50574   -2.000
 3360.00    0.06202   0.50624   -1.000
 3361.00    0.28549   0.51870   -1.000
 3362.00    0.30063   0.53639   -1.000
 3363.00    0.31659   0.55033   -1.000
 3364.00    0.32920   0.55412   -1.000
 3365.00    0.33428   0.54953   -1.000
 3366.00    0.33999   0.54263   -1.000
 3367.00    0.34684   0.53644   -1.000
 3368.00    0.34642   0.53066   -1.000
 3369.00    0.33569   0.52315   -1.000
 3370.00    0.32721   0.51540   -1.000
 3371.00    0.33024   0.51225   -1.000
 3372.00    0.33938   0.51803   -1.000
 3373.00    0.34832   0.53138   -1.000
 3374.00    0.36334   0.54695   -1.000
 3375.00    0.38447   0.55807   -1.000
 3376.00    0.39570   0.56056   -1.000
 3377.00    0.40565   0.55558   -1.000
 3378.00    0.40280   0.54931   -1.000
 3379.00    0.39684   0.54740   -1.000
 3380.00    0.39700   0.55075   -1.000
 3381.00    0.40183   0.55616   -1.000
 3382.00    0.40826   0.56121   -1.000
 3383.00    0.42049   0.56512   -1.000
 3384.00    0.41798   0.56773   -1.000
 3385.00    0.42224   0.56737   -1.000
 3386.00    0.42584   0.56369   -1.000
 3387.00    0.43701   0.56059   -1.000
 3388.00    0.44308   0.56206   -1.000
 3389.00    0.44890   0.56662   -1.000
 3390.00    0.45456   0.57013   -1.000
 3391.00    0.45180   0.56965   -1.000
 3392.00    0.45055   0.56769   -1.000
 3393.00    0.45661   0.56950   -1.000
 3394.00    0.46158   0.57624   -1.000
 3395.00    0.46585   0.58513   -1.000
 3396.00    0.47496   0.59260   -1.000
 3397.00    0.47426   0.59640   -1.000
 3398.00    0.48595   0.59509   -1.000
 3399.00    0.49021   0.58922   -1.000
 3400.00    0.48739   0.58073   -1.000
 3401.00    0.47926   0.57097   -1.000
 3402.00    0.47663   0.56357   -1.000
 3403.00    0.47900   0.56053   -1.000
 3404.00    0.47622   0.56107   -1.000
 3405.00    0.46542   0.56117   -1.000
 3406.00    0.46606   0.55851   -1.000
 3407.00    0.46917   0.55487   -1.000
 3408.00    0.46056   0.55403   -1.000
 3409.00    0.45878   0.55675   -1.000
 3410.00    0.46883   0.55887   -1.000
 3411.00    0.47304   0.55884   -1.000
 3412.00    0.47849   0.55851   -1.000
 3413.00    0.47365   0.56075   -1.000
 3414.00    0.47431   0.56620   -1.000
 3415.00    0.48524   0.57276   -1.000
 3416.00    0.48987   0.57870   -1.000
 3417.00    0.49071   0.58378   -1.000
 3418.00    0.50214   0.58813   -1.000
 3419.00    0.51209   0.59112   -1.000
 3420.00    0.50344   0.59132   -1.000
 3421.00    0.50293   0.58746   -1.000
 3422.00    0.50354   0.58129   -1.000
 3423.00    0.50484   0.57656   -1.000
 3424.00    0.50108   0.57564   -1.000
 3425.00    0.51112   0.57819   -1.000
 3426.00    0.51831   0.58365   -1.000
 3427.00    0.51427   0.59196   -1.000
 3428.00    0.51791   0.60103   -1.000
 3429.00    0.53194   0.60551   -1.000
 3430.00    0.53412   0.60150   -1.000
 3431.00    0.52561   0.59238   -1.000
 3432.00    0.52308   0.58573   -1.000
 3433.00    0.51402   0.58679   -1.000
 3434.00    0.52253   0.59372   -1.000
 3435.00    0.53407   0.59930   -1.000
 3436.00    0.53138   0.59822   -1.000
 3437.00    0.52251   0.59080   -1.000
 3438.00    0.51981   0.57994   -1.000
 3439.00    0.50686   0.56820   -1.000
 3440.00    0.49841   0.55744   -1.000
 3441.00    0.50095   0.55045   -1.000
 3442.00    0.49897   0.54911   -1.000
 3443.00    0.50039   0.55320   -1.000
 3444.00    0.51680   0.56113   -1.000
 3445.00    0.52187   0.57207   -1.000
 3446.00    0.52250   0.58489   -1.000
 3447.00    0.53409   0.59664   -1.000
 3448.00    0.54045   0.60229   -1.000
 3449.00    0.54741   0.59715   -1.000
 3450.00    0.54305   0.58366   -1.000
 3451.00    0.54166   0.57033   -1.000
 3452.00    0.54090   0.56384   -1.000
 3453.00    0.54061   0.56480   -1.000
 3454.00    0.54469   0.56944   -1.000
 3455.00    0.55294   0.57370   -1.000
 3456.00    0.56296   0.57519   -1.000
 3457.00    0.55924   0.57307   -1.000
 3458.00    0.55467   0.56820   -1.000
 3459.00    0.55289   0.56231   -1.000
 3460.00    0.55260   0.55888  128.381
 3461.00    0.55083   0.56146  129.615
 3462.00    0.55969   0.56857  156.334
 3463.00    0.56860   0.57389   -1.000
 3464.00    0.57040   0.57470   -1.000
 3465.00    0.56544   0.57468   -1.000
 3466.00    0.57441   0.57828   -1.000
 3467.00    0.57786   0.58623   -1.000
 3468.00    0.57630   0.59525   -1.000
 3469.00    0.58969   0.60067   -1.000
 3470.00    0.59195   0.59957   -1.000
 3471.00    0.59172   0.59281 1005.331
 3472.00    0.57906   0.58249   -1.000
 3473.00    0.57318   0.57143 1005.331
 3474.00    0.56313   0.56311 1005.331
 3475.00    0.55414   0.56027  464.595
 3476.00    0.55925   0.56348  130.026
 3477.00    0.57079   0.57027  133.420
 3478.00    0.57953   0.57789  158.117
 3479.00    0.58909   0.58482   -1.000
 3480.00    0.59493   0.58888   -1.000
 3481.00    0.58784   0.58858 1005.331
 3482.00    0.58623   0.58595 1005.331
 3483.00    0.58449   0.58573 1005.331
 3484.00    0.59143   0.59091 1005.331
 3485.00    0.59363   0.59861   -1.000
 3486.00    0.59591   0.60299   -1.000
 3487.00    0.60012   0.60097 1005.331
 3488.00    0.59348   0.59356 1005.331
 3489.00    0.58051   0.58556   -1.000
 3490.00    0.57293   0.58259   -1.000
 3491.00    0.57169   0.58513   -1.000
 3492.00    0.58220   0.58772   -1.000
 3493.00    0.58590   0.58587 1005.331
 3494.00    0.58679   0.57946   -1.000
 3495.00    0.59392   0.57245   -1.000
 3496.00    0.58820   0.57015   -1.000
 3497.00    0.58290   0.57336   -1.000
 3498.00    0.58597   0.57866   -1.000
 3499.00    0.59506   0.58139   -1.000
 3500.00    0.59766   0.58112   -1.000
 3501.00    0.59544   0.58103   -1.000
 3502.00    0.59515   0.58187   -1.000
 3503.00    0.59525   0.58158   -1.000
 3504.00    0.60361   0.57891   -1.000
 3505.00    0.59556   0.57537   -1.000
 3506.00    0.59818   0.57287   -1.000
 3507.00    0.60429   0.57183   -1.000
 3508.00    0.60388   0.57156   -1.000
 3509.00    0.59861   0.57089   -1.000
 3510.00    0.59247   0.56931   -1.000
 3511.00    0.58699   0.56704   -1.000
 3512.00    0.58610   0.56524   -1.000
 3513.00    0.58549   0.56612   -1.000
 3514.00    0.58301   0.57160   -1.000
 3515.00    0.59310   0.58148   -1.000
 3516.00    0.60662   0.59133   -1.000
 3517.00    0.60635   0.59568   -1.000
 3518.00    0.60309   0.59239   -1.000
 3519.00    0.60125   0.58477   -1.000
 3520.00    0.59469   0.57752   -1.000
 3521.00    0.59082   0.57264   -1.000
 3522.00    0.57962   0.56870   -1.000
 3523.00    0.57356   0.56409   -1.000
 3524.00    0.56922   0.56022   -1.000
 3525.00    0.56638   0.56074  128.804
 3526.00    0.56445   0.56679  132.467
 3527.00    0.57234   0.57670  157.050
 3528.00    0.58942   0.58737 1005.331
 3529.00    0.60252   0.59597   -1.000
 3530.00    0.60439   0.60094   -1.000
 3531.00    0.60914   0.60163   -1.000
 3532.00    0.61040   0.59815   -1.000
 3533.00    0.60679   0.59289   -1.000
 3534.00    0.61362   0.58994   -1.000
 3535.00    0.61559   0.59213   -1.000
 3536.00    0.60330   0.59835   -1.000
 3537.00    0.60554   0.60534 1005.331
 3538.00    0.61560   0.61049   -1.000
 3539.00    0.61665   0.61300   -1.000
 3540.00    0.60832   0.61340   -1.000
 3541.00    0.60980   0.61333   -1.000
 3542.00    0.61342   0.61458 1005.331
 3543.00    0.61377   0.61672   -1.000
 3544.00    0.60990   0.61768   -1.000
 3545.00    0.60525   0.61680   -1.000
 3546.00    0.60529   0.61523   -1.000
 3547.00    0.60771   0.61445   -1.000
 3548.00    0.60983   0.61507   -1.000
 3549.00    0.61207   0.61698   -1.000
 3550.00    0.60945   0.61871   -1.000
 3551.00    0.60466   0.61782   -1.000
 3552.00    0.60800   0.61381   -1.000
 3553.00    0.59920   0.60933   -1.000
 3554.00    0.59798   0.60765   -1.000
 3555.00    0.59630   0.60990   -1.000
 3556.00    0.59630   0.61484   -1.000
 3557.00    0.59438   0.61924   -1.000
 3558.00    0.59788   0.62073   -1.000
 3559.00    0.59857   0.61995   -1.000
 3560.00    0.60233   0.61884   -1.000
 3561.00    0.59979   0.61729   -1.000
 3562.00    0.60493   0.61301   -1.000
 3563.00    0.60227   0.60472 1005.331
 3564.00    0.58177   0.59424   -1.000
 3565.00    0.56871   0.58542   -1.000
 3566.00    0.56758   0.58073  130.178
 3567.00    0.57577   0.57928  134.337
 3568.00    0.57340   0.57737  132.860
 3569.00    0.56580   0.57206  133.021
 3570.00    0.56079   0.56451  137.275
 3571.00    0.55736   0.55878  138.568
 3572.00    0.56382   0.55712  133.821
 3573.00    0.57037   0.55915  152.050
 3574.00    0.57583   0.56383   -1.000
 3575.00    0.57835   0.56996   -1.000
 3576.00    0.57665   0.57613 1005.331
 3577.00    0.58401   0.58033   -1.000
 3578.00    0.58352   0.58038 1005.331
 3579.00    0.58238   0.57613   -1.000
 3580.00    0.57316   0.56993  135.325
 3581.00    0.56491   0.56510  145.625
 3582.00    0.56814   0.56291  152.383
 3583.00    0.56694   0.56001  153.238
 3584.00    0.55466   0.55241  154.407
 3585.00    0.54736   0.54173  158.553
 3586.00    0.54237   0.53455  163.306
 3587.00    0.55024   0.53578  163.713
 3588.00    0.56327   0.54480  155.250
 3589.00    0.56588   0.55688  147.100
 3590.00    0.58359   0.56717  138.899
 3591.00    0.58853   0.57360  150.782
 3592.00    0.59033   0.57739   -1.000
 3593.00    0.58741   0.58116   -1.000
 3594.00    0.58408   0.58649 1005.331
 3595.00    0.58761   0.59263   -1.000
 3596.00    0.59065   0.59791   -1.000
 3597.00    0.59951   0.60149 1005.331
 3598.00    0.60689   0.60337   -1.000
 3599.00    0.60479   0.60278  973.112
 3600.00    0.60292   0.59863   -1.000
 3601.00    0.59656   0.59213   -1.000
 3602.00    0.59302   0.58636   -1.000
 3603.00    0.59198   0.58392   -1.000
 3604.00    0.58293   0.58437 1005.331
 3605.00    0.58399   0.58505 1005.331
 3606.00    0.59033   0.58432   -1.000
 3607.00    0.58658   0.58260   -1.000
 3608.00    0.58010   0.58096 1005.331
 3609.00    0.57813   0.57986 1005.331
 3610.00    0.57402   0.57985   -1.000
 3611.00    0.57833   0.58136   -1.000
 3612.00    0.58037   0.58419   -1.000
 3613.00    0.57775   0.58895   -1.000
 3614.00    0.58507   0.59598   -1.000
 3615.00    0.59466   0.60200   -1.000
 3616.00    0.59884   0.60243   -1.000
 3617.00    0.59044   0.59654   -1.000
 3618.00    0.57826   0.58944   -1.000
 3619.00    0.57689   0.58763   -1.000
 3620.00    0.58542   0.59268  148.461
 3621.00    0.59345   0.60087   -1.000
 3622.00    0.59575   0.60794   -1.000
 3623.00    0.59990   0.61352   -1.000
 3624.00    0.59756   0.62035   -1.000
 3625.00    0.60180   0.62950   -1.000
 3626.00    0.61217   0.63747   -1.000
 3627.00    0.61568   0.63829   -1.000
 3628.00    0.60406   0.62918   -1.000
 3629.00    0.59557   0.61349   -1.000
 3630.00    0.58050   0.59901   -1.000
 3631.00    0.57495   0.59264   -1.000
 3632.00    0.58402   0.59572   -1.000
 3633.00    0.59609   0.60325   -1.000
 3634.00    0.60294   0.60881   -1.000
 3635.00    0.61094   0.61083 1005.331
 3636.00    0.61083   0.61284 1005.331
 3637.00    0.61040   0.61722   -1.000
 3638.00    0.61324   0.62182   -1.000
 3639.00    0.61374   0.62308   -1.000
 3640.00    0.61420   0.61967   -1.000
 3641.00    0.60568   0.61280   -1.000
 3642.00    0.59800   0.60523   -1.000
 3643.00    0.59348   0.59941   -1.000
 3644.00    0.59303   0.59615   -1.000
 3645.00    0.59670   0.59486 1005.331
 3646.00    0.59521   0.59487 1005.331
 3647.00    0.59308   0.59569 1005.331
 3648.00    0.59462   0.59682 1005.331
 3649.00    0.59811   0.59835 1005.331
 3650.00    0.59931   0.60127 1005.331
 3651.00    0.60939   0.60660 1005.331
 3652.00    0.61730   0.61399   -1.000
 3653.00    0.61975   0.62211  948.055
 3654.00    0.62231   0.62966   -1.000
 3655.00    0.62648   0.63552   -1.000
 3656.00    0.62932   0.63886   -1.000
 3657.00    0.63119   0.63961   -1.000
 3658.00    0.62790   0.63819   -1.000
 3659.00    0.62318   0.63497   -1.000
 3660.00    0.61994   0.63046   -1.000
 3661.00    0.61896   0.62597   -1.000
 3662.00    0.61970   0.62325   -1.000
 3663.00    0.62898   0.62305   -1.000
 3664.00    0.62491   0.62438  914.701
 3665.00    0.62882   0.62541  918.739
 3666.00    0.62565   0.62500  908.999
 3667.00    0.62143   0.62338  912.589
 3668.00    0.62145   0.62190  930.897
 3669.00    0.61732   0.62186   -1.000
 3670.00    0.61933   0.62407   -1.000
 3671.00    0.62351   0.62801   -1.000
 3672.00    0.62737   0.63137   -1.000
 3673.00    0.62799   0.63166   -1.000
 3674.00    0.63089   0.62795  898.570
 3675.00    0.63137   0.62086   -1.000
 3676.00    0.62933   0.61256   -1.000
 3677.00    0.61721   0.60639   -1.000
 3678.00    0.61022   0.60505   -1.000
 3679.00    0.61196   0.60830   -1.000
 3680.00    0.61266   0.61307 1005.331
 3681.00    0.61587   0.61599 1004.877
 3682.00    0.61556   0.61560  977.671
 3683.00    0.61601   0.61209   -1.000
 3684.00    0.61301   0.60676   -1.000
 3685.00    0.60543   0.60299  974.372
 3686.00    0.60188   0.60592   -1.000
 3687.00    0.61044   0.61756   -1.000
 3688.00    0.62571   0.63243   -1.000
 3689.00    0.63393   0.64193   -1.000
 3690.00    0.63292   0.64369   -1.000
 3691.00    0.63484   0.64327   -1.000
 3692.00    0.64333   0.64605  878.336
 3693.00    0.64854   0.65095  888.173
 3694.00    0.64768   0.65260   -1.000
 3695.00    0.64080   0.64846   -1.000
 3696.00    0.63026   0.64388   -1.000
 3697.00    0.63013   0.64808   -1.000
 3698.00    0.65174   0.66371   -1.000
 3699.00    0.67440   0.68129   -1.000
 3700.00    0.68321   0.68555  844.611
 3701.00    0.66926   0.66861  837.400
 3702.00    0.64084   0.63721  857.119
 3703.00    0.61623   0.60765   -1.000
 3704.00    0.60624   0.59407   -1.000
 3705.00    0.61893   0.60015   -1.000
 3706.00    0.63197   0.61832   -1.000
 3707.00    0.64888   0.63473   -1.000
 3708.00    0.65684   0.63775   -1.000
 3709.00    0.64076   0.62601   -1.000
 3710.00    0.61780   0.60924   -1.000
 3711.00    0.60615   0.60154   -1.000
 3712.00    0.62736   0.61274   -1.000
 3713.00    0.66258   0.64210   -1.000
 3714.00    0.69818   0.67862   -1.000
 3715.00    0.71424   0.70919   -1.000
 3716.00    0.72531   0.72437  830.928
 3717.00    0.71867   0.71742  855.571
 3718.00    0.68275   0.68543   -1.000
 3719.00    0.63073   0.63648   -1.000
 3720.00    0.58799   0.58982 1005.331
 3721.00    0.56954   0.56523  577.439
 3722.00    0.58540   0.57349  147.846
 3723.00    0.62901   0.61121   -1.000
 3724.00    0.67634   0.66036   -1.000
 3725.00    0.71331   0.70075   -1.000
 3726.00    0.72315   0.72497  924.335
 3727.00    0.72989   0.73737   -1.000
 3728.00    0.73457   0.74179   -1.000
 3729.00    0.72688   0.73466   -1.000
 3730.00    0.71062   0.70832  954.825
 3731.00    0.67308   0.66165   -1.000
 3732.00    0.61005   0.60564   -1.000
 3733.00    0.55898   0.55871  550.907
 3734.00    0.54149   0.53767  129.415
 3735.00    0.56029   0.54994  143.749
 3736.00    0.60115   0.58988  147.283
 3737.00    0.65739   0.64427  138.856
 3738.00    0.70792   0.69899  144.314
 3739.00    0.74321   0.74166 1005.331
 3740.00    0.76162   0.76473   -1.000
 3741.00    0.76200   0.76888   -1.000
 3742.00    0.75704   0.76008   -1.000
 3743.00    0.74287   0.74325  996.450
 3744.00    0.71777   0.71933 1005.331
 3745.00    0.69111   0.68746   -1.000
 3746.00    0.66416   0.64801   -1.000
 3747.00    0.62837   0.60436   -1.000
 3748.00    0.57402   0.56556  130.395
 3749.00    0.54497   0.54624  137.992
 3750.00    0.56411   0.55773  157.248
 3751.00    0.62161   0.59838   -1.000
 3752.00    0.67494   0.65409   -1.000
 3753.00    0.72549   0.70753   -1.000
 3754.00    0.75742   0.74651   -1.000
 3755.00    0.77770   0.76556   -1.000
 3756.00    0.77312   0.76486   -1.000
 3757.00    0.76281   0.75170   -1.000
 3758.00    0.74880   0.73794   -1.000
 3759.00    0.74911   0.73246   -1.000
 3760.00    0.76982   0.73721   -1.000
 3761.00    0.78096   0.74795   -1.000
 3762.00    0.78364   0.75720   -1.000
 3763.00    0.78297   0.75848   -1.000
 3764.00    0.77011   0.74902   -1.000
 3765.00    0.75170   0.72857   -1.000
 3766.00    0.72319   0.69709   -1.000
 3767.00    0.68838   0.65609   -1.000
 3768.00    0.65050   0.61224   -1.000
 3769.00    0.60256   0.57868   -1.000
 3770.00    0.58313   0.56983   -1.000
 3771.00    0.61378   0.59100   -1.000
 3772.00    0.66857   0.63243   -1.000
 3773.00    0.71482   0.67740   -1.000
 3774.00    0.74482   0.71538   -1.000
 3775.00    0.76448   0.74642   -1.000
 3776.00    0.79450   0.77534   -1.000
 3777.00    0.81552   0.80434   -1.000
 3778.00    0.83842   0.83150   -1.000
 3779.00    0.85785   0.85372   -1.000
 3780.00    0.86678   0.86846  834.221
 3781.00    0.86767   0.87456   -1.000
 3782.00    0.86363   0.87376   -1.000
 3783.00    0.85865   0.86884   -1.000
 3784.00    0.85445   0.86026   -1.000
 3785.00    0.84920   0.84702  832.141
 3786.00    0.83846   0.83105   -1.000
 3787.00    0.82618   0.81749   -1.000
 3788.00    0.82104   0.80971   -1.000
 3789.00    0.81922   0.80562   -1.000
 3790.00    0.81935   0.79950   -1.000
 3791.00    0.80317   0.78573   -1.000
 3792.00    0.77891   0.76053   -1.000
 3793.00    0.74827   0.72236   -1.000
 3794.00    0.70242   0.67334   -1.000
 3795.00    0.65321   0.62006   -1.000
 3796.00    0.60238   0.57348   -1.000
 3797.00    0.56255   0.54853   -1.000
 3798.00    0.57478   0.55797   -1.000
 3799.00    0.63340   0.60152   -1.000
 3800.00    0.69604   0.66394   -1.000
 3801.00    0.74663   0.72549   -1.000
 3802.00    0.78824   0.77365   -1.000
 3803.00    0.81336   0.80541   -1.000
 3804.00    0.82352   0.82335  902.466
 3805.00    0.82738   0.83321   -1.000
 3806.00    0.84012   0.84255  916.558
 3807.00    0.85259   0.85645   -1.000
 3808.00    0.86988   0.87406   -1.000
 3809.00    0.88221   0.88887   -1.000
 3810.00    0.88760   0.89237   -1.000
 3811.00    0.87987   0.88062  895.381
 3812.00    0.87111   0.85909   -1.000
 3813.00    0.86091   0.83983   -1.000
 3814.00    0.85631   0.83269   -1.000
 3815.00    0.85782   0.83865   -1.000
 3816.00    0.87298   0.84984   -1.000
 3817.00    0.87825   0.85553   -1.000
 3818.00    0.87790   0.85031   -1.000
 3819.00    0.86359   0.83867   -1.000
 3820.00    0.84552   0.83032   -1.000
 3821.00    0.85295   0.82886   -1.000
 3822.00    0.85818   0.82681   -1.000
 3823.00    0.85163   0.81554   -1.000
 3824.00    0.82405   0.79669   -1.000
 3825.00    0.80064   0.77849   -1.000
 3826.00    0.79708   0.76497   -1.000
 3827.00    0.79027   0.75374   -1.000
 3828.00    0.78427   0.74061   -1.000
 3829.00    0.77177   0.72164   -1.000
 3830.00    0.75287   0.69241   -1.000
 3831.00    0.70671   0.65004   -1.000
 3832.00    0.65375   0.59799   -1.000
 3833.00    0.60762   0.54838   -1.000
 3834.00    0.56098   0.51664   -1.000
 3835.00    0.55441   0.51237   -1.000
 3836.00    0.59188   0.53522   -1.000
 3837.00    0.64682   0.57625   -1.000
 3838.00    0.69146   0.62363   -1.000
 3839.00    0.72549   0.66996   -1.000
 3840.00    0.75928   0.71368   -1.000
 3841.00    0.79109   0.75470   -1.000
 3842.00    0.82301   0.79176   -1.000
 3843.00    0.84864   0.82269   -1.000
 3844.00    0.86671   0.84626   -1.000
 3845.00    0.88079   0.86320   -1.000
 3846.00    0.88568   0.87442   -1.000
 3847.00    0.88861   0.87988   -1.000
 3848.00    0.88911   0.88065   -1.000
 3849.00    0.88935   0.88154   -1.000
 3850.00    0.89007   0.88802 1005.331
 3851.00    0.90264   0.89999 1005.331
 3852.00    0.91979   0.91125   -1.000
 3853.00    0.92039   0.91549   -1.000
 3854.00    0.90947   0.91136 1005.331
 3855.00    0.90484   0.90280 1005.331
 3856.00    0.90499   0.89493   -1.000
 3857.00    0.89548   0.89020   -1.000
 3858.00    0.88273   0.88946   -1.000
 3859.00    0.87742   0.89379  127.440
 3860.00    0.89491   0.90224  134.408
 3861.00    0.92307   0.91058  144.808
 3862.00    0.94431   0.91511   -1.000
 3863.00    0.94237   0.91584   -1.000
 3864.00    0.93043   0.91515   -1.000
 3865.00    0.93138   0.91603   -1.000
 3866.00    0.93238   0.92026   -1.000
 3867.00    0.93461   0.92568   -1.000
 3868.00    0.93412   0.92666   -1.000
 3869.00    0.92206   0.91850   -1.000
 3870.00    0.90289   0.90162 1005.331
 3871.00    0.88294   0.88222  665.359
 3872.00    0.86497   0.86916  141.000
 3873.00    0.87202   0.86691   -1.000
 3874.00    0.88500   0.87054   -1.000
 3875.00    0.88641   0.86974   -1.000
 3876.00    0.87108   0.85917   -1.000
 3877.00    0.84714   0.84402   -1.000
 3878.00    0.83758   0.83326   -1.000
 3879.00    0.83552   0.82872   -1.000
 3880.00    0.82823   0.82373   -1.000
 3881.00    0.81994   0.81158   -1.000
 3882.00    0.80506   0.79084   -1.000
 3883.00    0.78903   0.76125   -1.000
 3884.00    0.76546   0.72069   -1.000
 3885.00    0.71810   0.66881   -1.000
 3886.00    0.66011   0.61253   -1.000
 3887.00    0.60120   0.56660   -1.000
 3888.00    0.56713   0.54689   -1.000
 3889.00    0.58935   0.56161   -1.000
 3890.00    0.65490   0.60536   -1.000
 3891.00    0.71621   0.66091   -1.000
 3892.00    0.76017   0.71037   -1.000
 3893.00    0.78331   0.74613   -1.000
 3894.00    0.79853   0.77095   -1.000
 3895.00    0.80600   0.79081   -1.000
 3896.00    0.82913   0.80824   -1.000
 3897.00    0.84303   0.82142   -1.000
 3898.00    0.84828   0.82986   -1.000
 3899.00    0.84927   0.83776   -1.000
 3900.00    0.85743   0.84924   -1.000
 3901.00    0.87723   0.86259   -1.000
 3902.00    0.88471   0.87270   -1.000
 3903.00    0.89023   0.87710   -1.000
 3904.00    0.88281   0.87839   -1.000
 3905.00    0.87382   0.88276   -1.000
 3906.00    0.89160   0.89581   -1.000
 3907.00    0.91425   0.91724  918.343
 3908.00    0.93211   0.93978   -1.000
 3909.00    0.93636   0.95504   -1.000
 3910.00    0.94543   0.95891   -1.000
 3911.00    0.93836   0.95209   -1.000
 3912.00    0.93073   0.93914   -1.000
 3913.00    0.93115   0.92734  773.030
 3914.00    0.93072   0.92243   -1.000
 3915.00    0.93728   0.92406   -1.000
 3916.00    0.93486   0.92721   -1.000
 3917.00    0.93169   0.92768   -1.000
 3918.00    0.92756   0.92509  840.518
 3919.00    0.91803   0.92181   -1.000
 3920.00    0.92523   0.91986   -1.000
 3921.00    0.92189   0.91930  947.180
 3922.00    0.91639   0.91927  963.388
 3923.00    0.92667   0.91814   -1.000
 3924.00    0.93849   0.91246   -1.000
 3925.00    0.92485   0.89830   -1.000
 3926.00    0.90216   0.87415   -1.000
 3927.00    0.87756   0.84071   -1.000
 3928.00    0.84509   0.79837   -1.000
 3929.00    0.79944   0.74509   -1.000
 3930.00    0.73601   0.67867   -1.000
 3931.00    0.64280   0.60530   -1.000
 3932.00    0.53001   0.54530   -1.000
 3933.00    0.45316   0.52436   -1.000
 3934.00    0.48509   0.55303   -1.000
 3935.00    0.59806   0.61751   -1.000
 3936.00    0.71887   0.69333   -1.000
 3937.00    0.81798   0.76249   -1.000
 3938.00    0.87055   0.81730   -1.000
 3939.00    0.89233   0.85637   -1.000
 3940.00    0.90601   0.88095   -1.000
 3941.00    0.90758   0.89382   -1.000
 3942.00    0.90503   0.89961   -1.000
 3943.00    0.89914   0.90318   -1.000
 3944.00    0.90825   0.90748 1005.331
 3945.00    0.92802   0.91270   -1.000
 3946.00    0.93488   0.91634   -1.000
 3947.00    0.93323   0.91568   -1.000
 3948.00    0.92675   0.91092   -1.000
 3949.00    0.92733   0.90503   -1.000
 3950.00    0.92716   0.90105   -1.000
 3951.00    0.92287   0.90053   -1.000
 3952.00    0.92127   0.90308   -1.000
 3953.00    0.92028   0.90539   -1.000
 3954.00    0.92297   0.90312   -1.000
 3955.00    0.91445   0.89513   -1.000
 3956.00    0.90224   0.88487   -1.000
 3957.00    0.89586   0.87616   -1.000
 3958.00    0.89332   0.86767   -1.000
 3959.00    0.87994   0.85371   -1.000
 3960.00    0.85369   0.83044   -1.000
 3961.00    0.82399   0.79869   -1.000
 3962.00    0.80454   0.76060   -1.000
 3963.00    0.78014   0.71432   -1.000
 3964.00    0.73762   0.65434   -1.000
 3965.00    0.65615   0.57779   -1.000
 3966.00    0.54854   0.49154   -1.000
 3967.00    0.43054   0.41506   -1.000
 3968.00    0.35349   0.37204   -1.000
 3969.00    0.36414   0.37633  259.156
 3970.00    0.45127   0.42454   -1.000
 3971.00    0.56779   0.49921   -1.000
 3972.00    0.66960   0.57979   -1.000
 3973.00    0.73912   0.65322   -1.000
 3974.00    0.78383   0.71496   -1.000
 3975.00    0.82345   0.76467   -1.000
 3976.00    0.84987   0.80361   -1.000
 3977.00    0.86403   0.83385   -1.000
 3978.00    0.88230   0.85687   -1.000
 3979.00    0.90136   0.87240   -1.000
 3980.00    0.91131   0.88090   -1.000
 3981.00    0.90657   0.88638   -1.000
 3982.00    0.91071   0.89454   -1.000
 3983.00    0.92236   0.90754   -1.000
 3984.00    0.93669   0.92186   -1.000
 3985.00    0.94402   0.93277   -1.000
 3986.00    0.94980   0.93991   -1.000
 3987.00    0.94834   0.94619  693.979
 3988.00    0.95440   0.95298  681.086
 3989.00    0.96802   0.96005   -1.000
 3990.00    0.96876   0.96764  677.636
 3991.00    0.97645   0.97580  672.258
 3992.00    0.98368   0.98271  656.251
 3993.00    0.97815   0.98485   -1.000
 3994.00    0.96697   0.97995   -1.000
 3995.00    0.96656   0.97013  666.975
 3996.00    0.96308   0.96142  682.130
 3997.00    0.96389   0.95929   -1.000
 3998.00    0.96431   0.96417  698.633
 3999.00    0.97737   0.97184   -1.000
 4000.00    0.99130   0.97750   -1.000
 4001.00    0.99350   0.97886   -1.000
 4002.00    0.99969   0.97624   -1.000
 4003.00    0.98846   0.97138   -1.000
 4004.00    0.98105   0.96745   -1.000
 4005.00    0.97427   0.96873   -1.000
 4006.00    0.98277   0.97693   -1.000
 4007.00    0.99185   0.98860  692.030
 4008.00    0.99744   0.99812  651.782
 4009.00    0.99991   1.00231  627.570
 4010.00    0.98496   1.00158   -1.000
 4011.00    0.99956   0.99858  613.541
 4012.00    0.99370   0.99691  612.080
 4013.00    0.99298   0.99912   -1.000
 4014.00    0.99745   1.00509   -1.000
 4015.00    0.99727   1.01287   -1.000
 4016.00    1.00207   1.02051   -1.000
 4017.00    1.00668   1.02709   -1.000
 4018.00    1.00918   1.03189   -1.000
 4019.00    1.00690   1.03339   -1.000
 4020.00    0.99880   1.02989   -1.000
 4021.00    0.99826   1.02124   -1.000
 4022.00    1.00335   1.00964   -1.000
 4023.00    1.00000   0.99948  620.910
 4024.00    0.99839   0.99578  625.051
 4025.00    1.00301   1.00006  628.572
 4026.00    1.00453   1.00752  611.871
 4027.00    1.00787   1.01122  590.397
 4028.00    1.00451   1.00861  579.854
 4029.00    0.98995   1.00218   -1.000
 4030.00    0.98439   0.99623   -1.000
 4031.00    0.98274   0.99407   -1.000
 4032.00    0.97442   0.99670   -1.000
 4033.00    0.98026   1.00353   -1.000
 4034.00    0.98736   1.01366   -1.000
 4035.00    0.99864   1.02607   -1.000
 4036.00    1.00934   1.03853   -1.000
 4037.00    1.01367   1.04728   -1.000
 4038.00    1.01149   1.04987   -1.000
 4039.00    1.00272   1.04742   -1.000
 4040.00    1.00202   1.04274   -1.000
 4041.00    1.00291   1.03664   -1.000
 4042.00    1.00006   1.02713   -1.000
 4043.00    0.99473   1.01317   -1.000
 4044.00    0.97464   0.99908   -1.000
 4045.00    0.95347   0.99298   -1.000
 4046.00    0.97211   0.99917   -1.000
 4047.00    0.99371   1.01295   -1.000
 4048.00    1.00257   1.02570   -1.000
 4049.00    1.01092   1.03273   -1.000
 4050.00    1.00665   1.03394   -1.000
 4051.00    1.00897   1.03067   -1.000
 4052.00    1.00622   1.02517   -1.000
 4053.00    0.99583   1.02080   -1.000
 4054.00    0.99765   1.02011   -1.000
 4055.00    1.00245   1.02290   -1.000
 4056.00    0.99890   1.02755   -1.000
 4057.00    0.99740   1.03294   -1.000
 4058.00    1.00208   1.03699   -1.000
 4059.00    1.00601   1.03566   -1.000
 4060.00    1.00155   1.02693   -1.000
 4061.00    0.98894   1.01336   -1.000
 4062.00    0.96728   0.99909   -1.000
 4063.00    0.96901   0.98765   -1.000
 4064.00    0.97377   0.98199   -1.000
 4065.00    0.98060   0.98268  693.734
 4066.00    0.98675   0.98679  659.667
 4067.00    0.98772   0.99022  644.003
 4068.00    0.99057   0.98987  626.304
 4069.00    0.98961   0.98418  606.618
 4070.00    0.97856   0.97511  600.973
 4071.00    0.97152   0.96816  626.098
 4072.00    0.97275   0.96698   -1.000
 4073.00    0.98077   0.96841   -1.000
 4074.00    0.98035   0.96503   -1.000
 4075.00    0.96656   0.95359   -1.000
 4076.00    0.95553   0.94010   -1.000
 4077.00    0.94689   0.93505   -1.000
 4078.00    0.95168   0.94343   -1.000
 4079.00    0.96578   0.95979   -1.000
 4080.00    0.97098   0.97387  651.619
 4081.00    0.97637   0.97937  608.020
 4082.00    0.96772   0.97649   -1.000
 4083.00    0.96626   0.96912  603.257
 4084.00    0.95162   0.96185   -1.000
 4085.00    0.95005   0.95823   -1.000
 4086.00    0.95605   0.95927  621.322
 4087.00    0.95957   0.96291  599.715
 4088.00    0.95340   0.96539   -1.000
 4089.00    0.95150   0.96398   -1.000
 4090.00    0.93968   0.95831   -1.000
 4091.00    0.93262   0.94864   -1.000
 4092.00    0.91960   0.93471   -1.000
 4093.00    0.90917   0.91657   -1.000
 4094.00    0.89603   0.89428  592.495
 4095.00    0.88042   0.86699   -1.000
 4096.00    0.85311   0.83290   -1.000
 4097.00    0.82796   0.78981   -1.000
 4098.00    0.78363   0.73698   -1.000
 4099.00    0.72259   0.67927   -1.000
 4100.00    0.64333   0.63128   -1.000
 4101.00    0.60469   0.61257   -1.000
 4102.00    0.64103   0.63354   -1.000
 4103.00    0.72162   0.68591   -1.000
 4104.00    0.78719   0.74847   -1.000
 4105.00    0.82387   0.80206   -1.000
 4106.00    0.85415   0.83945   -1.000
 4107.00    0.87286   0.86321   -1.000
 4108.00    0.88314   0.87920  621.987
 4109.00    0.89366   0.89266  628.546
 4110.00    0.90716   0.90697  640.988
 4111.00    0.92329   0.92324  649.564
 4112.00    0.94004   0.94046  640.561
 4113.00    0.95215   0.95665   -1.000
 4114.00    0.95777   0.96945   -1.000
 4115.00    0.95950   0.97644   -1.000
 4116.00    0.95484   0.97675   -1.000
 4117.00    0.95632   0.97253   -1.000
 4118.00    0.95305   0.96804   -1.000
 4119.00    0.95370   0.96643   -1.000
 4120.00    0.95542   0.96765   -1.000
 4121.00    0.95897   0.97029   -1.000
 4122.00    0.96839   0.97455   -1.000
 4123.00    0.97748   0.98105  630.857
 4124.00    0.98032   0.98755   -1.000
 4125.00    0.98423   0.98989   -1.000
 4126.00    0.98249   0.98646  611.408
 4127.00    0.98233   0.98023  620.263
 4128.00    0.98169   0.97543   -1.000
 4129.00    0.97502   0.97327  638.426
 4130.00    0.96915   0.97243  641.773
 4131.00    0.96408   0.97317   -1.000
 4132.00    0.95813   0.97804   -1.000
 4133.00    0.96424   0.98815   -1.000
 4134.00    0.97118   1.00107   -1.000
 4135.00    0.97709   1.01357   -1.000
 4136.00    0.99127   1.02426   -1.000
 4137.00    1.00026   1.03305   -1.000
 4138.00    0.99907   1.03907   -1.000
 4139.00    1.00160   1.03987   -1.000
 4140.00    0.99588   1.03324   -1.000
 4141.00    0.98023   1.02025   -1.000
 4142.00    0.96387   1.00658   -1.000
 4143.00    0.95526   0.99976   -1.000
 4144.00    0.96984   1.00312   -1.000
 4145.00    0.98850   1.01259   -1.000
 4146.00    0.99421   1.02088   -1.000
 4147.00    0.99374   1.02413   -1.000
 4148.00    0.98660   1.02393   -1.000
 4149.00    0.98826   1.02371   -1.000
 4150.00    0.99083   1.02448   -1.000
 4151.00    0.99384   1.02443   -1.000
 4152.00    0.99046   1.02204   -1.000
 4153.00    0.97482   1.01831   -1.000
 4154.00    1.05169   1.01589   -1.000
 4155.00    1.13794   1.01685   -1.000
 4156.00    0.95202   1.02129   -1.000
 4157.00    0.86028   1.02733   -1.000
 4158.00    0.96111   1.03191   -1.000
 4159.00    1.00630   1.03288   -1.000
 4160.00    1.00293   1.03089   -1.000
 4161.00    1.00741   1.02897   -1.000
 4162.00    1.00121   1.03006   -1.000
 4163.00    0.99561   1.03473   -1.000
 4164.00    0.99502   1.04062   -1.000
 4165.00    1.00129   1.04413   -1.000
 4166.00    0.99730   1.04374   -1.000
 4167.00    0.99446   1.04046   -1.000
 4168.00    0.99813   1.03427   -1.000
 4169.00    1.00292   1.02282   -1.000
 4170.00    0.99085   1.00530   -1.000
 4171.00    0.98108   0.98665   -1.000
 4172.00    0.97284   0.97543  687.760
 4173.00    0.96504   0.97676   -1.000
 4174.00    0.97242   0.98703   -1.000
 4175.00    0.98078   0.99624   -1.000
 4176.00    0.98018   0.99779   -1.000
 4177.00    0.97664   0.99498   -1.000
 4178.00    0.98289   0.99573   -1.000
 4179.00    0.99045   1.00271   -1.000
 4180.00    0.99562   1.01125   -1.000
 4181.00    0.99221   1.01649   -1.000
 4182.00    0.99155   1.01852   -1.000
 4183.00    0.98651   1.01949   -1.000
 4184.00    0.98802   1.01961   -1.000
 4185.00    0.98619   1.01772   -1.000
 4186.00    0.97712   1.01444   -1.000
 4187.00    0.97336   1.01250   -1.000
 4188.00    0.97921   1.01312   -1.000
 4189.00    0.98528   1.01467   -1.000
 4190.00    0.98834   1.01602   -1.000
 4191.00    0.99231   1.01800   -1.000
 4192.00    0.99246   1.02080   -1.000
 4193.00    1.00002   1.02183   -1.000
 4194.00    0.99652   1.01773   -1.000
 4195.00    0.99355   1.00799   -1.000
 4196.00    0.98898   0.99552   -1.000
 4197.00    0.97001   0.98445   -1.000
 4198.00    0.97074   0.97805   -1.000
 4199.00    0.97480   0.97667  702.062
 4200.00    0.97129   0.97800   -1.000
 4201.00    0.97572   0.98030   -1.000
 4202.00    0.98031   0.98377  681.268
 4203.00    0.98502   0.98870  676.584
 4204.00    0.97909   0.99455   -1.000
 4205.00    0.97700   1.00087   -1.000
 4206.00    0.98596   1.00688   -1.000
 4207.00    0.99352   1.01107   -1.000
 4208.00    0.99610   1.01315   -1.000
 4209.00    0.99297   1.01474   -1.000
 4210.00    0.98480   1.01715   -1.000
 4211.00    0.98962   1.01914   -1.000
 4212.00    0.99343   1.01739   -1.000
 4213.00    0.98823   1.00993   -1.000
 4214.00    0.97607   0.99976   -1.000
 4215.00    0.96386   0.99369   -1.000
 4216.00    0.96327   0.99630   -1.000
 4217.00    0.97652   1.00565   -1.000
 4218.00    0.98914   1.01601   -1.000
 4219.00    0.99334   1.02318   -1.000
 4220.00    1.00208   1.02541   -1.000
 4221.00    0.99553   1.02124   -1.000
 4222.00    0.98946   1.00937   -1.000
 4223.00    0.98148   0.99064   -1.000
 4224.00    0.96384   0.96972   -1.000
 4225.00    0.94037   0.95463   -1.000
 4226.00    0.92549   0.95368   -1.000
 4227.00    0.93855   0.96954   -1.000
 4228.00    0.96727   0.99444   -1.000
 4229.00    0.98702   1.01415   -1.000
 4230.00    0.98828   1.01902   -1.000
 4231.00    0.98159   1.01060   -1.000
 4232.00    0.97372   0.99816   -1.000
 4233.00    0.97079   0.99049   -1.000
 4234.00    0.97175   0.99031   -1.000
 4235.00    0.97172   0.99495   -1.000
 4236.00    0.97039   1.00109   -1.000
 4237.00    0.96975   1.00767   -1.000
 4238.00    0.98173   1.01457   -1.000
 4239.00    0.99110   1.02112   -1.000
 4240.00    0.99165   1.02612   -1.000
 4241.00    0.99135   1.02883   -1.000
 4242.00    0.99321   1.02908   -1.000
 4243.00    0.98774   1.02604   -1.000
 4244.00    0.98726   1.01861   -1.000
 4245.00    0.97919   1.00778   -1.000
 4246.00    0.96601   0.99760   -1.000
 4247.00    0.96305   0.99186   -1.000
 4248.00    0.96035   0.99069   -1.000
 4249.00    0.95444   0.99221   -1.000
 4250.00    0.95394   0.99592   -1.000
 4251.00    0.97305   1.00154   -1.000
 4252.00    0.97247   1.00728   -1.000
 4253.00    0.97449   1.01155   -1.000
 4254.00    0.96734   1.01442   -1.000
 4255.00    0.97666   1.01593   -1.000
 4256.00    0.98184   1.01487   -1.000
 4257.00    0.98341   1.01041   -1.000
 4258.00    0.97475   1.00441   -1.000
 4259.00    0.96970   1.00074   -1.000
 4260.00    0.96268   1.00284   -1.000
 4261.00    0.96898   1.01152   -1.000
 4262.00    0.98435   1.02360   -1.000
 4263.00    0.99461   1.03365   -1.000
 4264.00    0.99571   1.03813   -1.000
 4265.00    0.99421   1.03706   -1.000
 4266.00    0.99182   1.03190   -1.000
 4267.00    0.98686   1.02325   -1.000
 4268.00    0.97663   1.01093   -1.000
 4269.00    0.96468   0.99574   -1.000
 4270.00    0.94864   0.98107   -1.000
 4271.00    0.93691   0.97201   -1.000
 4272.00    0.94200   0.97167   -1.000
 4273.00    0.95152   0.97914   -1.000
 4274.00    0.95953   0.99136   -1.000
 4275.00    0.96683   1.00528   -1.000
 4276.00    0.97846   1.01774   -1.000
 4277.00    0.98321   1.02553   -1.000
 4278.00    0.98054   1.02701   -1.000
 4279.00    0.97056   1.02305   -1.000
 4280.00    0.96491   1.01641   -1.000
 4281.00    0.96156   1.01040   -1.000
 4282.00    0.96171   1.00720   -1.000
 4283.00    0.96556   1.00634   -1.000
 4284.00    0.96459   1.00442   -1.000
 4285.00    0.96385   0.99753   -1.000
 4286.00    0.95910   0.98452   -1.000
 4287.00    0.95170   0.96796   -1.000
 4288.00    0.93493   0.95310   -1.000
 4289.00    0.92261   0.94582   -1.000
 4290.00    0.92105   0.94837   -1.000
 4291.00    0.93262   0.95581   -1.000
 4292.00    0.94221   0.96013   -1.000
 4293.00    0.94968   0.95873   -1.000
 4294.00    0.94203   0.95532   -1.000
 4295.00    0.94183   0.95225   -1.000
 4296.00    0.93769   0.94658   -1.000
 4297.00    0.92527   0.93448   -1.000
 4298.00    0.90369   0.91650   -1.000
 4299.00    0.89445   0.89841  782.075
 4300.00    0.88540   0.88700  839.855
 4301.00    0.88784   0.88573  847.656
 4302.00    0.89646   0.89365  820.541
 4303.00    0.89853   0.90591   -1.000
 4304.00    0.90613   0.91530   -1.000
 4305.00    0.91054   0.91688   -1.000
 4306.00    0.89147   0.91241   -1.000
 4307.00    0.87799   0.90858   -1.000
 4308.00    0.87754   0.91068   -1.000
 4309.00    0.88347   0.91784   -1.000
 4310.00    0.89888   0.92405   -1.000
 4311.00    0.90346   0.92435   -1.000
 4312.00    0.92982   0.92081   -1.000
 4313.00    0.92545   0.92179  725.593
 4314.00    0.92097   0.93412   -1.000
 4315.00    0.94538   0.95603   -1.000
 4316.00    0.96548   0.97839   -1.000
 4317.00    0.97338   0.99243   -1.000
 4318.00    0.97142   0.99550   -1.000
 4319.00    0.96557   0.99091   -1.000
 4320.00    0.95875   0.98374   -1.000
 4321.00    0.95589   0.97591   -1.000
 4322.00    0.94159   0.96532   -1.000
 4323.00    0.92544   0.95099   -1.000
 4324.00    0.91250   0.93825   -1.000
 4325.00    0.90573   0.93502   -1.000
 4326.00    0.91672   0.94224   -1.000
 4327.00    0.93656   0.95188   -1.000
 4328.00    0.94158   0.95556   -1.000
 4329.00    0.93394   0.95193   -1.000
 4330.00    0.92701   0.94492   -1.000
 4331.00    0.91595   0.93694   -1.000
 4332.00    0.91080   0.92618   -1.000
 4333.00    0.90245   0.90872   -1.000
 4334.00    0.88771   0.88056   -1.000
 4335.00    0.86358   0.83855   -1.000
 4336.00    0.82374   0.78295   -1.000
 4337.00    0.77386   0.72081   -1.000
 4338.00    0.70137   0.66571   -1.000
 4339.00    0.63324   0.63343  708.574
 4340.00    0.62027   0.63562   -1.000
 4341.00    0.67870   0.67205   -1.000
 4342.00    0.76045   0.72849   -1.000
 4343.00    0.81513   0.78659   -1.000
 4344.00    0.85146   0.83585   -1.000
 4345.00    0.87837   0.87485  592.444
 4346.00    0.89543   0.90433   -1.000
 4347.00    0.90642   0.92283   -1.000
 4348.00    0.91534   0.92890   -1.000
 4349.00    0.92265   0.92528  551.737
 4350.00    0.91872   0.91981  553.877
 4351.00    0.91385   0.92115   -1.000
 4352.00    0.91826   0.93296   -1.000
 4353.00    0.93291   0.95201   -1.000
 4354.00    0.94504   0.97137   -1.000
 4355.00    0.95084   0.98524   -1.000
 4356.00    0.96338   0.99188   -1.000
 4357.00    0.96694   0.99365   -1.000
 4358.00    0.96071   0.99486   -1.000
 4359.00    0.95971   0.99862   -1.000
 4360.00    0.97079   1.00515   -1.000
 4361.00    0.98045   1.01260   -1.000
 4362.00    0.98108   1.01876   -1.000
 4363.00    0.97906   1.02176   -1.000
 4364.00    0.98306   1.02030   -1.000
 4365.00    0.97876   1.01422   -1.000
 4366.00    0.97579   1.00529   -1.000
 4367.00    0.97203   0.99695   -1.000
 4368.00    0.97118   0.99196   -1.000
 4369.00    0.97795   0.99028   -1.000
 4370.00    0.98071   0.98900   -1.000
 4371.00    0.98611   0.98427  563.985
 4372.00    0.98033   0.97468   -1.000
 4373.00    0.96644   0.96413  569.605
 4374.00    0.95144   0.96020   -1.000
 4375.00    0.95540   0.96748   -1.000
 4376.00    0.97042   0.98262   -1.000
 4377.00    0.97598   0.99734   -1.000
 4378.00    0.98508   1.00496   -1.000
 4379.00    0.98982   1.00302   -1.000
 4380.00    0.98832   0.99104  554.996
 4381.00    0.97431   0.97032  565.272
 4382.00    0.95437   0.94664   -1.000
 4383.00    0.94199   0.92972   -1.000
 4384.00    0.94693   0.92702   -1.000
 4385.00    0.96179   0.93815   -1.000
 4386.00    0.97555   0.95562   -1.000
 4387.00    0.98467   0.97103   -1.000
 4388.00    0.98178   0.97997  587.739
 4389.00    0.98111   0.98274  588.989
 4390.00    0.98645   0.98184  595.725
 4391.00    0.97863   0.97811  597.385
 4392.00    0.98136   0.97048   -1.000
 4393.00    0.97707   0.96073   -1.000
 4394.00    0.96465   0.95502   -1.000
 4395.00    0.96591   0.95740   -1.000
 4396.00    0.97998   0.96416   -1.000
 4397.00    0.98795   0.96801   -1.000
 4398.00    0.98430   0.96689   -1.000
 4399.00    0.97892   0.96558   -1.000
 4400.00    0.97707   0.96879   -1.000
 4401.00    0.98480   0.97512   -1.000
 4402.00    0.98998   0.97986   -1.000
 4403.00    0.98329   0.98124  571.070
 4404.00    0.97235   0.98138   -1.000
 4405.00    0.97032   0.98224   -1.000
 4406.00    0.98493   0.98338  631.981
 4407.00    0.98940   0.98411   -1.000
 4408.00    0.98971   0.98563  601.256
 4409.00    0.99286   0.98944  596.034
 4410.00    0.99756   0.99438  572.358
 4411.00    0.99763   0.99647  547.693
 4412.00    1.00374   0.99167   -1.000
 4413.00    0.99403   0.97923   -1.000
 4414.00    0.97420   0.96334   -1.000
 4415.00    0.96503   0.95136   -1.000
 4416.00    0.96693   0.94955   -1.000
 4417.00    0.97943   0.95930   -1.000
 4418.00    0.98910   0.97587   -1.000
 4419.00    0.99314   0.99129  541.471
 4420.00    0.99760   1.00019  526.505
 4421.00    0.99103   1.00323   -1.000
 4422.00    0.99031   1.00407   -1.000
 4423.00    0.99350   1.00445   -1.000
 4424.00    0.99323   1.00389   -1.000
 4425.00    0.98571   1.00253   -1.000
 4426.00    0.98256   1.00182   -1.000
 4427.00    0.98279   1.00276   -1.000
 4428.00    0.98317   1.00489   -1.000
 4429.00    0.98343   1.00695   -1.000
 4430.00    0.98906   1.00804   -1.000
 4431.00    0.98990   1.00760   -1.000
 4432.00    0.98988   1.00517   -1.000
 4433.00    0.98793   1.00157   -1.000
 4434.00    0.97843   0.99997   -1.000
 4435.00    0.97805   1.00386   -1.000
 4436.00    0.99043   1.01316   -1.000
 4437.00    1.00547   1.02287   -1.000
 4438.00    1.00790   1.02638   -1.000
 4439.00    0.99949   1.01981   -1.000
 4440.00    0.99381   1.00432   -1.000
 4441.00    0.98588   0.98598  529.678
 4442.00    0.96962   0.97361  555.620
 4443.00    0.96356   0.97391   -1.000
 4444.00    0.97876   0.98616   -1.000
 4445.00    0.99449   1.00241   -1.000
 4446.00    1.00049   1.01421   -1.000
 4447.00    0.99887   1.01851   -1.000
 4448.00    0.99667   1.01749   -1.000
 4449.00    0.99618   1.01540   -1.000
 4450.00    0.99017   1.01517   -1.000
 4451.00    0.99219   1.01616   -1.000
 4452.00    0.99700   1.01528   -1.000
 4453.00    0.98931   1.01133   -1.000
 4454.00    0.98395   1.00734   -1.000
 4455.00    0.98663   1.00704   -1.000
 4456.00    0.99255   1.01035   -1.000
 4457.00    0.99657   1.01389   -1.000
 4458.00    1.00169   1.01494   -1.000
 4459.00    0.99418   1.01353   -1.000
 4460.00    0.98871   1.01157   -1.000
 4461.00    0.98668   1.01063   -1.000
 4462.00    0.99129   1.01054   -1.000
 4463.00    1.00204   1.01013   -1.000
 4464.00    0.99522   1.00797   -1.000
 4465.00    0.99522   1.00256   -1.000
 4466.00    0.98903   0.99360  539.861
 4467.00    0.97973   0.98421  540.261
 4468.00    0.97372   0.97980   -1.000
 4469.00    0.98277   0.98365  557.398
 4470.00    0.99086   0.99432  560.517
 4471.00    0.99991   1.00752   -1.000
 4472.00    1.00943   1.01942   -1.000
 4473.00    1.01706   1.02803   -1.000
 4474.00    1.01174   1.03300   -1.000
 4475.00    1.01311   1.03500   -1.000
 4476.00    1.01438   1.03423   -1.000
 4477.00    1.01643   1.02919   -1.000
 4478.00    1.01368   1.01838  491.859
 4479.00    1.01469   1.00424   -1.000
 4480.00    1.00062   0.99384   -1.000
 4481.00    0.99266   0.99391  539.071
 4482.00    0.99372   1.00479   -1.000
 4483.00    1.00444   1.02019   -1.000
 4484.00    1.00678   1.03225   -1.000
 4485.00    1.01848   1.03612   -1.000
 4486.00    1.01605   1.03133   -1.000
 4487.00    1.00965   1.02171   -1.000
 4488.00    1.00844   1.01349  505.969
 4489.00    1.00048   1.01118   -1.000
 4490.00    1.00246   1.01458   -1.000
 4491.00    1.00493   1.01987   -1.000
 4492.00    1.00370   1.02336   -1.000
 4493.00    1.00902   1.02438   -1.000
 4494.00    1.00037   1.02468   -1.000
 4495.00    1.00346   1.02569   -1.000
 4496.00    1.00491   1.02684   -1.000
 4497.00    1.01035   1.02592   -1.000
 4498.00    1.01337   1.02107   -1.000
 4499.00    1.00738   1.01372   -1.000
 4500.00    0.99273   1.00910   -1.000
 4501.00    0.98914   1.01190   -1.000
 4502.00    1.00429   1.02137   -1.000
 4503.00    1.01259   1.03184   -1.000
 4504.00    1.01626   1.03757   -1.000
 4505.00    1.01644   1.03672   -1.000
 4506.00    1.01220   1.03182   -1.000
 4507.00    1.01591   1.02761   -1.000
 4508.00    1.01747   1.02756   -1.000
 4509.00    1.02334   1.03114   -1.000
 4510.00    1.01879   1.03490   -1.000
 4511.00    1.01485   1.03579   -1.000
 4512.00    1.01365   1.03292   -1.000
 4513.00    1.01326   1.02756   -1.000
 4514.00    1.01227   1.02231   -1.000
 4515.00    1.01262   1.01915   -1.000
 4516.00    1.01120   1.01745   -1.000
 4517.00    1.00833   1.01503   -1.000
 4518.00    1.01102   1.01099  509.802
 4519.00    1.01375   1.00647   -1.000
 4520.00    1.01695   1.00265   -1.000
 4521.00    1.00815   1.00004   -1.000
 4522.00    0.99961   0.99948  495.496
 4523.00    1.00550   1.00152  507.473
 4524.00    1.00894   1.00466  517.757
 4525.00    1.00734   1.00586  522.097
 4526.00    1.00173   1.00325  530.947
 4527.00    0.99596   0.99821  547.388
 4528.00    0.98911   0.99435  562.848
 4529.00    0.98896   0.99368  569.484
 4530.00    0.99752   0.99377  565.188
 4531.00    1.00229   0.99029   -1.000
 4532.00    0.98992   0.98300   -1.000
 4533.00    0.98002   0.97762  542.399
 4534.00    0.98108   0.98048  557.888
 4535.00    0.99152   0.99215  576.982
 4536.00    1.00509   1.00723  569.165
 4537.00    1.01527   1.01904  536.391
 4538.00    1.02187   1.02386  504.658
 4539.00    1.01899   1.02238  491.218
 4540.00    1.01448   1.01828  496.165
 4541.00    1.01367   1.01527  508.296
 4542.00    1.05217   1.01457   -1.000
 4543.00    0.81660   1.01520   -1.000
 4544.00    0.04824   1.01577   -1.000
 4545.00   -0.05409   1.01455    0.000
 4546.00    0.18715   1.00882   -1.000
 4547.00    0.75784   0.99739   -1.000
 4548.00    0.21407   0.98458   -1.000
 4549.00    0.88226   0.97816   -1.000
 4550.00    0.99769   0.98095   -1.000
 4551.00    0.99605   0.98682   -1.000
 4552.00    0.99895   0.98784   -1.000
 4553.00    0.99175   0.98343   -1.000
 4554.00    0.98919   0.98011   -1.000
 4555.00    0.99505   0.98361   -1.000
 4556.00    1.00454   0.99336   -1.000
 4557.00    1.01431   1.00485   -1.000
 4558.00    1.01724   1.01475  491.237
 4559.00    1.01917   1.02173  482.626
 4560.00    1.02071   1.02398  485.344
 4561.00    1.00952   1.01985   -1.000
 4562.00    1.00563   1.01169  485.247
 4563.00    1.00025   1.00576  496.581
 4564.00    1.00003   1.00674   -1.000
 4565.00    1.01021   1.01351  517.741
 4566.00    1.01707   1.02104  512.055
 4567.00    1.02005   1.02482  499.006
 4568.00    1.01914   1.02279  485.772
 4569.00    1.01535   1.01538  480.888
 4570.00    1.00087   1.00600  486.185
 4571.00    0.99216   1.00045   -1.000
 4572.00    1.00128   1.00231  511.741
 4573.00    1.00830   1.00887  508.082
 4574.00    1.01551   1.01427  492.685
 4575.00    1.01264   1.01591  485.613
 4576.00    1.01355   1.01506  485.877
 4577.00    1.01201   1.01290  488.127
 4578.00    1.00976   1.00903  490.964
 4579.00    1.01233   1.00296   -1.000
 4580.00    1.01101   0.99491   -1.000
 4581.00    1.00949   0.98601   -1.000
 4582.00    1.00309   0.97942   -1.000
 4583.00    1.00263   0.97920   -1.000
 4584.00    1.00459   0.98595   -1.000
 4585.00    1.00667   0.99508   -1.000
 4586.00    1.01211   1.00108   -1.000
 4587.00    1.01657   1.00213   -1.000
 4588.00    1.01378   1.00042   -1.000
 4589.00    1.00987   0.99929   -1.000
 4590.00    1.01103   1.00054   -1.000
 4591.00    1.00463   1.00404  492.374
 4592.00    1.00142   1.00882   -1.000
 4593.00    1.01258   1.01413  510.402
 4594.00    1.01826   1.01941  510.971
 4595.00    1.01499   1.02395   -1.000
 4596.00    1.01382   1.02667   -1.000
 4597.00    1.01868   1.02664   -1.000
 4598.00    1.01990   1.02401  500.225
 4599.00    1.01169   1.02002   -1.000
 4600.00    1.01108   1.01631  503.446
 4601.00    1.00979   1.01415  507.991
 4602.00    1.00307   1.01388   -1.000
 4603.00    1.00703   1.01502   -1.000
 4604.00    1.01010   1.01688   -1.000
 4605.00    1.01568   1.01900  499.183
 4606.00    1.01568   1.02116  498.383
 4607.00    1.01618   1.02307   -1.000
 4608.00    1.01853   1.02446  483.290
 4609.00    1.01990   1.02510  472.923
 4610.00    1.01947   1.02493  467.285
 4611.00    1.02532   1.02423  469.279
 4612.00    1.01912   1.02337  475.727
 4613.00    1.01728   1.02195  481.041
 4614.00    1.01632   1.01900  484.191
 4615.00    1.01773   1.01437  481.870
 4616.00    1.01965   1.00920   -1.000
 4617.00    1.02203   1.00510   -1.000
 4618.00    1.01965   1.00353   -1.000
 4619.00    1.01814   1.00544   -1.000
 4620.00    1.01800   1.01058   -1.000
 4621.00    1.01961   1.01694  477.368
 4622.00    1.02511   1.02181  469.791
 4623.00    1.02202   1.02370  469.526
 4624.00    1.01761   1.02282  470.711
 4625.00    1.01650   1.01988  471.643
 4626.00    1.01417   1.01518  475.943
 4627.00    1.01124   1.00965  477.168
 4628.00    1.00921   1.00598  476.932
 4629.00    1.01049   1.00672  479.967
 4630.00    1.01003   1.01113  481.039
 4631.00    1.01621   1.01548  478.679
 4632.00    1.01314   1.01681  473.173
 4633.00    1.01454   1.01589  475.148
 4634.00    1.01904   1.01561  482.055
 4635.00    1.02291   1.01756  487.426
 4636.00    1.02184   1.02110  487.085
 4637.00    1.01932   1.02499  490.947
 4638.00    1.02009   1.02889   -1.000
 4639.00    1.02114   1.03286   -1.000
 4640.00    1.02390   1.03649   -1.000
 4641.00    1.02390   1.03894   -1.000
 4642.00    1.02196   1.03957   -1.000
 4643.00    1.02275   1.03813   -1.000
 4644.00    1.01856   1.03469   -1.000
 4645.00    1.01356   1.03006   -1.000
 4646.00    1.00901   1.02601   -1.000
 4647.00    1.01318   1.02437   -1.000
 4648.00    1.01934   1.02557   -1.000
 4649.00    1.02099   1.02844   -1.000
 4650.00    1.02225   1.03113   -1.000
 4651.00    1.01971   1.03204   -1.000
 4652.00    1.01282   1.03042   -1.000
 4653.00    1.01055   1.02668   -1.000
 4654.00    1.00990   1.02214   -1.000
 4655.00    1.01049   1.01885   -1.000
 4656.00    1.01276   1.01922   -1.000
 4657.00    1.01271   1.02424   -1.000
 4658.00    1.01891   1.03190   -1.000
 4659.00    1.02451   1.03823   -1.000
 4660.00    1.02728   1.04040   -1.000
 4661.00    1.02559   1.03853   -1.000
 4662.00    1.02406   1.03451   -1.000
 4663.00    1.02851   1.02951  472.494
 4664.00    1.02597   1.02314  481.897
 4665.00    1.01748   1.01517  483.218
 4666.00    1.01341   1.00736   -1.000
 4667.00    1.00819   1.00247   -1.000
 4668.00    1.00521   1.00206  533.283
 4669.00    1.01045   1.00583  534.410
 4670.00    1.01505   1.01223  518.345
 4671.00    1.02469   1.01916  496.678
 4672.00    1.02117   1.02494  483.033
 4673.00    1.02181   1.02910   -1.000
 4674.00    1.02605   1.03191  480.240
 4675.00    1.02181   1.03313   -1.000
 4676.00    1.02496   1.03203   -1.000
 4677.00    1.02326   1.02865  466.514
 4678.00    1.02353   1.02409  468.610
 4679.00    1.02058   1.01977  478.646
 4680.00    1.01722   1.01685  488.175
 4681.00    1.01607   1.01589  496.290
 4682.00    1.02254   1.01664   -1.000
 4683.00    1.02082   1.01818  495.239
 4684.00    1.02719   1.01969   -1.000
 4685.00    1.02790   1.02092   -1.000
 4686.00    1.02832   1.02205   -1.000
 4687.00    1.02884   1.02315  477.991
 4688.00    1.03127   1.02374   -1.000
 4689.00    1.02864   1.02341  480.768
 4690.00    1.02515   1.02258  480.804
 4691.00    1.01994   1.02219  484.182
 4692.00    1.02422   1.02257  485.275
 4693.00    1.02642   1.02328  479.705
 4694.00    1.02718   1.02365  472.568
 4695.00    1.02918   1.02272   -1.000
 4696.00    1.02820   1.01979   -1.000
 4697.00    1.02905   1.01547   -1.000
 4698.00    1.02565   1.01121   -1.000
 4699.00    1.02116   1.00760   -1.000
 4700.00    1.01852   1.00417   -1.000
 4701.00    1.01460   1.00079   -1.000
 4702.00    1.00904   0.99872   -1.000
 4703.00    1.00828   0.99912   -1.000
 4704.00    1.01455   1.00101   -1.000
 4705.00    1.02076   1.00178   -1.000
 4706.00    1.01432   0.99998   -1.000
 4707.00    1.00670   0.99718   -1.000
 4708.00    1.01016   0.99639   -1.000
 4709.00    1.01312   0.99893   -1.000
 4710.00    1.01645   1.00315   -1.000
 4711.00    1.02016   1.00614   -1.000
 4712.00    1.02055   1.00653   -1.000
 4713.00    1.01915   1.00550   -1.000
 4714.00    1.01676   1.00551   -1.000
 4715.00    1.01857   1.00763   -1.000
 4716.00    1.02032   1.01074   -1.000
 4717.00    1.02303   1.01328   -1.000
 4718.00    1.02810   1.01472   -1.000
 4719.00    1.02575   1.01538   -1.000
 4720.00    1.01776   1.01569  461.800
 4721.00    1.01748   1.01612  460.220
 4722.00    1.02070   1.01727  463.947
 4723.00    1.01933   1.01912  467.298
 4724.00    1.02136   1.02069  464.784
 4725.00    1.02374   1.02083  459.793
 4726.00    1.01734   1.01895  460.275
 4727.00    1.01414   1.01530  471.094
 4728.00    1.01603   1.01041  488.880
 4729.00    1.01595   1.00517   -1.000
 4730.00    1.01648   1.00159   -1.000
 4731.00    1.01449   1.00143   -1.000
 4732.00    1.01103   1.00425   -1.000
 4733.00    1.01837   1.00742   -1.000
 4734.00    1.00849   1.00859  479.753
 4735.00    1.00831   1.00770  476.975
 4736.00    1.01129   1.00631  474.320
 4737.00    1.01405   1.00562   -1.000
 4738.00    1.01593   1.00579   -1.000
 4739.00    1.01881   1.00671   -1.000
 4740.00    1.01925   1.00827   -1.000
 4741.00    1.01999   1.01040   -1.000
 4742.00    1.01483   1.01284  477.315
 4743.00    1.01848   1.01532  473.662
 4744.00    1.02104   1.01787  468.516
 4745.00    1.01956   1.02055  469.198
 4746.00    1.01728   1.02351  469.663
 4747.00    1.02013   1.02647  466.317
 4748.00    1.02479   1.02899  461.620
 4749.00    1.02129   1.03071   -1.000
 4750.00    1.01999   1.03145   -1.000
 4751.00    1.01694   1.03112   -1.000
 4752.00    1.01920   1.02989   -1.000
 4753.00    1.01450   1.02820   -1.000
 4754.00    1.01289   1.02683   -1.000
 4755.00    1.01578   1.02646   -1.000
 4756.00    1.01667   1.02696   -1.000
 4757.00    1.02016   1.02736   -1.000
 4758.00    1.02031   1.02656  481.754
 4759.00    1.01649   1.02339   -1.000
 4760.00    1.01437   1.01730  478.618
 4761.00    1.01230   1.00932  477.580
 4762.00    1.00547   1.00228  484.666
 4763.00    1.00007   0.99937  496.659
 4764.00    1.00199   1.00188  503.381
 4765.00    1.01022   1.00837  504.390
 4766.00    1.01663   1.01613  503.406
 4767.00    1.01753   1.02300  499.979
 4768.00    1.01568   1.02772   -1.000
 4769.00    1.01492   1.02964   -1.000
 4770.00    1.01795   1.02907   -1.000
 4771.00    1.01588   1.02748   -1.000
 4772.00    1.01397   1.02665   -1.000
 4773.00    1.01452   1.02727   -1.000
 4774.00    1.01894   1.02856   -1.000
 4775.00    1.02275   1.02929  468.695
 4776.00    1.02035   1.02825   -1.000
 4777.00    1.01516   1.02472   -1.000
 4778.00    1.01368   1.01980  466.658
 4779.00    1.00965   1.01655   -1.000
 4780.00    1.01026   1.01701  474.817
 4781.00    1.01338   1.01989  477.769
 4782.00    1.01293   1.02235   -1.000
 4783.00    1.01416   1.02268   -1.000
 4784.00    1.01643   1.02094  485.136
 4785.00    1.01563   1.01837  485.169
 4786.00    1.01053   1.01641  486.684
 4787.00    1.01357   1.01583  491.382
 4788.00    1.01128   1.01670  494.347
 4789.00    1.01784   1.01878  494.030
 4790.00    1.02072   1.02174  491.688
 4791.00    1.02427   1.02513  488.679
 4792.00    1.01911   1.02868   -1.000
 4793.00    1.01887   1.03153   -1.000
 4794.00    1.02181   1.03254   -1.000
 4795.00    1.02054   1.03099   -1.000
 4796.00    1.01824   1.02743   -1.000
 4797.00    1.01726   1.02374  459.500
 4798.00    1.01763   1.02215  468.554
 4799.00    1.01746   1.02341  477.406
 4800.00    1.01928   1.02618   -1.000
 4801.00    1.02136   1.02761  479.630
 4802.00    1.02085   1.02507  470.178
 4803.00    1.01808   1.01919  463.228
 4804.00    1.01604   1.01362  463.479
 4805.00    1.01405   1.01184  469.393
 4806.00    1.01649   1.01439  475.451
 4807.00    1.01999   1.01886  479.888
 4808.00    1.01991   1.02233  480.037
 4809.00    1.01999   1.02350  478.875
 4810.00    1.01750   1.02334  476.776
 4811.00    1.01889   1.02380  472.573
 4812.00    1.02100   1.02598  469.121
 4813.00    1.02158   1.02915   -1.000
 4814.00    1.02183   1.03178   -1.000
 4815.00    1.02089   1.03314   -1.000
 4816.00    1.01994   1.03333   -1.000
 4817.00    1.01999   1.03257   -1.000
 4818.00    1.02083   1.03094   -1.000
 4819.00    1.02006   1.02822   -1.000
 4820.00    1.02145   1.02381  455.453
 4821.00    1.02045   1.01726  455.469
 4822.00    1.01336   1.00979  459.221
 4823.00    1.01124   1.00432   -1.000
 4824.00    1.01414   1.00314   -1.000
 4825.00    1.01555   1.00581   -1.000
 4826.00    1.01595   1.00969   -1.000
 4827.00    1.01633   1.01230  464.449
 4828.00    1.01948   1.01294   -1.000
 4829.00    1.01739   1.01229  471.086
 4830.00    1.01735   1.01106   -1.000
 4831.00    1.01740   1.00969   -1.000
 4832.00    1.01924   1.00831   -1.000
 4833.00    1.01417   1.00678   -1.000
 4834.00    1.01404   1.00497   -1.000
 4835.00    1.01380   1.00340   -1.000
 4836.00    1.00991   1.00267   -1.000
 4837.00    1.00768   1.00257  464.508
 4838.00    1.01212   1.00233   -1.000
 4839.00    1.00828   1.00171   -1.000
 4840.00    1.00610   1.00090  481.110
 4841.00    1.00194   0.99978  482.025
 4842.00    1.00661   0.99799   -1.000
 4843.00    1.00563   0.99530   -1.000
 4844.00    1.00436   0.99166   -1.000
 4845.00    0.99840   0.98679   -1.000
 4846.00    0.99780   0.98046   -1.000
 4847.00    0.98988   0.97381   -1.000
 4848.00    0.98430   0.96871   -1.000
 4849.00    0.98207   0.96553   -1.000
 4850.00    0.97780   0.96246   -1.000
 4851.00    0.97193   0.95663   -1.000
 4852.00    0.96643   0.94568   -1.000
 4853.00    0.95924   0.92926   -1.000
 4854.00    0.94788   0.90949   -1.000
 4855.00    0.93483   0.88825   -1.000
 4856.00    0.91462   0.86328   -1.000
 4857.00    0.88582   0.82846   -1.000
 4858.00    0.83782   0.77898   -1.000
 4859.00    0.75622   0.72128   -1.000
 4860.00    0.67808   0.67527  551.717
 4861.00    0.66839   0.66276   -1.000
 4862.00    0.73431   0.68935   -1.000
 4863.00    0.81786   0.74060   -1.000
 4864.00    0.87489   0.79618   -1.000
 4865.00    0.90709   0.84329   -1.000
 4866.00    0.92705   0.87867   -1.000
 4867.00    0.94273   0.90334   -1.000
 4868.00    0.95304   0.91833   -1.000
 4869.00    0.95659   0.92503   -1.000
 4870.00    0.95596   0.92715   -1.000
 4871.00    0.95740   0.92973   -1.000
 4872.00    0.96261   0.93578   -1.000
 4873.00    0.97001   0.94433   -1.000
 4874.00    0.98371   0.95244   -1.000
 4875.00    0.98837   0.95855   -1.000
 4876.00    0.98752   0.96358   -1.000
 4877.00    0.98870   0.96955   -1.000
 4878.00    0.99136   0.97712   -1.000
 4879.00    0.99780   0.98455   -1.000
 4880.00    0.99999   0.98882   -1.000
 4881.00    1.00130   0.98855   -1.000
 4882.00    0.99972   0.98566   -1.000
 4883.00    1.00073   0.98391   -1.000
 4884.00    1.00269   0.98546   -1.000
 4885.00    1.00545   0.98920   -1.000
 4886.00    1.00611   0.99230   -1.000
 4887.00    1.00365   0.99219   -1.000
 4888.00    1.00112   0.98821   -1.000
 4889.00    0.99517   0.98236   -1.000
 4890.00    0.98429   0.97911   -1.000
 4891.00    0.98641   0.98244  511.314
 4892.00    0.99822   0.99193   -1.000
 4893.00    1.00953   1.00357   -1.000
 4894.00    1.01691   1.01351  467.764
 4895.00    1.02064   1.01991  453.168
 4896.00    1.02162   1.02244  444.220
 4897.00    1.01647   1.02125  441.488
 4898.00    1.01445   1.01734  442.163
 4899.00    1.01788   1.01307  450.924
 4900.00    1.01410   1.01060  461.598
 4901.00    1.00978   1.01015  467.314
 4902.00    1.01241   1.01110  465.743
 4903.00    1.01492   1.01353  466.061
 4904.00    1.01566   1.01754  471.348
 4905.00    1.01923   1.02157  467.360
 4906.00    1.01983   1.02329  457.739
 4907.00    1.02037   1.02149  453.506
 4908.00    1.01787   1.01670  456.930
 4909.00    1.01802   1.01090   -1.000
 4910.00    1.01920   1.00695   -1.000
 4911.00    1.01394   1.00687   -1.000
 4912.00    1.01757   1.01029   -1.000
 4913.00    1.02016   1.01507  473.960
 4914.00    1.01815   1.01836  467.232
 4915.00    1.02218   1.01754  461.121
 4916.00    1.02067   1.01094   -1.000
 4917.00    1.01493   0.99910   -1.000
 4918.00    1.00464   0.98509   -1.000
 4919.00    0.98904   0.97312   -1.000
 4920.00    0.98282   0.96596   -1.000
 4921.00    0.98933   0.96303   -1.000
 4922.00    0.99838   0.96256   -1.000
 4923.00    0.99947   0.96551   -1.000
 4924.00    1.00482   0.97418   -1.000
 4925.00    1.01301   0.98744   -1.000
 4926.00    1.01838   1.00104   -1.000
 4927.00    1.02430   1.01136   -1.000
 4928.00    1.02438   1.01719   -1.000
 4929.00    1.02686   1.01862   -1.000
 4930.00    1.02599   1.01554   -1.000
 4931.00    1.01879   1.00806   -1.000
 4932.00    1.01063   0.99835   -1.000
 4933.00    1.00419   0.99116   -1.000
 4934.00    1.00154   0.98991   -1.000
 4935.00    1.00914   0.99288   -1.000
 4936.00    1.01460   0.99566   -1.000
 4937.00    1.01491   0.99623   -1.000
 4938.00    1.00783   0.99665   -1.000
 4939.00    1.01070   1.00000   -1.000
 4940.00    1.01466   1.00689   -1.000
 4941.00    1.01702   1.01514  484.017
 4942.00    1.02633   1.02182  468.289
 4943.00    1.02488   1.02529  458.902
 4944.00    1.02556   1.02575  454.234
 4945.00    1.02388   1.02488  454.056
 4946.00    1.02249   1.02446  456.992
 4947.00    1.02627   1.02508  458.269
 4948.00    1.02666   1.02612  454.717
 4949.00    1.02616   1.02668  449.435
 4950.00    1.02475   1.02643  447.603
 4951.00    1.02379   1.02553  445.792
 4952.00    1.02569   1.02380  447.619
 4953.00    1.02646   1.01989   -1.000
 4954.00    1.02168   1.01181   -1.000
 4955.00    1.00813   0.99960   -1.000
 4956.00    0.99391   0.98797   -1.000
 4957.00    0.98857   0.98411  495.876
 4958.00    0.99737   0.99056   -1.000
 4959.00    1.01168   1.00323   -1.000
 4960.00    1.01945   1.01591  482.832
 4961.00    1.02649   1.02442  464.770
 4962.00    1.02955   1.02779  459.705
 4963.00    1.02390   1.02697  461.209
 4964.00    1.01959   1.02351  464.738
 4965.00    1.02028   1.01939  470.034
 4966.00    1.02341   1.01654   -1.000
 4967.00    1.02277   1.01561   -1.000
 4968.00    1.02061   1.01639  487.144
 4969.00    1.02207   1.01843  485.882
 4970.00    1.02616   1.02100  482.551
 4971.00    1.02800   1.02345  477.567
 4972.00    1.02893   1.02539  472.436
 4973.00    1.02741   1.02637  466.853
 4974.00    1.02917   1.02617  462.296
 4975.00    1.02724   1.02476  460.102
 4976.00    1.02844   1.02227   -1.000
 4977.00    1.02889   1.01928   -1.000
 4978.00    1.02365   1.01582   -1.000
 4979.00    1.02437   1.01055   -1.000
 4980.00    1.02170   1.00283   -1.000
 4981.00    1.00712   0.99416   -1.000
 4982.00    1.00334   0.98774   -1.000
 4983.00    1.00559   0.98638   -1.000
 4984.00    1.00794   0.99036   -1.000
 4985.00    1.01252   0.99794   -1.000
 4986.00    1.02005   1.00622   -1.000
 4987.00    1.02274   1.01207   -1.000
 4988.00    1.02161   1.01337   -1.000
 4989.00    1.01784   1.01050   -1.000
 4990.00    1.01205   1.00607   -1.000
 4991.00    1.01389   1.00322   -1.000
 4992.00    1.01755   1.00355   -1.000
 4993.00    1.01705   1.00677   -1.000
 4994.00    1.01742   1.01144   -1.000
 4995.00    1.01908   1.01511  481.446
 4996.00    1.01836   1.01515  479.262
 4997.00    1.01782   1.01020   -1.000
 4998.00    1.01727   1.00135   -1.000
 4999.00    1.01557   0.99301   -1.000
 5000.00    1.01429   0.98975   -1.000
 5001.00    1.01444   0.99115   -1.000
 5002.00    1.01666   0.99357   -1.000
 5003.00    1.01668   0.99333   -1.000
 5004.00    1.01465   0.98988   -1.000
 5005.00    1.00844   0.98625   -1.000
 5006.00    1.00299   0.98603   -1.000
 5007.00    1.00294   0.98980   -1.000
 5008.00    1.01040   0.99440   -1.000
 5009.00    1.01748   0.99617   -1.000
 5010.00    1.01226   0.99352   -1.000
 5011.00    1.00523   0.98785   -1.000
 5012.00    0.99860   0.98219   -1.000
 5013.00    0.99777   0.97892   -1.000
 5014.00    1.00237   0.97784   -1.000
 5015.00    1.00603   0.97606   -1.000
 5016.00    1.00299   0.97141   -1.000
 5017.00    0.99654   0.96595   -1.000
 5018.00    0.99688   0.96531   -1.000
 5019.00    1.00254   0.97229   -1.000
 5020.00    1.01067   0.98370   -1.000
 5021.00    1.01264   0.99484   -1.000
 5022.00    1.01600   1.00338   -1.000
 5023.00    1.01712   1.00939   -1.000
 5024.00    1.02002   1.01342   -1.000
 5025.00    1.02233   1.01545   -1.000
 5026.00    1.01956   1.01551  491.131
 5027.00    1.01902   1.01424  492.700
 5028.00    1.01855   1.01227   -1.000
 5029.00    1.01952   1.01037   -1.000
 5030.00    1.01886   1.00982   -1.000
 5031.00    1.02245   1.01118   -1.000
 5032.00    1.02191   1.01296   -1.000
 5033.00    1.01668   1.01311  462.339
 5034.00    1.01801   1.01101   -1.000
 5035.00    1.01188   1.00783  475.109
 5036.00    1.01214   1.00461   -1.000
 5037.00    1.00866   1.00041   -1.000
 5038.00    1.00755   0.99393   -1.000
 5039.00    0.99790   0.98605   -1.000
 5040.00    0.98709   0.98053   -1.000
 5041.00    0.98827   0.98161   -1.000
 5042.00    0.99643   0.98947   -1.000
 5043.00    1.00490   1.00078  531.691
 5044.00    1.05194   1.01120   -1.000
 5045.00    0.60070   1.01785   -1.000
 5046.00    0.11117   1.01956   -1.000
 5047.00   -0.03493   1.01629    0.000
 5048.00    0.38978   1.00895   -1.000
 5049.00    0.90564   0.99970   -1.000
 5050.00    0.99127   0.99143  449.192
 5051.00    1.00579   0.98828   -1.000
 5052.00    1.01638   0.99318   -1.000
 5053.00    1.02195   1.00359   -1.000
 5054.00    1.02366   1.01398   -1.000
 5055.00    1.02221   1.02104  467.381
 5056.00    1.02082   1.02469  462.370
 5057.00    1.01961   1.02658  460.485
 5058.00    1.01936   1.02781   -1.000
 5059.00    1.01802   1.02848   -1.000
 5060.00    1.02081   1.02812   -1.000
 5061.00    1.02330   1.02618  459.112
 5062.00    1.02027   1.02248  458.864
 5063.00    1.01679   1.01769  464.221
 5064.00    1.01548   1.01329  476.759
 5065.00    1.01663   1.01050   -1.000
 5066.00    1.01771   1.00922   -1.000
 5067.00    1.01728   1.00873   -1.000
 5068.00    1.01791   1.00860   -1.000
 5069.00    1.02049   1.00870   -1.000
 5070.00    1.02380   1.00865   -1.000
 5071.00    1.02279   1.00804   -1.000
 5072.00    1.02603   1.00706   -1.000
 5073.00    1.02372   1.00622   -1.000
 5074.00    1.02428   1.00564   -1.000
 5075.00    1.02311   1.00461   -1.000
 5076.00    1.02098   1.00190   -1.000
 5077.00    1.01708   0.99709   -1.000
 5078.00    1.00903   0.99201   -1.000
 5079.00    1.00241   0.98950   -1.000
 5080.00    1.00308   0.99069   -1.000
 5081.00    1.00825   0.99417   -1.000
 5082.00    1.01220   0.99836   -1.000
 5083.00    1.01578   1.00275   -1.000
 5084.00    1.01912   1.00691   -1.000
 5085.00    1.02536   1.01014   -1.000
 5086.00    1.02970   1.01232   -1.000
 5087.00    1.02727   1.01410   -1.000
 5088.00    1.02429   1.01624   -1.000
 5089.00    1.02656   1.01885   -1.000
 5090.00    1.02892   1.02138   -1.000
 5091.00    1.02912   1.02343   -1.000
 5092.00    1.03049   1.02474   -1.000
 5093.00    1.02982   1.02484  462.763
 5094.00    1.02828   1.02304  458.407
 5095.00    1.02540   1.01889   -1.000
 5096.00    1.02121   1.01302   -1.000
 5097.00    1.01744   1.00723   -1.000
 5098.00    1.01600   1.00376   -1.000
 5099.00    1.01978   1.00417   -1.000
 5100.00    1.02268   1.00775   -1.000
 5101.00    1.02976   1.01262   -1.000
 5102.00    1.03284   1.01648   -1.000
 5103.00    1.02987   1.01775   -1.000
 5104.00    1.02729   1.01575   -1.000
 5105.00    1.01915   1.01093   -1.000
 5106.00    1.01286   1.00499   -1.000
 5107.00    1.01079   1.00068   -1.000
 5108.00    1.00802   0.99950   -1.000
 5109.00    1.00821   1.00164   -1.000
 5110.00    1.01230   1.00642   -1.000
 5111.00    1.01849   1.01269   -1.000
 5112.00    1.02774   1.01874   -1.000
 5113.00    1.03040   1.02333   -1.000
 5114.00    1.02936   1.02613  476.396
 5115.00    1.03225   1.02776  471.874
 5116.00    1.03448   1.02864   -1.000
 5117.00    1.03528   1.02849   -1.000
 5118.00    1.03481   1.02693   -1.000
 5119.00    1.02947   1.02390  461.045
 5120.00    1.02984   1.01952   -1.000
 5121.00    1.02755   1.01435   -1.000
 5122.00    1.02050   1.00933   -1.000
 5123.00    1.01380   1.00560   -1.000
 5124.00    1.01665   1.00363   -1.000
 5125.00    1.02108   1.00240   -1.000
 5126.00    1.01640   1.00069   -1.000
 5127.00    1.01364   0.99876   -1.000
 5128.00    1.01853   0.99802   -1.000
 5129.00    1.02077   0.99960   -1.000
 5130.00    1.02351   1.00312   -1.000
 5131.00    1.02243   1.00700   -1.000
 5132.00    1.02006   1.01022   -1.000
 5133.00    1.02532   1.01235   -1.000
 5134.00    1.02805   1.01291   -1.000
 5135.00    1.02597   1.01128   -1.000
 5136.00    1.02199   1.00751   -1.000
 5137.00    1.01528   1.00269   -1.000
 5138.00    1.00989   0.99886   -1.000
 5139.00    1.00807   0.99752   -1.000
 5140.00    1.01127   0.99872   -1.000
 5141.00    1.01699   1.00113   -1.000
 5142.00    1.01843   1.00389   -1.000
 5143.00    1.01680   1.00683   -1.000
 5144.00    1.01884   1.00949   -1.000
 5145.00    1.02510   1.01124   -1.000
 5146.00    1.02983   1.01197   -1.000
 5147.00    1.02936   1.01150   -1.000
 5148.00    1.02795   1.00952   -1.000
 5149.00    1.02242   1.00590   -1.000
 5150.00    1.01833   1.00133   -1.000
 5151.00    1.01332   0.99742   -1.000
 5152.00    1.01512   0.99591   -1.000
 5153.00    1.01745   0.99757   -1.000
 5154.00    1.02227   1.00241   -1.000
 5155.00    1.02645   1.00907   -1.000
 5156.00    1.03190   1.01535   -1.000
 5157.00    1.03983   1.01959   -1.000
 5158.00    1.03509   1.02134   -1.000
 5159.00    1.03427   1.02106   -1.000
 5160.00    1.03370   1.01946   -1.000
 5161.00    1.02952   1.01665   -1.000
 5162.00    1.02827   1.01128   -1.000
 5163.00    1.02790   1.00012   -1.000
 5164.00    1.01902   0.98020   -1.000
 5165.00    0.99342   0.95291   -1.000
 5166.00    0.96547   0.92563   -1.000
 5167.00    0.94694   0.90843   -1.000
 5168.00    0.95239   0.90502   -1.000
 5169.00    0.97252   0.91127   -1.000
 5170.00    0.97966   0.91888   -1.000
 5171.00    0.97088   0.92535   -1.000
 5172.00    0.96990   0.93547   -1.000
 5173.00    0.98794   0.95313   -1.000
 5174.00    1.01056   0.97594   -1.000
 5175.00    1.02598   0.99664   -1.000
 5176.00    1.03185   1.01060   -1.000
 5177.00    1.03488   1.01726   -1.000
 5178.00    1.03714   1.01730   -1.000
 5179.00    1.03582   1.01033   -1.000
 5180.00    1.03124   0.99540   -1.000
 5181.00    1.01600   0.97405   -1.000
 5182.00    0.99222   0.95355   -1.000
 5183.00    0.97778   0.94245   -1.000
 5184.00    0.98788   0.94548   -1.000
 5185.00    1.01050   0.95767   -1.000
 5186.00    1.02253   0.97025   -1.000
 5187.00    1.02399   0.97802   -1.000
 5188.00    1.02209   0.98068   -1.000
 5189.00    1.02089   0.98049   -1.000
 5190.00    1.01281   0.97885   -1.000
 5191.00    1.00430   0.97711   -1.000
 5192.00    1.00543   0.97677   -1.000
 5193.00    1.00702   0.97809   -1.000
 5194.00    1.01017   0.97985   -1.000
 5195.00    1.01737   0.98147   -1.000
 5196.00    1.02171   0.98348   -1.000
 5197.00    1.02495   0.98676   -1.000
 5198.00    1.02823   0.99135   -1.000
 5199.00    1.02690   0.99541   -1.000
 5200.00    1.02796   0.99671   -1.000
 5201.00    1.02338   0.99369   -1.000
 5202.00    1.01751   0.98658   -1.000
 5203.00    1.00794   0.97744   -1.000
 5204.00    1.00259   0.96971   -1.000
 5205.00    1.00268   0.96581   -1.000
 5206.00    1.00509   0.96587   -1.000
 5207.00    1.00457   0.96849   -1.000
 5208.00    1.00460   0.97275   -1.000
 5209.00    1.01275   0.97906   -1.000
 5210.00    1.02340   0.98700   -1.000
 5211.00    1.02782   0.99428   -1.000
 5212.00    1.03136   0.99872   -1.000
 5213.00    1.03296   0.99861   -1.000
 5214.00    1.02715   0.99525   -1.000
 5215.00    1.02255   0.99173   -1.000
 5216.00    1.02383   0.99146   -1.000
 5217.00    1.02515   0.99561   -1.000
 5218.00    1.03325   1.00236   -1.000
 5219.00    1.03888   1.00892   -1.000
 5220.00    1.03983   1.01289   -1.000
 5221.00    1.04189   1.01287   -1.000
 5222.00    1.03956   1.00750   -1.000
 5223.00    1.03332   0.99619   -1.000
 5224.00    1.02176   0.98042   -1.000
 5225.00    1.00344   0.96520   -1.000
 5226.00    0.99072   0.95747   -1.000
 5227.00    0.99627   0.96080   -1.000
 5228.00    1.01372   0.97131   -1.000
 5229.00    1.02737   0.98170   -1.000
 5230.00    1.03315   0.98594   -1.000
 5231.00    1.02630   0.98367   -1.000
 5232.00    1.01917   0.97856   -1.000
 5233.00    1.02261   0.97573   -1.000
 5234.00    1.02613   0.97807   -1.000
 5235.00    1.03017   0.98454   -1.000
 5236.00    1.03556   0.99233   -1.000
 5237.00    1.03924   0.99883   -1.000
 5238.00    1.04079   1.00329   -1.000
 5239.00    1.04118   1.00609   -1.000
 5240.00    1.04029   1.00789   -1.000
 5241.00    1.04121   1.00909   -1.000
 5242.00    1.03940   1.00980   -1.000
 5243.00    1.04038   1.00994   -1.000
 5244.00    1.03766   1.00915   -1.000
 5245.00    1.03590   1.00690   -1.000
 5246.00    1.03283   1.00348   -1.000
 5247.00    1.03038   0.99989   -1.000
 5248.00    1.02760   0.99694   -1.000
 5249.00    1.02597   0.99510   -1.000
 5250.00    1.02335   0.99467   -1.000
 5251.00    1.02699   0.99523   -1.000
 5252.00    1.03164   0.99591   -1.000
 5253.00    1.03343   0.99642   -1.000
 5254.00    1.03324   0.99759   -1.000
 5255.00    1.03090   1.00042   -1.000
 5256.00    1.03247   1.00470   -1.000
 5257.00    1.03994   1.00804   -1.000
 5258.00    1.03977   1.00806   -1.000
 5259.00    1.03621   1.00322   -1.000
 5260.00    1.03392   0.99405   -1.000
 5261.00    1.02505   0.98243   -1.000
 5262.00    1.01613   0.97131   -1.000
 5263.00    1.01300   0.96260   -1.000
 5264.00    1.01090   0.95769   -1.000
 5265.00    1.00697   0.95567   -1.000
 5266.00    1.00761   0.95424   -1.000
 5267.00    1.00735   0.95089   -1.000
 5268.00    0.99365   0.94629   -1.000
 5269.00    0.98065   0.94504   -1.000
 5270.00    0.98791   0.95011   -1.000
 5271.00    1.00778   0.95991   -1.000
 5272.00    1.02292   0.96866   -1.000
 5273.00    1.02654   0.97322   -1.000
 5274.00    1.02622   0.97505   -1.000
 5275.00    1.02906   0.97784   -1.000
 5276.00    1.03504   0.98385   -1.000
 5277.00    1.04082   0.99126   -1.000
 5278.00    1.04235   0.99653   -1.000
 5279.00    1.04092   0.99737   -1.000
 5280.00    1.03738   0.99404   -1.000
 5281.00    1.03136   0.98896   -1.000
 5282.00    1.02617   0.98523   -1.000
 5283.00    1.01943   0.98584   -1.000
 5284.00    0.99774   0.99124   -1.000
 5285.00    1.02398   0.99976   -1.000
 5286.00    1.03949   1.00764   -1.000
 5287.00    1.04033   1.01293   -1.000
 5288.00    1.04183   1.01544   -1.000
 5289.00    1.04228   1.01608   -1.000
 5290.00    1.04191   1.01556   -1.000
 5291.00    1.03949   1.01435   -1.000
 5292.00    1.03953   1.01278   -1.000
 5293.00    1.04012   1.01066   -1.000
 5294.00    1.03827   1.00756   -1.000
 5295.00    1.03763   1.00329   -1.000
 5296.00    1.03355   0.99894   -1.000
 5297.00    1.03064   0.99591   -1.000
 5298.00    1.03525   0.99533   -1.000
 5299.00    1.03798   0.99664   -1.000
 5300.00    1.03349   0.99863   -1.000
 5301.00    1.03027   1.00063   -1.000
 5302.00    1.03410   1.00257   -1.000
 5303.00    1.03833   1.00428   -1.000
 5304.00    1.04169   1.00525   -1.000
 5305.00    1.03886   1.00524   -1.000
 5306.00    1.03598   1.00493   -1.000
 5307.00    1.03711   1.00518   -1.000
 5308.00    1.03828   1.00630   -1.000
 5309.00    1.04039   1.00767   -1.000
 5310.00    1.04064   1.00818   -1.000
 5311.00    1.04219   1.00696   -1.000
 5312.00    1.04220   1.00344   -1.000
 5313.00    1.03977   0.99752   -1.000
 5314.00    1.03784   0.99017   -1.000
 5315.00    1.03343   0.98415   -1.000
 5316.00    1.03077   0.98238   -1.000
 5317.00    1.03202   0.98622   -1.000
 5318.00    1.03512   0.99319   -1.000
 5319.00    1.03832   0.99942   -1.000
 5320.00    1.03788   1.00174   -1.000
 5321.00    1.03531   0.99931   -1.000
 5322.00    1.02937   0.99346   -1.000
 5323.00    1.02856   0.98616   -1.000
 5324.00    1.02710   0.97857   -1.000
 5325.00    1.02076   0.97030   -1.000
 5326.00    1.00660   0.96187   -1.000
 5327.00    0.99564   0.95680   -1.000
 5328.00    0.99243   0.95889   -1.000
 5329.00    1.00896   0.96884   -1.000
 5330.00    1.02912   0.98129   -1.000
 5331.00    1.03485   0.99094   -1.000
 5332.00    1.03661   0.99507   -1.000
 5333.00    1.03774   0.99450   -1.000
 5334.00    1.03560   0.99149   -1.000
 5335.00    1.03263   0.98798   -1.000
 5336.00    1.03081   0.98531   -1.000
 5337.00    1.03439   0.98364   -1.000
 5338.00    1.03302   0.98272   -1.000
 5339.00    1.02702   0.98283   -1.000
 5340.00    1.02268   0.98472   -1.000
 5341.00    1.02472   0.98876   -1.000
 5342.00    1.03163   0.99321   -1.000
 5343.00    1.03584   0.99609   -1.000
 5344.00    1.03426   0.99656   -1.000
 5345.00    1.03388   0.99533   -1.000
 5346.00    1.03681   0.99374   -1.000
 5347.00    1.03849   0.99297   -1.000
 5348.00    1.03821   0.99343   -1.000
 5349.00    1.03998   0.99537   -1.000
 5350.00    1.04180   0.99831   -1.000
 5351.00    1.04350   1.00123   -1.000
 5352.00    1.04437   1.00370   -1.000
 5353.00    1.04306   1.00584   -1.000
 5354.00    1.04552   1.00786   -1.000
 5355.00    1.04913   1.00962   -1.000
 5356.00    1.04760   1.01051   -1.000
 5357.00    1.04450   1.01027   -1.000
 5358.00    1.04494   1.00854   -1.000
 5359.00    1.04416   1.00519   -1.000
 5360.00    1.04410   1.00051   -1.000
 5361.00    1.04276   0.99531   -1.000
 5362.00    1.04139   0.99111   -1.000
 5363.00    1.03757   0.98881   -1.000
 5364.00    1.03583   0.98840   -1.000
 5365.00    1.03765   0.98886   -1.000
 5366.00    1.03800   0.98855   -1.000
 5367.00    1.03964   0.98616   -1.000
 5368.00    1.03544   0.98155   -1.000
 5369.00    1.02623   0.97639   -1.000
 5370.00    1.01775   0.97367   -1.000
 5371.00    1.01330   0.97608   -1.000
 5372.00    1.02525   0.98353   -1.000
 5373.00    1.03895   0.99270   -1.000
 5374.00    1.04165   1.00039   -1.000
 5375.00    1.04474   1.00473   -1.000
 5376.00    1.04691   1.00598   -1.000
 5377.00    1.04742   1.00484   -1.000
 5378.00    1.04335   1.00185   -1.000
 5379.00    1.04117   0.99787   -1.000
 5380.00    1.03947   0.99428   -1.000
 5381.00    1.03819   0.99241   -1.000
 5382.00    1.03667   0.99296   -1.000
 5383.00    1.03475   0.99554   -1.000
 5384.00    1.04022   0.99918   -1.000
 5385.00    1.04745   1.00266   -1.000
 5386.00    1.04767   1.00478   -1.000
 5387.00    1.04897   1.00490   -1.000
 5388.00    1.04951   1.00319   -1.000
 5389.00    1.04656   1.00016   -1.000
 5390.00    1.04377   0.99680   -1.000
 5391.00    1.04133   0.99347   -1.000
 5392.00    1.03764   0.99050   -1.000
 5393.00    1.03546   0.98728   -1.000
 5394.00    1.03548   0.98319   -1.000
 5395.00    1.02654   0.97864   -1.000
 5396.00    1.01799   0.97564   -1.000
 5397.00    1.02310   0.97663   -1.000
 5398.00    1.03097   0.98087   -1.000
 5399.00    1.03641   0.98585   -1.000
 5400.00    1.04030   0.98829   -1.000
 5401.00    1.04286   0.98680   -1.000
 5402.00    1.04042   0.98156   -1.000
 5403.00    1.03162   0.97471   -1.000
 5404.00    1.02004   0.96921   -1.000
 5405.00    1.01592   0.96749   -1.000
 5406.00    1.02310   0.96957   -1.000
 5407.00    1.03119   0.97277   -1.000
 5408.00    1.03044   0.97520   -1.000
 5409.00    1.03188   0.97662   -1.000
 5410.00    1.03523   0.97821   -1.000
 5411.00    1.03853   0.98039   -1.000
 5412.00    1.03995   0.98199   -1.000
 5413.00    1.04152   0.98288   -1.000
 5414.00    1.03567   0.98370   -1.000
 5415.00    1.03230   0.98524   -1.000
 5416.00    1.03417   0.98747   -1.000
 5417.00    1.03266   0.98949   -1.000
 5418.00    1.03414   0.99090   -1.000
 5419.00    1.04015   0.99147   -1.000
 5420.00    1.03923   0.99093   -1.000
 5421.00    1.03813   0.98907   -1.000
 5422.00    1.03192   0.98659   -1.000
 5423.00    1.03038   0.98458   -1.000
 5424.00    1.04111   0.98434   -1.000
 5425.00    1.03959   0.98548   -1.000
 5426.00    1.03604   0.98602   -1.000
 5427.00    1.03310   0.98461   -1.000
 5428.00    1.02394   0.98160   -1.000
 5429.00    1.01796   0.97948   -1.000
 5430.00    1.02250   0.97900   -1.000
 5431.00    1.02807   0.97870   -1.000
 5432.00    1.02900   0.97786   -1.000
 5433.00    1.02515   0.97700   -1.000
 5434.00    1.01943   0.97870   -1.000
 5435.00    1.02367   0.98380   -1.000
 5436.00    1.03450   0.99066   -1.000
 5437.00    1.04181   0.99705   -1.000
 5438.00    1.04471   1.00127   -1.000
 5439.00    1.04392   1.00331   -1.000
 5440.00    1.04298   1.00349   -1.000
 5441.00    1.04132   1.00185   -1.000
 5442.00    1.03816   0.99792   -1.000
 5443.00    1.03522   0.99131   -1.000
 5444.00    1.03065   0.98319   -1.000
 5445.00    1.02399   0.97597   -1.000
 5446.00    1.01954   0.97315   -1.000
 5447.00    1.02293   0.97578   -1.000
 5448.00    1.02975   0.98227   -1.000
 5449.00    1.03645   0.98905   -1.000
 5450.00    1.03837   0.99309   -1.000
 5451.00    1.03910   0.99284   -1.000
 5452.00    1.03619   0.98848   -1.000
 5453.00    1.02863   0.98208   -1.000
 5454.00    1.01997   0.97682   -1.000
 5455.00    1.01524   0.97636   -1.000
 5456.00    1.02036   0.98099   -1.000
 5457.00    1.03078   0.98881   -1.000
 5458.00    1.03826   0.99555   -1.000
 5459.00    1.03805   0.99919   -1.000
 5460.00    1.03595   0.99910   -1.000
 5461.00    1.03618   0.99679   -1.000
 5462.00    1.03290   0.99397   -1.000
 5463.00    1.03314   0.99254   -1.000
 5464.00    1.03555   0.99295   -1.000
 5465.00    1.03644   0.99456   -1.000
 5466.00    1.04055   0.99656   -1.000
 5467.00    1.04124   0.99850   -1.000
 5468.00    1.04160   1.00006   -1.000
 5469.00    1.04216   1.00090   -1.000
 5470.00    1.04049   1.00023   -1.000
 5471.00    1.04068   0.99802   -1.000
 5472.00    1.03941   0.99425   -1.000
 5473.00    1.03719   0.98914   -1.000
 5474.00    1.03405   0.98313   -1.000
 5475.00    1.02704   0.97808   -1.000
 5476.00    1.02190   0.97594   -1.000
 5477.00    1.02322   0.97820   -1.000
 5478.00    1.02727   0.98307   -1.000
 5479.00    1.03459   0.98800   -1.000
 5480.00    1.03871   0.99149   -1.000
 5481.00    1.03570   0.99367   -1.000
 5482.00    1.03525   0.99539   -1.000
 5483.00    1.03532   0.99705   -1.000
 5484.00    1.03517   0.99828   -1.000
 5485.00    1.03547   0.99861   -1.000
 5486.00    1.03361   0.99793   -1.000
 5487.00    1.03373   0.99674   -1.000
 5488.00    1.03194   0.99566   -1.000
 5489.00    1.03143   0.99525   -1.000
 5490.00    1.03215   0.99554   -1.000
 5491.00    1.03315   0.99629   -1.000
 5492.00    1.03292   0.99660   -1.000
 5493.00    1.03363   0.99591   -1.000
 5494.00    1.03406   0.99381   -1.000
 5495.00    1.02866   0.99081   -1.000
 5496.00    1.02310   0.98786   -1.000
 5497.00    1.02206   0.98610   -1.000
 5498.00    1.02369   0.98554   -1.000
 5499.00    1.02627   0.98501   -1.000
 5500.00    1.02402   0.98420   -1.000
 5501.00    1.02558   0.98367   -1.000
 5502.00    1.03104   0.98394   -1.000
 5503.00    1.03349   0.98447   -1.000
 5504.00    1.03268   0.98371   -1.000
 5505.00    1.02601   0.98192   -1.000
 5506.00    1.01846   0.98070   -1.000
 5507.00    1.02100   0.98124   -1.000
 5508.00    1.02552   0.98356   -1.000
 5509.00    1.03257   0.98570   -1.000
 5510.00    1.03561   0.98701   -1.000
 5511.00    1.03309   0.98753   -1.000
 5512.00    1.03258   0.98813   -1.000
 5513.00    1.03314   0.98944   -1.000
 5514.00    1.03412   0.99146   -1.000
 5515.00    1.03736   0.99399   -1.000
 5516.00    1.03716   0.99644   -1.000
 5517.00    1.03463   0.99837   -1.000
 5518.00    1.03771   0.99930   -1.000
 5519.00    1.03996   0.99936   -1.000
 5520.00    1.03697   0.99871   -1.000
 5521.00    1.03502   0.99763   -1.000
 5522.00    1.03604   0.99560   -1.000
 5523.00    1.03644   0.99144   -1.000
 5524.00    1.03464   0.98488   -1.000
 5525.00    1.02908   0.97664   -1.000
 5526.00    1.02019   0.96989   -1.000
 5527.00    1.01639   0.96730   -1.000
 5528.00    1.01915   0.97006   -1.000
 5529.00    1.02394   0.97607   -1.000
 5530.00    1.03098   0.98182   -1.000
 5531.00    1.03378   0.98463   -1.000
 5532.00    1.03029   0.98406   -1.000
 5533.00    1.02886   0.98232   -1.000
 5534.00    1.02764   0.98182   -1.000
 5535.00    1.03136   0.98410   -1.000
 5536.00    1.03265   0.98806   -1.000
 5537.00    1.03264   0.99201   -1.000
 5538.00    1.03460   0.99462   -1.000
 5539.00    1.03534   0.99561   -1.000
 5540.00    1.03652   0.99537   -1.000
 5541.00    1.03586   0.99439   -1.000
 5542.00    1.03385   0.99314   -1.000
 5543.00    1.03648   0.99226   -1.000
 5544.00    1.03528   0.99217   -1.000
 5545.00    1.03294   0.99307   -1.000
 5546.00    1.03242   0.99461   -1.000
 5547.00    1.03342   0.99640   -1.000
 5548.00    1.03604   0.99775   -1.000
 5549.00    1.03475   0.99832   -1.000
 5550.00    1.03445   0.99809   -1.000
 5551.00    1.03652   0.99747   -1.000
 5552.00    1.03534   0.99697   -1.000
 5553.00    1.03062   0.99664   -1.000
 5554.00    1.02992   0.99671   -1.000
 5555.00    1.03127   0.99703   -1.000
 5556.00    1.03176   0.99745   -1.000
 5557.00    1.03274   0.99772   -1.000
 5558.00    1.03213   0.99761   -1.000
 5559.00    1.03374   0.99711   -1.000
 5560.00    1.03541   0.99615   -1.000
 5561.00    1.03049   0.99489   -1.000
 5562.00    1.02861   0.99381   -1.000
 5563.00    1.03106   0.99301   -1.000
 5564.00    1.02972   0.99239   -1.000
 5565.00    1.02890   0.99143   -1.000
 5566.00    1.03009   0.98991   -1.000
 5567.00    1.02972   0.98812   -1.000
 5568.00    1.02716   0.98612   -1.000
 5569.00    1.02519   0.98427   -1.000
 5570.00    1.02298   0.98256   -1.000
 5571.00    1.01850   0.98110   -1.000
 5572.00    1.01870   0.98084   -1.000
 5573.00    1.02350   0.98185   -1.000
 5574.00    1.02551   0.98388   -1.000
 5575.00    1.02645   0.98621   -1.000
 5576.00    1.03767   0.98825   -1.000
 5577.00    1.06652   0.98977   -1.000
 5578.00    1.11206   0.99044   -1.000
 5579.00    1.11608   0.99046   -1.000
 5580.00    1.01325   0.98981   -1.000
 5581.00    0.91938   0.98911   -1.000
 5582.00    0.93749   0.98787   -1.000
 5583.00    0.99097   0.98527   -1.000
 5584.00    1.01481   0.98059   -1.000
 5585.00    1.01729   0.97452   -1.000
 5586.00    1.01252   0.96911   -1.000
 5587.00    1.00769   0.96624   -1.000
 5588.00    1.00694   0.96692   -1.000
 5589.00    1.01305   0.97012   -1.000
 5590.00    1.02054   0.97432   -1.000
 5591.00    1.02567   0.97740   -1.000
 5592.00    1.02293   0.97905   -1.000
 5593.00    1.01797   0.97971   -1.000
 5594.00    1.01870   0.98024   -1.000
 5595.00    1.01995   0.98077   -1.000
 5596.00    1.02004   0.98050   -1.000
 5597.00    1.01941   0.97937   -1.000
 5598.00    1.01798   0.97758   -1.000
 5599.00    1.02037   0.97569   -1.000
 5600.00    1.01995   0.97418   -1.000
 5601.00    1.01782   0.97439   -1.000
 5602.00    1.01702   0.97704   -1.000
 5603.00    1.01777   0.98186   -1.000
 5604.00    1.02068   0.98731   -1.000
 5605.00    1.02293   0.99182   -1.000
 5606.00    1.02379   0.99468   -1.000
 5607.00    1.02574   0.99615   -1.000
 5608.00    1.02675   0.99680   -1.000
 5609.00    1.02596   0.99683   -1.000
 5610.00    1.02457   0.99585   -1.000
 5611.00    1.02485   0.99306   -1.000
 5612.00    1.02547   0.98814   -1.000
 5613.00    1.01755   0.98256   -1.000
 5614.00    1.00891   0.97853   -1.000
 5615.00    1.00853   0.97867   -1.000
 5616.00    1.01202   0.98226   -1.000
 5617.00    1.01940   0.98746   -1.000
 5618.00    1.02477   0.99152   -1.000
 5619.00    1.02300   0.99367   -1.000
 5620.00    1.02100   0.99391   -1.000
 5621.00    1.02293   0.99295   -1.000
 5622.00    1.02116   0.99125   -1.000
 5623.00    1.02004   0.98984   -1.000
 5624.00    1.02064   0.98939   -1.000
 5625.00    1.01867   0.99024   -1.000
 5626.00    1.01889   0.99187   -1.000
 5627.00    1.02136   0.99349   -1.000
 5628.00    1.02342   0.99472   -1.000
 5629.00    1.02392   0.99530   -1.000
 5630.00    1.02208   0.99532   -1.000
 5631.00    1.02425   0.99495   -1.000
 5632.00    1.02372   0.99435   -1.000
 5633.00    1.02037   0.99378   -1.000
 5634.00    1.02047   0.99322   -1.000
 5635.00    1.02063   0.99243   -1.000
 5636.00    1.01927   0.99132   -1.000
 5637.00    1.02005   0.98981   -1.000
 5638.00    1.01638   0.98814   -1.000
 5639.00    1.01578   0.98670   -1.000
 5640.00    1.01754   0.98599   -1.000
 5641.00    1.01653   0.98633   -1.000
 5642.00    1.01626   0.98758   -1.000
 5643.00    1.01540   0.98913   -1.000
 5644.00    1.01719   0.99058   -1.000
 5645.00    1.01930   0.99164   -1.000
 5646.00    1.02022   0.99225   -1.000
 5647.00    1.01994   0.99248   -1.000
 5648.00    1.01788   0.99231   -1.000
 5649.00    1.01758   0.99181   -1.000
 5650.00    1.01713   0.99121   -1.000
 5651.00    1.01707   0.99056   -1.000
 5652.00    1.01584   0.98958   -1.000
 5653.00    1.01491   0.98762   -1.000
 5654.00    1.01521   0.98374   -1.000
 5655.00    1.01329   0.97810   -1.000
 5656.00    1.00902   0.97209   -1.000
 5657.00    1.00351   0.96850   -1.000
 5658.00    1.00137   0.96873   -1.000
 5659.00    1.00389   0.97185   -1.000
 5660.00    1.01011   0.97592   -1.000
 5661.00    1.01473   0.97946   -1.000
 5662.00    1.01386   0.98249   -1.000
 5663.00    1.01248   0.98477   -1.000
 5664.00    1.01451   0.98546   -1.000
 5665.00    1.01647   0.98428   -1.000
 5666.00    1.01357   0.98216   -1.000
 5667.00    1.00957   0.98066   -1.000
 5668.00    1.00718   0.98096   -1.000
 5669.00    1.00919   0.98286   -1.000
 5670.00    1.01164   0.98543   -1.000
 5671.00    1.01407   0.98772   -1.000
 5672.00    1.01318   0.98921   -1.000
 5673.00    1.01106   0.99003   -1.000
 5674.00    1.01125   0.99047   -1.000
 5675.00    1.01129   0.99073   -1.000
 5676.00    1.00995   0.99072   -1.000
 5677.00    1.00998   0.99023   -1.000
 5678.00    1.01330   0.98899   -1.000
 5679.00    1.01114   0.98698   -1.000
 5680.00    1.00897   0.98413   -1.000
 5681.00    1.00621   0.98099   -1.000
 5682.00    1.00357   0.97834   -1.000
 5683.00    1.00260   0.97711   -1.000
 5684.00    1.00257   0.97742   -1.000
 5685.00    1.00297   0.97869   -1.000
 5686.00    1.00290   0.98001   -1.000
 5687.00    1.00184   0.98091   -1.000
 5688.00    1.00209   0.98161   -1.000
 5689.00    1.00361   0.98238   -1.000
 5690.00    1.00411   0.98351   -1.000
 5691.00    1.00213   0.98485   -1.000
 5692.00    1.00322   0.98625   -1.000
 5693.00    1.00323   0.98743   -1.000
 5694.00    1.00305   0.98830   -1.000
 5695.00    1.00141   0.98868   -1.000
 5696.00    1.00200   0.98845   -1.000
 5697.00    1.00436   0.98741   -1.000
 5698.00    1.00266   0.98568   -1.000
 5699.00    0.99800   0.98381   -1.000
 5700.00    0.99673   0.98248   -1.000
 5701.00    0.99762   0.98211   -1.000
 5702.00    0.99849   0.98244   -1.000
 5703.00    0.99973   0.98272   -1.000
 5704.00    0.99991   0.98203   -1.000
 5705.00    0.99958   0.98009   -1.000
 5706.00    0.99631   0.97703   -1.000
 5707.00    0.99188   0.97353   -1.000
 5708.00    0.99049   0.97071   -1.000
 5709.00    0.99278   0.96964   -1.000
 5710.00    0.99469   0.97079   -1.000
 5711.00    0.99501   0.97371   -1.000
 5712.00    0.99815   0.97719   -1.000
 5713.00    0.99990   0.98020   -1.000
 5714.00    0.99959   0.98241   -1.000
 5715.00    1.00088   0.98393   -1.000
 5716.00    1.00052   0.98505   -1.000
 5717.00    1.00040   0.98583   -1.000
 5718.00    1.00068   0.98639   -1.000
 5719.00    0.99885   0.98678   -1.000
 5720.00    0.99769   0.98699   -1.000
 5721.00    0.99434   0.98706   -1.000
 5722.00    0.99476   0.98704   -1.000
 5723.00    0.99627   0.98683   -1.000
 5724.00    0.99709   0.98628   -1.000
 5725.00    0.99644   0.98536   -1.000
 5726.00    0.99549   0.98429   -1.000
 5727.00    0.99530   0.98348   -1.000
 5728.00    0.99430   0.98315   -1.000
 5729.00    0.99354   0.98341   -1.000
 5730.00    0.99253   0.98408   -1.000
 5731.00    0.99548   0.98493   -1.000
 5732.00    0.99746   0.98581   -1.000
 5733.00    0.99765   0.98655   -1.000
 5734.00    0.99612   0.98694   -1.000
 5735.00    0.99460   0.98697   -1.000
 5736.00    0.99578   0.98687   -1.000
 5737.00    0.99530   0.98673   -1.000
 5738.00    0.99288   0.98673   -1.000
 5739.00    0.99080   0.98681  452.762
 5740.00    0.99138   0.98696  453.559
 5741.00    0.99558   0.98702   -1.000
 5742.00    0.99445   0.98699   -1.000
 5743.00    0.99317   0.98677   -1.000
 5744.00    0.99172   0.98637   -1.000
 5745.00    0.98984   0.98584  451.387
 5746.00    0.99150   0.98551   -1.000
 5747.00    0.99041   0.98551  449.992
 5748.00    0.98900   0.98572  454.194
 5749.00    0.98994   0.98558  456.640
 5750.00    0.99198   0.98472   -1.000
 5751.00    0.99425   0.98334   -1.000
 5752.00    0.99508   0.98212   -1.000
 5753.00    0.99159   0.98193   -1.000
 5754.00    0.98641   0.98297  465.682
 5755.00    0.98714   0.98490  466.666
 5756.00    0.99034   0.98687  461.910
 5757.00    0.99225   0.98820  453.748
 5758.00    0.99317   0.98826  447.587
 5759.00    0.99271   0.98723   -1.000
 5760.00    0.99273   0.98561   -1.000
 5761.00    0.99020   0.98444   -1.000
 5762.00    0.98966   0.98428   -1.000
 5763.00    0.99157   0.98527   -1.000
 5764.00    0.98888   0.98651  463.807
 5765.00    0.98945   0.98731  456.036
 5766.00    0.99040   0.98743  449.758
 5767.00    0.98912   0.98701  447.476
 5768.00    0.98657   0.98647  446.930
 5769.00    0.98344   0.98589  446.257
 5770.00    0.98533   0.98535  446.754
 5771.00    0.98858   0.98469  448.165
 5772.00    0.98720   0.98379  450.433
 5773.00    0.98361   0.98273  453.200
 5774.00    0.98205   0.98159  454.747
 5775.00    0.98235   0.98059  455.382
 5776.00    0.98515   0.97943   -1.000
 5777.00    0.98514   0.97789   -1.000
 5778.00    0.98135   0.97616  451.840
 5779.00    0.97879   0.97463  452.885
 5780.00    0.97717   0.97373  458.268
 5781.00    0.97122   0.97369  467.933
 5782.00    0.96990   0.97434  475.279
 5783.00    0.97561   0.97538  475.997
 5784.00    0.98146   0.97642   -1.000
 5785.00    0.98334   0.97720   -1.000
 5786.00    0.98445   0.97773   -1.000
 5787.00    0.98721   0.97816   -1.000
 5788.00    0.98909   0.97859   -1.000
 5789.00    0.98763   0.97908   -1.000
 5790.00    0.98638   0.97966   -1.000
 5791.00    0.98405   0.98051  457.433
 5792.00    0.98338   0.98156  457.483
 5793.00    0.98380   0.98265  454.368
 5794.00    0.98569   0.98341  451.001
 5795.00    0.98771   0.98369  448.221
 5796.00    0.98565   0.98374  447.310
 5797.00    0.98127   0.98392  449.317
 5798.00    0.97811   0.98434  452.251
 5799.00    0.97949   0.98487  451.380
 5800.00    0.98492   0.98531  446.346
 5801.00    0.98830   0.98565  440.210
 5802.00    0.98721   0.98587  437.888
 5803.00    0.98878   0.98613  440.536
 5804.00    0.99019   0.98663  444.190
 5805.00    0.98921   0.98729  447.753
 5806.00    0.98929   0.98806  450.190
 5807.00    0.98923   0.98863  449.879
 5808.00    0.98843   0.98897  448.250
 5809.00    0.98869   0.98913  446.812
 5810.00    0.99088   0.98913  446.465
 5811.00    0.99081   0.98895  446.185
 5812.00    0.98999   0.98854  444.799
 5813.00    0.99099   0.98796  443.353
 5814.00    0.99005   0.98764  443.686
 5815.00    0.98861   0.98764  446.734
 5816.00    0.98867   0.98811  449.325
 5817.00    0.99039   0.98867  448.089
 5818.00    0.99028   0.98921  445.058
 5819.00    0.98738   0.98961  442.453
 5820.00    0.98687   0.98993  440.233
 5821.00    0.99091   0.99021  438.586
 5822.00    0.99176   0.99041  438.752
 5823.00    0.99001   0.99062  440.167
 5824.00    0.99114   0.99080  440.014
 5825.00    0.99105   0.99108  439.241
 5826.00    0.99044   0.99139  438.480
 5827.00    0.99116   0.99170  437.949
 5828.00    0.99041   0.99193  437.944
 5829.00    0.98913   0.99191  438.651
 5830.00    0.99059   0.99165  438.260
 5831.00    0.98940   0.99118  438.052
 5832.00    0.99049   0.99054  437.679
 5833.00    0.99428   0.99006  438.135
 5834.00    0.99306   0.98988  440.604
 5835.00    0.99029   0.99023  441.981
 5836.00    0.98986   0.99095  440.992
 5837.00    0.98764   0.99190  439.899
 5838.00    0.98857   0.99260  440.755
 5839.00    0.98983   0.99274  441.954
 5840.00    0.98899   0.99214  441.155
 5841.00    0.98773   0.99104  438.288
 5842.00    0.98682   0.98962  435.695
 5843.00    0.98707   0.98832  435.209
 5844.00    0.98862   0.98726  436.387
 5845.00    0.98751   0.98656  438.062
 5846.00    0.98635   0.98606  440.681
 5847.00    0.98600   0.98546  443.124
 5848.00    0.98639   0.98433  445.288
 5849.00    0.98634   0.98242  445.508
 5850.00    0.98303   0.97980  445.802
 5851.00    0.97904   0.97684  447.931
 5852.00    0.97725   0.97423  450.735
 5853.00    0.97665   0.97235  454.767
 5854.00    0.97923   0.97100   -1.000
 5855.00    0.98060   0.96979   -1.000
 5856.00    0.97998   0.96899   -1.000
 5857.00    0.97978   0.96918   -1.000
 5858.00    0.98200   0.97054   -1.000
 5859.00    0.98362   0.97286   -1.000
 5860.00    0.98193   0.97523   -1.000
 5861.00    0.98074   0.97721  456.308
 5862.00    0.97981   0.97839  454.286
 5863.00    0.98162   0.97874  452.536
 5864.00    0.98431   0.97838   -1.000
 5865.00    0.98469   0.97780   -1.000
 5866.00    0.98409   0.97754   -1.000
 5867.00    0.98416   0.97783   -1.000
 5868.00    0.98492   0.97841   -1.000
 5869.00    0.98323   0.97891  452.835
 5870.00    0.98209   0.97882  448.760
 5871.00    0.98233   0.97793  446.351
 5872.00    0.98304   0.97625   -1.000
 5873.00    0.98248   0.97421   -1.000
 5874.00    0.98486   0.97232   -1.000
 5875.00    0.98582   0.97106   -1.000
 5876.00    0.98252   0.97046   -1.000
 5877.00    0.98048   0.96998   -1.000
 5878.00    0.97849   0.96938   -1.000
 5879.00    0.97503   0.96819   -1.000
 5880.00    0.97298   0.96638   -1.000
 5881.00    0.97280   0.96381   -1.000
 5882.00    0.96953   0.96064   -1.000
 5883.00    0.96777   0.95682   -1.000
 5884.00    0.96585   0.95153   -1.000
 5885.00    0.96066   0.94307   -1.000
 5886.00    0.95410   0.93025   -1.000
 5887.00    0.93817   0.91485   -1.000
 5888.00    0.90865   0.90171   -1.000
 5889.00    0.86883   0.89653   -1.000
 5890.00    0.83161   0.89928   -1.000
 5891.00    0.82435   0.90602   -1.000
 5892.00    0.83870   0.91015   -1.000
 5893.00    0.85036   0.90959   -1.000
 5894.00    0.85264   0.90694   -1.000
 5895.00    0.85584   0.90742   -1.000
 5896.00    0.85434   0.91383   -1.000
 5897.00    0.85792   0.92390   -1.000
 5898.00    0.87464   0.93502   -1.000
 5899.00    0.89536   0.94411   -1.000
 5900.00    0.91774   0.95084   -1.000
 5901.00    0.93344   0.95560   -1.000
 5902.00    0.94364   0.95898   -1.000
 5903.00    0.95164   0.96135   -1.000
 5904.00    0.95714   0.96291  458.912
 5905.00    0.96246   0.96382  458.760
 5906.00    0.96704   0.96422  459.276
 5907.00    0.96988   0.96430   -1.000
 5908.00    0.97020   0.96416   -1.000
 5909.00    0.96545   0.96361  457.539
 5910.00    0.96341   0.96247  458.392
 5911.00    0.96222   0.96075  459.430
 5912.00    0.96170   0.95863  459.901
 5913.00    0.96195   0.95660   -1.000
 5914.00    0.96304   0.95512   -1.000
 5915.00    0.96414   0.95444   -1.000
 5916.00    0.96342   0.95455   -1.000
 5917.00    0.96275   0.95548   -1.000
 5918.00    0.96209   0.95684   -1.000
 5919.00    0.95569   0.95819  465.139
 5920.00    0.94788   0.95930   -1.000
 5921.00    0.94657   0.96013   -1.000
 5922.00    0.94975   0.96083   -1.000
 5923.00    0.95378   0.96177   -1.000
 5924.00    0.95303   0.96281   -1.000
 5925.00    0.94832   0.96371   -1.000
 5926.00    0.94853   0.96417   -1.000
 5927.00    0.95467   0.96393   -1.000
 5928.00    0.96152   0.96323  458.570
 5929.00    0.96639   0.96268  461.292
 5930.00    0.96936   0.96253   -1.000
 5931.00    0.96861   0.96266   -1.000
 5932.00    0.96677   0.96288  461.970
 5933.00    0.96640   0.96280  459.018
 5934.00    0.96584   0.96261  461.039
 5935.00    0.96550   0.96232  464.542
 5936.00    0.96607   0.96183  465.898
 5937.00    0.96756   0.96085   -1.000
 5938.00    0.96940   0.95938   -1.000
 5939.00    0.97210   0.95775   -1.000
 5940.00    0.97014   0.95645   -1.000
 5941.00    0.96259   0.95562   -1.000
 5942.00    0.95331   0.95538  465.857
 5943.00    0.94554   0.95564   -1.000
 5944.00    0.94508   0.95599   -1.000
 5945.00    0.94873   0.95621  461.186
 5946.00    0.95051   0.95633  459.148
 5947.00    0.94907   0.95662  459.633
 5948.00    0.94738   0.95754   -1.000
 5949.00    0.95010   0.95881   -1.000
 5950.00    0.95242   0.96008  470.094
 5951.00    0.95238   0.96112   -1.000
 5952.00    0.95674   0.96147  466.402
 5953.00    0.96339   0.96119  466.853
 5954.00    0.96798   0.96034   -1.000
 5955.00    0.96869   0.95953   -1.000
 5956.00    0.96803   0.95921   -1.000
 5957.00    0.96539   0.95960   -1.000
 5958.00    0.96078   0.96057  468.591
 5959.00    0.96022   0.96173  467.381
 5960.00    0.95900   0.96283  462.857
 5961.00    0.96176   0.96351  458.014
 5962.00    0.96598   0.96350  455.561
 5963.00    0.96866   0.96284   -1.000
 5964.00    0.97121   0.96175   -1.000
 5965.00    0.97145   0.96073   -1.000
 5966.00    0.97072   0.96014   -1.000
 5967.00    0.96703   0.96007   -1.000
 5968.00    0.96169   0.96051  460.835
 5969.00    0.95780   0.96117  457.851
 5970.00    0.95798   0.96184  455.982
 5971.00    0.96157   0.96228  455.720
 5972.00    0.96356   0.96230  454.983
 5973.00    0.96484   0.96193  454.298
 5974.00    0.96615   0.96106  455.977
 5975.00    0.96545   0.96011   -1.000
 5976.00    0.96272   0.95942  463.015
 5977.00    0.96059   0.95928  466.371
 5978.00    0.95824   0.95983  468.802
 5979.00    0.95845   0.96045  467.814
 5980.00    0.96493   0.96077  464.146
 5981.00    0.96973   0.96051   -1.000
 5982.00    0.96855   0.95990   -1.000
 5983.00    0.96767   0.95936   -1.000
 5984.00    0.96837   0.95919   -1.000
 5985.00    0.96906   0.95935   -1.000
 5986.00    0.96831   0.95958   -1.000
 5987.00    0.96602   0.95963   -1.000
 5988.00    0.96503   0.95943   -1.000
 5989.00    0.96506   0.95922   -1.000
 5990.00    0.96545   0.95944   -1.000
 5991.00    0.96599   0.96038   -1.000
 5992.00    0.96653   0.96187  461.011
 5993.00    0.96691   0.96340  459.677
 5994.00    0.96733   0.96441  456.109
 5995.00    0.96918   0.96475  454.055
 5996.00    0.96889   0.96462  456.075
 5997.00    0.96712   0.96428  459.456
 5998.00    0.96837   0.96391  461.779
 5999.00    0.96869   0.96336   -1.000
 6000.00    0.96731   0.96264  462.639
 6001.00    0.96819   0.96181   -1.000
 6002.00    0.96770   0.96094   -1.000
 6003.00    0.96571   0.96002   -1.000
 6004.00    0.96748   0.95900   -1.000
 6005.00    0.96825   0.95798   -1.000
 6006.00    0.96787   0.95721   -1.000
 6007.00    0.96706   0.95704   -1.000
 6008.00    0.96567   0.95757   -1.000
 6009.00    0.96652   0.95849   -1.000
 6010.00    0.96738   0.95938   -1.000
 6011.00    0.96699   0.96010   -1.000
 6012.00    0.96563   0.96063  463.713
 6013.00    0.96532   0.96114  466.549
 6014.00    0.96820   0.96142   -1.000
 6015.00    0.96804   0.96122   -1.000
 6016.00    0.96869   0.96055   -1.000
 6017.00    0.96787   0.95946   -1.000
 6018.00    0.96717   0.95838   -1.000
 6019.00    0.96761   0.95756   -1.000
 6020.00    0.96620   0.95705   -1.000
 6021.00    0.96559   0.95691   -1.000
 6022.00    0.96657   0.95714   -1.000
 6023.00    0.96503   0.95788   -1.000
 6024.00    0.96660   0.95897   -1.000
 6025.00    0.96693   0.96015   -1.000
 6026.00    0.96652   0.96118   -1.000
 6027.00    0.96819   0.96197   -1.000
 6028.00    0.96829   0.96245   -1.000
 6029.00    0.97080   0.96276   -1.000
 6030.00    0.97261   0.96297   -1.000
 6031.00    0.96873   0.96313   -1.000
 6032.00    0.96404   0.96336  458.313
 6033.00    0.96443   0.96364  458.090
 6034.00    0.96742   0.96382  456.297
 6035.00    0.97055   0.96351   -1.000
 6036.00    0.97085   0.96262   -1.000
 6037.00    0.97116   0.96133   -1.000
 6038.00    0.96901   0.95955   -1.000
 6039.00    0.96522   0.95713   -1.000
 6040.00    0.96559   0.95438   -1.000
 6041.00    0.96442   0.95156   -1.000
 6042.00    0.96415   0.95036   -1.000
 6043.00    0.96501   0.95196   -1.000
 6044.00    0.96486   0.95503   -1.000
 6045.00    0.96569   0.95826   -1.000
 6046.00    0.96649   0.96004   -1.000
 6047.00    0.96625   0.96020   -1.000
 6048.00    0.96542   0.95928   -1.000
 6049.00    0.96497   0.95847   -1.000
 6050.00    0.96637   0.95832   -1.000
 6051.00    0.96782   0.95861   -1.000
 6052.00    0.96751   0.95912   -1.000
 6053.00    0.96651   0.95924   -1.000
 6054.00    0.96611   0.95901   -1.000
 6055.00    0.96783   0.95852   -1.000
 6056.00    0.96880   0.95809   -1.000
 6057.00    0.96767   0.95777   -1.000
 6058.00    0.96629   0.95756   -1.000
 6059.00    0.96678   0.95716   -1.000
 6060.00    0.95508   0.95621  457.612
 6061.00    0.93267   0.95456   -1.000
 6062.00    0.95599   0.95243  458.312
 6063.00    0.88494   0.95061   -1.000
 6064.00    0.56656   0.94987   -1.000
 6065.00    0.45766   0.95061   -1.000
 6066.00    0.76874   0.95249   -1.000
 6067.00    0.94881   0.95466  205.547
 6068.00    0.97158   0.95652   -1.000
 6069.00    0.77111   0.95786   -1.000
 6070.00    0.40300   0.95872   -1.000
 6071.00    0.69157   0.95932   -1.000
 6072.00    0.97725   0.95958   -1.000
 6073.00    0.96465   0.95941  446.696
 6074.00    0.96545   0.95886   -1.000
 6075.00    0.96277   0.95809  453.490
 6076.00    0.96019   0.95742  454.617
 6077.00    0.96110   0.95700  456.788
 6078.00    0.96271   0.95670   -1.000
 6079.00    0.96117   0.95630  462.648
 6080.00    0.96066   0.95566   -1.000
 6081.00    0.96038   0.95485   -1.000
 6082.00    0.96070   0.95425   -1.000
 6083.00    0.96159   0.95419   -1.000
 6084.00    0.96107   0.95459   -1.000
 6085.00    0.96049   0.95527   -1.000
 6086.00    0.96259   0.95597   -1.000
 6087.00    0.96123   0.95642  466.717
 6088.00    0.95942   0.95659  464.957
 6089.00    0.96113   0.95643  464.952
 6090.00    0.96036   0.95613  467.314
 6091.00    0.95790   0.95609  469.650
 6092.00    0.95902   0.95638  470.075
 6093.00    0.96236   0.95705   -1.000
 6094.00    0.96124   0.95801  465.167
 6095.00    0.96111   0.95893  462.684
 6096.00    0.96057   0.95946  460.456
 6097.00    0.96030   0.95894  459.956
 6098.00    0.95830   0.95693  460.894
 6099.00    0.95527   0.95362  461.503
 6100.00    0.95318   0.94973  461.573
 6101.00    0.95281   0.94676   -1.000
 6102.00    0.95152   0.94585   -1.000
 6103.00    0.95372   0.94720   -1.000
 6104.00    0.95603   0.95013   -1.000
 6105.00    0.95641   0.95342  476.375
 6106.00    0.95293   0.95630  468.354
 6107.00    0.95185   0.95826  465.064
 6108.00    0.95277   0.95919  465.977
 6109.00    0.95403   0.95913  467.468
 6110.00    0.95788   0.95835  467.667
 6111.00    0.95594   0.95731  466.862
 6112.00    0.95417   0.95654  465.114
 6113.00    0.95524   0.95623  464.327
 6114.00    0.95405   0.95631  462.744
 6115.00    0.95222   0.95609  461.044
 6116.00    0.95108   0.95505  461.955
 6117.00    0.95146   0.95241  464.734
 6118.00    0.95160   0.94810  466.239
 6119.00    0.94856   0.94341   -1.000
 6120.00    0.94381   0.93953  473.219
 6121.00    0.94069   0.93839  479.835
 6122.00    0.94017   0.94054  484.894
 6123.00    0.94247   0.94438  486.630
 6124.00    0.94721   0.94795  481.276
 6125.00    0.95121   0.94960  474.170
 6126.00    0.95040   0.94921  472.151
 6127.00    0.95013   0.94794  474.213
 6128.00    0.95214   0.94803  474.854
 6129.00    0.95374   0.95011  473.775
 6130.00    0.95376   0.95261  470.856
 6131.00    0.95194   0.95402  466.461
 6132.00    0.95166   0.95262  464.322
 6133.00    0.94965   0.94823  464.762
 6134.00    0.94219   0.94215  468.051
 6135.00    0.93337   0.93643  476.727
 6136.00    0.92825   0.93281  490.058
 6137.00    0.92812   0.93135  503.304
 6138.00    0.93285   0.93122  508.444
 6139.00    0.93740   0.93124   -1.000
 6140.00    0.93657   0.93205   -1.000
 6141.00    0.93346   0.93443  477.461
 6142.00    0.93442   0.93797  476.629
 6143.00    0.94112   0.94155  477.683
 6144.00    0.94661   0.94356  474.710
 6145.00    0.94762   0.94360  469.036
 6146.00    0.94602   0.94242  466.644
 6147.00    0.94458   0.94124  468.075
 6148.00    0.94512   0.94105  470.892
 6149.00    0.94669   0.94198  474.193
 6150.00    0.94542   0.94349  477.208
 6151.00    0.94401   0.94485  478.146
 6152.00    0.94595   0.94548  476.862
 6153.00    0.94681   0.94511  473.986
 6154.00    0.94521   0.94400  472.399
 6155.00    0.94433   0.94238  474.997
 6156.00    0.94377   0.94031  478.210
 6157.00    0.94340   0.93755   -1.000
 6158.00    0.94277   0.93374   -1.000
 6159.00    0.93695   0.92898   -1.000
 6160.00    0.92852   0.92453  492.638
 6161.00    0.92468   0.92221  505.892
 6162.00    0.92615   0.92262  521.121
 6163.00    0.93005   0.92506   -1.000
 6164.00    0.93451   0.92799   -1.000
 6165.00    0.93724   0.93003   -1.000
 6166.00    0.93762   0.93093   -1.000
 6167.00    0.93503   0.93100  498.780
 6168.00    0.93219   0.93102  499.132
 6169.00    0.93482   0.93164  504.005
 6170.00    0.93613   0.93308  509.891
 6171.00    0.93472   0.93513  509.071
 6172.00    0.93711   0.93735  500.815
 6173.00    0.93525   0.93938  492.630
 6174.00    0.93473   0.94086  490.751
 6175.00    0.93837   0.94160  491.534
 6176.00    0.93711   0.94179  490.809
 6177.00    0.93655   0.94165  489.705
 6178.00    0.93831   0.94146  488.540
 6179.00    0.93675   0.94152  486.466
 6180.00    0.93621   0.94177  484.428
 6181.00    0.93493   0.94209  482.857
 6182.00    0.93492   0.94236  480.851
 6183.00    0.93410   0.94247   -1.000
 6184.00    0.93526   0.94223  479.522
 6185.00    0.93728   0.94133  481.075
 6186.00    0.93459   0.93950  484.207
 6187.00    0.93271   0.93662  489.148
 6188.00    0.93069   0.93319  494.374
 6189.00    0.92702   0.93028  499.186
 6190.00    0.92325   0.92909  503.167
 6191.00    0.92145   0.93016   -1.000
 6192.00    0.92600   0.93293  513.320
 6193.00    0.93308   0.93625  510.452
 6194.00    0.93565   0.93899  499.651
 6195.00    0.93549   0.94058  489.724
 6196.00    0.93625   0.94104  485.289
 6197.00    0.93710   0.94074  484.018
 6198.00    0.93519   0.94037  485.931
 6199.00    0.93241   0.94060   -1.000
 6200.00    0.93101   0.94152   -1.000
 6201.00    0.93018   0.94292   -1.000
 6202.00    0.92941   0.94432   -1.000
 6203.00    0.92721   0.94526   -1.000
 6204.00    0.92669   0.94572   -1.000
 6205.00    0.92755   0.94583   -1.000
 6206.00    0.92737   0.94570   -1.000
 6207.00    0.92839   0.94544   -1.000
 6208.00    0.92972   0.94485   -1.000
 6209.00    0.93024   0.94386   -1.000
 6210.00    0.92903   0.94238   -1.000
 6211.00    0.92783   0.94049   -1.000
 6212.00    0.92965   0.93861   -1.000
 6213.00    0.93091   0.93706  498.563
 6214.00    0.92870   0.93589  505.307
 6215.00    0.93025   0.93495  511.475
 6216.00    0.92893   0.93399  513.960
 6217.00    0.92499   0.93307   -1.000
 6218.00    0.92812   0.93258  505.454
 6219.00    0.92695   0.93277  507.438
 6220.00    0.92629   0.93370  507.878
 6221.00    0.84544   0.93492   -1.000
 6222.00    0.81726   0.93588   -1.000
 6223.00    0.89899   0.93636   -1.000
 6224.00    0.93144   0.93610  534.890
 6225.00    0.92324   0.93496   -1.000
 6226.00    0.92032   0.93284   -1.000
 6227.00    0.91981   0.92981   -1.000
 6228.00    0.92069   0.92658  502.735
 6229.00    0.91673   0.92424  508.352
 6230.00    0.91218   0.92369   -1.000
 6231.00    0.91420   0.92507   -1.000
 6232.00    0.91829   0.92752   -1.000
 6233.00    0.91992   0.92981   -1.000
 6234.00    0.92090   0.93083   -1.000
 6235.00    0.92025   0.93029   -1.000
 6236.00    0.92011   0.92879   -1.000
 6237.00    0.92134   0.92730  497.747
 6238.00    0.92047   0.92665  502.468
 6239.00    0.92066   0.92674  507.624
 6240.00    0.92100   0.92681  512.941
 6241.00    0.91715   0.92596   -1.000
 6242.00    0.91507   0.92387   -1.000
 6243.00    0.91689   0.92101  518.993
 6244.00    0.91671   0.91857  522.808
 6245.00    0.91301   0.91774  523.773
 6246.00    0.90933   0.91889   -1.000
 6247.00    0.90966   0.92136   -1.000
 6248.00    0.91283   0.92376   -1.000
 6249.00    0.91360   0.92477   -1.000
 6250.00    0.91053   0.92405   -1.000
 6251.00    0.90650   0.92244   -1.000
 6252.00    0.90427   0.92105   -1.000
 6253.00    0.90490   0.92068   -1.000
 6254.00    0.90592   0.92142   -1.000
 6255.00    0.90742   0.92286   -1.000
 6256.00    0.90962   0.92456   -1.000
 6257.00    0.91080   0.92627   -1.000
 6258.00    0.91035   0.92789   -1.000
 6259.00    0.91061   0.92925   -1.000
 6260.00    0.91265   0.93027   -1.000
 6261.00    0.91083   0.93095   -1.000
 6262.00    0.90735   0.93123   -1.000
 6263.00    0.90683   0.93129   -1.000
 6264.00    0.91052   0.93128   -1.000
 6265.00    0.91251   0.93125   -1.000
 6266.00    0.90956   0.93088   -1.000
 6267.00    0.90807   0.92985   -1.000
 6268.00    0.90849   0.92815   -1.000
 6269.00    0.90896   0.92594   -1.000
 6270.00    0.90750   0.92345   -1.000
 6271.00    0.90597   0.92045   -1.000
 6272.00    0.90617   0.91651   -1.000
 6273.00    0.90561   0.91132  504.150
 6274.00    0.90430   0.90532  504.567
 6275.00    0.90000   0.89951  507.494
 6276.00    0.89335   0.89515  511.554
 6277.00    0.88098   0.89321   -1.000
 6278.00    0.86089   0.89387   -1.000
 6279.00    0.84171   0.89677   -1.000
 6280.00    0.83415   0.90116   -1.000
 6281.00    0.83998   0.90611   -1.000
 6282.00    0.85335   0.91083   -1.000
 6283.00    0.86177   0.91482   -1.000
 6284.00    0.86349   0.91773   -1.000
 6285.00    0.86745   0.91955   -1.000
 6286.00    0.87580   0.92026   -1.000
 6287.00    0.88470   0.91994   -1.000
 6288.00    0.88968   0.91893   -1.000
 6289.00    0.89225   0.91775   -1.000
 6290.00    0.89136   0.91677   -1.000
 6291.00    0.88652   0.91612   -1.000
 6292.00    0.88460   0.91554   -1.000
 6293.00    0.88487   0.91474   -1.000
 6294.00    0.88332   0.91359   -1.000
 6295.00    0.88275   0.91227   -1.000
 6296.00    0.88254   0.91107   -1.000
 6297.00    0.88117   0.91017   -1.000
 6298.00    0.88234   0.90969   -1.000
 6299.00    0.88459   0.90969   -1.000
 6300.00    0.88699   0.91051   -1.000
 6301.00    0.89235   0.91221   -1.000
 6302.00    0.89422   0.91446   -1.000
 6303.00    0.88673   0.91668   -1.000
 6304.00    0.87775   0.91833   -1.000
 6305.00    0.87607   0.91946   -1.000
 6306.00    0.88239   0.92024   -1.000
 6307.00    0.88842   0.92088   -1.000
 6308.00    0.89029   0.92150   -1.000
 6309.00    0.88944   0.92187   -1.000
 6310.00    0.88871   0.92186   -1.000
 6311.00    0.88687   0.92143   -1.000
 6312.00    0.88684   0.92060   -1.000
 6313.00    0.88817   0.91950   -1.000
 6314.00    0.88757   0.91832   -1.000
 6315.00    0.88703   0.91726   -1.000
 6316.00    0.88383   0.91666   -1.000
 6317.00    0.88227   0.91704   -1.000
 6318.00    0.88447   0.91842   -1.000
 6319.00    0.88692   0.92042   -1.000
 6320.00    0.88889   0.92270   -1.000
 6321.00    0.88688   0.92487   -1.000
 6322.00    0.88559   0.92663   -1.000
 6323.00    0.88707   0.92782   -1.000
 6324.00    0.89062   0.92828   -1.000
 6325.00    0.89402   0.92822   -1.000
 6326.00    0.89325   0.92789   -1.000
 6327.00    0.89283   0.92750   -1.000
 6328.00    0.89435   0.92729   -1.000
 6329.00    0.89378   0.92713   -1.000
 6330.00    0.89601   0.92666   -1.000
 6331.00    0.89691   0.92551   -1.000
 6332.00    0.89460   0.92363   -1.000
 6333.00    0.91331   0.92143   -1.000
 6334.00    0.91081   0.91993   -1.000
 6335.00    0.88832   0.91985   -1.000
 6336.00    0.88748   0.92107   -1.000
 6337.00    0.89085   0.92298   -1.000
 6338.00    0.89448   0.92476   -1.000
 6339.00    0.89761   0.92595   -1.000
 6340.00    0.89835   0.92640   -1.000
 6341.00    0.89703   0.92600   -1.000
 6342.00    0.89230   0.92473   -1.000
 6343.00    0.89010   0.92274   -1.000
 6344.00    0.88986   0.92054   -1.000
 6345.00    0.88990   0.91919   -1.000
 6346.00    0.89196   0.91950   -1.000
 6347.00    0.89028   0.92149   -1.000
 6348.00    0.89107   0.92436   -1.000
 6349.00    0.89357   0.92699   -1.000
 6350.00    0.89392   0.92858   -1.000
 6351.00    0.89427   0.92896   -1.000
 6352.00    0.89069   0.92851   -1.000
 6353.00    0.88743   0.92782   -1.000
 6354.00    0.88703   0.92721   -1.000
 6355.00    0.88528   0.92675   -1.000
 6356.00    0.88520   0.92631   -1.000
 6357.00    0.88572   0.92578   -1.000
 6358.00    0.88255   0.92518   -1.000
 6359.00    0.88247   0.92457   -1.000
 6360.00    0.88299   0.92407   -1.000
 6361.00    0.88072   0.92381   -1.000
 6362.00    0.88113   0.92396   -1.000
 6363.00    0.88372   0.92427   -1.000
 6364.00    0.88307   0.92439   -1.000
 6365.00    0.88004   0.92404   -1.000
 6366.00    0.88061   0.92289   -1.000
 6367.00    0.88066   0.92098   -1.000
 6368.00    0.87584   0.91885   -1.000
 6369.00    0.87424   0.91722   -1.000
 6370.00    0.87522   0.91678   -1.000
 6371.00    0.87246   0.91780   -1.000
 6372.00    0.87177   0.91965   -1.000
 6373.00    0.87259   0.92147   -1.000
 6374.00    0.86873   0.92268   -1.000
 6375.00    0.86539   0.92309   -1.000
 6376.00    0.86453   0.92288   -1.000
 6377.00    0.86311   0.92232   -1.000
 6378.00    0.86001   0.92156   -1.000
 6379.00    0.85720   0.92076   -1.000
 6380.00    0.85499   0.92005   -1.000
 6381.00    0.85251   0.91961   -1.000
 6382.00    0.85163   0.91957   -1.000
 6383.00    0.85051   0.91987   -1.000
 6384.00    0.84814   0.92048   -1.000
 6385.00    0.84628   0.92125   -1.000
 6386.00    0.84354   0.92176   -1.000
 6387.00    0.84102   0.92167   -1.000
 6388.00    0.83754   0.92083   -1.000
 6389.00    0.83242   0.91915   -1.000
 6390.00    0.82757   0.91705   -1.000
 6391.00    0.82262   0.91522   -1.000
 6392.00    0.81851   0.91442   -1.000
 6393.00    0.81583   0.91479   -1.000
 6394.00    0.81509   0.91567   -1.000
 6395.00    0.81552   0.91616   -1.000
 6396.00    0.81414   0.91565   -1.000
 6397.00    0.80796   0.91448   -1.000
 6398.00    0.79869   0.91364   -1.000
 6399.00    0.79347   0.91401   -1.000
 6400.00    0.79305   0.91567   -1.000
 6401.00    0.79033   0.91789   -1.000
 6402.00    0.78844   0.91958   -1.000
 6403.00    0.78818   0.91988   -1.000
 6404.00    0.78351   0.91854   -1.000
 6405.00    0.77788   0.91612   -1.000
 6406.00    0.77329   0.91334   -1.000
 6407.00    0.76924   0.91150   -1.000
 6408.00    0.76549   0.91151   -1.000
 6409.00    0.76018   0.91247   -1.000
 6410.00    0.75265   0.91368   -1.000
 6411.00    0.74627   0.91463   -1.000
 6412.00    0.74496   0.91479   -1.000
 6413.00    0.74320   0.91426   -1.000
 6414.00    0.73455   0.91400   -1.000
 6415.00    0.72574   0.91430   -1.000
 6416.00    0.72167   0.91461   -1.000
 6417.00    0.71646   0.91470   -1.000
 6418.00    0.70891   0.91445   -1.000
 6419.00    0.70192   0.91431   -1.000
 6420.00    0.69509   0.91494   -1.000
 6421.00    0.69081   0.91654   -1.000
 6422.00    0.68688   0.91870   -1.000
 6423.00    0.67962   0.92081   -1.000
 6424.00    0.67255   0.92229   -1.000
 6425.00    0.66734   0.92269   -1.000
 6426.00    0.66073   0.92174   -1.000
 6427.00    0.65181   0.91955   -1.000
 6428.00    0.64261   0.91678   -1.000
