###################################################################
## OUTPUT of StarlightChains_v04.for    [Cid@UFSC - 01/Apr/2007] ##
###################################################################

## Some input info
NGC7089_a_1.cxt                          [arq_obs]
Base.BC03.S                              [arq_base]
NGC7089_a_1.msk                          [arq_masks]
StCv04.C11.config                        [arq_config]
  150                                    [N_base]
    0                                    [N_YAV_components = # of components with extra extinction!]
    0                                    [i_FitPowerLaw (1/0 = Yes/No)]
-9.99                                    [alpha_PowerLaw]
CCM                                      [red_law_option]
 1.458241                                [q_norm = A(l_norm)/A(V)]

## (Re)Sampling Parameters
 3359.00                                 [l_ini (A)]
 6428.00                                 [l_fin (A)]
    1.00                                 [dl    (A)]     (OBS: dl_cushion =    50.00 A)

## Normalization info
 4020.00                                 [l_norm (A) - for base]
 4010.00                                 [llow_norm (A) - window for f_obs]
 4060.00                                 [lupp_norm (A) - window for f_obs]
7.608305E-14                             [fobs_norm (in input units)]

## S/N
 4730.00                                 [llow_SN (A) - window for S/N]
 4780.00                                 [lupp_SN (A) - window for S/N]
 117.458                                 [S/N in S/N window]
 112.425                                 [S/N in norm. window]
 300.443                                 [S/N_err in S/N window]
 287.568                                 [S/N_err in norm. window]
  1.0000                                 [fscale_chi2]

## etc...
  2147483586                             [idum_orig]
  3067                                   [NOl_eff]
   684                                   [Nl_eff]
  2383    NSIGMA                         [Ntot_cliped & clip_method]
  1603350                                [Nglobal_steps]
   7                                     [N_chains]
  21                                     [NEX0s_base = N_base in EX0s-fits]
 0   0   1      249   2.0   6.084E+02    [Clip-Bug, RC-Crash & Burn-In warning-flags, n_censored_weights, wei_nsig_threshold & wei_limit]
    68     67.476     67.460      0.016  [idt_all, wdt_TotTime, wdt_UsrTime & wdt_SysTime (sec)]

## Synthesis Results - Best model ##

 2.48432E+00                             [chi2/Nl_eff]
     0.64843                             [adev (%)]

   102.23086                             [sum-of-x (%)]
 9.39306E-14                             [Flux_tot (units of input spectrum!)]
 9.10445E-10                             [Mini_tot (???)]
 4.79390E-10                             [Mcor_tot (???)]

 -18.87                                  [v0_min  (km/s)]
  57.23                                  [vd_min  (km/s)]
 0.1405                                  [AV_min  (mag)]
 0.0000                                  [YAV_min (mag)]

# j     x_j(%)      Mini_j(%)     Mcor_j(%)     age_j(yr)     Z_j      (L/M)_j    YAV?  Mstars   component_j        a/Fe...       SSP_chi2r SSP_adev(%)   SSP_AV   SSP_x(%)
  1      0.0000     0.0000E+00    0.0000E+00    1.000000E+06  0.00010  8.160E-03    0   1.0000   age020_m22            0.0000     2.4546E+03    15.8163   3.7014    75.2181
  2     14.9975     3.1804E-02    6.0401E-02    3.160000E+06  0.00010  4.759E-02    0   1.0000   age045_m22            0.0000     3.1117E+02     5.7721   1.5498    96.2530
  3      0.0000     0.0000E+00    0.0000E+00    5.010000E+06  0.00010  1.932E-02    0   0.9582   age055_m22            0.0000     2.1670E+03    14.9211   1.9897    81.2347
  4      0.0000     0.0000E+00    0.0000E+00    6.610000E+06  0.00010  9.973E-03    0   0.9297   age061_m22            0.0000     2.3930E+03    15.7452   3.6594    77.9997
  5      0.0000     0.0000E+00    0.0000E+00    8.710000E+06  0.00010  7.690E-03    0   0.9030   age067_m22            0.0000     2.2618E+03    15.3409   3.6470    78.4905
  6      0.0000     0.0000E+00    0.0000E+00    1.000000E+07  0.00010  6.375E-03    0   0.8902   age070_m22            0.0000     2.1503E+03    14.9782   3.6594    78.7139
  7      0.0000     0.0000E+00    0.0000E+00    1.445000E+07  0.00010  4.874E-03    0   0.8589   age078_m22            0.0000     1.5826E+03    13.0564   3.4509    81.8325
  8      0.0000     0.0000E+00    0.0000E+00    2.512000E+07  0.00010  4.103E-03    0   0.8174   age090_m22            0.0000     6.5471E+02     8.9172   2.9763    89.1107
  9      0.0000     0.0000E+00    0.0000E+00    4.000000E+07  0.00010  3.654E-03    0   0.7830   age104_m22            0.0000     3.2949E+02     5.9584   2.6119    94.9508
 10      0.0000     0.0000E+00    0.0000E+00    5.500000E+07  0.00010  3.093E-03    0   0.7597   age110_m22            0.0000     2.9385E+02     5.0505   2.4803    97.0073
 11      0.0000     0.0000E+00    0.0000E+00    1.015200E+08  0.00010  2.431E-03    0   0.7138   age116_m22            0.0000     3.9455E+02     4.6934   2.0961   100.6205
 12      0.0000     0.0000E+00    0.0000E+00    1.609000E+08  0.00010  1.319E-03    0   0.6775   age120_m22            0.0000     3.7980E+02     4.2892   1.6037   103.0231
 13      0.0000     0.0000E+00    0.0000E+00    2.861200E+08  0.00010  1.075E-03    0   0.6412   age125_m22            0.0000     1.3887E+03     8.5390   1.5645   108.7533
 14      0.0000     0.0000E+00    0.0000E+00    5.088000E+08  0.00010  7.183E-04    0   0.6083   age130_m22            0.0000     1.8311E+03    10.2408   1.2994   111.0938
 15      0.0000     0.0000E+00    0.0000E+00    9.047900E+08  0.00010  4.524E-04    0   0.5785   age135_m22            0.0000     1.8814E+03    10.4506   1.0939   112.3836
 16      0.0084     2.8228E-03    2.9957E-03    1.278050E+09  0.00010  3.018E-04    0   0.5588   age138_m22            0.0000     7.2862E+02     6.4785   0.6205   109.0434
 17      0.0000     0.0000E+00    0.0000E+00    1.434000E+09  0.00010  2.691E-04    0   0.5532   age139_m22            0.0000     5.5202E+02     5.6466   0.4756   108.1405
 18      0.0000     0.0000E+00    0.0000E+00    2.500000E+09  0.00010  1.582E-04    0   0.5296   age150_m22            0.0000     4.4710E+02     4.8408   0.3887   108.3719
 19      0.0849     8.5051E-02    8.2540E-02    4.250000E+09  0.00010  1.007E-04    0   0.5110   age158_m22            0.0000     1.6462E+02     2.9247   0.2698   105.8961
 20      0.0000     0.0000E+00    0.0000E+00    6.250000E+09  0.00010  6.869E-05    0   0.4985   age166_m22            0.0000     3.3909E+01     1.5525   0.2434   102.4173
 21      0.0000     0.0000E+00    0.0000E+00    7.500000E+09  0.00010  5.873E-05    0   0.4931   age171_m22            0.0000     3.5129E+01     1.7210   0.2430   101.6742
 22      0.0000     0.0000E+00    0.0000E+00    1.000000E+10  0.00010  4.481E-05    0   0.4854   age181_m22            0.0000     3.1502E+01     1.6553   0.2045   101.2895
 23      0.1019     2.9474E-01    2.6819E-01    1.300000E+10  0.00010  3.489E-05    0   0.4791   age193_m22            0.0000     2.4397E+01     1.5102   0.1471   100.6977
 24      0.0000     0.0000E+00    0.0000E+00    1.500000E+10  0.00010  3.035E-05    0   0.4766   age201_m22            0.0000     2.2260E+01     1.4723   0.1087   100.4571
 25      0.0000     0.0000E+00    0.0000E+00    1.800000E+10  0.00010  2.510E-05    0   0.4735   age213_m22            0.0000     2.2667E+01     1.5268   0.0435    99.7155
 26      0.0000     0.0000E+00    0.0000E+00    1.000000E+06  0.00040  8.458E-03    0   1.0000   age020_m32            0.0000     2.4062E+03    15.6837   3.7154    75.9038
 27      0.0000     0.0000E+00    0.0000E+00    3.160000E+06  0.00040  3.973E-02    0   1.0000   age045_m32            0.0000     7.5896E+02     9.3852   2.8840    88.9028
 28      0.0000     0.0000E+00    0.0000E+00    5.010000E+06  0.00040  1.935E-02    0   0.9532   age055_m32            0.0000     1.7885E+03    13.9858   3.1811    82.0399
 29      0.0000     0.0000E+00    0.0000E+00    6.610000E+06  0.00040  1.204E-02    0   0.9243   age061_m32            0.0000     1.9876E+03    14.4851   3.5048    80.1000
 30      0.0000     0.0000E+00    0.0000E+00    8.710000E+06  0.00040  9.433E-03    0   0.9001   age067_m32            0.0000     1.7706E+03    13.7480   3.4678    81.1156
 31      0.0000     0.0000E+00    0.0000E+00    1.000000E+07  0.00040  8.053E-03    0   0.8877   age070_m32            0.0000     1.6884E+03    13.4583   3.4272    81.6191
 32      0.0000     0.0000E+00    0.0000E+00    1.445000E+07  0.00040  7.027E-03    0   0.8578   age078_m32            0.0000     9.8097E+02    10.7381   2.8603    87.2657
 33      0.0000     0.0000E+00    0.0000E+00    2.512000E+07  0.00040  4.707E-03    0   0.8166   age090_m32            0.0000     5.4616E+02     8.2952   2.5182    91.8105
 34      0.0000     0.0000E+00    0.0000E+00    4.000000E+07  0.00040  3.714E-03    0   0.7827   age104_m32            0.0000     3.1719E+02     5.9872   2.2674    96.0173
 35      0.0000     0.0000E+00    0.0000E+00    5.500000E+07  0.00040  2.982E-03    0   0.7593   age110_m32            0.0000     2.9133E+02     5.2813   2.1833    97.6370
 36      0.4326     1.9955E-02    2.7070E-02    1.015200E+08  0.00040  2.188E-03    0   0.7143   age116_m32            0.0000     5.9979E+02     5.2683   1.8276   103.7210
 37      0.6092     3.6377E-02    4.7366E-02    1.609000E+08  0.00040  1.690E-03    0   0.6856   age120_m32            0.0000     1.0474E+03     7.0588   1.5744   107.3609
 38      0.0000     0.0000E+00    0.0000E+00    2.861200E+08  0.00040  1.152E-03    0   0.6509   age125_m32            0.0000     1.5062E+03     9.0499   1.3059   110.0940
 39      0.0000     0.0000E+00    0.0000E+00    5.088000E+08  0.00040  7.331E-04    0   0.6182   age130_m32            0.0000     1.6945E+03     9.8820   1.1210   111.1530
 40      0.0000     0.0000E+00    0.0000E+00    9.047900E+08  0.00040  3.960E-04    0   0.5890   age135_m32            0.0000     7.7479E+02     6.8819   0.6961   108.5816
 41      0.0000     0.0000E+00    0.0000E+00    1.278050E+09  0.00040  2.854E-04    0   0.5687   age138_m32            0.0000     5.4967E+02     5.4464   0.4403   109.6579
 42      0.0000     0.0000E+00    0.0000E+00    1.434000E+09  0.00040  2.531E-04    0   0.5632   age139_m32            0.0000     5.2967E+02     5.3402   0.3821   109.5663
 43     13.5266     9.1740E+00    9.3840E+00    2.500000E+09  0.00040  1.488E-04    0   0.5386   age150_m32            0.0000     2.9086E+02     3.9952   0.1391   107.4421
 44     46.6569     5.1845E+01    5.1191E+01    4.250000E+09  0.00040  9.082E-05    0   0.5199   age158_m32            0.0000     1.9731E+01     1.1543   0.0881   102.8626
 45      0.0000     0.0000E+00    0.0000E+00    6.250000E+09  0.00040  6.362E-05    0   0.5076   age166_m32            0.0000     6.8782E+01     2.4186   0.0943    98.3659
 46      4.0691     7.7642E+00    7.4126E+00    7.500000E+09  0.00040  5.289E-05    0   0.5027   age171_m32            0.0000     1.0068E+02     2.7674   0.0618    96.9822
 47      1.8880     4.7970E+00    4.5078E+00    1.000000E+10  0.00040  3.972E-05    0   0.4948   age181_m32            0.0000     1.2432E+02     2.8637  -0.0033    95.6306
 48      0.0000     0.0000E+00    0.0000E+00    1.300000E+10  0.00040  3.283E-05    0   0.4870   age193_m32            0.0000     2.9662E+01     1.4889  -0.0723    98.8131
 49      0.3810     1.3144E+00    1.2117E+00    1.500000E+10  0.00040  2.925E-05    0   0.4854   age201_m32            0.0000     9.3203E+00     0.9776  -0.1048   100.6834
 50      0.1096     4.4805E-01    4.1006E-01    1.800000E+10  0.00040  2.469E-05    0   0.4819   age213_m32            0.0000     9.2288E+00     0.9754  -0.1530   101.3201
 51      0.0000     0.0000E+00    0.0000E+00    1.000000E+06  0.00400  1.114E-02    0   1.0000   age020_m42            0.0000     2.3133E+03    15.3131   3.6401    76.3607
 52      0.0000     0.0000E+00    0.0000E+00    3.160000E+06  0.00400  4.073E-02    0   0.9999   age045_m42            0.0000     4.8287E+02     7.4505   2.5520    92.0027
 53      0.0000     0.0000E+00    0.0000E+00    5.010000E+06  0.00400  2.534E-02    0   0.9488   age055_m42            0.0000     1.1943E+03    11.4092   3.0207    84.7500
 54      0.0000     0.0000E+00    0.0000E+00    6.610000E+06  0.00400  2.583E-02    0   0.9220   age061_m42            0.0000     3.7096E+02     6.6200   2.3428    93.1614
 55      0.0000     0.0000E+00    0.0000E+00    8.710000E+06  0.00400  1.706E-02    0   0.8983   age067_m42            0.0000     6.7729E+02     9.0225   2.2085    90.3249
 56      0.0000     0.0000E+00    0.0000E+00    1.000000E+07  0.00400  1.271E-02    0   0.8862   age070_m42            0.0000     9.9412E+02    10.8943   2.2203    88.2836
 57      0.0000     0.0000E+00    0.0000E+00    1.445000E+07  0.00400  7.666E-03    0   0.8571   age078_m42            0.0000     1.3520E+03    12.3003   2.6438    84.8509
 58      0.0000     0.0000E+00    0.0000E+00    2.512000E+07  0.00400  5.070E-03    0   0.8174   age090_m42            0.0000     8.4121E+02     9.9884   2.0724    90.0493
 59      0.0000     0.0000E+00    0.0000E+00    4.000000E+07  0.00400  3.505E-03    0   0.7851   age104_m42            0.0000     4.9422E+02     7.4692   1.7142    93.5089
 60      0.0000     0.0000E+00    0.0000E+00    5.500000E+07  0.00400  3.059E-03    0   0.7629   age110_m42            0.0000     2.0762E+02     4.0015   1.6828    99.9626
 61      0.0000     0.0000E+00    0.0000E+00    1.015200E+08  0.00400  2.268E-03    0   0.7207   age116_m42            0.0000     8.6800E+02     6.4729   1.4798   107.7363
 62      0.0000     0.0000E+00    0.0000E+00    1.609000E+08  0.00400  1.720E-03    0   0.6930   age120_m42            0.0000     9.9569E+02     7.2511   1.3178   109.8277
 63      0.0000     0.0000E+00    0.0000E+00    2.861200E+08  0.00400  1.079E-03    0   0.6613   age125_m42            0.0000     1.0423E+03     7.8867   0.9623   110.1074
 64      0.0000     0.0000E+00    0.0000E+00    5.088000E+08  0.00400  6.261E-04    0   0.6313   age130_m42            0.0000     1.2980E+03     8.6623   0.7610   113.1483
 65      0.0000     0.0000E+00    0.0000E+00    9.047900E+08  0.00400  3.535E-04    0   0.6024   age135_m42            0.0000     6.4287E+02     6.4633   0.3880   112.3140
 66      0.0000     0.0000E+00    0.0000E+00    1.278050E+09  0.00400  2.677E-04    0   0.5837   age138_m42            0.0000     2.7050E+02     5.4772  -0.2964   108.2202
 67      0.0000     0.0000E+00    0.0000E+00    1.434000E+09  0.00400  1.910E-04    0   0.5716   age139_m42            0.0000     2.7668E+02     5.3379  -0.1368   109.6949
 68     11.6040     1.1928E+01    1.2375E+01    2.500000E+09  0.00400  9.818E-05    0   0.5463   age150_m42            0.0000     2.1673E+02     4.6908  -0.3641   103.3834
 69      0.0000     0.0000E+00    0.0000E+00    4.250000E+09  0.00400  5.491E-05    0   0.5269   age158_m42            0.0000     3.4448E+02     5.1037  -0.4594    99.7970
 70      0.0415     1.0852E-01    1.0616E-01    6.250000E+09  0.00400  3.857E-05    0   0.5151   age166_m42            0.0000     5.0328E+02     5.9895  -0.5876    98.1769
 71      0.0366     1.1400E-01    1.1064E-01    7.500000E+09  0.00400  3.243E-05    0   0.5110   age171_m42            0.0000     6.0746E+02     6.5528  -0.6699    97.5119
 72      0.0000     0.0000E+00    0.0000E+00    1.000000E+10  0.00400  2.424E-05    0   0.5028   age181_m42            0.0000     7.6478E+02     7.3058  -0.7520    96.7276
 73      0.0000     0.0000E+00    0.0000E+00    1.300000E+10  0.00400  1.883E-05    0   0.4927   age193_m42            0.0000     9.0095E+02     7.8643  -0.7891    96.2400
 74      0.0000     0.0000E+00    0.0000E+00    1.500000E+10  0.00400  1.685E-05    0   0.4919   age201_m42            0.0000     8.6552E+02     7.6831  -0.7833    96.2709
 75      0.0000     0.0000E+00    0.0000E+00    1.800000E+10  0.00400  1.452E-05    0   0.4874   age213_m42            0.0000     8.0066E+02     7.3637  -0.7659    96.5516
 76      0.0000     0.0000E+00    0.0000E+00    1.000000E+06  0.00800  1.286E-02    0   1.0000   age020_m52            0.0000     2.0395E+03    14.3686   3.6090    78.2709
 77      0.0000     0.0000E+00    0.0000E+00    3.160000E+06  0.00800  3.147E-02    0   0.9966   age045_m52            0.0000     1.9475E+03    14.1083   3.5144    79.7996
 78      0.0000     0.0000E+00    0.0000E+00    5.010000E+06  0.00800  2.664E-02    0   0.9443   age055_m52            0.0000     1.4051E+03    12.0876   3.1515    83.5538
 79      0.0000     0.0000E+00    0.0000E+00    6.610000E+06  0.00800  2.151E-02    0   0.9177   age061_m52            0.0000     8.8123E+02     9.3786   1.7997    89.8766
 80      0.0000     0.0000E+00    0.0000E+00    8.710000E+06  0.00800  1.628E-02    0   0.8948   age067_m52            0.0000     7.9728E+02     9.5021   2.1655    90.5372
 81      0.0000     0.0000E+00    0.0000E+00    1.000000E+07  0.00800  1.215E-02    0   0.8827   age070_m52            0.0000     1.0009E+03    10.6539   2.5204    88.5532
 82      0.0000     0.0000E+00    0.0000E+00    1.445000E+07  0.00800  8.739E-03    0   0.8552   age078_m52            0.0000     7.8665E+02     9.5307   2.5424    90.2660
 83      0.0000     0.0000E+00    0.0000E+00    2.512000E+07  0.00800  5.676E-03    0   0.8162   age090_m52            0.0000     4.6174E+02     7.3458   2.0902    95.8588
 84      0.0000     0.0000E+00    0.0000E+00    4.000000E+07  0.00800  3.939E-03    0   0.7841   age104_m52            0.0000     3.3531E+02     5.6187   1.8906    99.1746
 85      0.0000     0.0000E+00    0.0000E+00    5.500000E+07  0.00800  3.155E-03    0   0.7627   age110_m52            0.0000     3.4102E+02     4.6540   1.8248   101.6457
 86      0.0000     0.0000E+00    0.0000E+00    1.015200E+08  0.00800  2.206E-03    0   0.7226   age116_m52            0.0000     5.8619E+02     5.0956   1.5676   106.8771
 87      0.0000     0.0000E+00    0.0000E+00    1.609000E+08  0.00800  1.596E-03    0   0.6963   age120_m52            0.0000     7.6979E+02     6.1975   1.3251   109.0222
 88      0.0000     0.0000E+00    0.0000E+00    2.861200E+08  0.00800  1.002E-03    0   0.6665   age125_m52            0.0000     1.3988E+03     9.4083   0.9609   112.9797
 89      0.0000     0.0000E+00    0.0000E+00    5.088000E+08  0.00800  5.759E-04    0   0.6377   age130_m52            0.0000     1.5469E+03    10.4877   0.5731   117.4018
 90      0.0000     0.0000E+00    0.0000E+00    9.047900E+08  0.00800  2.972E-04    0   0.6086   age135_m52            0.0000     7.3521E+02     8.1735   0.0510   115.1525
 91      0.0000     0.0000E+00    0.0000E+00    1.278050E+09  0.00800  2.242E-04    0   0.5907   age138_m52            0.0000     4.1410E+02     6.6575  -0.5138   111.6520
 92      0.0000     0.0000E+00    0.0000E+00    1.434000E+09  0.00800  1.645E-04    0   0.5787   age139_m52            0.0000     3.2191E+02     5.8726  -0.3482   110.8869
 93      0.0000     0.0000E+00    0.0000E+00    2.500000E+09  0.00800  7.723E-05    0   0.5519   age150_m52            0.0000     4.7124E+02     6.5368  -0.6560   105.8643
 94      0.8140     1.9790E+00    1.9995E+00    4.250000E+09  0.00800  4.151E-05    0   0.5320   age158_m52            0.0000     5.6366E+02     6.7281  -0.7044   102.7164
 95      0.0000     0.0000E+00    0.0000E+00    6.250000E+09  0.00800  3.010E-05    0   0.5197   age166_m52            0.0000     8.2728E+02     7.9487  -0.9041   101.0557
 96      0.0000     0.0000E+00    0.0000E+00    7.500000E+09  0.00800  2.467E-05    0   0.5139   age171_m52            0.0000     8.9953E+02     8.2771  -0.9498   100.6496
 97      0.0000     0.0000E+00    0.0000E+00    1.000000E+10  0.00800  1.862E-05    0   0.5054   age181_m52            0.0000     1.1451E+03     9.2947  -1.0000    98.9207
 98      0.0000     0.0000E+00    0.0000E+00    1.300000E+10  0.00800  1.433E-05    0   0.4988   age193_m52            0.0000     1.5114E+03    10.4718  -1.0000    97.8533
 99      0.3042     2.4675E+00    2.3131E+00    1.500000E+10  0.00800  1.244E-05    0   0.4936   age201_m52            0.0000     1.6679E+03    10.9063  -1.0000    97.7506
100      0.0000     0.0000E+00    0.0000E+00    1.800000E+10  0.00800  1.070E-05    0   0.4888   age213_m52            0.0000     1.8043E+03    11.3107  -1.0000    96.9608
101      0.0000     0.0000E+00    0.0000E+00    1.000000E+06  0.02000  1.989E-02    0   1.0000   age020_m62            0.0000     2.3075E+03    15.1000   3.5957    77.1852
102      0.0000     0.0000E+00    0.0000E+00    3.160000E+06  0.02000  3.772E-02    0   0.9858   age045_m62            0.0000     2.0874E+03    14.4982   3.4391    79.4376
103      0.0000     0.0000E+00    0.0000E+00    5.010000E+06  0.02000  3.227E-02    0   0.9342   age055_m62            0.0000     7.7726E+02     9.4689   2.8352    88.2662
104      0.0000     0.0000E+00    0.0000E+00    6.610000E+06  0.02000  2.387E-02    0   0.9090   age061_m62            0.0000     1.2318E+03    11.8993   2.6119    86.8502
105      0.0000     0.0000E+00    0.0000E+00    8.710000E+06  0.02000  1.102E-02    0   0.8861   age067_m62            0.0000     3.2212E+03    18.9895   2.2957    80.4796
106      0.0000     0.0000E+00    0.0000E+00    1.000000E+07  0.02000  1.011E-02    0   0.8751   age070_m62            0.0000     2.3092E+03    16.1149   2.2898    83.5623
107      0.0000     0.0000E+00    0.0000E+00    1.445000E+07  0.02000  7.331E-03    0   0.8472   age078_m62            0.0000     1.6785E+03    13.7040   2.2838    85.6010
108      0.0000     0.0000E+00    0.0000E+00    2.512000E+07  0.02000  4.206E-03    0   0.8099   age090_m62            0.0000     1.7342E+03    13.6524   2.1915    85.0337
109      0.0000     0.0000E+00    0.0000E+00    4.000000E+07  0.02000  3.373E-03    0   0.7799   age104_m62            0.0000     4.4421E+02     7.2019   1.8878    95.8647
110      0.0000     0.0000E+00    0.0000E+00    5.500000E+07  0.02000  2.747E-03    0   0.7595   age110_m62            0.0000     3.1743E+02     5.0190   1.7635   100.6000
111      0.0000     0.0000E+00    0.0000E+00    1.015200E+08  0.02000  1.878E-03    0   0.7221   age116_m62            0.0000     7.3495E+02     5.6156   1.5366   107.4283
112      0.0000     0.0000E+00    0.0000E+00    1.609000E+08  0.02000  1.378E-03    0   0.6978   age120_m62            0.0000     1.2212E+03     7.7452   1.3347   111.0906
113      0.0000     0.0000E+00    0.0000E+00    2.861200E+08  0.02000  8.869E-04    0   0.6700   age125_m62            0.0000     2.1481E+03    11.0505   0.8971   116.6682
114      0.0000     0.0000E+00    0.0000E+00    5.088000E+08  0.02000  4.834E-04    0   0.6430   age130_m62            0.0000     1.7764E+03    11.1153   0.4211   119.3508
115      0.0144     6.2937E-03    7.3534E-03    9.047900E+08  0.02000  2.312E-04    0   0.6152   age135_m62            0.0000     6.3153E+02     7.8290  -0.1496   117.0820
116      0.0000     0.0000E+00    0.0000E+00    1.278050E+09  0.02000  1.387E-04    0   0.5927   age138_m62            0.0000     3.0497E+02     5.7551  -0.4743   110.6012
117      0.0000     0.0000E+00    0.0000E+00    1.434000E+09  0.02000  1.168E-04    0   0.5865   age139_m62            0.0000     3.0959E+02     5.6854  -0.4863   108.5666
118      0.0002     4.3625E-04    4.6479E-04    2.500000E+09  0.02000  5.505E-05    0   0.5610   age150_m62            0.0000     6.4019E+02     7.3919  -0.8536   104.6831
119      0.0000     0.0000E+00    0.0000E+00    4.250000E+09  0.02000  3.070E-05    0   0.5407   age158_m62            0.0000     1.2215E+03     9.7943  -1.0000   101.8673
120      0.0000     0.0000E+00    0.0000E+00    6.250000E+09  0.02000  2.104E-05    0   0.5277   age166_m62            0.0000     1.7462E+03    11.3532  -1.0000    99.8662
121      0.0000     0.0000E+00    0.0000E+00    7.500000E+09  0.02000  1.770E-05    0   0.5223   age171_m62            0.0000     2.1160E+03    12.6755  -1.0000    98.5535
122      0.0000     0.0000E+00    0.0000E+00    1.000000E+10  0.02000  1.297E-05    0   0.5121   age181_m62            0.0000     2.9867E+03    15.4807  -1.0000    95.8170
123      0.0000     0.0000E+00    0.0000E+00    1.300000E+10  0.02000  9.691E-06    0   0.5047   age193_m62            0.0000     3.5838E+03    17.0796  -1.0000    94.3658
124      0.0000     0.0000E+00    0.0000E+00    1.500000E+10  0.02000  8.360E-06    0   0.4999   age201_m62            0.0000     4.1266E+03    18.4294  -1.0000    93.0395
125      0.0000     0.0000E+00    0.0000E+00    1.800000E+10  0.02000  6.911E-06    0   0.4946   age213_m62            0.0000     4.7786E+03    19.8904  -1.0000    91.6026
126      0.0000     0.0000E+00    0.0000E+00    1.000000E+06  0.05000  2.651E-02    0   0.9998   age020_m72            0.0000     2.1733E+03    14.4814   3.5912    78.1540
127      0.0000     0.0000E+00    0.0000E+00    3.160000E+06  0.05000  4.817E-02    0   0.9577   age045_m72            0.0000     1.4772E+03    12.2506   3.2632    83.1350
128      0.0000     0.0000E+00    0.0000E+00    5.010000E+06  0.05000  3.101E-02    0   0.9147   age055_m72            0.0000     1.3626E+03    11.9483   2.8936    85.7305
129      0.0000     0.0000E+00    0.0000E+00    6.610000E+06  0.05000  1.472E-02    0   0.8877   age061_m72            0.0000     2.6608E+03    16.7396   2.4944    82.4908
130      0.0000     0.0000E+00    0.0000E+00    8.710000E+06  0.05000  1.050E-02    0   0.8638   age067_m72            0.0000     1.9218E+03    14.0243   2.8662    83.7382
131      0.0000     0.0000E+00    0.0000E+00    1.000000E+07  0.05000  8.954E-03    0   0.8524   age070_m72            0.0000     1.4525E+03    11.9531   3.1285    84.4192
132      0.0000     0.0000E+00    0.0000E+00    1.445000E+07  0.05000  6.392E-03    0   0.8262   age078_m72            0.0000     1.2356E+03    11.0263   3.0576    85.7179
133      0.0000     0.0000E+00    0.0000E+00    2.512000E+07  0.05000  4.207E-03    0   0.7902   age090_m72            0.0000     6.7115E+02     8.4032   2.6201    91.0197
134      0.0000     0.0000E+00    0.0000E+00    4.000000E+07  0.05000  3.198E-03    0   0.7618   age104_m72            0.0000     3.8531E+02     4.2859   1.9549   101.8629
135      0.0000     0.0000E+00    0.0000E+00    5.500000E+07  0.05000  2.593E-03    0   0.7432   age110_m72            0.0000     5.4526E+02     4.8214   1.8307   104.4905
136      0.0000     0.0000E+00    0.0000E+00    1.015200E+08  0.05000  1.716E-03    0   0.7092   age116_m72            0.0000     9.4598E+02     6.4826   1.5950   108.2164
137      0.0000     0.0000E+00    0.0000E+00    1.609000E+08  0.05000  1.218E-03    0   0.6876   age120_m72            0.0000     1.4978E+03     8.8128   1.2757   112.0431
138      0.0000     0.0000E+00    0.0000E+00    2.861200E+08  0.05000  7.047E-04    0   0.6618   age125_m72            0.0000     2.0044E+03    11.3074   0.6487   117.4773
139      0.0000     0.0000E+00    0.0000E+00    5.088000E+08  0.05000  3.590E-04    0   0.6356   age130_m72            0.0000     1.3984E+03    10.5263   0.0329   120.4830
140      0.0000     0.0000E+00    0.0000E+00    9.047900E+08  0.05000  1.484E-04    0   0.6088   age135_m72            0.0000     5.0593E+02     7.4728  -0.6223   110.8293
141      3.9238     4.1970E+00    4.7219E+00    1.278050E+09  0.05000  9.435E-05    0   0.5924   age138_m72            0.0000     8.2910E+02     8.9272  -1.0000   106.5016
142      2.6262     3.3862E+00    3.7602E+00    1.434000E+09  0.05000  7.827E-05    0   0.5847   age139_m72            0.0000     8.4698E+02     8.8035  -1.0000   105.9575
143      0.0000     0.0000E+00    0.0000E+00    2.500000E+09  0.05000  3.759E-05    0   0.5583   age150_m72            0.0000     1.6772E+03    11.2883  -1.0000    99.3881
144      0.0000     0.0000E+00    0.0000E+00    4.250000E+09  0.05000  1.842E-05    0   0.5374   age158_m72            0.0000     3.1381E+03    16.1998  -1.0000    92.7900
145      0.0000     0.0000E+00    0.0000E+00    6.250000E+09  0.05000  1.207E-05    0   0.5242   age166_m72            0.0000     4.8242E+03    20.2692  -1.0000    87.4206
146      0.0000     0.0000E+00    0.0000E+00    7.500000E+09  0.05000  9.993E-06    0   0.5183   age171_m72            0.0000     5.1486E+03    20.9525  -1.0000    86.4163
147      0.0000     0.0000E+00    0.0000E+00    1.000000E+10  0.05000  7.291E-06    0   0.5081   age181_m72            0.0000     6.3071E+03    23.1125  -1.0000    83.5184
148      0.0000     0.0000E+00    0.0000E+00    1.300000E+10  0.05000  5.316E-06    0   0.5018   age193_m72            0.0000     8.2133E+03    26.0699  -1.0000    79.1529
149      0.0000     0.0000E+00    0.0000E+00    1.500000E+10  0.05000  4.497E-06    0   0.4972   age201_m72            0.0000     9.0856E+03    27.2445  -1.0000    77.5954
150      0.0000     0.0000E+00    0.0000E+00    1.800000E+10  0.05000  3.739E-06    0   0.4924   age213_m72            0.0000     1.0318E+04    28.7822  -1.0000    75.2149


## Synthesis Results - Average & Chains ##

# j      x_j: min, <> & last-chain-values for 1 ...  7 chains
  1      0.0000      0.0025      0.0000      0.0000      0.0000      0.0000      0.0000      0.0000      0.0000
  2     14.9975     13.7183     13.7736     14.3235     14.0844     14.1937     14.1167     13.8319     14.0496
  3      0.0000      0.0058      0.0000      0.0000      0.0000      0.0000      0.0096      0.0000      0.0000
  4      0.0000      0.0009      0.0012      0.0000      0.0000      0.0000      0.0000      0.0000      0.0000
  5      0.0000      0.0026      0.0000      0.0000      0.0000      0.0000      0.0000      0.0000      0.0000
  6      0.0000      0.0011      0.0000      0.0000      0.0000      0.0000      0.0000      0.0000      0.0000
  7      0.0000      0.0029      0.0000      0.0000      0.0000      0.0000      0.0000      0.0000      0.0000
  8      0.0000      0.0045      0.0000      0.0000      0.0000      0.0000      0.0000      0.0000      0.0000
  9      0.0000      0.0127      0.0109      0.0000      0.0000      0.0000      0.0006      0.0204      0.0000
 10      0.0000      0.0268      0.0000      0.0000      0.0000      0.0000      0.0271      0.0000      0.0134
 11      0.0000      0.0955      0.4461      0.0000      0.0000      0.0000      0.0000      0.2889      0.2339
 12      0.0000      0.0652      0.2334      0.0000      0.0782      0.0000      0.0232      0.0813      0.0105
 13      0.0000      0.0462      0.0000      0.0263      0.0782      0.0000      0.0000      0.0000      0.0000
 14      0.0000      0.0248      0.0000      0.0000      0.0000      0.0238      0.0000      0.1062      0.0000
 15      0.0000      0.0335      0.0397      0.0175      0.0000      0.0653      0.0000      0.0000      0.0087
 16      0.0084      0.0467      0.0000      0.1480      0.0000      0.0000      0.0000      0.0302      0.0000
 17      0.0000      0.0993      0.5179      0.0000      0.0000      0.0000      0.0000      0.0000      0.0518
 18      0.0000      0.0717      0.0000      0.0000      0.0000      0.0000      0.0144      0.0034      0.0568
 19      0.0849      0.1418      0.0000      0.2087      0.1037      0.0000      0.0030      0.0000      0.0000
 20      0.0000      0.1811      0.0555      0.1254      0.1726      0.1460      0.0000      0.1954      0.0000
 21      0.0000      0.2313      0.1632      0.0000      0.1805      0.0000      0.0832      0.1191      0.8465
 22      0.0000      0.2177      0.1894      0.0529      0.0000      0.0000      0.0701      0.3023      0.3909
 23      0.1019      0.2535      0.1329      0.6965      0.5694      0.2448      0.4324      0.3008      0.1698
 24      0.0000      0.1750      0.0720      0.0000      0.1814      0.5781      0.2455      0.3215      0.0684
 25      0.0000      0.2434      0.1274      0.0000      0.0479      0.2213      0.3859      0.0000      0.0193
 26      0.0000      0.0008      0.0000      0.0000      0.0000      0.0000      0.0000      0.0000      0.0000
 27      0.0000      0.0059      0.0000      0.0000      0.0000      0.0000      0.0000      0.0000      0.0000
 28      0.0000      0.0019      0.0000      0.0000      0.0000      0.0000      0.0443      0.0000      0.0000
 29      0.0000      0.0025      0.0000      0.0000      0.0000      0.0000      0.0000      0.0000      0.0003
 30      0.0000      0.0010      0.0000      0.0000      0.0000      0.0000      0.0000      0.0000      0.0000
 31      0.0000      0.0010      0.0000      0.0000      0.0000      0.0000      0.0000      0.0000      0.0000
 32      0.0000      0.0046      0.0000      0.0000      0.0000      0.0000      0.0000      0.0000      0.0000
 33      0.0000      0.0048      0.0000      0.0000      0.0027      0.0000      0.0000      0.0000      0.0000
 34      0.0000      0.0181      0.0000      0.0000      0.0000      0.0000      0.0000      0.0174      0.0000
 35      0.0000      0.0230      0.0228      0.0000      0.0000      0.0000      0.0000      0.0043      0.0000
 36      0.4326      0.1224      0.1986      0.2544      0.1088      0.0856      0.3025      0.1184      0.0233
 37      0.6092      0.0765      0.0000      0.2124      0.0000      0.0000      0.0000      0.0939      0.0000
 38      0.0000      0.0441      0.1186      0.0000      0.0000      0.1010      0.0000      0.1584      0.0000
 39      0.0000      0.0359      0.0000      0.0319      0.0000      0.0000      0.0211      0.0000      0.0000
 40      0.0000      0.0412      0.0000      0.0000      0.0000      0.1894      0.0000      0.0041      0.0440
 41      0.0000      0.0797      0.0000      0.0646      0.0648      0.0000      0.0027      0.0000      0.2080
 42      0.0000      0.0865      0.0000      0.0864      0.0000      0.0853      0.0000      0.0032      0.1117
 43     13.5266     12.4984     12.3838     12.5747     12.5922     12.7109     13.5509     12.6761     12.5252
 44     46.6569     46.0377     46.7026     46.3636     46.5030     47.2209     46.3144     46.6444     46.9640
 45      0.0000      0.1975      0.0696      0.0848      0.0704      0.0761      0.0000      0.1695      0.0000
 46      4.0691      4.7281      5.3083      5.1778      5.1910      4.7706      4.7847      4.5816      4.4438
 47      1.8880      1.4866      1.3368      0.8427      0.9478      1.1485      1.4256      1.3431      1.6518
 48      0.0000      0.2600      0.4008      0.0000      0.4626      0.2973      0.0154      0.3730      0.0000
 49      0.3810      0.1740      0.0000      0.8002      0.0000      0.1144      0.0000      0.1215      0.0000
 50      0.1096      0.2971      0.0000      0.4098      0.4076      0.0000      0.0689      0.4985      0.3437
 51      0.0000      0.0020      0.0000      0.0000      0.0000      0.0000      0.0000      0.0000      0.0000
 52      0.0000      0.0148      0.0000      0.0000      0.0000      0.0000      0.0000      0.0000      0.0494
 53      0.0000      0.0049      0.0000      0.0000      0.0000      0.0000      0.0000      0.0000      0.0000
 54      0.0000      0.0235      0.0000      0.0000      0.2064      0.0000      0.0000      0.0000      0.0161
 55      0.0000      0.0145      0.0000      0.0000      0.0000      0.0000      0.0000      0.0000      0.0000
 56      0.0000      0.0114      0.0000      0.0463      0.0000      0.0000      0.1018      0.0000      0.0000
 57      0.0000      0.0043      0.0000      0.0000      0.0000      0.0000      0.0000      0.0000      0.0000
 58      0.0000      0.0050      0.0000      0.0000      0.0000      0.0000      0.0000      0.0000      0.0000
 59      0.0000      0.0083      0.0000      0.0000      0.0000      0.0000      0.0000      0.0000      0.0000
 60      0.0000      0.0219      0.0000      0.0000      0.0000      0.1125      0.0000      0.0000      0.0000
 61      0.0000      0.0725      0.0000      0.0461      0.0000      0.2474      0.0000      0.1381      0.2875
 62      0.0000      0.0613      0.0170      0.0000      0.3545      0.0000      0.0000      0.0000      0.0000
 63      0.0000      0.0319      0.0000      0.0000      0.0000      0.1270      0.0000      0.0000      0.1040
 64      0.0000      0.0442      0.0000      0.1124      0.0000      0.1336      0.0000      0.0000      0.0698
 65      0.0000      0.0505      0.0000      0.0000      0.0311      0.0000      0.0000      0.0344      0.0000
 66      0.0000      0.0616      0.0000      0.0135      0.0000      0.0000      0.1628      0.0000      0.0000
 67      0.0000      0.1179      0.0837      0.0000      0.0946      0.0755      0.0000      0.3777      0.1732
 68     11.6040     11.2196     11.3342     11.2599     11.0896     11.6536     11.4135     11.1847     11.3666
 69      0.0000      0.0720      0.0112      0.0037      0.1995      0.0000      0.3398      0.1760      0.1859
 70      0.0415      0.3842      0.4170      0.4360      0.3250      0.3948      0.2099      0.3122      0.4567
 71      0.0366      0.3668      0.4618      0.3109      0.0000      0.4769      0.2419      0.4039      0.3869
 72      0.0000      0.1359      0.0000      0.1261      0.1425      0.1622      0.0000      0.0000      0.1950
 73      0.0000      0.0533      0.0000      0.0756      0.0178      0.0000      0.0000      0.0082      0.0389
 74      0.0000      0.0296      0.0000      0.0000      0.1270      0.0000      0.0000      0.0000      0.1048
 75      0.0000      0.0454      0.0000      0.0000      0.0638      0.0333      0.0000      0.0000      0.0000
 76      0.0000      0.0010      0.0000      0.0000      0.0000      0.0000      0.0000      0.0000      0.0000
 77      0.0000      0.0011      0.0000      0.0000      0.0000      0.0000      0.0000      0.0000      0.0000
 78      0.0000      0.0025      0.0000      0.0000      0.0000      0.0000      0.0000      0.0000      0.0000
 79      0.0000      0.0112      0.0000      0.0000      0.0000      0.0000      0.0000      0.0518      0.0000
 80      0.0000      0.0071      0.0000      0.0000      0.0000      0.0303      0.0000      0.0000      0.0000
 81      0.0000      0.0029      0.0000      0.0000      0.0000      0.0000      0.0000      0.0000      0.0000
 82      0.0000      0.0085      0.0000      0.0000      0.0000      0.0000      0.0000      0.0000      0.0000
 83      0.0000      0.0241      0.0000      0.0000      0.0293      0.0000      0.0000      0.0000      0.0582
 84      0.0000      0.0233      0.0000      0.0476      0.0000      0.0167      0.0249      0.0000      0.0000
 85      0.0000      0.0163      0.0000      0.0000      0.0000      0.0000      0.0000      0.0943      0.0000
 86      0.0000      0.0773      0.1219      0.0000      0.0151      0.0000      0.2544      0.0000      0.0000
 87      0.0000      0.0376      0.0797      0.1291      0.0000      0.0000      0.2119      0.0000      0.0271
 88      0.0000      0.0425      0.0236      0.0000      0.0000      0.0000      0.0000      0.0000      0.0000
 89      0.0000      0.0175      0.0000      0.0000      0.0000      0.0000      0.0000      0.0000      0.0000
 90      0.0000      0.0267      0.0000      0.0000      0.0000      0.0086      0.0000      0.0000      0.0000
 91      0.0000      0.0330      0.0000      0.0000      0.0000      0.0000      0.0000      0.0384      0.0119
 92      0.0000      0.0464      0.1299      0.0036      0.0000      0.0238      0.0000      0.0000      0.0000
 93      0.0000      0.0963      0.1151      0.0343      0.0000      0.3022      0.0088      0.0745      0.0409
 94      0.8140      0.3773      0.4680      0.3537      0.5485      0.3524      0.3067      0.5648      0.4353
 95      0.0000      0.0578      0.0356      0.0802      0.1279      0.0000      0.0000      0.2735      0.0000
 96      0.0000      0.0966      0.2598      0.0542      0.0030      0.0731      0.2788      0.0991      0.0000
 97      0.0000      0.0866      0.0887      0.0000      0.2984      0.0916      0.1471      0.2475      0.0250
 98      0.0000      0.0354      0.0090      0.0000      0.0470      0.0000      0.0000      0.0525      0.0000
 99      0.3042      0.0438      0.0000      0.2017      0.1187      0.0483      0.1529      0.0000      0.0490
100      0.0000      0.0523      0.0820      0.1052      0.0000      0.0089      0.0000      0.0000      0.0000
101      0.0000      0.0019      0.0000      0.0000      0.0000      0.0000      0.0000      0.0000      0.0000
102      0.0000      0.0029      0.0000      0.0000      0.0000      0.0000      0.0000      0.0007      0.0000
103      0.0000      0.0058      0.0000      0.0000      0.0000      0.0143      0.0000      0.0000      0.0000
104      0.0000      0.0025      0.0000      0.0000      0.0000      0.0000      0.0000      0.0000      0.0349
105      0.0000      0.0033      0.0000      0.0000      0.0000      0.0000      0.0331      0.0000      0.0000
106      0.0000      0.0036      0.0000      0.0000      0.0000      0.0000      0.0148      0.0000      0.0000
107      0.0000      0.0046      0.0000      0.0000      0.0000      0.0096      0.0000      0.0000      0.0000
108      0.0000      0.0062      0.0000      0.0000      0.0000      0.0000      0.0000      0.0000      0.0000
109      0.0000      0.0075      0.0000      0.0000      0.0000      0.0000      0.0000      0.0000      0.0000
110      0.0000      0.0182      0.0000      0.0000      0.0000      0.0000      0.0000      0.0000      0.0000
111      0.0000      0.0222      0.0000      0.0820      0.0000      0.0000      0.0000      0.0000      0.0000
112      0.0000      0.0218      0.0000      0.0263      0.0533      0.0000      0.1051      0.0571      0.0000
113      0.0000      0.0168      0.0479      0.0369      0.0000      0.0000      0.0000      0.0000      0.0000
114      0.0000      0.0197      0.0000      0.0140      0.0000      0.0000      0.1253      0.0000      0.0000
115      0.0144      0.0545      0.0698      0.2787      0.1975      0.0000      0.0000      0.2493      0.0000
116      0.0000      0.0898      0.0008      0.1302      0.0000      0.0000      0.0000      0.0000      0.0000
117      0.0000      0.0566      0.0000      0.0000      0.0650      0.0000      0.1761      0.0000      0.0000
118      0.0002      0.1826      0.1400      0.1614      0.0697      0.0000      0.1165      0.3191      0.1898
119      0.0000      0.0170      0.0000      0.0000      0.0000      0.0000      0.0000      0.0000      0.0000
120      0.0000      0.0666      0.0000      0.1031      0.0000      0.0000      0.1259      0.0078      0.0000
121      0.0000      0.0165      0.0000      0.0000      0.0000      0.0571      0.0228      0.0368      0.0000
122      0.0000      0.0109      0.0000      0.0000      0.0000      0.0000      0.0000      0.0000      0.0000
123      0.0000      0.0092      0.0000      0.0000      0.0000      0.0000      0.0000      0.0000      0.0000
124      0.0000      0.0218      0.0000      0.0468      0.0000      0.0536      0.0000      0.0000      0.0000
125      0.0000      0.0147      0.0000      0.0000      0.0234      0.0095      0.0000      0.0000      0.0000
126      0.0000      0.0015      0.0000      0.0000      0.0000      0.0000      0.0000      0.0013      0.0000
127      0.0000      0.0023      0.0000      0.0000      0.0324      0.0000      0.0000      0.0000      0.0000
128      0.0000      0.0054      0.0000      0.0004      0.0018      0.0000      0.0000      0.0000      0.0000
129      0.0000      0.0015      0.0000      0.0000      0.0000      0.0000      0.0000      0.0254      0.0000
130      0.0000      0.0020      0.0000      0.0000      0.0000      0.0000      0.0000      0.0000      0.0000
131      0.0000      0.0018      0.0000      0.0000      0.0000      0.0000      0.0000      0.0000      0.0000
132      0.0000      0.0024      0.0000      0.0000      0.0000      0.0000      0.0000      0.0000      0.0000
133      0.0000      0.0070      0.0843      0.0000      0.0000      0.0172      0.0000      0.0000      0.0000
134      0.0000      0.0154      0.0000      0.0000      0.0000      0.0000      0.0000      0.0000      0.0000
135      0.0000      0.0162      0.0521      0.0000      0.0688      0.0554      0.0000      0.0000      0.0000
136      0.0000      0.0162      0.0000      0.0000      0.0000      0.0000      0.0070      0.0000      0.0000
137      0.0000      0.0270      0.0000      0.0000      0.0684      0.0002      0.1125      0.0000      0.0000
138      0.0000      0.0189      0.0908      0.0000      0.1460      0.0662      0.0000      0.0000      0.0830
139      0.0000      0.0495      0.0411      0.0000      0.2053      0.0000      0.0000      0.0000      0.0000
140      0.0000      0.1806      0.1991      0.1030      0.1620      0.0000      0.1012      0.0000      0.2812
141      3.9238      3.4226      3.4431      3.5356      3.5798      3.5635      3.6634      3.3401      3.4667
142      2.6262      1.6288      1.9979      1.6843      1.7934      1.6021      1.7909      1.5851      1.6433
143      0.0000      0.0262      0.0000      0.0000      0.0000      0.0000      0.0000      0.0000      0.0000
144      0.0000      0.0292      0.0000      0.0000      0.0449      0.0000      0.0000      0.0382      0.1479
145      0.0000      0.0171      0.0117      0.0000      0.0000      0.0980      0.0000      0.0000      0.0178
146      0.0000      0.0060      0.0000      0.0000      0.0000      0.0000      0.0000      0.0000      0.0000
147      0.0000      0.0087      0.0000      0.0783      0.0000      0.0000      0.0000      0.0000      0.0000
148      0.0000      0.0131      0.0000      0.0000      0.0140      0.0109      0.0092      0.0000      0.0000
149      0.0000      0.0025      0.0000      0.0000      0.0000      0.0000      0.0094      0.0000      0.0000
150      0.0000      0.0070      0.0000      0.0000      0.0000      0.0000      0.0000      0.0000      0.0000

# j      m_j: min, <> & last-chain-values for 1 ...  7 chains
  1  0.0000E+00  5.4590E-05  0.0000E+00  0.0000E+00  0.0000E+00  0.0000E+00  0.0000E+00  0.0000E+00  0.0000E+00
  2  6.0401E-02  5.2281E-02  5.4341E-02  5.4402E-02  5.3987E-02  5.4969E-02  5.5270E-02  5.3259E-02  5.4959E-02
  3  0.0000E+00  5.2126E-05  0.0000E+00  0.0000E+00  0.0000E+00  0.0000E+00  8.8291E-05  0.0000E+00  0.0000E+00
  4  0.0000E+00  1.5328E-05  2.0730E-05  0.0000E+00  0.0000E+00  0.0000E+00  0.0000E+00  0.0000E+00  0.0000E+00
  5  0.0000E+00  5.5073E-05  0.0000E+00  0.0000E+00  0.0000E+00  0.0000E+00  0.0000E+00  0.0000E+00  0.0000E+00
  6  0.0000E+00  2.7465E-05  0.0000E+00  0.0000E+00  0.0000E+00  0.0000E+00  0.0000E+00  0.0000E+00  0.0000E+00
  7  0.0000E+00  9.3917E-05  0.0000E+00  0.0000E+00  0.0000E+00  0.0000E+00  0.0000E+00  0.0000E+00  0.0000E+00
  8  0.0000E+00  1.6343E-04  0.0000E+00  0.0000E+00  0.0000E+00  0.0000E+00  0.0000E+00  0.0000E+00  0.0000E+00
  9  0.0000E+00  4.9551E-04  4.3696E-04  0.0000E+00  0.0000E+00  0.0000E+00  2.2555E-05  8.0202E-04  0.0000E+00
 10  0.0000E+00  1.1931E-03  0.0000E+00  0.0000E+00  0.0000E+00  0.0000E+00  1.2394E-03  0.0000E+00  6.1115E-04
 11  0.0000E+00  5.0871E-03  2.4593E-02  0.0000E+00  0.0000E+00  0.0000E+00  0.0000E+00  1.5542E-02  1.2785E-02
 12  0.0000E+00  6.0729E-03  2.2507E-02  0.0000E+00  7.3248E-03  0.0000E+00  2.2185E-03  7.6477E-03  1.0015E-03
 13  0.0000E+00  5.0019E-03  0.0000E+00  2.8301E-03  8.5132E-03  0.0000E+00  0.0000E+00  0.0000E+00  0.0000E+00
 14  0.0000E+00  3.8163E-03  0.0000E+00  0.0000E+00  0.0000E+00  3.7181E-03  0.0000E+00  1.6474E-02  0.0000E+00
 15  0.0000E+00  7.7807E-03  9.5227E-03  4.0530E-03  0.0000E+00  1.5398E-02  0.0000E+00  0.0000E+00  2.0780E-03
 16  2.9957E-03  1.5675E-02  0.0000E+00  4.9530E-02  0.0000E+00  0.0000E+00  0.0000E+00  1.0241E-02  0.0000E+00
 17  0.0000E+00  3.7035E-02  1.9989E-01  0.0000E+00  0.0000E+00  0.0000E+00  0.0000E+00  0.0000E+00  1.9821E-02
 18  0.0000E+00  4.3554E-02  0.0000E+00  0.0000E+00  0.0000E+00  0.0000E+00  8.9899E-03  2.0974E-03  3.5394E-02
 19  8.2540E-02  1.3052E-01  0.0000E+00  1.9140E-01  9.6020E-02  0.0000E+00  2.8801E-03  0.0000E+00  0.0000E+00
 20  0.0000E+00  2.3841E-01  7.5600E-02  1.6447E-01  2.2848E-01  1.9529E-01  0.0000E+00  2.5987E-01  0.0000E+00
 21  0.0000E+00  3.5214E-01  2.5726E-01  0.0000E+00  2.7645E-01  0.0000E+00  1.3023E-01  1.8324E-01  1.3231E+00
 22  0.0000E+00  4.2768E-01  3.8529E-01  1.0365E-01  0.0000E+00  0.0000E+00  1.4146E-01  6.0012E-01  7.8827E-01
 23  2.6819E-01  6.3144E-01  3.4269E-01  1.7288E+00  1.4264E+00  6.1961E-01  1.1063E+00  7.5691E-01  4.3407E-01
 24  0.0000E+00  4.9845E-01  2.1238E-01  0.0000E+00  5.1952E-01  1.6732E+00  7.1819E-01  9.2507E-01  2.0000E-01
 25  0.0000E+00  8.3292E-01  4.5134E-01  0.0000E+00  1.6475E-01  7.6943E-01  1.3563E+00  0.0000E+00  6.7715E-02
 26  0.0000E+00  1.6838E-05  0.0000E+00  0.0000E+00  0.0000E+00  0.0000E+00  0.0000E+00  0.0000E+00  0.0000E+00
 27  0.0000E+00  2.7071E-05  0.0000E+00  0.0000E+00  0.0000E+00  0.0000E+00  0.0000E+00  0.0000E+00  0.0000E+00
 28  0.0000E+00  1.6969E-05  0.0000E+00  0.0000E+00  0.0000E+00  0.0000E+00  4.0640E-04  0.0000E+00  0.0000E+00
 29  0.0000E+00  3.4429E-05  0.0000E+00  0.0000E+00  0.0000E+00  0.0000E+00  0.0000E+00  0.0000E+00  4.8559E-06
 30  0.0000E+00  1.8152E-05  0.0000E+00  0.0000E+00  0.0000E+00  0.0000E+00  0.0000E+00  0.0000E+00  0.0000E+00
 31  0.0000E+00  1.9358E-05  0.0000E+00  0.0000E+00  0.0000E+00  0.0000E+00  0.0000E+00  0.0000E+00  0.0000E+00
 32  0.0000E+00  1.0209E-04  0.0000E+00  0.0000E+00  0.0000E+00  0.0000E+00  0.0000E+00  0.0000E+00  0.0000E+00
 33  0.0000E+00  1.5064E-04  0.0000E+00  0.0000E+00  8.5876E-05  0.0000E+00  0.0000E+00  0.0000E+00  0.0000E+00
 34  0.0000E+00  6.9291E-04  0.0000E+00  0.0000E+00  0.0000E+00  0.0000E+00  0.0000E+00  6.7135E-04  0.0000E+00
 35  0.0000E+00  1.0643E-03  1.0899E-03  0.0000E+00  0.0000E+00  0.0000E+00  0.0000E+00  1.9876E-04  0.0000E+00
 36  2.7070E-02  7.2480E-03  1.2171E-02  1.5009E-02  6.4769E-03  5.1487E-03  1.8400E-02  7.0817E-03  1.4187E-03
 37  4.7366E-02  5.6280E-03  0.0000E+00  1.5574E-02  0.0000E+00  0.0000E+00  0.0000E+00  6.9828E-03  0.0000E+00
 38  0.0000E+00  4.5232E-03  1.2585E-02  0.0000E+00  0.0000E+00  1.0515E-02  0.0000E+00  1.6397E-02  0.0000E+00
 39  0.0000E+00  5.4895E-03  0.0000E+00  4.8574E-03  0.0000E+00  0.0000E+00  3.3117E-03  0.0000E+00  0.0000E+00
 40  0.0000E+00  1.1127E-02  0.0000E+00  0.0000E+00  0.0000E+00  5.1922E-02  0.0000E+00  1.1124E-03  1.2171E-02
 41  0.0000E+00  2.8809E-02  0.0000E+00  2.3275E-02  2.3550E-02  0.0000E+00  9.9495E-04  0.0000E+00  7.7154E-02
 42  0.0000E+00  3.4918E-02  0.0000E+00  3.4742E-02  0.0000E+00  3.5003E-02  0.0000E+00  1.2860E-03  4.6257E-02
 43  9.3840E+00  8.2049E+00  8.4160E+00  8.2270E+00  8.3145E+00  8.4797E+00  9.1391E+00  8.4076E+00  8.4399E+00
 44  5.1191E+01  4.7798E+01  5.0196E+01  4.7973E+01  4.8561E+01  4.9821E+01  4.9400E+01  4.8928E+01  5.0049E+01
 45  0.0000E+00  2.8580E-01  1.0420E-01  1.2232E-01  1.0242E-01  1.1194E-01  0.0000E+00  2.4787E-01  0.0000E+00
 46  7.4126E+00  8.1505E+00  9.4730E+00  8.8953E+00  9.0003E+00  8.3569E+00  8.4734E+00  7.9796E+00  7.8629E+00
 47  4.5078E+00  3.3586E+00  3.1267E+00  1.8975E+00  2.1538E+00  2.6370E+00  3.3089E+00  3.0659E+00  3.8305E+00
 48  0.0000E+00  6.9959E-01  1.1162E+00  0.0000E+00  1.2518E+00  8.1271E-01  4.2472E-02  1.0139E+00  0.0000E+00
 49  1.2117E+00  5.2383E-01  0.0000E+00  2.4001E+00  0.0000E+00  3.4996E-01  0.0000E+00  3.6958E-01  0.0000E+00
 50  4.1006E-01  1.0518E+00  0.0000E+00  1.4458E+00  1.4513E+00  0.0000E+00  2.5050E-01  1.7830E+00  1.2487E+00
 51  0.0000E+00  3.3048E-05  0.0000E+00  0.0000E+00  0.0000E+00  0.0000E+00  0.0000E+00  0.0000E+00  0.0000E+00
 52  0.0000E+00  6.5923E-05  0.0000E+00  0.0000E+00  0.0000E+00  0.0000E+00  0.0000E+00  0.0000E+00  2.2583E-04
 53  0.0000E+00  3.3227E-05  0.0000E+00  0.0000E+00  0.0000E+00  0.0000E+00  0.0000E+00  0.0000E+00  0.0000E+00
 54  0.0000E+00  1.5222E-04  0.0000E+00  0.0000E+00  1.3441E-03  0.0000E+00  0.0000E+00  0.0000E+00  1.0704E-04
 55  0.0000E+00  1.3820E-04  0.0000E+00  0.0000E+00  0.0000E+00  0.0000E+00  0.0000E+00  0.0000E+00  0.0000E+00
 56  0.0000E+00  1.4363E-04  0.0000E+00  5.8342E-04  0.0000E+00  0.0000E+00  1.3219E-03  0.0000E+00  0.0000E+00
 57  0.0000E+00  8.7870E-05  0.0000E+00  0.0000E+00  0.0000E+00  0.0000E+00  0.0000E+00  0.0000E+00  0.0000E+00
 58  0.0000E+00  1.4618E-04  0.0000E+00  0.0000E+00  0.0000E+00  0.0000E+00  0.0000E+00  0.0000E+00  0.0000E+00
 59  0.0000E+00  3.3791E-04  0.0000E+00  0.0000E+00  0.0000E+00  0.0000E+00  0.0000E+00  0.0000E+00  0.0000E+00
 60  0.0000E+00  9.9054E-04  0.0000E+00  0.0000E+00  0.0000E+00  5.1716E-03  0.0000E+00  0.0000E+00  0.0000E+00
 61  0.0000E+00  4.1772E-03  0.0000E+00  2.6474E-03  0.0000E+00  1.4487E-02  0.0000E+00  8.0406E-03  1.7005E-02
 62  0.0000E+00  4.4773E-03  1.2872E-03  0.0000E+00  2.6052E-02  0.0000E+00  0.0000E+00  0.0000E+00  0.0000E+00
 63  0.0000E+00  3.5415E-03  0.0000E+00  0.0000E+00  0.0000E+00  1.4343E-02  0.0000E+00  0.0000E+00  1.1865E-02
 64  0.0000E+00  8.0749E-03  0.0000E+00  2.0478E-02  0.0000E+00  2.4829E-02  0.0000E+00  0.0000E+00  1.3111E-02
 65  0.0000E+00  1.5598E-02  0.0000E+00  0.0000E+00  9.6647E-03  0.0000E+00  0.0000E+00  1.0736E-02  0.0000E+00
 66  0.0000E+00  2.4342E-02  0.0000E+00  5.3087E-03  0.0000E+00  0.0000E+00  6.6135E-02  0.0000E+00  0.0000E+00
 67  0.0000E+00  6.3985E-02  4.7019E-02  0.0000E+00  5.1654E-02  4.1630E-02  0.0000E+00  2.0711E-01  9.6469E-02
 68  1.2375E+01  1.1323E+01  1.1841E+01  1.1325E+01  1.1256E+01  1.1951E+01  1.1833E+01  1.1404E+01  1.1774E+01
 69  0.0000E+00  1.2530E-01  2.0171E-02  6.3482E-03  3.4916E-01  0.0000E+00  6.0755E-01  3.0955E-01  3.3212E-01
 70  1.0616E-01  9.3063E-01  1.0455E+00  1.0525E+00  7.9183E-01  9.7176E-01  5.2230E-01  7.6403E-01  1.1353E+00
 71  1.1064E-01  1.0483E+00  1.3663E+00  8.8553E-01  0.0000E+00  1.3850E+00  7.1015E-01  1.1663E+00  1.1348E+00
 72  0.0000E+00  5.1139E-01  0.0000E+00  4.7282E-01  5.3917E-01  6.1999E-01  0.0000E+00  0.0000E+00  7.5308E-01
 73  0.0000E+00  2.5283E-01  0.0000E+00  3.5752E-01  8.5140E-02  0.0000E+00  0.0000E+00  3.9099E-02  1.8965E-01
 74  0.0000E+00  1.5686E-01  0.0000E+00  0.0000E+00  6.7625E-01  0.0000E+00  0.0000E+00  0.0000E+00  5.6956E-01
 75  0.0000E+00  2.7670E-01  0.0000E+00  0.0000E+00  3.9076E-01  2.0625E-01  0.0000E+00  0.0000E+00  0.0000E+00
 76  0.0000E+00  1.3769E-05  0.0000E+00  0.0000E+00  0.0000E+00  0.0000E+00  0.0000E+00  0.0000E+00  0.0000E+00
 77  0.0000E+00  6.4961E-06  0.0000E+00  0.0000E+00  0.0000E+00  0.0000E+00  0.0000E+00  0.0000E+00  0.0000E+00
 78  0.0000E+00  1.6097E-05  0.0000E+00  0.0000E+00  0.0000E+00  0.0000E+00  0.0000E+00  0.0000E+00  0.0000E+00
 79  0.0000E+00  8.7018E-05  0.0000E+00  0.0000E+00  0.0000E+00  0.0000E+00  0.0000E+00  4.0519E-04  0.0000E+00
 80  0.0000E+00  7.0853E-05  0.0000E+00  0.0000E+00  0.0000E+00  3.0683E-04  0.0000E+00  0.0000E+00  0.0000E+00
 81  0.0000E+00  3.7974E-05  0.0000E+00  0.0000E+00  0.0000E+00  0.0000E+00  0.0000E+00  0.0000E+00  0.0000E+00
 82  0.0000E+00  1.5159E-04  0.0000E+00  0.0000E+00  0.0000E+00  0.0000E+00  0.0000E+00  0.0000E+00  0.0000E+00
 83  0.0000E+00  6.2973E-04  0.0000E+00  0.0000E+00  7.6752E-04  0.0000E+00  0.0000E+00  0.0000E+00  1.5578E-03
 84  0.0000E+00  8.4104E-04  0.0000E+00  1.7114E-03  0.0000E+00  6.1259E-04  9.2363E-04  0.0000E+00  0.0000E+00
 85  0.0000E+00  7.1572E-04  0.0000E+00  0.0000E+00  0.0000E+00  0.0000E+00  0.0000E+00  4.1767E-03  0.0000E+00
 86  0.0000E+00  4.5894E-03  7.4981E-03  0.0000E+00  8.9931E-04  0.0000E+00  1.5526E-02  0.0000E+00  0.0000E+00
 87  0.0000E+00  2.9734E-03  6.5301E-03  1.0178E-02  0.0000E+00  0.0000E+00  1.7228E-02  0.0000E+00  2.2008E-03
 88  0.0000E+00  5.1316E-03  2.9458E-03  0.0000E+00  0.0000E+00  0.0000E+00  0.0000E+00  0.0000E+00  0.0000E+00
 89  0.0000E+00  3.5198E-03  0.0000E+00  0.0000E+00  0.0000E+00  0.0000E+00  0.0000E+00  0.0000E+00  0.0000E+00
 90  0.0000E+00  9.9100E-03  0.0000E+00  0.0000E+00  0.0000E+00  3.2329E-03  0.0000E+00  0.0000E+00  0.0000E+00
 91  0.0000E+00  1.5775E-02  0.0000E+00  0.0000E+00  0.0000E+00  0.0000E+00  0.0000E+00  1.8554E-02  5.8399E-03
 92  0.0000E+00  2.9581E-02  8.5820E-02  2.2996E-03  0.0000E+00  1.5410E-02  0.0000E+00  0.0000E+00  0.0000E+00
 93  0.0000E+00  1.2477E-01  1.5437E-01  4.4299E-02  0.0000E+00  3.9805E-01  1.1660E-02  9.7583E-02  5.4444E-02
 94  1.9995E+00  8.7693E-01  1.1261E+00  8.1934E-01  1.2823E+00  8.3229E-01  7.3250E-01  1.3263E+00  1.0385E+00
 95  0.0000E+00  1.8086E-01  1.1553E-01  2.5033E-01  4.0286E-01  0.0000E+00  0.0000E+00  8.6530E-01  0.0000E+00
 96  0.0000E+00  3.6512E-01  1.0162E+00  2.0407E-01  1.1268E-02  2.8078E-01  1.0821E+00  3.7815E-01  0.0000E+00
 97  0.0000E+00  4.2633E-01  4.5195E-01  0.0000E+00  1.4776E+00  4.5804E-01  7.4385E-01  1.2308E+00  1.2645E-01
 98  0.0000E+00  2.2318E-01  5.8864E-02  0.0000E+00  2.9859E-01  0.0000E+00  0.0000E+00  3.3489E-01  0.0000E+00
 99  2.3131E+00  3.1533E-01  0.0000E+00  1.4465E+00  8.5894E-01  3.5297E-01  1.1301E+00  0.0000E+00  3.6212E-01
100  0.0000E+00  4.3319E-01  7.0337E-01  8.6854E-01  0.0000E+00  7.4515E-02  0.0000E+00  0.0000E+00  0.0000E+00
101  0.0000E+00  1.7489E-05  0.0000E+00  0.0000E+00  0.0000E+00  0.0000E+00  0.0000E+00  0.0000E+00  0.0000E+00
102  0.0000E+00  1.3634E-05  0.0000E+00  0.0000E+00  0.0000E+00  0.0000E+00  0.0000E+00  3.1173E-06  0.0000E+00
103  0.0000E+00  3.0251E-05  0.0000E+00  0.0000E+00  0.0000E+00  7.6442E-05  0.0000E+00  0.0000E+00  0.0000E+00
104  0.0000E+00  1.7195E-05  0.0000E+00  0.0000E+00  0.0000E+00  0.0000E+00  0.0000E+00  0.0000E+00  2.4727E-04
105  0.0000E+00  4.7984E-05  0.0000E+00  0.0000E+00  0.0000E+00  0.0000E+00  4.9592E-04  0.0000E+00  0.0000E+00
106  0.0000E+00  5.6279E-05  0.0000E+00  0.0000E+00  0.0000E+00  0.0000E+00  2.3812E-04  0.0000E+00  0.0000E+00
107  0.0000E+00  9.5387E-05  0.0000E+00  0.0000E+00  0.0000E+00  2.0524E-04  0.0000E+00  0.0000E+00  0.0000E+00
108  0.0000E+00  2.1734E-04  0.0000E+00  0.0000E+00  0.0000E+00  0.0000E+00  0.0000E+00  0.0000E+00  0.0000E+00
109  0.0000E+00  3.1585E-04  0.0000E+00  0.0000E+00  0.0000E+00  0.0000E+00  0.0000E+00  0.0000E+00  0.0000E+00
110  0.0000E+00  9.1213E-04  0.0000E+00  0.0000E+00  0.0000E+00  0.0000E+00  0.0000E+00  0.0000E+00  0.0000E+00
111  0.0000E+00  1.5497E-03  0.0000E+00  5.6971E-03  0.0000E+00  0.0000E+00  0.0000E+00  0.0000E+00  0.0000E+00
112  0.0000E+00  1.9989E-03  0.0000E+00  2.4045E-03  4.9217E-03  0.0000E+00  9.9160E-03  5.2938E-03  0.0000E+00
113  0.0000E+00  2.3040E-03  6.7952E-03  5.0443E-03  0.0000E+00  0.0000E+00  0.0000E+00  0.0000E+00  0.0000E+00
114  0.0000E+00  4.7515E-03  0.0000E+00  3.3773E-03  0.0000E+00  0.0000E+00  3.1048E-02  0.0000E+00  0.0000E+00
115  7.3534E-03  2.6288E-02  3.4857E-02  1.3402E-01  9.5858E-02  0.0000E+00  0.0000E+00  1.2156E-01  0.0000E+00
116  0.0000E+00  6.9609E-02  6.7690E-04  1.0055E-01  0.0000E+00  0.0000E+00  0.0000E+00  0.0000E+00  0.0000E+00
117  0.0000E+00  5.1564E-02  0.0000E+00  0.0000E+00  5.9570E-02  0.0000E+00  1.6472E-01  0.0000E+00  0.0000E+00
118  4.6479E-04  3.3745E-01  2.6793E-01  2.9725E-01  1.2962E-01  0.0000E+00  2.2122E-01  5.9583E-01  3.6017E-01
119  0.0000E+00  5.4316E-02  0.0000E+00  0.0000E+00  0.0000E+00  0.0000E+00  0.0000E+00  0.0000E+00  0.0000E+00
120  0.0000E+00  3.0318E-01  0.0000E+00  4.6756E-01  0.0000E+00  0.0000E+00  5.8820E-01  3.5974E-02  0.0000E+00
121  0.0000E+00  8.8199E-02  0.0000E+00  0.0000E+00  0.0000E+00  3.1063E-01  1.2543E-01  1.9875E-01  0.0000E+00
122  0.0000E+00  7.7805E-02  0.0000E+00  0.0000E+00  0.0000E+00  0.0000E+00  0.0000E+00  0.0000E+00  0.0000E+00
123  0.0000E+00  8.6669E-02  0.0000E+00  0.0000E+00  0.0000E+00  0.0000E+00  0.0000E+00  0.0000E+00  0.0000E+00
124  0.0000E+00  2.3664E-01  0.0000E+00  5.0573E-01  0.0000E+00  5.9061E-01  0.0000E+00  0.0000E+00  0.0000E+00
125  0.0000E+00  1.9048E-01  0.0000E+00  0.0000E+00  3.0515E-01  1.2537E-01  0.0000E+00  0.0000E+00  0.0000E+00
126  0.0000E+00  1.0569E-05  0.0000E+00  0.0000E+00  0.0000E+00  0.0000E+00  0.0000E+00  9.3022E-06  0.0000E+00
127  0.0000E+00  8.2786E-06  0.0000E+00  0.0000E+00  1.1751E-04  0.0000E+00  0.0000E+00  0.0000E+00  0.0000E+00
128  0.0000E+00  2.9058E-05  0.0000E+00  2.2539E-06  9.6482E-06  0.0000E+00  0.0000E+00  0.0000E+00  0.0000E+00
129  0.0000E+00  1.6825E-05  0.0000E+00  0.0000E+00  0.0000E+00  0.0000E+00  0.0000E+00  2.8032E-04  0.0000E+00
130  0.0000E+00  3.0469E-05  0.0000E+00  0.0000E+00  0.0000E+00  0.0000E+00  0.0000E+00  0.0000E+00  0.0000E+00
131  0.0000E+00  3.0746E-05  0.0000E+00  0.0000E+00  0.0000E+00  0.0000E+00  0.0000E+00  0.0000E+00  0.0000E+00
132  0.0000E+00  5.6664E-05  0.0000E+00  0.0000E+00  0.0000E+00  0.0000E+00  0.0000E+00  0.0000E+00  0.0000E+00
133  0.0000E+00  2.3833E-04  2.9721E-03  0.0000E+00  0.0000E+00  5.9518E-04  0.0000E+00  0.0000E+00  0.0000E+00
134  0.0000E+00  6.6474E-04  0.0000E+00  0.0000E+00  0.0000E+00  0.0000E+00  0.0000E+00  0.0000E+00  0.0000E+00
135  0.0000E+00  8.4230E-04  2.8052E-03  0.0000E+00  3.5959E-03  2.9250E-03  0.0000E+00  0.0000E+00  0.0000E+00
136  0.0000E+00  1.2129E-03  0.0000E+00  0.0000E+00  0.0000E+00  0.0000E+00  5.4061E-04  0.0000E+00  0.0000E+00
137  0.0000E+00  2.7624E-03  0.0000E+00  0.0000E+00  7.0487E-03  2.4734E-05  1.1829E-02  0.0000E+00  0.0000E+00
138  0.0000E+00  3.2175E-03  1.6018E-02  0.0000E+00  2.5007E-02  1.1459E-02  0.0000E+00  0.0000E+00  1.4512E-02
139  0.0000E+00  1.5905E-02  1.3677E-02  0.0000E+00  6.6306E-02  0.0000E+00  0.0000E+00  0.0000E+00  0.0000E+00
140  0.0000E+00  1.3435E-01  1.5339E-01  7.6389E-02  1.2125E-01  0.0000E+00  7.7329E-02  0.0000E+00  2.1474E-01
141  4.7219E+00  3.8975E+00  4.0590E+00  4.0125E+00  4.1002E+00  4.1237E+00  4.2857E+00  3.8428E+00  4.0521E+00
142  3.7602E+00  2.2068E+00  2.8023E+00  2.2742E+00  2.4439E+00  2.2058E+00  2.4928E+00  2.1698E+00  2.2853E+00
143  0.0000E+00  7.0512E-02  0.0000E+00  0.0000E+00  0.0000E+00  0.0000E+00  0.0000E+00  0.0000E+00  0.0000E+00
144  0.0000E+00  1.5446E-01  0.0000E+00  0.0000E+00  2.3890E-01  0.0000E+00  0.0000E+00  2.0397E-01  8.0307E-01
145  0.0000E+00  1.3502E-01  9.5044E-02  0.0000E+00  0.0000E+00  7.8455E-01  0.0000E+00  0.0000E+00  1.4361E-01
146  0.0000E+00  5.6578E-02  0.0000E+00  0.0000E+00  0.0000E+00  0.0000E+00  0.0000E+00  0.0000E+00  0.0000E+00
147  0.0000E+00  1.0960E-01  0.0000E+00  9.8591E-01  0.0000E+00  0.0000E+00  0.0000E+00  0.0000E+00  0.0000E+00
148  0.0000E+00  2.2435E-01  0.0000E+00  0.0000E+00  2.4146E-01  1.9012E-01  1.6249E-01  0.0000E+00  0.0000E+00
149  0.0000E+00  5.0085E-02  0.0000E+00  0.0000E+00  0.0000E+00  0.0000E+00  1.9324E-01  0.0000E+00  0.0000E+00
150  0.0000E+00  1.6761E-01  0.0000E+00  0.0000E+00  0.0000E+00  0.0000E+00  0.0000E+00  0.0000E+00  0.0000E+00

# AV, chi2 & Mass for <> & i_chain = 1 ...  7 solutions
AV       0.1405      0.1353      0.1387      0.1351      0.1353      0.1365      0.1389      0.1354      0.1372
chi2 2.4843E+00  2.5424E+00  2.5235E+00  2.5151E+00  2.5179E+00  2.5211E+00  2.5190E+00  2.5218E+00  2.5253E+00
Mass 4.7939E-10  5.0310E-10  4.8821E-10  5.0466E-10  5.0018E-10  4.9588E-10  4.9208E-10  4.9802E-10  4.9137E-10
 -18.87                                  [v0_min (km/s) before EX0s...]
  57.23                                  [vd_min (km/s) before EX0s...]


## Synthetic spectrum (Best Model) ##l_obs f_obs f_syn wei
 3070    [Nl_obs]
 3359.00    0.00000   0.44947   -2.000
 3360.00    0.23752   0.43724   -1.000
 3361.00    0.25048   0.44934   -1.000
 3362.00    0.25956   0.47709   -1.000
 3363.00    0.28400   0.50782   -1.000
 3364.00    0.30813   0.52478   -1.000
 3365.00    0.31202   0.52249   -1.000
 3366.00    0.32069   0.51156   -1.000
 3367.00    0.32847   0.49963   -1.000
 3368.00    0.32396   0.48892   -1.000
 3369.00    0.30572   0.47774   -1.000
 3370.00    0.30300   0.46352   -1.000
 3371.00    0.29600   0.45458   -1.000
 3372.00    0.29736   0.45927   -1.000
 3373.00    0.30639   0.47801   -1.000
 3374.00    0.33680   0.50310   -1.000
 3375.00    0.34172   0.52603   -1.000
 3376.00    0.36342   0.53674   -1.000
 3377.00    0.38416   0.53189   -1.000
 3378.00    0.37960   0.51711   -1.000
 3379.00    0.36969   0.50504   -1.000
 3380.00    0.36463   0.50352   -1.000
 3381.00    0.37294   0.51005   -1.000
 3382.00    0.38265   0.51885   -1.000
 3383.00    0.38181   0.52661   -1.000
 3384.00    0.39125   0.53325   -1.000
 3385.00    0.38773   0.53733   -1.000
 3386.00    0.39407   0.53343   -1.000
 3387.00    0.39570   0.52531   -1.000
 3388.00    0.40541   0.52313   -1.000
 3389.00    0.40981   0.52871   -1.000
 3390.00    0.41978   0.53474   -1.000
 3391.00    0.41369   0.53414   -1.000
 3392.00    0.41129   0.52588   -1.000
 3393.00    0.42798   0.52169   -1.000
 3394.00    0.42193   0.52868   -1.000
 3395.00    0.43668   0.54380   -1.000
 3396.00    0.44331   0.56115   -1.000
 3397.00    0.45695   0.57505   -1.000
 3398.00    0.47408   0.58313   -1.000
 3399.00    0.48723   0.58238   -1.000
 3400.00    0.48322   0.57371   -1.000
 3401.00    0.49162   0.55854   -1.000
 3402.00    0.48486   0.54161   -1.000
 3403.00    0.45851   0.53201   -1.000
 3404.00    0.45798   0.52991   -1.000
 3405.00    0.44523   0.53187   -1.000
 3406.00    0.44370   0.52957   -1.000
 3407.00    0.44293   0.52213   -1.000
 3408.00    0.42823   0.51645   -1.000
 3409.00    0.43499   0.52014   -1.000
 3410.00    0.44350   0.52847   -1.000
 3411.00    0.44957   0.53001   -1.000
 3412.00    0.45727   0.52468   -1.000
 3413.00    0.44846   0.51831   -1.000
 3414.00    0.44302   0.51991   -1.000
 3415.00    0.44762   0.52998   -1.000
 3416.00    0.45042   0.54212   -1.000
 3417.00    0.46266   0.55345   -1.000
 3418.00    0.48118   0.56345   -1.000
 3419.00    0.49071   0.57137   -1.000
 3420.00    0.49191   0.57484   -1.000
 3421.00    0.48576   0.56969   -1.000
 3422.00    0.48141   0.55672   -1.000
 3423.00    0.48986   0.54437   -1.000
 3424.00    0.47881   0.54029   -1.000
 3425.00    0.47645   0.54393   -1.000
 3426.00    0.49357   0.55115   -1.000
 3427.00    0.49553   0.56289   -1.000
 3428.00    0.49577   0.57926   -1.000
 3429.00    0.51880   0.59286   -1.000
 3430.00    0.52834   0.59239   -1.000
 3431.00    0.52532   0.57613   -1.000
 3432.00    0.51159   0.55896   -1.000
 3433.00    0.50020   0.55469   -1.000
 3434.00    0.51262   0.56562   -1.000
 3435.00    0.52608   0.57872   -1.000
 3436.00    0.52456   0.58007   -1.000
 3437.00    0.52931   0.56917   -1.000
 3438.00    0.51006   0.55193   -1.000
 3439.00    0.49865   0.53240   85.253
 3440.00    0.47663   0.51288   -1.000
 3441.00    0.46171   0.49739   -1.000
 3442.00    0.45401   0.49170   -1.000
 3443.00    0.46508   0.49616   95.641
 3444.00    0.47468   0.50784   -1.000
 3445.00    0.48981   0.52462   -1.000
 3446.00    0.49828   0.54604   -1.000
 3447.00    0.51532   0.56821   -1.000
 3448.00    0.52695   0.58478   -1.000
 3449.00    0.53856   0.58825   -1.000
 3450.00    0.53860   0.57445   -1.000
 3451.00    0.53424   0.55320   -1.000
 3452.00    0.53470   0.53843  608.424
 3453.00    0.52257   0.53636   -1.000
 3454.00    0.51791   0.54332   -1.000
 3455.00    0.55028   0.55151  608.424
 3456.00    0.56136   0.55439   -1.000
 3457.00    0.54908   0.55040  608.424
 3458.00    0.54678   0.54180  608.424
 3459.00    0.54073   0.53137   79.382
 3460.00    0.53646   0.52213   78.146
 3461.00    0.52951   0.52180   77.657
 3462.00    0.53796   0.53294  587.895
 3463.00    0.54316   0.54557  608.424
 3464.00    0.55084   0.54996  608.424
 3465.00    0.54973   0.54755  608.424
 3466.00    0.56446   0.54874   -1.000
 3467.00    0.55565   0.55837  608.424
 3468.00    0.56695   0.57259   -1.000
 3469.00    0.57939   0.58387   -1.000
 3470.00    0.58818   0.58640  608.424
 3471.00    0.57812   0.57974  608.424
 3472.00    0.57614   0.56603   -1.000
 3473.00    0.56450   0.54669   -1.000
 3474.00    0.54322   0.52858   -1.000
 3475.00    0.52511   0.51908   80.041
 3476.00    0.51652   0.52236   80.626
 3477.00    0.51569   0.53679   78.953
 3478.00    0.54389   0.55340   -1.000
 3479.00    0.57051   0.56719  608.424
 3480.00    0.57602   0.57565  608.424
 3481.00    0.58565   0.57591   -1.000
 3482.00    0.58831   0.57022   -1.000
 3483.00    0.57648   0.56451   -1.000
 3484.00    0.57623   0.56531   -1.000
 3485.00    0.58500   0.57526   -1.000
 3486.00    0.60004   0.58570   -1.000
 3487.00    0.59751   0.58601   -1.000
 3488.00    0.58732   0.57507   -1.000
 3489.00    0.57133   0.55857   -1.000
 3490.00    0.55913   0.54789   -1.000
 3491.00    0.55972   0.54996   -1.000
 3492.00    0.55524   0.55764  608.424
 3493.00    0.56597   0.55983   -1.000
 3494.00    0.56094   0.55357   -1.000
 3495.00    0.56214   0.54206   -1.000
 3496.00    0.55912   0.53490   -1.000
 3497.00    0.54615   0.53960   -1.000
 3498.00    0.56658   0.55143   -1.000
 3499.00    0.59446   0.56228   -1.000
 3500.00    0.60277   0.56580   -1.000
 3501.00    0.60525   0.56617   -1.000
 3502.00    0.60995   0.56912   -1.000
 3503.00    0.60863   0.57166   -1.000
 3504.00    0.60055   0.56950   -1.000
 3505.00    0.59267   0.56274   -1.000
 3506.00    0.58963   0.55661   -1.000
 3507.00    0.59106   0.55364   -1.000
 3508.00    0.58687   0.55296   -1.000
 3509.00    0.57837   0.55259   -1.000
 3510.00    0.57867   0.54996   -1.000
 3511.00    0.57869   0.54533   -1.000
 3512.00    0.56982   0.53930   -1.000
 3513.00    0.56825   0.53528   -1.000
 3514.00    0.56088   0.53875   -1.000
 3515.00    0.57567   0.55281   -1.000
 3516.00    0.59295   0.57379   -1.000
 3517.00    0.60678   0.58912   -1.000
 3518.00    0.60346   0.58925   -1.000
 3519.00    0.59630   0.57562   -1.000
 3520.00    0.58968   0.55927   -1.000
 3521.00    0.57526   0.54770   -1.000
 3522.00    0.57441   0.53984   -1.000
 3523.00    0.55815   0.53095   -1.000
 3524.00    0.54315   0.52046   79.386
 3525.00    0.53541   0.51598   79.801
 3526.00    0.52675   0.52403   79.351
 3527.00    0.54044   0.54097  585.269
 3528.00    0.55935   0.56059  608.424
 3529.00    0.58519   0.57620   -1.000
 3530.00    0.59302   0.58417   -1.000
 3531.00    0.58912   0.58534  608.424
 3532.00    0.59291   0.58039   -1.000
 3533.00    0.58761   0.57261   -1.000
 3534.00    0.58995   0.56815   -1.000
 3535.00    0.59331   0.57112   -1.000
 3536.00    0.59844   0.58199   -1.000
 3537.00    0.59801   0.59510  608.424
 3538.00    0.60552   0.60511  608.424
 3539.00    0.61272   0.60966  605.670
 3540.00    0.61196   0.60853  608.424
 3541.00    0.60340   0.60560  608.424
 3542.00    0.59088   0.60607   -1.000
 3543.00    0.60707   0.61106  608.424
 3544.00    0.61210   0.61510  608.424
 3545.00    0.61583   0.61404  608.424
 3546.00    0.60982   0.60991  608.424
 3547.00    0.60174   0.60627  608.424
 3548.00    0.61153   0.60584   -1.000
 3549.00    0.60990   0.60884  608.424
 3550.00    0.59926   0.61319   -1.000
 3551.00    0.58969   0.61415   -1.000
 3552.00    0.58653   0.60766   -1.000
 3553.00    0.58554   0.59787   -1.000
 3554.00    0.57894   0.59249   -1.000
 3555.00    0.58336   0.59442   -1.000
 3556.00    0.59116   0.60135   -1.000
 3557.00    0.58041   0.60861   -1.000
 3558.00    0.57839   0.61131   -1.000
 3559.00    0.58516   0.61061   -1.000
 3560.00    0.58126   0.61088   -1.000
 3561.00    0.58238   0.61290   -1.000
 3562.00    0.60487   0.61118   -1.000
 3563.00    0.59856   0.59925  608.424
 3564.00    0.57678   0.57822  608.424
 3565.00    0.55346   0.55809   80.218
 3566.00    0.53228   0.54776   80.979
 3567.00    0.52893   0.54648   80.136
 3568.00    0.53897   0.54639   79.679
 3569.00    0.52604   0.54099   82.341
 3570.00    0.51517   0.53203   83.886
 3571.00    0.52144   0.52684   81.339
 3572.00    0.53164   0.52811   77.715
 3573.00    0.54902   0.53238   -1.000
 3574.00    0.55245   0.53795   -1.000
 3575.00    0.55785   0.54536   -1.000
 3576.00    0.55776   0.55340  608.424
 3577.00    0.56369   0.55987  608.424
 3578.00    0.56113   0.56005  608.424
 3579.00    0.55600   0.55080   82.918
 3580.00    0.53719   0.53708   86.725
 3581.00    0.52232   0.52575   91.534
 3582.00    0.52287   0.52167   92.222
 3583.00    0.51375   0.52196   92.605
 3584.00    0.51262   0.51583   94.911
 3585.00    0.50028   0.50081   98.036
 3586.00    0.47710   0.48697   99.459
 3587.00    0.48176   0.48574   94.552
 3588.00    0.49907   0.49970   89.511
 3589.00    0.51118   0.52244   85.177
 3590.00    0.52965   0.54416   77.609
 3591.00    0.55306   0.55839   -1.000
 3592.00    0.56566   0.56469  608.424
 3593.00    0.56886   0.56769  608.424
 3594.00    0.57992   0.57355   -1.000
 3595.00    0.58321   0.58410  608.424
 3596.00    0.59109   0.59472  608.424
 3597.00    0.59829   0.60196  604.124
 3598.00    0.59868   0.60589   -1.000
 3599.00    0.60447   0.60669  578.498
 3600.00    0.60868   0.60108   -1.000
 3601.00    0.59648   0.58759   -1.000
 3602.00    0.57714   0.57252  608.424
 3603.00    0.57572   0.56327   -1.000
 3604.00    0.57309   0.56340   -1.000
 3605.00    0.56739   0.56718  608.424
 3606.00    0.56609   0.56724  608.424
 3607.00    0.56226   0.56242  608.424
 3608.00    0.55323   0.55582  608.424
 3609.00    0.55019   0.55225  608.424
 3610.00    0.54391   0.55346   -1.000
 3611.00    0.55872   0.55845  608.424
 3612.00    0.57111   0.56510   -1.000
 3613.00    0.56831   0.57251   -1.000
 3614.00    0.57827   0.58359   -1.000
 3615.00    0.59391   0.59501  608.424
 3616.00    0.59525   0.59499  608.424
 3617.00    0.58454   0.58104  608.424
 3618.00    0.55973   0.56297  608.424
 3619.00    0.54157   0.55554   79.064
 3620.00    0.54783   0.56462   -1.000
 3621.00    0.57528   0.58101   -1.000
 3622.00    0.59273   0.59471  608.424
 3623.00    0.59232   0.60367   -1.000
 3624.00    0.60746   0.61372   -1.000
 3625.00    0.60951   0.62964   -1.000
 3626.00    0.61646   0.64776   -1.000
 3627.00    0.62777   0.65773   -1.000
 3628.00    0.61911   0.64856   -1.000
 3629.00    0.60628   0.62091   -1.000
 3630.00    0.57865   0.58778   -1.000
 3631.00    0.54403   0.56684   -1.000
 3632.00    0.54158   0.56627   -1.000
 3633.00    0.56586   0.57956   -1.000
 3634.00    0.56794   0.59266   -1.000
 3635.00    0.57543   0.59847   -1.000
 3636.00    0.59074   0.60271   -1.000
 3637.00    0.60030   0.61210   -1.000
 3638.00    0.61655   0.62460   -1.000
 3639.00    0.63319   0.63335  557.756
 3640.00    0.62419   0.63340   -1.000
 3641.00    0.62329   0.62435  570.637
 3642.00    0.61035   0.61011  589.882
 3643.00    0.58920   0.59707   -1.000
 3644.00    0.57919   0.58879   -1.000
 3645.00    0.56856   0.58432   -1.000
 3646.00    0.57807   0.58173  608.424
 3647.00    0.58398   0.58094  608.424
 3648.00    0.58115   0.58173  608.424
 3649.00    0.57451   0.58429   -1.000
 3650.00    0.58278   0.59026   -1.000
 3651.00    0.60045   0.60063  599.253
 3652.00    0.60640   0.61417   -1.000
 3653.00    0.61994   0.62728   -1.000
 3654.00    0.62509   0.63859   -1.000
 3655.00    0.63226   0.64827   -1.000
 3656.00    0.63684   0.65570   -1.000
 3657.00    0.63321   0.65965   -1.000
 3658.00    0.62883   0.66005   -1.000
 3659.00    0.63431   0.65780   -1.000
 3660.00    0.63481   0.65267   -1.000
 3661.00    0.62931   0.64508   -1.000
 3662.00    0.63299   0.63762  540.775
 3663.00    0.62837   0.63344   -1.000
 3664.00    0.62471   0.63413   -1.000
 3665.00    0.63188   0.63694   -1.000
 3666.00    0.63944   0.63788  547.950
 3667.00    0.63027   0.63461  559.435
 3668.00    0.60458   0.62819   -1.000
 3669.00    0.60105   0.62401   -1.000
 3670.00    0.60227   0.62575   -1.000
 3671.00    0.60903   0.63333   -1.000
 3672.00    0.62569   0.64222   -1.000
 3673.00    0.62736   0.64642   -1.000
 3674.00    0.61895   0.64399   -1.000
 3675.00    0.62548   0.63548   -1.000
 3676.00    0.63255   0.62226   -1.000
 3677.00    0.61584   0.60836   -1.000
 3678.00    0.59818   0.59932  594.032
 3679.00    0.60175   0.59865  608.424
 3680.00    0.60131   0.60358  607.767
 3681.00    0.59876   0.60968   -1.000
 3682.00    0.60706   0.61407   -1.000
 3683.00    0.61076   0.61385  569.366
 3684.00    0.61324   0.60789  583.041
 3685.00    0.59560   0.59806  606.968
 3686.00    0.58039   0.59161   -1.000
 3687.00    0.57953   0.59657   -1.000
 3688.00    0.60487   0.61409   -1.000
 3689.00    0.62965   0.63434   -1.000
 3690.00    0.63523   0.64680   -1.000
 3691.00    0.63918   0.64992   -1.000
 3692.00    0.63780   0.64908   -1.000
 3693.00    0.64472   0.64970   -1.000
 3694.00    0.64570   0.65120   -1.000
 3695.00    0.63614   0.64993   -1.000
 3696.00    0.63247   0.64522   -1.000
 3697.00    0.63116   0.64563   -1.000
 3698.00    0.64709   0.65972   -1.000
 3699.00    0.67920   0.68207  510.138
 3700.00    0.68020   0.69639   -1.000
 3701.00    0.67640   0.68571   -1.000
 3702.00    0.64794   0.65044  536.201
 3703.00    0.60673   0.60729  587.061
 3704.00    0.57823   0.57576  608.424
 3705.00    0.56688   0.56744  608.424
 3706.00    0.58561   0.57888   -1.000
 3707.00    0.60345   0.59750   -1.000
 3708.00    0.61056   0.60988  608.424
 3709.00    0.61193   0.60903  608.424
 3710.00    0.61648   0.59956   -1.000
 3711.00    0.60808   0.59461   -1.000
 3712.00    0.61337   0.60518   -1.000
 3713.00    0.64853   0.63318   -1.000
 3714.00    0.68128   0.66881   -1.000
 3715.00    0.69965   0.69721  498.734
 3716.00    0.70544   0.71034  511.804
 3717.00    0.70572   0.70459  534.831
 3718.00    0.67160   0.67476  585.691
 3719.00    0.61007   0.62193   -1.000
 3720.00    0.55922   0.56400  608.424
 3721.00    0.53077   0.52874   80.738
 3722.00    0.52343   0.53154   -1.000
 3723.00    0.56857   0.56973  608.424
 3724.00    0.63256   0.62463   -1.000
 3725.00    0.67280   0.66758  556.898
 3726.00    0.69082   0.68778  560.804
 3727.00    0.68977   0.69525   -1.000
 3728.00    0.68550   0.70031   -1.000
 3729.00    0.69490   0.70233   -1.000
 3730.00    0.68283   0.69040   -1.000
 3731.00    0.65891   0.65263   -1.000
 3732.00    0.60122   0.59296   -1.000
 3733.00    0.53589   0.53276   79.229
 3734.00    0.49066   0.49287   85.825
 3735.00    0.49244   0.48796   89.234
 3736.00    0.52138   0.51951   84.946
 3737.00    0.56128   0.57338   77.014
 3738.00    0.61404   0.63324   -1.000
 3739.00    0.66788   0.68612   -1.000
 3740.00    0.69914   0.71841   -1.000
 3741.00    0.71340   0.72551   -1.000
 3742.00    0.71793   0.71327   -1.000
 3743.00    0.69084   0.69218  608.424
 3744.00    0.67066   0.66776  608.424
 3745.00    0.64062   0.64111  608.424
 3746.00    0.60734   0.60960  608.424
 3747.00    0.58703   0.57138   80.381
 3748.00    0.53026   0.53183   82.824
 3749.00    0.49879   0.50518   83.831
 3750.00    0.50922   0.50896  593.264
 3751.00    0.55563   0.54861   -1.000
 3752.00    0.61236   0.60969  596.629
 3753.00    0.66727   0.67113  551.413
 3754.00    0.71663   0.71630  522.161
 3755.00    0.74710   0.73804   -1.000
 3756.00    0.74427   0.73392   -1.000
 3757.00    0.72201   0.71121   -1.000
 3758.00    0.69291   0.68759   -1.000
 3759.00    0.68344   0.67714   -1.000
 3760.00    0.70204   0.68166   -1.000
 3761.00    0.72742   0.69485   -1.000
 3762.00    0.73382   0.70742   -1.000
 3763.00    0.74320   0.71309   -1.000
 3764.00    0.72994   0.70931   -1.000
 3765.00    0.72075   0.69626   -1.000
 3766.00    0.70515   0.67493   -1.000
 3767.00    0.66833   0.64406   -1.000
 3768.00    0.63730   0.60601   -1.000
 3769.00    0.60379   0.57051   -1.000
 3770.00    0.57153   0.55250   -1.000
 3771.00    0.57839   0.56548   -1.000
 3772.00    0.62397   0.60471   -1.000
 3773.00    0.66579   0.65084   -1.000
 3774.00    0.70434   0.68649   -1.000
 3775.00    0.73540   0.70943   -1.000
 3776.00    0.74864   0.72810   -1.000
 3777.00    0.77344   0.75113   -1.000
 3778.00    0.78901   0.77806   -1.000
 3779.00    0.80178   0.80371  504.540
 3780.00    0.82276   0.82349  492.706
 3781.00    0.83850   0.83368  489.284
 3782.00    0.83346   0.83487  486.308
 3783.00    0.83481   0.82979   -1.000
 3784.00    0.83843   0.81908   -1.000
 3785.00    0.81514   0.80143   -1.000
 3786.00    0.79542   0.77919   -1.000
 3787.00    0.77156   0.75845   -1.000
 3788.00    0.76860   0.74646   -1.000
 3789.00    0.75875   0.74367   -1.000
 3790.00    0.75209   0.74371   -1.000
 3791.00    0.75102   0.73879   -1.000
 3792.00    0.73652   0.72350   -1.000
 3793.00    0.70657   0.69566   -1.000
 3794.00    0.68050   0.65626   -1.000
 3795.00    0.64093   0.61023   -1.000
 3796.00    0.57987   0.56373   -1.000
 3797.00    0.54704   0.52746   -1.000
 3798.00    0.53487   0.51929   -1.000
 3799.00    0.56714   0.55042   -1.000
 3800.00    0.61525   0.61171  608.424
 3801.00    0.67528   0.67864  582.625
 3802.00    0.72435   0.73161   -1.000
 3803.00    0.76258   0.76409  544.351
 3804.00    0.78496   0.77950  541.150
 3805.00    0.78919   0.78220   -1.000
 3806.00    0.78851   0.78262   -1.000
 3807.00    0.79011   0.79132  581.579
 3808.00    0.80520   0.81020  566.629
 3809.00    0.82622   0.83200  544.548
 3810.00    0.84581   0.84445  538.290
 3811.00    0.85342   0.83737   -1.000
 3812.00    0.82691   0.81149   -1.000
 3813.00    0.80136   0.78050   -1.000
 3814.00    0.79510   0.76021   -1.000
 3815.00    0.78123   0.75966   -1.000
 3816.00    0.78559   0.77389   -1.000
 3817.00    0.80882   0.78821   -1.000
 3818.00    0.81235   0.78804   -1.000
 3819.00    0.78864   0.77203   -1.000
 3820.00    0.75590   0.75527  608.424
 3821.00    0.76128   0.75093   -1.000
 3822.00    0.78384   0.75498   -1.000
 3823.00    0.77422   0.74941   -1.000
 3824.00    0.74687   0.72766   -1.000
 3825.00    0.71794   0.70292   83.157
 3826.00    0.69784   0.68634   82.211
 3827.00    0.69645   0.67707   81.533
 3828.00    0.69903   0.66939   80.218
 3829.00    0.69341   0.65892   78.897
 3830.00    0.67664   0.64073   79.857
 3831.00    0.63976   0.61005   83.489
 3832.00    0.59336   0.56601   90.191
 3833.00    0.54994   0.51681   -1.000
 3834.00    0.51060   0.48053   91.226
 3835.00    0.49797   0.46863   87.535
 3836.00    0.51718   0.48148   85.601
 3837.00    0.54071   0.51226   87.395
 3838.00    0.57431   0.55050   89.519
 3839.00    0.60399   0.58928   87.964
 3840.00    0.63290   0.62966   82.952
 3841.00    0.68276   0.67233   -1.000
 3842.00    0.72386   0.71432   -1.000
 3843.00    0.76994   0.75090   -1.000
 3844.00    0.79245   0.77711   -1.000
 3845.00    0.79946   0.79493  608.424
 3846.00    0.80550   0.80903  608.424
 3847.00    0.81671   0.81931  608.424
 3848.00    0.81217   0.82208   -1.000
 3849.00    0.80362   0.81926   -1.000
 3850.00    0.80109   0.82024   -1.000
 3851.00    0.82128   0.83159   -1.000
 3852.00    0.83656   0.84764   -1.000
 3853.00    0.83972   0.85677   -1.000
 3854.00    0.84267   0.85361   -1.000
 3855.00    0.82966   0.84209   -1.000
 3856.00    0.81905   0.82853   -1.000
 3857.00    0.80824   0.81616   -1.000
 3858.00    0.80123   0.80623   78.776
 3859.00    0.77171   0.80418   80.985
 3860.00    0.77739   0.81470   79.272
 3861.00    0.80556   0.83402   -1.000
 3862.00    0.84139   0.85151   -1.000
 3863.00    0.86616   0.85943   -1.000
 3864.00    0.86299   0.85863  608.424
 3865.00    0.86125   0.85540   -1.000
 3866.00    0.85865   0.85544  608.424
 3867.00    0.84825   0.85949   -1.000
 3868.00    0.84016   0.86206   -1.000
 3869.00    0.82938   0.85524   -1.000
 3870.00    0.80832   0.83683   -1.000
 3871.00    0.78297   0.81262   79.807
 3872.00    0.76728   0.79321   -1.000
 3873.00    0.77760   0.78900   -1.000
 3874.00    0.79676   0.79860  608.424
 3875.00    0.82006   0.80756   -1.000
 3876.00    0.81406   0.80117   -1.000
 3877.00    0.79336   0.78134   -1.000
 3878.00    0.75315   0.76375   -1.000
 3879.00    0.74604   0.75858   -1.000
 3880.00    0.74980   0.76088   -1.000
 3881.00    0.73437   0.75779   -1.000
 3882.00    0.71166   0.74505   -1.000
 3883.00    0.71656   0.72543   -1.000
 3884.00    0.71070   0.69710   -1.000
 3885.00    0.67516   0.65561   -1.000
 3886.00    0.62547   0.60278   -1.000
 3887.00    0.58380   0.55208   -1.000
 3888.00    0.55787   0.52247   -1.000
 3889.00    0.55219   0.52636   -1.000
 3890.00    0.59544   0.56412   -1.000
 3891.00    0.65398   0.62003   -1.000
 3892.00    0.69614   0.67014   -1.000
 3893.00    0.72087   0.70193   -1.000
 3894.00    0.73877   0.72022   -1.000
 3895.00    0.75377   0.73560   -1.000
 3896.00    0.77824   0.75324   -1.000
 3897.00    0.79137   0.76974   -1.000
 3898.00    0.79606   0.78010   -1.000
 3899.00    0.80253   0.78594   -1.000
 3900.00    0.81131   0.79481   -1.000
 3901.00    0.82215   0.80676   -1.000
 3902.00    0.83119   0.81460   -1.000
 3903.00    0.84164   0.81442   -1.000
 3904.00    0.82893   0.80925   -1.000
 3905.00    0.81770   0.80788   -1.000
 3906.00    0.80881   0.81733   -1.000
 3907.00    0.83221   0.84003   -1.000
 3908.00    0.87097   0.86932  488.703
 3909.00    0.89447   0.89319  476.860
 3910.00    0.90618   0.90525  472.512
 3911.00    0.90372   0.90651  467.997
 3912.00    0.90329   0.89960  465.212
 3913.00    0.89815   0.88750   -1.000
 3914.00    0.88468   0.87648   -1.000
 3915.00    0.88043   0.87193   -1.000
 3916.00    0.88189   0.87140   -1.000
 3917.00    0.87211   0.86873  504.725
 3918.00    0.86579   0.86158  519.483
 3919.00    0.85382   0.85278  542.514
 3920.00    0.83654   0.84680   -1.000
 3921.00    0.83396   0.84538   -1.000
 3922.00    0.84806   0.84790  575.297
 3923.00    0.85006   0.85057  564.653
 3924.00    0.85058   0.84759  568.990
 3925.00    0.84412   0.83317   -1.000
 3926.00    0.80872   0.80448   -1.000
 3927.00    0.76569   0.76394  608.424
 3928.00    0.72534   0.71386   88.086
 3929.00    0.66948   0.65500   99.406
 3930.00    0.60937   0.58363   -1.000
 3931.00    0.53469   0.49856   -1.000
 3932.00    0.44741   0.41630   -1.000
 3933.00    0.38683   0.36709   -1.000
 3934.00    0.37996   0.37531  169.307
 3935.00    0.44016   0.43752  147.178
 3936.00    0.53669   0.52574  121.784
 3937.00    0.62916   0.61444  100.003
 3938.00    0.69474   0.69048   84.024
 3939.00    0.74329   0.74716  575.611
 3940.00    0.78397   0.78445  608.424
 3941.00    0.80316   0.80456  608.424
 3942.00    0.80441   0.81285   -1.000
 3943.00    0.81011   0.81786   -1.000
 3944.00    0.80490   0.82573   -1.000
 3945.00    0.83109   0.83741   -1.000
 3946.00    0.85508   0.84899   -1.000
 3947.00    0.86076   0.85446   -1.000
 3948.00    0.85775   0.85350  521.667
 3949.00    0.85665   0.85023   -1.000
 3950.00    0.88290   0.84757   -1.000
 3951.00    0.87326   0.84605   -1.000
 3952.00    0.86198   0.84756   -1.000
 3953.00    0.86234   0.85245   -1.000
 3954.00    0.87449   0.85438   -1.000
 3955.00    0.87044   0.84821   -1.000
 3956.00    0.85064   0.83654   -1.000
 3957.00    0.83977   0.82749   -1.000
 3958.00    0.84588   0.82300   -1.000
 3959.00    0.83717   0.81268   -1.000
 3960.00    0.80598   0.78776   -1.000
 3961.00    0.76263   0.75093   -1.000
 3962.00    0.71759   0.70987   -1.000
 3963.00    0.68668   0.66818   -1.000
 3964.00    0.64515   0.61727   82.927
 3965.00    0.57319   0.54657   93.662
 3966.00    0.47996   0.45755  115.446
 3967.00    0.38689   0.36801   -1.000
 3968.00    0.30268   0.30816  156.490
 3969.00    0.28475   0.29984  145.862
 3970.00    0.33833   0.34416  120.479
 3971.00    0.42547   0.42247   98.974
 3972.00    0.52361   0.50994   82.769
 3973.00    0.60669   0.58854   -1.000
 3974.00    0.67276   0.65412   -1.000
 3975.00    0.72673   0.70726   -1.000
 3976.00    0.76389   0.75060   -1.000
 3977.00    0.80048   0.78634   -1.000
 3978.00    0.83481   0.81665   -1.000
 3979.00    0.86811   0.83932   -1.000
 3980.00    0.88378   0.85060   -1.000
 3981.00    0.87990   0.85316   -1.000
 3982.00    0.88164   0.85510   -1.000
 3983.00    0.89711   0.86363   -1.000
 3984.00    0.90770   0.87861   -1.000
 3985.00    0.92268   0.89371   -1.000
 3986.00    0.92860   0.90472   -1.000
 3987.00    0.94118   0.91385   -1.000
 3988.00    0.95025   0.92269   -1.000
 3989.00    0.95111   0.92949   -1.000
 3990.00    0.95067   0.93618   -1.000
 3991.00    0.95822   0.94516   -1.000
 3992.00    0.96924   0.95524   -1.000
 3993.00    0.97926   0.96132   -1.000
 3994.00    0.97034   0.95770   -1.000
 3995.00    0.95640   0.94431   -1.000
 3996.00    0.94020   0.92869   -1.000
 3997.00    0.93874   0.92201   -1.000
 3998.00    0.94378   0.92874   -1.000
 3999.00    0.96277   0.94390   -1.000
 4000.00    0.98319   0.95873   -1.000
 4001.00    0.99130   0.96700   -1.000
 4002.00    1.00094   0.96611   -1.000
 4003.00    0.99846   0.95635   -1.000
 4004.00    0.97686   0.94088   -1.000
 4005.00    0.95327   0.92982   -1.000
 4006.00    0.95192   0.93405   -1.000
 4007.00    0.96845   0.95206   -1.000
 4008.00    0.98782   0.97244   -1.000
 4009.00    0.99891   0.98516   -1.000
 4010.00    1.00000   0.98922   -1.000
 4011.00    0.99191   0.98828  368.539
 4012.00    0.98866   0.98600  371.182
 4013.00    0.99680   0.98613   -1.000
 4014.00    0.99817   0.98993   -1.000
 4015.00    1.00633   0.99533   -1.000
 4016.00    1.00568   1.00037  368.275
 4017.00    1.00795   1.00540  372.860
 4018.00    1.00561   1.01160  371.106
 4019.00    1.00217   1.01742   -1.000
 4020.00    1.00825   1.01885   -1.000
 4021.00    1.00714   1.01371  371.565
 4022.00    1.00252   1.00428  373.769
 4023.00    1.00167   0.99470  376.215
 4024.00    0.99419   0.98993  379.168
 4025.00    0.99418   0.99475  369.812
 4026.00    1.00583   1.00738  356.567
 4027.00    1.01669   1.01664  349.306
 4028.00    1.01343   1.01209  352.417
 4029.00    0.99496   0.99437  366.989
 4030.00    0.97604   0.97204  392.277
 4031.00    0.95852   0.95594  408.920
 4032.00    0.94900   0.95183  413.915
 4033.00    0.95959   0.95851  408.703
 4034.00    0.97475   0.97357  395.336
 4035.00    0.99445   0.99492  375.738
 4036.00    1.01305   1.01881  357.172
 4037.00    1.03062   1.03790  344.566
 4038.00    1.03551   1.04471  343.197
 4039.00    1.02501   1.04015   -1.000
 4040.00    1.01482   1.03170   -1.000
 4041.00    1.01337   1.02419   -1.000
 4042.00    1.01351   1.01380  364.611
 4043.00    0.99668   0.99250  382.209
 4044.00    0.96473   0.96372  419.760
 4045.00    0.93065   0.94431   -1.000
 4046.00    0.93125   0.94882   -1.000
 4047.00    0.96260   0.97507   -1.000
 4048.00    0.99477   1.00468   -1.000
 4049.00    1.01816   1.02272  357.448
 4050.00    1.02295   1.02780  353.284
 4051.00    1.01605   1.02414  355.693
 4052.00    1.01587   1.01453  365.500
 4053.00    1.00145   1.00362  375.003
 4054.00    0.99237   0.99626  380.858
 4055.00    0.99066   0.99290  383.906
 4056.00    0.99507   0.99201  386.502
 4057.00    0.99672   0.99439  390.566
 4058.00    0.99333   1.00287   -1.000
 4059.00    0.99889   1.01368   -1.000
 4060.00    1.00847   1.01487  364.526
 4061.00    1.00344   1.00032  370.742
 4062.00    0.97306   0.97635  398.027
 4063.00    0.94645   0.95522   -1.000
 4064.00    0.94941   0.94580  419.401
 4065.00    0.96187   0.94880   -1.000
 4066.00    0.96922   0.95821   -1.000
 4067.00    0.97516   0.96731   -1.000
 4068.00    0.98171   0.97266   -1.000
 4069.00    0.99745   0.97050   -1.000
 4070.00    0.99412   0.95883   -1.000
 4071.00    0.96848   0.94491   -1.000
 4072.00    0.96231   0.94034   -1.000
 4073.00    0.98362   0.94569   -1.000
 4074.00    0.98529   0.94803   -1.000
 4075.00    0.96891   0.93564   -1.000
 4076.00    0.94003   0.91267   -1.000
 4077.00    0.91784   0.89574   -1.000
 4078.00    0.92417   0.89917   -1.000
 4079.00    0.95072   0.92281   -1.000
 4080.00    0.98069   0.95044   -1.000
 4081.00    0.98676   0.96571   -1.000
 4082.00    0.98219   0.96457   -1.000
 4083.00    0.97238   0.95371   -1.000
 4084.00    0.95480   0.94324   -1.000
 4085.00    0.94927   0.94061   -1.000
 4086.00    0.96611   0.94749   -1.000
 4087.00    0.98085   0.95894   -1.000
 4088.00    0.99000   0.96752   -1.000
 4089.00    0.98191   0.96807   -1.000
 4090.00    0.97452   0.96125   -1.000
 4091.00    0.96185   0.95124   -1.000
 4092.00    0.94566   0.93882  356.228
 4093.00    0.94113   0.92277   -1.000
 4094.00    0.92989   0.90309   -1.000
 4095.00    0.90564   0.87916   -1.000
 4096.00    0.87687   0.85140   -1.000
 4097.00    0.84527   0.81859   -1.000
 4098.00    0.82188   0.77670   -1.000
 4099.00    0.77706   0.72183   -1.000
 4100.00    0.70103   0.66194   -1.000
 4101.00    0.63481   0.62167   -1.000
 4102.00    0.62839   0.62421  486.351
 4103.00    0.69015   0.67169   -1.000
 4104.00    0.77305   0.74011   -1.000
 4105.00    0.82379   0.80096   -1.000
 4106.00    0.85252   0.84082   -1.000
 4107.00    0.88207   0.86295   -1.000
 4108.00    0.89337   0.87478   -1.000
 4109.00    0.89364   0.88336   -1.000
 4110.00    0.90769   0.89332   -1.000
 4111.00    0.92183   0.90686   -1.000
 4112.00    0.93745   0.92382   -1.000
 4113.00    0.94796   0.94197  371.166
 4114.00    0.95952   0.95878  365.454
 4115.00    0.97286   0.96968  361.878
 4116.00    0.97610   0.97109  363.658
 4117.00    0.96715   0.96420  371.442
 4118.00    0.94832   0.95469  384.089
 4119.00    0.94568   0.94919  388.626
 4120.00    0.95787   0.95036   -1.000
 4121.00    0.95810   0.95494  379.770
 4122.00    0.96287   0.95992  380.159
 4123.00    0.97515   0.96649   -1.000
 4124.00    0.98308   0.97475   -1.000
 4125.00    0.99050   0.98005   -1.000
 4126.00    0.98386   0.97846  373.082
 4127.00    0.97616   0.97210  381.193
 4128.00    0.96879   0.96662  384.366
 4129.00    0.96651   0.96361  386.298
 4130.00    0.96908   0.95884   -1.000
 4131.00    0.96342   0.95074   -1.000
 4132.00    0.95295   0.94544   -1.000
 4133.00    0.94722   0.95088  417.529
 4134.00    0.95210   0.96699   -1.000
 4135.00    0.96711   0.98699   -1.000
 4136.00    0.98448   1.00521   -1.000
 4137.00    1.00216   1.01983   -1.000
 4138.00    1.01586   1.03086   -1.000
 4139.00    1.01806   1.03542   -1.000
 4140.00    1.01201   1.02808   -1.000
 4141.00    0.99883   1.00843   -1.000
 4142.00    0.96716   0.98394   -1.000
 4143.00    0.93526   0.96758   -1.000
 4144.00    0.93896   0.96918   -1.000
 4145.00    0.96843   0.98510   -1.000
 4146.00    0.99010   1.00155   -1.000
 4147.00    0.99401   1.00829   -1.000
 4148.00    0.98717   1.00697   -1.000
 4149.00    0.97717   1.00474   -1.000
 4150.00    0.98129   1.00504   -1.000
 4151.00    0.98668   1.00516   -1.000
 4152.00    0.98314   1.00102   -1.000
 4153.00    0.97650   0.99331   -1.000
 4154.00    0.97178   0.98670   -1.000
 4155.00    0.95337   0.98583   -1.000
 4156.00    1.10324   0.99173   -1.000
 4157.00    1.12343   1.00195   -1.000
 4158.00    0.91191   1.01271   -1.000
 4159.00    0.87120   1.02007   -1.000
 4160.00    0.99022   1.02300   -1.000
 4161.00    1.02041   1.02391  370.604
 4162.00    1.00625   1.02630   -1.000
 4163.00    1.01451   1.03099   -1.000
 4164.00    1.00110   1.03538   -1.000
 4165.00    0.99258   1.03564   -1.000
 4166.00    0.99351   1.03086   -1.000
 4167.00    0.98890   1.02534   -1.000
 4168.00    0.98471   1.02125   -1.000
 4169.00    0.98491   1.01418   -1.000
 4170.00    0.99101   0.99715  389.167
 4171.00    0.97012   0.97083  412.549
 4172.00    0.93678   0.94825   -1.000
 4173.00    0.92415   0.94239   -1.000
 4174.00    0.93154   0.95429   -1.000
 4175.00    0.94627   0.97186   -1.000
 4176.00    0.96002   0.98090   -1.000
 4177.00    0.95235   0.98123   -1.000
 4178.00    0.95917   0.98196   -1.000
 4179.00    0.97828   0.98901   -1.000
 4180.00    0.98074   0.99769   -1.000
 4181.00    0.97703   1.00019   -1.000
 4182.00    0.97906   0.99958   -1.000
 4183.00    0.98104   1.00218   -1.000
 4184.00    0.98108   1.00598   -1.000
 4185.00    0.98186   1.00517   -1.000
 4186.00    0.96572   0.99840   -1.000
 4187.00    0.95035   0.99189   -1.000
 4188.00    0.95587   0.99218   -1.000
 4189.00    0.97245   0.99741   -1.000
 4190.00    0.97512   1.00227   -1.000
 4191.00    0.97932   1.00603   -1.000
 4192.00    0.98583   1.01063   -1.000
 4193.00    0.99068   1.01454   -1.000
 4194.00    0.99634   1.01162   -1.000
 4195.00    0.97814   0.99846   -1.000
 4196.00    0.95482   0.97982   -1.000
 4197.00    0.94403   0.96279   -1.000
 4198.00    0.93306   0.95177   -1.000
 4199.00    0.93603   0.94875   -1.000
 4200.00    0.94831   0.95173  411.545
 4201.00    0.94749   0.95541   -1.000
 4202.00    0.94785   0.95902   -1.000
 4203.00    0.95596   0.96600   -1.000
 4204.00    0.95394   0.97594   -1.000
 4205.00    0.95656   0.98612   -1.000
 4206.00    0.96998   0.99599   -1.000
 4207.00    0.98390   1.00404   -1.000
 4208.00    0.98428   1.00784   -1.000
 4209.00    0.98357   1.00880   -1.000
 4210.00    0.98557   1.01079   -1.000
 4211.00    0.98092   1.01522   -1.000
 4212.00    0.98248   1.01751   -1.000
 4213.00    0.98256   1.01016   -1.000
 4214.00    0.96501   0.99419   -1.000
 4215.00    0.94080   0.97972   -1.000
 4216.00    0.94306   0.97708   -1.000
 4217.00    0.96003   0.98865   -1.000
 4218.00    0.97527   1.00545   -1.000
 4219.00    0.99378   1.01825   -1.000
 4220.00    1.00254   1.02406   -1.000
 4221.00    0.99410   1.02126   -1.000
 4222.00    0.98373   1.00671   -1.000
 4223.00    0.96374   0.97811   -1.000
 4224.00    0.93297   0.93961  424.837
 4225.00    0.89040   0.90451   -1.000
 4226.00    0.85037   0.88914   -1.000
 4227.00    0.86428   0.90526   -1.000
 4228.00    0.91291   0.94716   -1.000
 4229.00    0.96230   0.99123   -1.000
 4230.00    0.98899   1.01430   -1.000
 4231.00    0.98411   1.01287   -1.000
 4232.00    0.96910   0.99839   -1.000
 4233.00    0.96073   0.98281   -1.000
 4234.00    0.95509   0.97400   -1.000
 4235.00    0.94893   0.97290   -1.000
 4236.00    0.94501   0.97509   -1.000
 4237.00    0.94155   0.97954   -1.000
 4238.00    0.94861   0.98731   -1.000
 4239.00    0.95291   0.99739   -1.000
 4240.00    0.96669   1.00839   -1.000
 4241.00    0.98089   1.01783   -1.000
 4242.00    0.97304   1.02371   -1.000
 4243.00    0.96978   1.02515   -1.000
 4244.00    0.97889   1.02122   -1.000
 4245.00    0.97661   1.01026   -1.000
 4246.00    0.95553   0.99331   -1.000
 4247.00    0.94200   0.97753   -1.000
 4248.00    0.93905   0.96905   -1.000
 4249.00    0.93068   0.96786   -1.000
 4250.00    0.92649   0.97261   -1.000
 4251.00    0.93930   0.98213   -1.000
 4252.00    0.95512   0.99092   -1.000
 4253.00    0.96484   0.99403   -1.000
 4254.00    0.95575   0.99416   -1.000
 4255.00    0.95043   0.99708   -1.000
 4256.00    0.96630   1.00197   -1.000
 4257.00    0.97777   1.00042   -1.000
 4258.00    0.96490   0.98834   -1.000
 4259.00    0.94036   0.97405   -1.000
 4260.00    0.92775   0.96995   -1.000
 4261.00    0.93749   0.98120   -1.000
 4262.00    0.96128   1.00262   -1.000
 4263.00    0.97893   1.02298   -1.000
 4264.00    0.98434   1.03338   -1.000
 4265.00    0.99895   1.03317   -1.000
 4266.00    0.98973   1.02702   -1.000
 4267.00    0.97082   1.01658   -1.000
 4268.00    0.96891   1.00089   -1.000
 4269.00    0.95845   0.97963   -1.000
 4270.00    0.93581   0.95566   -1.000
 4271.00    0.90888   0.93674   -1.000
 4272.00    0.89935   0.93043   -1.000
 4273.00    0.90591   0.93747   -1.000
 4274.00    0.91244   0.95290   -1.000
 4275.00    0.93000   0.97324   -1.000
 4276.00    0.95287   0.99582   -1.000
 4277.00    0.97384   1.01336   -1.000
 4278.00    0.97484   1.01845   -1.000
 4279.00    0.95436   1.01132   -1.000
 4280.00    0.94217   0.99905   -1.000
 4281.00    0.93506   0.98987   -1.000
 4282.00    0.93295   0.98628   -1.000
 4283.00    0.94255   0.98559   -1.000
 4284.00    0.94463   0.98431   -1.000
 4285.00    0.93454   0.97836   -1.000
 4286.00    0.92403   0.96523   -1.000
 4287.00    0.91074   0.94569   -1.000
 4288.00    0.89624   0.92338   -1.000
 4289.00    0.87641   0.90638   -1.000
 4290.00    0.86784   0.90476   -1.000
 4291.00    0.88483   0.91867   -1.000
 4292.00    0.91123   0.93532   -1.000
 4293.00    0.91949   0.94156   -1.000
 4294.00    0.92326   0.93784   -1.000
 4295.00    0.90886   0.93195   -1.000
 4296.00    0.90468   0.92311   -1.000
 4297.00    0.88406   0.90560   -1.000
 4298.00    0.85360   0.87942   -1.000
 4299.00    0.82315   0.85194   -1.000
 4300.00    0.80890   0.83352   -1.000
 4301.00    0.81853   0.82910   -1.000
 4302.00    0.82742   0.83607   -1.000
 4303.00    0.83306   0.84910   -1.000
 4304.00    0.84149   0.86130   -1.000
 4305.00    0.84673   0.86384   -1.000
 4306.00    0.83775   0.85503   -1.000
 4307.00    0.81417   0.84308   -1.000
 4308.00    0.79190   0.83897   -1.000
 4309.00    0.79990   0.84793   -1.000
 4310.00    0.82142   0.86472   -1.000
 4311.00    0.83739   0.87947   -1.000
 4312.00    0.84525   0.88759   -1.000
 4313.00    0.86033   0.89599   -1.000
 4314.00    0.87664   0.91493   -1.000
 4315.00    0.91379   0.94682   -1.000
 4316.00    0.95762   0.98243   -1.000
 4317.00    0.97516   1.00666   -1.000
 4318.00    0.98816   1.01341   -1.000
 4319.00    0.98191   1.00696   -1.000
 4320.00    0.97634   0.99441   -1.000
 4321.00    0.96432   0.97886   -1.000
 4322.00    0.95220   0.95860  363.854
 4323.00    0.91846   0.93220   -1.000
 4324.00    0.86948   0.90575   -1.000
 4325.00    0.85270   0.89450   -1.000
 4326.00    0.87687   0.90786   -1.000
 4327.00    0.91041   0.93559   -1.000
 4328.00    0.93495   0.95819   -1.000
 4329.00    0.94410   0.96511   -1.000
 4330.00    0.92921   0.96120   -1.000
 4331.00    0.93121   0.95633   -1.000
 4332.00    0.92688   0.95251   -1.000
 4333.00    0.91358   0.94487   -1.000
 4334.00    0.90973   0.92743   -1.000
 4335.00    0.89718   0.89531  332.594
 4336.00    0.86041   0.84507   -1.000
 4337.00    0.80325   0.77876   -1.000
 4338.00    0.73615   0.70994   -1.000
 4339.00    0.66499   0.65856   -1.000
 4340.00    0.63041   0.64204   -1.000
 4341.00    0.65229   0.66950   -1.000
 4342.00    0.72824   0.72991  392.458
 4343.00    0.80168   0.79619  368.591
 4344.00    0.83129   0.84886   -1.000
 4345.00    0.86799   0.88721   -1.000
 4346.00    0.88722   0.91719   -1.000
 4347.00    0.90729   0.93989   -1.000
 4348.00    0.92503   0.95067   -1.000
 4349.00    0.93685   0.94544  333.586
 4350.00    0.91563   0.92795   -1.000
 4351.00    0.89092   0.91260   -1.000
 4352.00    0.88403   0.91321   -1.000
 4353.00    0.90891   0.93216   -1.000
 4354.00    0.93539   0.95924   -1.000
 4355.00    0.95159   0.98149   -1.000
 4356.00    0.96673   0.99318   -1.000
 4357.00    0.96835   0.99561   -1.000
 4358.00    0.95933   0.99406   -1.000
 4359.00    0.96023   0.99537   -1.000
 4360.00    0.97222   1.00309   -1.000
 4361.00    0.98168   1.01463   -1.000
 4362.00    0.98579   1.02528   -1.000
 4363.00    0.98780   1.03233   -1.000
 4364.00    1.00013   1.03418   -1.000
 4365.00    0.99418   1.02912   -1.000
 4366.00    0.98001   1.01746   -1.000
 4367.00    0.96845   1.00379   -1.000
 4368.00    0.96793   0.99429   -1.000
 4369.00    0.97240   0.99061   -1.000
 4370.00    0.97504   0.98962   -1.000
 4371.00    0.97212   0.98587   -1.000
 4372.00    0.97525   0.97491  343.012
 4373.00    0.96692   0.95776   -1.000
 4374.00    0.94726   0.94347  371.651
 4375.00    0.93920   0.94439  371.534
 4376.00    0.94728   0.96286   -1.000
 4377.00    0.97398   0.98752   -1.000
 4378.00    0.99818   1.00405  332.063
 4379.00    0.99591   1.00614   -1.000
 4380.00    0.98663   0.99350  340.349
 4381.00    0.97621   0.96600   -1.000
 4382.00    0.93652   0.92861   -1.000
 4383.00    0.88987   0.89741   -1.000
 4384.00    0.87494   0.88917   -1.000
 4385.00    0.90224   0.90616  403.832
 4386.00    0.94476   0.93420   -1.000
 4387.00    0.96728   0.95656   -1.000
 4388.00    0.96689   0.96764  354.757
 4389.00    0.96448   0.97068  358.750
 4390.00    0.96802   0.97139  359.815
 4391.00    0.97731   0.97331  352.610
 4392.00    0.98870   0.97355   -1.000
 4393.00    0.98105   0.96729   -1.000
 4394.00    0.96654   0.95865   -1.000
 4395.00    0.96237   0.95896  353.590
 4396.00    0.96907   0.97022  336.928
 4397.00    0.98248   0.98020  327.289
 4398.00    0.98266   0.97874  332.288
 4399.00    0.96455   0.96933  344.889
 4400.00    0.95343   0.96348   -1.000
 4401.00    0.96824   0.96594  350.519
 4402.00    0.98442   0.96963   -1.000
 4403.00    0.97455   0.96720  356.775
 4404.00    0.94757   0.96118   -1.000
 4405.00    0.94636   0.95943   -1.000
 4406.00    0.96206   0.96384  367.390
 4407.00    0.96397   0.96982  362.248
 4408.00    0.96589   0.97604   -1.000
 4409.00    0.97547   0.98681   -1.000
 4410.00    0.99038   1.00191   -1.000
 4411.00    1.00905   1.01319  319.010
 4412.00    1.01913   1.01263  315.443
 4413.00    1.00479   0.99819  324.363
 4414.00    0.97949   0.97510  343.503
 4415.00    0.96397   0.95544   -1.000
 4416.00    0.96024   0.95036   -1.000
 4417.00    0.96354   0.96213  340.595
 4418.00    0.98032   0.98444  326.350
 4419.00    1.00536   1.00574  317.263
 4420.00    1.01093   1.01615  319.429
 4421.00    1.00995   1.01474  328.133
 4422.00    1.00419   1.00987  333.983
 4423.00    0.99891   1.00803  331.881
 4424.00    1.00132   1.00781  330.256
 4425.00    0.98903   1.00624   -1.000
 4426.00    0.97992   1.00453   -1.000
 4427.00    0.98282   1.00543   -1.000
 4428.00    0.98549   1.00868   -1.000
 4429.00    1.00122   1.01178   -1.000
 4430.00    1.00211   1.01331   -1.000
 4431.00    1.00008   1.01273   -1.000
 4432.00    1.00814   1.00839  327.311
 4433.00    0.99248   0.99879  338.639
 4434.00    0.97504   0.98814   -1.000
 4435.00    0.96219   0.98657   -1.000
 4436.00    0.97060   1.00028   -1.000
 4437.00    1.01005   1.02284   -1.000
 4438.00    1.02920   1.04012   -1.000
 4439.00    1.03426   1.04127  308.787
 4440.00    1.01461   1.02488   -1.000
 4441.00    0.99507   0.99929  334.524
 4442.00    0.96672   0.97800   -1.000
 4443.00    0.94646   0.97305   -1.000
 4444.00    0.96960   0.98667   -1.000
 4445.00    0.99570   1.00913   -1.000
 4446.00    0.99780   1.02648   -1.000
 4447.00    1.00282   1.03323   -1.000
 4448.00    1.00596   1.03296   -1.000
 4449.00    1.00036   1.03007   -1.000
 4450.00    0.99472   1.02739   -1.000
 4451.00    0.99646   1.02542   -1.000
 4452.00    1.00331   1.02054   -1.000
 4453.00    0.99564   1.00863   -1.000
 4454.00    0.97277   0.99329   -1.000
 4455.00    0.96129   0.98470   -1.000
 4456.00    0.96908   0.98734   -1.000
 4457.00    0.98678   0.99492  345.292
 4458.00    0.98849   0.99926   -1.000
 4459.00    0.98233   0.99891   -1.000
 4460.00    0.97376   0.99721   -1.000
 4461.00    0.96744   0.99839   -1.000
 4462.00    0.98109   1.00414   -1.000
 4463.00    0.99479   1.01171   -1.000
 4464.00    1.00516   1.01676   -1.000
 4465.00    1.00330   1.01645   -1.000
 4466.00    0.99130   1.00983   -1.000
 4467.00    0.98336   0.99873   -1.000
 4468.00    0.97569   0.98968   -1.000
 4469.00    0.97429   0.99033   -1.000
 4470.00    0.98668   1.00258   -1.000
 4471.00    0.99641   1.02115   -1.000
 4472.00    1.01062   1.03846   -1.000
 4473.00    1.03181   1.04997   -1.000
 4474.00    1.03439   1.05519   -1.000
 4475.00    1.02746   1.05669   -1.000
 4476.00    1.02578   1.05694   -1.000
 4477.00    1.02983   1.05493   -1.000
 4478.00    1.03703   1.04544  299.077
 4479.00    1.03218   1.02621  310.455
 4480.00    1.00533   1.00498  324.702
 4481.00    0.97957   0.99461   -1.000
 4482.00    0.98379   1.00231   -1.000
 4483.00    1.00721   1.02364   -1.000
 4484.00    1.02558   1.04642   -1.000
 4485.00    1.04038   1.06009   -1.000
 4486.00    1.04103   1.06027   -1.000
 4487.00    1.02786   1.04866   -1.000
 4488.00    1.01637   1.03301   -1.000
 4489.00    1.00376   1.02368   -1.000
 4490.00    1.00039   1.02568   -1.000
 4491.00    1.00851   1.03475   -1.000
 4492.00    1.01965   1.04108   -1.000
 4493.00    1.01702   1.03936   -1.000
 4494.00    1.01020   1.03418   -1.000
 4495.00    1.00294   1.03274   -1.000
 4496.00    1.00885   1.03655   -1.000
 4497.00    1.02913   1.04209   -1.000
 4498.00    1.03480   1.04449  303.877
 4499.00    1.02985   1.04039  300.944
 4500.00    1.01690   1.03310   -1.000
 4501.00    1.01578   1.03215   -1.000
 4502.00    1.02691   1.04257   -1.000
 4503.00    1.04511   1.05928   -1.000
 4504.00    1.05910   1.07211   -1.000
 4505.00    1.05527   1.07521   -1.000
 4506.00    1.04571   1.07007   -1.000
 4507.00    1.04326   1.06267   -1.000
 4508.00    1.04022   1.05936   -1.000
 4509.00    1.03903   1.06173   -1.000
 4510.00    1.04923   1.06537   -1.000
 4511.00    1.04381   1.06522   -1.000
 4512.00    1.03745   1.06067   -1.000
 4513.00    1.03701   1.05390   -1.000
 4514.00    1.03306   1.04725   -1.000
 4515.00    1.02595   1.04305   -1.000
 4516.00    1.02364   1.04146   -1.000
 4517.00    1.02251   1.03984   -1.000
 4518.00    1.01496   1.03672   -1.000
 4519.00    1.01798   1.03432   -1.000
 4520.00    1.03134   1.03407  297.397
 4521.00    1.02934   1.03285  298.473
 4522.00    1.02567   1.02808  305.744
 4523.00    1.01583   1.02241  311.929
 4524.00    1.00951   1.01891  314.508
 4525.00    1.00977   1.01538  319.868
 4526.00    1.00624   1.00814  329.821
 4527.00    0.98817   0.99730  339.129
 4528.00    0.97912   0.98801  343.067
 4529.00    0.98291   0.98576  340.412
 4530.00    0.99337   0.99021  334.326
 4531.00    0.99401   0.99419  328.206
 4532.00    0.99079   0.98980  326.699
 4533.00    0.97567   0.97876  336.159
 4534.00    0.95817   0.97267   -1.000
 4535.00    0.96671   0.98125   -1.000
 4536.00    0.99028   1.00292   -1.000
 4537.00    1.01906   1.02738  303.761
 4538.00    1.04533   1.04393  295.796
 4539.00    1.04534   1.04813  298.911
 4540.00    1.02716   1.04406   -1.000
 4541.00    1.02614   1.03921   -1.000
 4542.00    1.03102   1.03773  303.502
 4543.00    1.01743   1.03762   -1.000
 4544.00    1.07013   1.03536   -1.000
 4545.00    0.47341   1.03159   -1.000
 4546.00   -0.06002   1.02709    0.000
 4547.00   -0.10476   1.01781    0.000
 4548.00    0.49284   1.00211   -1.000
 4549.00    0.49834   0.98865   -1.000
 4550.00    0.38572   0.98863   -1.000
 4551.00    1.03493   0.99965   -1.000
 4552.00    1.00159   1.00684  317.092
 4553.00    0.99124   1.00252   -1.000
 4554.00    0.98620   0.99434  325.060
 4555.00    0.99634   0.99430  320.008
 4556.00    1.00844   1.00657  308.152
 4557.00    1.02835   1.02461  295.692
 4558.00    1.04172   1.03952  290.630
 4559.00    1.03845   1.04912  292.382
 4560.00    1.03933   1.05455   -1.000
 4561.00    1.03735   1.05345   -1.000
 4562.00    1.03137   1.04364   -1.000
 4563.00    1.01558   1.03023   -1.000
 4564.00    1.00454   1.02300   -1.000
 4565.00    1.01622   1.02674   -1.000
 4566.00    1.03005   1.03773  300.430
 4567.00    1.03801   1.04820  292.461
 4568.00    1.04971   1.05190  289.613
 4569.00    1.04179   1.04660  292.923
 4570.00    1.02176   1.03428   -1.000
 4571.00    1.00613   1.02186   -1.000
 4572.00    1.00176   1.01947   -1.000
 4573.00    1.01246   1.02934   -1.000
 4574.00    1.03715   1.04116  292.430
 4575.00    1.03914   1.04577  292.677
 4576.00    1.03343   1.04402  294.052
 4577.00    1.03450   1.03961  295.769
 4578.00    1.03376   1.03261  300.908
 4579.00    1.02645   1.02243  310.040
 4580.00    1.01836   1.01169  316.400
 4581.00    1.01159   1.00329  315.399
 4582.00    1.01106   0.99729   -1.000
 4583.00    1.00786   0.99476   -1.000
 4584.00    1.01061   0.99830   -1.000
 4585.00    1.01386   1.00661  311.561
 4586.00    1.01969   1.01551  307.144
 4587.00    1.02793   1.02241  298.991
 4588.00    1.03499   1.02620  292.657
 4589.00    1.02917   1.02686  292.316
 4590.00    1.02718   1.02563  296.693
 4591.00    1.02218   1.02345  302.268
 4592.00    1.01433   1.02182  307.572
 4593.00    1.01879   1.02289  307.783
 4594.00    1.02508   1.02670  305.106
 4595.00    1.03719   1.03177  302.707
 4596.00    1.03206   1.03655  301.926
 4597.00    1.03002   1.03909  301.294
 4598.00    1.03545   1.03822  300.615
 4599.00    1.03923   1.03432  303.327
 4600.00    1.02479   1.02895  306.061
 4601.00    1.02083   1.02477  306.889
 4602.00    1.02156   1.02363  303.562
 4603.00    1.01979   1.02532  300.139
 4604.00    1.02828   1.02853  300.703
 4605.00    1.03270   1.03217  300.186
 4606.00    1.03770   1.03661  296.869
 4607.00    1.04674   1.04221  290.942
 4608.00    1.04651   1.04786  284.691
 4609.00    1.04926   1.05153  281.380
 4610.00    1.05312   1.05126  282.715
 4611.00    1.04891   1.04777  286.673
 4612.00    1.04539   1.04411  289.848
 4613.00    1.04319   1.04232  291.706
 4614.00    1.04223   1.04185  290.207
 4615.00    1.04183   1.04049  287.593
 4616.00    1.03785   1.03747  286.463
 4617.00    1.03597   1.03385  288.439
 4618.00    1.03972   1.03119   -1.000
 4619.00    1.03820   1.03158  290.277
 4620.00    1.04189   1.03639  287.454
 4621.00    1.05166   1.04390  282.837
 4622.00    1.04923   1.04985  282.825
 4623.00    1.04896   1.05122  283.556
 4624.00    1.04797   1.04889  284.112
 4625.00    1.04129   1.04545  286.772
 4626.00    1.03924   1.04237  287.440
 4627.00    1.04161   1.03921  287.274
 4628.00    1.04149   1.03569  289.174
 4629.00    1.03304   1.03435  289.772
 4630.00    1.03559   1.03746  288.281
 4631.00    1.04038   1.04237  284.902
 4632.00    1.04354   1.04407  286.257
 4633.00    1.04329   1.04128  290.516
 4634.00    1.04002   1.03745  293.708
 4635.00    1.03916   1.03591  293.379
 4636.00    1.03280   1.03590  295.810
 4637.00    1.03770   1.03570  299.779
 4638.00    1.03856   1.03610  300.961
 4639.00    1.03192   1.03891  300.506
 4640.00    1.04589   1.04440  295.314
 4641.00    1.05434   1.05032  288.016
 4642.00    1.05285   1.05374  284.117
 4643.00    1.06187   1.05274  285.366
 4644.00    1.05471   1.04709  290.782
 4645.00    1.04377   1.03790  299.063
 4646.00    1.03161   1.02766  307.356
 4647.00    1.02333   1.02166  308.546
 4648.00    1.02418   1.02378  302.951
 4649.00    1.04190   1.03172   -1.000
 4650.00    1.04251   1.04015  291.806
 4651.00    1.04045   1.04509  291.361
 4652.00    1.03818   1.04508  290.754
 4653.00    1.03158   1.04056  294.299
 4654.00    1.02885   1.03392  301.226
 4655.00    1.01985   1.02876  304.632
 4656.00    1.01610   1.02812   -1.000
 4657.00    1.02637   1.03457  292.150
 4658.00    1.04614   1.04774  280.881
 4659.00    1.06050   1.06123  274.654
 4660.00    1.06473   1.06745  274.482
 4661.00    1.06396   1.06469  277.977
 4662.00    1.05057   1.05675  284.900
 4663.00    1.04682   1.04774  290.499
 4664.00    1.04522   1.03816  291.081
 4665.00    1.04326   1.02587   -1.000
 4666.00    1.02889   1.01070   -1.000
 4667.00    1.01056   0.99807   -1.000
 4668.00    1.00655   0.99509   -1.000
 4669.00    1.01449   1.00249   -1.000
 4670.00    1.02896   1.01520   -1.000
 4671.00    1.04311   1.02753   -1.000
 4672.00    1.04351   1.03584  289.023
 4673.00    1.05154   1.04055   -1.000
 4674.00    1.05264   1.04451  288.974
 4675.00    1.05148   1.04861  285.140
 4676.00    1.05739   1.05023  280.821
 4677.00    1.05421   1.04611  282.344
 4678.00    1.05063   1.03730   -1.000
 4679.00    1.03926   1.02805   -1.000
 4680.00    1.02844   1.02137  299.155
 4681.00    1.03107   1.01897   -1.000
 4682.00    1.03572   1.02139   -1.000
 4683.00    1.03671   1.02689   -1.000
 4684.00    1.04635   1.03218   -1.000
 4685.00    1.05797   1.03494   -1.000
 4686.00    1.05441   1.03543   -1.000
 4687.00    1.05313   1.03504   -1.000
 4688.00    1.05447   1.03465   -1.000
 4689.00    1.04932   1.03383   -1.000
 4690.00    1.04954   1.03179   -1.000
 4691.00    1.03818   1.02986  292.329
 4692.00    1.04427   1.03044   -1.000
 4693.00    1.05150   1.03339   -1.000
 4694.00    1.05634   1.03655   -1.000
 4695.00    1.06344   1.03836   -1.000
 4696.00    1.06830   1.03694   -1.000
 4697.00    1.05769   1.03067   -1.000
 4698.00    1.04551   1.02171   -1.000
 4699.00    1.03930   1.01398   -1.000
 4700.00    1.04407   1.00830   -1.000
 4701.00    1.04530   1.00305   -1.000
 4702.00    1.02970   0.99829   -1.000
 4703.00    1.02626   0.99715   -1.000
 4704.00    1.02587   1.00145   -1.000
 4705.00    1.04363   1.00693   -1.000
 4706.00    1.03653   1.00755   -1.000
 4707.00    1.02767   1.00265   -1.000
 4708.00    1.02195   0.99785   -1.000
 4709.00    1.02150   0.99913   -1.000
 4710.00    1.03537   1.00660   -1.000
 4711.00    1.03997   1.01515   -1.000
 4712.00    1.04812   1.01916   -1.000
 4713.00    1.04348   1.01743   -1.000
 4714.00    1.04629   1.01446   -1.000
 4715.00    1.03998   1.01580   -1.000
 4716.00    1.04338   1.02238   -1.000
 4717.00    1.04742   1.03003   -1.000
 4718.00    1.05130   1.03519   -1.000
 4719.00    1.05926   1.03769   -1.000
 4720.00    1.05758   1.03817   -1.000
 4721.00    1.05698   1.03729   -1.000
 4722.00    1.05430   1.03679   -1.000
 4723.00    1.05570   1.03853   -1.000
 4724.00    1.06122   1.04132   -1.000
 4725.00    1.06297   1.04121   -1.000
 4726.00    1.05450   1.03592   -1.000
 4727.00    1.04399   1.02658   -1.000
 4728.00    1.04012   1.01714   -1.000
 4729.00    1.04412   1.01089   -1.000
 4730.00    1.04380   1.00779   -1.000
 4731.00    1.03935   1.00815   -1.000
 4732.00    1.04371   1.01256   -1.000
 4733.00    1.04702   1.01829   -1.000
 4734.00    1.04318   1.02142   -1.000
 4735.00    1.04087   1.02082   -1.000
 4736.00    1.03994   1.01869   -1.000
 4737.00    1.03574   1.01822   -1.000
 4738.00    1.04505   1.02003   -1.000
 4739.00    1.05563   1.02217   -1.000
 4740.00    1.04714   1.02341   -1.000
 4741.00    1.04281   1.02470   -1.000
 4742.00    1.04561   1.02729   -1.000
 4743.00    1.05811   1.03076   -1.000
 4744.00    1.05748   1.03378   -1.000
 4745.00    1.04979   1.03629   -1.000
 4746.00    1.05461   1.03922   -1.000
 4747.00    1.05547   1.04311   -1.000
 4748.00    1.05423   1.04701  277.344
 4749.00    1.05464   1.04985  277.790
 4750.00    1.05432   1.05175  277.969
 4751.00    1.05234   1.05193  280.033
 4752.00    1.05237   1.04921  283.245
 4753.00    1.04645   1.04435  285.607
 4754.00    1.04656   1.03973  287.556
 4755.00    1.04371   1.03745  287.004
 4756.00    1.04318   1.03828  288.154
 4757.00    1.03714   1.04111  290.320
 4758.00    1.04320   1.04388  290.605
 4759.00    1.04682   1.04482  288.136
 4760.00    1.04511   1.04186  287.646
 4761.00    1.03756   1.03346  292.242
 4762.00    1.02498   1.02156  299.643
 4763.00    1.01971   1.01125  303.442
 4764.00    1.02543   1.00680   -1.000
 4765.00    1.02326   1.00902   -1.000
 4766.00    1.03257   1.01615   -1.000
 4767.00    1.04079   1.02604   -1.000
 4768.00    1.04505   1.03669  290.006
 4769.00    1.04452   1.04492  286.024
 4770.00    1.04977   1.04752  286.581
 4771.00    1.04768   1.04509  289.056
 4772.00    1.04240   1.04224  291.624
 4773.00    1.04273   1.04335  288.150
 4774.00    1.04414   1.04831  281.914
 4775.00    1.05505   1.05300  280.052
 4776.00    1.05848   1.05487  280.310
 4777.00    1.05484   1.05393  281.148
 4778.00    1.05070   1.05000  283.005
 4779.00    1.04167   1.04431  286.224
 4780.00    1.03652   1.04071  287.890
 4781.00    1.03919   1.04084  288.595
 4782.00    1.04503   1.04143  290.020
 4783.00    1.04265   1.03976  292.384
 4784.00    1.03362   1.03672  292.223
 4785.00    1.03358   1.03312  293.226
 4786.00    1.03188   1.02924  296.191
 4787.00    1.02624   1.02699  297.881
 4788.00    1.02932   1.02746  297.550
 4789.00    1.03211   1.02968  296.064
 4790.00    1.04020   1.03351  294.230
 4791.00    1.04585   1.03971  291.136
 4792.00    1.04320   1.04784  286.325
 4793.00    1.05062   1.05653  279.900
 4794.00    1.05197   1.06340  275.118
 4795.00    1.05393   1.06540  274.164
 4796.00    1.05725   1.06155  276.991
 4797.00    1.05679   1.05377  282.647
 4798.00    1.04490   1.04583  287.942
 4799.00    1.04152   1.04191  291.339
 4800.00    1.04364   1.04406  288.701
 4801.00    1.04668   1.05031  282.788
 4802.00    1.05453   1.05541  278.747
 4803.00    1.05376   1.05389  279.225
 4804.00    1.03969   1.04593  283.026
 4805.00    1.03874   1.03806  286.652
 4806.00    1.04316   1.03533  289.246
 4807.00    1.04560   1.03746  289.133
 4808.00    1.04853   1.04159  288.395
 4809.00    1.04347   1.04512  287.089
 4810.00    1.04852   1.04676  284.459
 4811.00    1.04790   1.04732  282.430
 4812.00    1.04887   1.04888  280.992
 4813.00    1.05717   1.05244  280.731
 4814.00    1.05337   1.05664  280.040
 4815.00    1.06009   1.05978  279.028
 4816.00    1.05467   1.06182  277.254
 4817.00    1.05534   1.06311  275.536
 4818.00    1.05745   1.06307  274.424
 4819.00    1.05546   1.06167  274.339
 4820.00    1.05650   1.05876  274.353
 4821.00    1.05053   1.05251  276.807
 4822.00    1.03968   1.04170  284.219
 4823.00    1.03038   1.02957  289.621
 4824.00    1.02446   1.02283  289.002
 4825.00    1.03606   1.02483   -1.000
 4826.00    1.05474   1.03141   -1.000
 4827.00    1.05062   1.03600   -1.000
 4828.00    1.04729   1.03609   -1.000
 4829.00    1.04565   1.03361   -1.000
 4830.00    1.03968   1.03096  285.678
 4831.00    1.03987   1.02851   -1.000
 4832.00    1.03955   1.02676   -1.000
 4833.00    1.04021   1.02686   -1.000
 4834.00    1.04470   1.02819   -1.000
 4835.00    1.04662   1.02898   -1.000
 4836.00    1.04233   1.02842   -1.000
 4837.00    1.03698   1.02690   -1.000
 4838.00    1.03262   1.02406  285.077
 4839.00    1.02549   1.01974  290.216
 4840.00    1.02161   1.01596  290.339
 4841.00    1.02253   1.01432  289.711
 4842.00    1.02440   1.01397   -1.000
 4843.00    1.02965   1.01370   -1.000
 4844.00    1.03421   1.01371   -1.000
 4845.00    1.03043   1.01417   -1.000
 4846.00    1.02541   1.01284   -1.000
 4847.00    1.02624   1.00716   -1.000
 4848.00    1.01369   0.99967   -1.000
 4849.00    1.00758   0.99535   -1.000
 4850.00    1.01623   0.99458   -1.000
 4851.00    1.00920   0.99333   -1.000
 4852.00    0.99802   0.98744   -1.000
 4853.00    0.99138   0.97431   -1.000
 4854.00    0.97538   0.95431   -1.000
 4855.00    0.96064   0.93277   -1.000
 4856.00    0.93935   0.91478   -1.000
 4857.00    0.92908   0.89583   -1.000
 4858.00    0.90597   0.86200   -1.000
 4859.00    0.83050   0.80241   -1.000
 4860.00    0.73819   0.72958   -1.000
 4861.00    0.68394   0.68082  392.632
 4862.00    0.71572   0.68778   -1.000
 4863.00    0.80060   0.74422   -1.000
 4864.00    0.87301   0.81290   -1.000
 4865.00    0.91800   0.86680   -1.000
 4866.00    0.94010   0.90321   -1.000
 4867.00    0.96220   0.92827   -1.000
 4868.00    0.97160   0.94457   -1.000
 4869.00    0.97527   0.95041   -1.000
 4870.00    0.96561   0.94572   -1.000
 4871.00    0.95323   0.93773   -1.000
 4872.00    0.95448   0.93744   -1.000
 4873.00    0.97880   0.94874   -1.000
 4874.00    0.99686   0.96463   -1.000
 4875.00    1.00569   0.97643   -1.000
 4876.00    1.00759   0.98213   -1.000
 4877.00    1.00011   0.98575   -1.000
 4878.00    1.00634   0.99214   -1.000
 4879.00    1.01975   1.00207   -1.000
 4880.00    1.02196   1.01115   -1.000
 4881.00    1.01803   1.01360  291.011
 4882.00    1.01562   1.00921  292.752
 4883.00    1.01547   1.00335   -1.000
 4884.00    1.01464   0.99969   -1.000
 4885.00    1.00921   0.99865   -1.000
 4886.00    1.00949   0.99925   -1.000
 4887.00    1.01824   0.99965   -1.000
 4888.00    1.01703   0.99702   -1.000
 4889.00    1.00548   0.98941   -1.000
 4890.00    0.98445   0.97969  308.623
 4891.00    0.97515   0.97677  306.604
 4892.00    0.99937   0.98837   -1.000
 4893.00    1.02782   1.01078   -1.000
 4894.00    1.04786   1.03276   -1.000
 4895.00    1.05539   1.04730  267.125
 4896.00    1.05862   1.05378  265.827
 4897.00    1.05506   1.05400  266.397
 4898.00    1.04521   1.04931  272.184
 4899.00    1.03685   1.04158  278.658
 4900.00    1.03437   1.03478  281.761
 4901.00    1.03387   1.03150  280.395
 4902.00    1.03267   1.02989  280.776
 4903.00    1.02898   1.02851  284.260
 4904.00    1.02709   1.03068  281.201
 4905.00    1.03979   1.03830  275.148
 4906.00    1.05291   1.04576  272.983
 4907.00    1.04771   1.04629  275.492
 4908.00    1.03606   1.03933  282.159
 4909.00    1.02960   1.02836  290.366
 4910.00    1.02276   1.01822  294.099
 4911.00    1.02470   1.01418   -1.000
 4912.00    1.03384   1.01828   -1.000
 4913.00    1.04297   1.02739   -1.000
 4914.00    1.04693   1.03665   -1.000
 4915.00    1.04688   1.04175  274.943
 4916.00    1.04757   1.03823  276.224
 4917.00    1.03446   1.02306   -1.000
 4918.00    1.00585   0.99869  301.595
 4919.00    0.98681   0.97406   -1.000
 4920.00    0.97436   0.95944   -1.000
 4921.00    0.98120   0.95904   -1.000
 4922.00    0.99573   0.96688   -1.000
 4923.00    0.99994   0.97414   -1.000
 4924.00    1.00250   0.98073   -1.000
 4925.00    1.01482   0.99246   -1.000
 4926.00    1.02951   1.00918   -1.000
 4927.00    1.04228   1.02497   -1.000
 4928.00    1.04752   1.03636   -1.000
 4929.00    1.04958   1.04321  272.563
 4930.00    1.05560   1.04468   -1.000
 4931.00    1.05116   1.03860   -1.000
 4932.00    1.03372   1.02455   -1.000
 4933.00    1.01321   1.00768  291.266
 4934.00    1.00545   0.99784  292.107
 4935.00    1.01704   0.99917   -1.000
 4936.00    1.02662   1.00342   -1.000
 4937.00    1.02406   1.00077   -1.000
 4938.00    1.00932   0.99320   -1.000
 4939.00    1.00205   0.99114   -1.000
 4940.00    1.01649   1.00043   -1.000
 4941.00    1.02969   1.01754   -1.000
 4942.00    1.04314   1.03398  275.912
 4943.00    1.05050   1.04375  273.360
 4944.00    1.04754   1.04621  273.531
 4945.00    1.04185   1.04392  275.479
 4946.00    1.03870   1.04114  276.095
 4947.00    1.04407   1.04146  273.631
 4948.00    1.04504   1.04512  270.379
 4949.00    1.04213   1.04907  269.538
 4950.00    1.04406   1.05056  268.404
 4951.00    1.04430   1.04949  269.781
 4952.00    1.04918   1.04712  271.636
 4953.00    1.04613   1.04405  274.777
 4954.00    1.04469   1.03798  278.207
 4955.00    1.03368   1.02359   -1.000
 4956.00    1.00561   0.99988  300.359
 4957.00    0.97371   0.97859  312.579
 4958.00    0.98134   0.97630  306.536
 4959.00    1.01242   0.99491   -1.000
 4960.00    1.03730   1.01988   -1.000
 4961.00    1.04196   1.03753  276.701
 4962.00    1.04221   1.04491  277.961
 4963.00    1.04410   1.04486  280.178
 4964.00    1.03689   1.03950  283.490
 4965.00    1.02826   1.03089  289.505
 4966.00    1.02965   1.02300  293.307
 4967.00    1.03107   1.01890   -1.000
 4968.00    1.03156   1.01821   -1.000
 4969.00    1.03282   1.02021   -1.000
 4970.00    1.03419   1.02479  287.323
 4971.00    1.03372   1.03059  284.239
 4972.00    1.04124   1.03588  280.839
 4973.00    1.04757   1.03974  278.178
 4974.00    1.04604   1.04143  277.024
 4975.00    1.04899   1.04068  278.918
 4976.00    1.04449   1.03743  281.853
 4977.00    1.03847   1.03197  285.681
 4978.00    1.03568   1.02602   -1.000
 4979.00    1.02809   1.01986  293.942
 4980.00    1.02168   1.01004   -1.000
 4981.00    1.00487   0.99462   -1.000
 4982.00    0.98700   0.97743   -1.000
 4983.00    0.98361   0.96654   -1.000
 4984.00    0.98418   0.96759   -1.000
 4985.00    0.99930   0.97916   -1.000
 4986.00    1.01817   0.99596   -1.000
 4987.00    1.02724   1.01199   -1.000
 4988.00    1.03025   1.02105  286.594
 4989.00    1.02138   1.02013  290.786
 4990.00    1.01574   1.01291  293.811
 4991.00    1.00750   1.00638  293.986
 4992.00    1.01795   1.00496   -1.000
 4993.00    1.02063   1.00780   -1.000
 4994.00    1.01622   1.01264  289.988
 4995.00    1.02185   1.01843  288.508
 4996.00    1.02720   1.02266  287.068
 4997.00    1.02783   1.02140  288.765
 4998.00    1.02302   1.01200   -1.000
 4999.00    1.01625   0.99651   -1.000
 5000.00    1.00600   0.98395   -1.000
 5001.00    1.00368   0.98173   -1.000
 5002.00    1.00559   0.98637   -1.000
 5003.00    1.02068   0.98986   -1.000
 5004.00    1.00884   0.98651   -1.000
 5005.00    0.99641   0.97693   -1.000
 5006.00    0.98375   0.96929   -1.000
 5007.00    0.98855   0.97220   -1.000
 5008.00    1.00767   0.98437   -1.000
 5009.00    1.02560   0.99559   -1.000
 5010.00    1.02076   0.99749   -1.000
 5011.00    1.01062   0.98899   -1.000
 5012.00    0.99194   0.97532   -1.000
 5013.00    0.97779   0.96408   -1.000
 5014.00    0.97628   0.96066   -1.000
 5015.00    0.98001   0.96409   -1.000
 5016.00    0.98955   0.96725   -1.000
 5017.00    0.99676   0.96468   -1.000
 5018.00    0.99362   0.96026   -1.000
 5019.00    0.99300   0.96311   -1.000
 5020.00    1.00344   0.97393   -1.000
 5021.00    1.01353   0.98463   -1.000
 5022.00    1.01108   0.99119   -1.000
 5023.00    1.00983   0.99656   -1.000
 5024.00    1.01437   1.00321   -1.000
 5025.00    1.02165   1.00864   -1.000
 5026.00    1.02292   1.00974   -1.000
 5027.00    1.01324   1.00779  298.397
 5028.00    1.01684   1.00660   -1.000
 5029.00    1.02841   1.00779   -1.000
 5030.00    1.03077   1.01086   -1.000
 5031.00    1.03151   1.01590   -1.000
 5032.00    1.03650   1.02198   -1.000
 5033.00    1.04162   1.02457   -1.000
 5034.00    1.02861   1.01962   -1.000
 5035.00    1.01394   1.00922  298.799
 5036.00    1.00094   0.99991  303.864
 5037.00    1.00251   0.99451  304.982
 5038.00    1.00096   0.98776   -1.000
 5039.00    0.98424   0.97365   -1.000
 5040.00    0.96618   0.95595   -1.000
 5041.00    0.95472   0.94727  334.257
 5042.00    0.97109   0.95635   -1.000
 5043.00    1.00101   0.97890   -1.000
 5044.00    1.02489   1.00340   -1.000
 5045.00    1.03167   1.02128   -1.000
 5046.00    1.04765   1.02927   -1.000
 5047.00    0.91008   1.02680   -1.000
 5048.00    0.14767   1.01567   -1.000
 5049.00    0.02381   1.00079   -1.000
 5050.00    0.81086   0.98808   -1.000
 5051.00    1.02013   0.98178   -1.000
 5052.00    1.01122   0.98547   -1.000
 5053.00    1.02793   0.99895   -1.000
 5054.00    1.03642   1.01498   -1.000
 5055.00    1.04034   1.02584   -1.000
 5056.00    1.04482   1.03075   -1.000
 5057.00    1.04484   1.03299   -1.000
 5058.00    1.04074   1.03491  278.282
 5059.00    1.03544   1.03695  278.179
 5060.00    1.03626   1.03858  276.294
 5061.00    1.03527   1.03866  276.428
 5062.00    1.03740   1.03489  280.130
 5063.00    1.03493   1.02543   -1.000
 5064.00    1.01828   1.01266  298.589
 5065.00    1.00946   1.00292  302.110
 5066.00    1.01440   0.99993   -1.000
 5067.00    1.01739   1.00129   -1.000
 5068.00    1.01976   1.00315   -1.000
 5069.00    1.01769   1.00484   -1.000
 5070.00    1.02609   1.00649   -1.000
 5071.00    1.02961   1.00645   -1.000
 5072.00    1.02026   1.00405   -1.000
 5073.00    1.02531   1.00156   -1.000
 5074.00    1.02502   1.00098   -1.000
 5075.00    1.02346   1.00171   -1.000
 5076.00    1.02164   1.00120   -1.000
 5077.00    1.02242   0.99579   -1.000
 5078.00    1.00931   0.98396   -1.000
 5079.00    0.99253   0.97088   -1.000
 5080.00    0.98240   0.96523   -1.000
 5081.00    0.99064   0.96888   -1.000
 5082.00    1.00139   0.97630   -1.000
 5083.00    1.00655   0.98376   -1.000
 5084.00    1.01909   0.99197   -1.000
 5085.00    1.03425   1.00078   -1.000
 5086.00    1.03232   1.00754   -1.000
 5087.00    1.03285   1.01113   -1.000
 5088.00    1.03710   1.01322   -1.000
 5089.00    1.03230   1.01577   -1.000
 5090.00    1.03328   1.01897   -1.000
 5091.00    1.04245   1.02233   -1.000
 5092.00    1.04225   1.02588   -1.000
 5093.00    1.04357   1.02877   -1.000
 5094.00    1.03947   1.02864   -1.000
 5095.00    1.03544   1.02329   -1.000
 5096.00    1.03068   1.01262   -1.000
 5097.00    1.01755   0.99930   -1.000
 5098.00    1.00643   0.98802   -1.000
 5099.00    1.00464   0.98422   -1.000
 5100.00    1.01901   0.99009   -1.000
 5101.00    1.03349   1.00133   -1.000
 5102.00    1.03445   1.01087   -1.000
 5103.00    1.03451   1.01485   -1.000
 5104.00    1.03192   1.01344   -1.000
 5105.00    1.02484   1.00747   -1.000
 5106.00    1.01034   0.99775   -1.000
 5107.00    1.00456   0.98751   -1.000
 5108.00    1.00048   0.98153   -1.000
 5109.00    0.99939   0.98149   -1.000
 5110.00    1.00567   0.98655   -1.000
 5111.00    1.01727   0.99566   -1.000
 5112.00    1.03234   1.00652   -1.000
 5113.00    1.03918   1.01544   -1.000
 5114.00    1.04302   1.02090   -1.000
 5115.00    1.04514   1.02423   -1.000
 5116.00    1.04186   1.02740   -1.000
 5117.00    1.04199   1.03033   -1.000
 5118.00    1.04502   1.03098   -1.000
 5119.00    1.04410   1.02781   -1.000
 5120.00    1.03801   1.02101   -1.000
 5121.00    1.02746   1.01164   -1.000
 5122.00    1.01363   1.00077   -1.000
 5123.00    1.00238   0.99049   -1.000
 5124.00    0.99753   0.98408   -1.000
 5125.00    1.00746   0.98274   -1.000
 5126.00    1.01421   0.98352   -1.000
 5127.00    1.00628   0.98308   -1.000
 5128.00    1.00580   0.98169   -1.000
 5129.00    1.00154   0.98206   -1.000
 5130.00    1.01107   0.98589   -1.000
 5131.00    1.01807   0.99186   -1.000
 5132.00    1.02665   0.99736   -1.000
 5133.00    1.02379   1.00157   -1.000
 5134.00    1.02388   1.00472   -1.000
 5135.00    1.02687   1.00542   -1.000
 5136.00    1.02063   1.00135   -1.000
 5137.00    1.00350   0.99251   -1.000
 5138.00    0.99684   0.98271   -1.000
 5139.00    0.99127   0.97685   -1.000
 5140.00    0.99393   0.97659   -1.000
 5141.00    0.99895   0.97896   -1.000
 5142.00    0.99866   0.98093   -1.000
 5143.00    0.99920   0.98380   -1.000
 5144.00    1.00997   0.98878   -1.000
 5145.00    1.01481   0.99283   -1.000
 5146.00    1.01239   0.99323   -1.000
 5147.00    1.00782   0.99185   -1.000
 5148.00    1.00932   0.99117   -1.000
 5149.00    1.01787   0.99012   -1.000
 5150.00    1.00938   0.98627   -1.000
 5151.00    0.99812   0.98036   -1.000
 5152.00    1.00061   0.97614   -1.000
 5153.00    1.00610   0.97623   -1.000
 5154.00    1.01165   0.98082   -1.000
 5155.00    1.01897   0.98953   -1.000
 5156.00    1.03107   1.00052   -1.000
 5157.00    1.03913   1.01017   -1.000
 5158.00    1.04205   1.01600   -1.000
 5159.00    1.04230   1.01789   -1.000
 5160.00    1.03548   1.01659   -1.000
 5161.00    1.03167   1.01272   -1.000
 5162.00    1.02877   1.00694   -1.000
 5163.00    1.03002   0.99840   -1.000
 5164.00    1.02175   0.98199   -1.000
 5165.00    0.98804   0.95125   -1.000
 5166.00    0.93375   0.90880   -1.000
 5167.00    0.90309   0.87171   -1.000
 5168.00    0.89992   0.85867   -1.000
 5169.00    0.93057   0.86961   -1.000
 5170.00    0.95091   0.88405   -1.000
 5171.00    0.94090   0.88391   -1.000
 5172.00    0.91277   0.87651   -1.000
 5173.00    0.92072   0.88434   -1.000
 5174.00    0.96581   0.91590   -1.000
 5175.00    1.01200   0.95617   -1.000
 5176.00    1.03644   0.98616   -1.000
 5177.00    1.03985   1.00115   -1.000
 5178.00    1.03436   1.00601   -1.000
 5179.00    1.03530   1.00350   -1.000
 5180.00    1.03284   0.99045   -1.000
 5181.00    1.00540   0.96209   -1.000
 5182.00    0.96423   0.92214   -1.000
 5183.00    0.92171   0.88841   -1.000
 5184.00    0.92369   0.88199   -1.000
 5185.00    0.96675   0.90619   -1.000
 5186.00    1.00458   0.94089   -1.000
 5187.00    1.01242   0.96490   -1.000
 5188.00    1.01400   0.97420   -1.000
 5189.00    1.01520   0.97527   -1.000
 5190.00    1.01001   0.97166   -1.000
 5191.00    0.99545   0.96359   -1.000
 5192.00    0.97896   0.95546   -1.000
 5193.00    0.97934   0.95341   -1.000
 5194.00    0.98974   0.95740   -1.000
 5195.00    0.99632   0.96286   -1.000
 5196.00    1.00405   0.96805   -1.000
 5197.00    1.01709   0.97445   -1.000
 5198.00    1.02479   0.98269   -1.000
 5199.00    1.02597   0.99100   -1.000
 5200.00    1.02654   0.99611   -1.000
 5201.00    1.02322   0.99528   -1.000
 5202.00    1.01990   0.98726   -1.000
 5203.00    1.01028   0.97277   -1.000
 5204.00    0.98809   0.95531   -1.000
 5205.00    0.97534   0.94106   -1.000
 5206.00    0.97421   0.93440   -1.000
 5207.00    0.97702   0.93397   -1.000
 5208.00    0.98044   0.93638   -1.000
 5209.00    0.99028   0.94267   -1.000
 5210.00    1.00538   0.95607   -1.000
 5211.00    1.01825   0.97447   -1.000
 5212.00    1.03397   0.99076   -1.000
 5213.00    1.04379   0.99851   -1.000
 5214.00    1.03119   0.99543   -1.000
 5215.00    1.01777   0.98571   -1.000
 5216.00    1.00444   0.97815   -1.000
 5217.00    1.00836   0.97973   -1.000
 5218.00    1.02520   0.99006   -1.000
 5219.00    1.04041   1.00301   -1.000
 5220.00    1.04544   1.01273   -1.000
 5221.00    1.04671   1.01681   -1.000
 5222.00    1.04805   1.01453   -1.000
 5223.00    1.03439   1.00429   -1.000
 5224.00    1.01311   0.98441   -1.000
 5225.00    0.98579   0.95722   -1.000
 5226.00    0.96283   0.93332   -1.000
 5227.00    0.95588   0.92689   -1.000
 5228.00    0.98195   0.94181   -1.000
 5229.00    1.01453   0.96592   -1.000
 5230.00    1.02770   0.98290   -1.000
 5231.00    1.02446   0.98566   -1.000
 5232.00    1.01870   0.97796   -1.000
 5233.00    1.01130   0.96892   -1.000
 5234.00    1.00946   0.96746   -1.000
 5235.00    1.01945   0.97610   -1.000
 5236.00    1.03307   0.98983   -1.000
 5237.00    1.04316   1.00192   -1.000
 5238.00    1.04399   1.00890   -1.000
 5239.00    1.04335   1.01142   -1.000
 5240.00    1.04754   1.01176   -1.000
 5241.00    1.04594   1.01142   -1.000
 5242.00    1.04315   1.01122   -1.000
 5243.00    1.04464   1.01188   -1.000
 5244.00    1.04068   1.01265   -1.000
 5245.00    1.04037   1.01053   -1.000
 5246.00    1.03614   1.00366   -1.000
 5247.00    1.01923   0.99472   -1.000
 5248.00    1.01093   0.98770   -1.000
 5249.00    1.00832   0.98359   -1.000
 5250.00    0.99962   0.98180   -1.000
 5251.00    1.00011   0.98279   -1.000
 5252.00    1.01561   0.98589   -1.000
 5253.00    1.02400   0.98828   -1.000
 5254.00    1.01907   0.98904   -1.000
 5255.00    1.02786   0.99145   -1.000
 5256.00    1.03429   0.99864   -1.000
 5257.00    1.04262   1.00860   -1.000
 5258.00    1.04805   1.01539   -1.000
 5259.00    1.04043   1.01415   -1.000
 5260.00    1.02752   1.00332   -1.000
 5261.00    1.01058   0.98462   -1.000
 5262.00    0.99151   0.96258   -1.000
 5263.00    0.97432   0.94247   -1.000
 5264.00    0.97081   0.92827   -1.000
 5265.00    0.96836   0.92242   -1.000
 5266.00    0.97236   0.92365   -1.000
 5267.00    0.98332   0.92512   -1.000
 5268.00    0.97492   0.91916   -1.000
 5269.00    0.94855   0.90828   -1.000
 5270.00    0.94486   0.90607   -1.000
 5271.00    0.97009   0.92084   -1.000
 5272.00    1.00715   0.94366   -1.000
 5273.00    1.01250   0.95943   -1.000
 5274.00    1.00964   0.96462   -1.000
 5275.00    1.01184   0.96685   -1.000
 5276.00    1.01726   0.97412   -1.000
 5277.00    1.02773   0.98734   -1.000
 5278.00    1.04575   0.99979   -1.000
 5279.00    1.04187   1.00396   -1.000
 5280.00    1.03250   0.99833   -1.000
 5281.00    1.02369   0.98709   -1.000
 5282.00    1.01190   0.97609   -1.000
 5283.00    1.00307   0.97091   -1.000
 5284.00    1.00697   0.97578   -1.000
 5285.00    1.02444   0.98995   -1.000
 5286.00    1.03783   1.00655   -1.000
 5287.00    1.04913   1.01805   -1.000
 5288.00    1.05402   1.02301   -1.000
 5289.00    1.05368   1.02470   -1.000
 5290.00    1.05348   1.02519   -1.000
 5291.00    1.04751   1.02432   -1.000
 5292.00    1.04298   1.02228   -1.000
 5293.00    1.04517   1.01961   -1.000
 5294.00    1.04044   1.01505   -1.000
 5295.00    1.02921   1.00629   -1.000
 5296.00    1.02063   0.99336   -1.000
 5297.00    1.01260   0.98091   -1.000
 5298.00    1.00936   0.97539   -1.000
 5299.00    1.01614   0.97852   -1.000
 5300.00    1.02076   0.98573   -1.000
 5301.00    1.02605   0.99219   -1.000
 5302.00    1.02854   0.99777   -1.000
 5303.00    1.02744   1.00451   -1.000
 5304.00    1.03440   1.01144   -1.000
 5305.00    1.04015   1.01510   -1.000
 5306.00    1.03627   1.01460   -1.000
 5307.00    1.03389   1.01289   -1.000
 5308.00    1.03541   1.01349   -1.000
 5309.00    1.04577   1.01687   -1.000
 5310.00    1.05099   1.02043   -1.000
 5311.00    1.05153   1.02163   -1.000
 5312.00    1.04387   1.01993   -1.000
 5313.00    1.04236   1.01545   -1.000
 5314.00    1.03764   1.00793   -1.000
 5315.00    1.03046   0.99828   -1.000
 5316.00    1.01967   0.99036   -1.000
 5317.00    1.02181   0.98910   -1.000
 5318.00    1.03261   0.99522   -1.000
 5319.00    1.03492   1.00358   -1.000
 5320.00    1.03662   1.00824   -1.000
 5321.00    1.03723   1.00638   -1.000
 5322.00    1.02823   0.99848   -1.000
 5323.00    1.01289   0.98766   -1.000
 5324.00    1.00580   0.97792   -1.000
 5325.00    1.00727   0.96896   -1.000
 5326.00    1.00071   0.95545   -1.000
 5327.00    0.97276   0.93666   -1.000
 5328.00    0.95045   0.92375   -1.000
 5329.00    0.96872   0.92969   -1.000
 5330.00    1.00633   0.95242   -1.000
 5331.00    1.02530   0.97628   -1.000
 5332.00    1.02556   0.99026   -1.000
 5333.00    1.02745   0.99560   -1.000
 5334.00    1.03232   0.99743   -1.000
 5335.00    1.03540   0.99750   -1.000
 5336.00    1.02950   0.99560   -1.000
 5337.00    1.02070   0.99193   -1.000
 5338.00    1.02023   0.98616   -1.000
 5339.00    1.01052   0.97833   -1.000
 5340.00    1.00104   0.97192   -1.000
 5341.00    0.99946   0.97243   -1.000
 5342.00    1.01391   0.98070   -1.000
 5343.00    1.03211   0.99050   -1.000
 5344.00    1.03289   0.99526   -1.000
 5345.00    1.02337   0.99407   -1.000
 5346.00    1.02281   0.98997   -1.000
 5347.00    1.02213   0.98588   -1.000
 5348.00    1.02014   0.98346   -1.000
 5349.00    1.01936   0.98408   -1.000
 5350.00    1.02620   0.98886   -1.000
 5351.00    1.03358   0.99626   -1.000
 5352.00    1.03755   1.00307   -1.000
 5353.00    1.03440   1.00802   -1.000
 5354.00    1.03987   1.01238   -1.000
 5355.00    1.04747   1.01710   -1.000
 5356.00    1.04894   1.02100   -1.000
 5357.00    1.04485   1.02278   -1.000
 5358.00    1.04631   1.02245   -1.000
 5359.00    1.05294   1.02016   -1.000
 5360.00    1.04586   1.01554   -1.000
 5361.00    1.03676   1.00852   -1.000
 5362.00    1.02758   1.00032   -1.000
 5363.00    1.02696   0.99292   -1.000
 5364.00    1.02469   0.98776   -1.000
 5365.00    1.01848   0.98547   -1.000
 5366.00    1.02051   0.98528   -1.000
 5367.00    1.02826   0.98438   -1.000
 5368.00    1.02074   0.97930   -1.000
 5369.00    1.00191   0.96873   -1.000
 5370.00    0.98886   0.95642   -1.000
 5371.00    0.98712   0.95074   -1.000
 5372.00    1.00234   0.95818   -1.000
 5373.00    1.02021   0.97595   -1.000
 5374.00    1.03719   0.99429   -1.000
 5375.00    1.04797   1.00575   -1.000
 5376.00    1.04937   1.00983   -1.000
 5377.00    1.05064   1.00989   -1.000
 5378.00    1.04625   1.00807   -1.000
 5379.00    1.03658   1.00433   -1.000
 5380.00    1.03392   0.99886   -1.000
 5381.00    1.02385   0.99340   -1.000
 5382.00    1.02206   0.99007   -1.000
 5383.00    1.02642   0.99018   -1.000
 5384.00    1.02939   0.99380   -1.000
 5385.00    1.03712   0.99964   -1.000
 5386.00    1.04505   1.00485   -1.000
 5387.00    1.04029   1.00659   -1.000
 5388.00    1.03589   1.00398   -1.000
 5389.00    1.03903   0.99825   -1.000
 5390.00    1.03350   0.99166   -1.000
 5391.00    1.02792   0.98597   -1.000
 5392.00    1.01977   0.98174   -1.000
 5393.00    1.01252   0.97887   -1.000
 5394.00    1.00896   0.97576   -1.000
 5395.00    1.00584   0.96953   -1.000
 5396.00    0.99791   0.96061   -1.000
 5397.00    0.98901   0.95529   -1.000
 5398.00    1.00465   0.95926   -1.000
 5399.00    1.02290   0.97016   -1.000
 5400.00    1.02820   0.98053   -1.000
 5401.00    1.03558   0.98481   -1.000
 5402.00    1.02798   0.98096   -1.000
 5403.00    1.01184   0.96909   -1.000
 5404.00    0.99090   0.95331   -1.000
 5405.00    0.97915   0.94217   -1.000
 5406.00    0.98674   0.94212   -1.000
 5407.00    1.00314   0.95055   -1.000
 5408.00    1.00911   0.95852   -1.000
 5409.00    1.00430   0.96133   -1.000
 5410.00    1.00348   0.96306   -1.000
 5411.00    1.01358   0.96904   -1.000
 5412.00    1.02836   0.97759   -1.000
 5413.00    1.03031   0.98317   -1.000
 5414.00    1.02032   0.98460   -1.000
 5415.00    1.01913   0.98553   -1.000
 5416.00    1.02469   0.98869   -1.000
 5417.00    1.02735   0.99262   -1.000
 5418.00    1.03144   0.99459   -1.000
 5419.00    1.03024   0.99435   -1.000
 5420.00    1.02876   0.99309   -1.000
 5421.00    1.02622   0.99099   -1.000
 5422.00    1.02621   0.98724   -1.000
 5423.00    1.02383   0.98231   -1.000
 5424.00    1.01167   0.97936   -1.000
 5425.00    1.01815   0.98175   -1.000
 5426.00    1.03335   0.98744   -1.000
 5427.00    1.03415   0.98887   -1.000
 5428.00    1.01533   0.98155   -1.000
 5429.00    0.99580   0.97087   -1.000
 5430.00    0.99390   0.96594   -1.000
 5431.00    1.00292   0.96801   -1.000
 5432.00    1.00618   0.96985   -1.000
 5433.00    0.99698   0.96640   -1.000
 5434.00    0.99237   0.96144   -1.000
 5435.00    0.99295   0.96261   -1.000
 5436.00    1.01151   0.97226   -1.000
 5437.00    1.02345   0.98610   -1.000
 5438.00    1.03559   0.99840   -1.000
 5439.00    1.04514   1.00618   -1.000
 5440.00    1.03824   1.00987   -1.000
 5441.00    1.03493   1.01095   -1.000
 5442.00    1.03817   1.00939   -1.000
 5443.00    1.03016   1.00322   -1.000
 5444.00    1.01416   0.99044   -1.000
 5445.00    0.99931   0.97286   -1.000
 5446.00    0.98730   0.95802   -1.000
 5447.00    0.98356   0.95465   -1.000
 5448.00    1.00209   0.96449   -1.000
 5449.00    1.02442   0.98039   -1.000
 5450.00    1.03228   0.99311   -1.000
 5451.00    1.03439   0.99816   -1.000
 5452.00    1.03288   0.99515   -1.000
 5453.00    1.02443   0.98491   -1.000
 5454.00    1.00260   0.97067   -1.000
 5455.00    0.98535   0.96004   -1.000
 5456.00    0.99247   0.96114   -1.000
 5457.00    1.01698   0.97410   -1.000
 5458.00    1.03412   0.99002   -1.000
 5459.00    1.03482   0.99964   -1.000
 5460.00    1.03023   1.00030   -1.000
 5461.00    1.01947   0.99443   -1.000
 5462.00    1.01873   0.98641   -1.000
 5463.00    1.01724   0.98113   -1.000
 5464.00    1.02284   0.98156   -1.000
 5465.00    1.02253   0.98621   -1.000
 5466.00    1.02489   0.99128   -1.000
 5467.00    1.02655   0.99479   -1.000
 5468.00    1.03193   0.99706   -1.000
 5469.00    1.02843   0.99831   -1.000
 5470.00    1.02889   0.99783   -1.000
 5471.00    1.02736   0.99515   -1.000
 5472.00    1.02638   0.99093   -1.000
 5473.00    1.02372   0.98515   -1.000
 5474.00    1.01579   0.97674   -1.000
 5475.00    1.00047   0.96578   -1.000
 5476.00    0.98490   0.95647   -1.000
 5477.00    0.98785   0.95520   -1.000
 5478.00    0.99879   0.96340   -1.000
 5479.00    1.02003   0.97416   -1.000
 5480.00    1.01769   0.98009   -1.000
 5481.00    1.01241   0.98111   -1.000
 5482.00    1.01223   0.98222   -1.000
 5483.00    1.01484   0.98648   -1.000
 5484.00    1.02565   0.99243   -1.000
 5485.00    1.02522   0.99625   -1.000
 5486.00    1.02381   0.99565   -1.000
 5487.00    1.02089   0.99193   -1.000
 5488.00    1.01879   0.98844   -1.000
 5489.00    1.02221   0.98754   -1.000
 5490.00    1.02614   0.98906   -1.000
 5491.00    1.02199   0.99140   -1.000
 5492.00    1.02281   0.99307   -1.000
 5493.00    1.02421   0.99327   -1.000
 5494.00    1.02381   0.99189   -1.000
 5495.00    1.02317   0.98867   -1.000
 5496.00    1.01441   0.98397   -1.000
 5497.00    1.00445   0.98032   -1.000
 5498.00    1.01075   0.98016   -1.000
 5499.00    1.01533   0.98171   -1.000
 5500.00    1.00827   0.98063   -1.000
 5501.00    1.00226   0.97653   -1.000
 5502.00    1.00219   0.97388   -1.000
 5503.00    1.01099   0.97517   -1.000
 5504.00    1.01259   0.97671   -1.000
 5505.00    1.00894   0.97429   -1.000
 5506.00    1.00059   0.96966   -1.000
 5507.00    0.99926   0.96833   -1.000
 5508.00    1.00265   0.97238   -1.000
 5509.00    1.01555   0.97785   -1.000
 5510.00    1.01806   0.97954   -1.000
 5511.00    1.00753   0.97671   -1.000
 5512.00    1.00435   0.97239   -1.000
 5513.00    1.00980   0.97007   -1.000
 5514.00    1.01174   0.97148   -1.000
 5515.00    1.01351   0.97610   -1.000
 5516.00    1.02407   0.98234   -1.000
 5517.00    1.02852   0.98867   -1.000
 5518.00    1.03568   0.99382   -1.000
 5519.00    1.02443   0.99663   -1.000
 5520.00    1.02206   0.99697   -1.000
 5521.00    1.02291   0.99612   -1.000
 5522.00    1.03055   0.99538   -1.000
 5523.00    1.02530   0.99413   -1.000
 5524.00    1.02358   0.99001   -1.000
 5525.00    1.01262   0.98094   -1.000
 5526.00    1.00058   0.96780   -1.000
 5527.00    0.98911   0.95584   -1.000
 5528.00    0.98321   0.95165   -1.000
 5529.00    0.99352   0.95780   -1.000
 5530.00    1.01246   0.96994   -1.000
 5531.00    1.01881   0.98010   -1.000
 5532.00    1.01581   0.98329   -1.000
 5533.00    1.01012   0.98039   -1.000
 5534.00    1.00532   0.97615   -1.000
 5535.00    1.00724   0.97519   -1.000
 5536.00    1.00963   0.97871   -1.000
 5537.00    1.02369   0.98421   -1.000
 5538.00    1.02268   0.98893   -1.000
 5539.00    1.01631   0.99219   -1.000
 5540.00    1.02091   0.99411   -1.000
 5541.00    1.01913   0.99420   -1.000
 5542.00    1.01537   0.99205   -1.000
 5543.00    1.01681   0.98883   -1.000
 5544.00    1.01933   0.98669   -1.000
 5545.00    1.01942   0.98675   -1.000
 5546.00    1.01842   0.98862   -1.000
 5547.00    1.01861   0.99178   -1.000
 5548.00    1.02296   0.99582   -1.000
 5549.00    1.02613   0.99934   -1.000
 5550.00    1.02628   1.00064   -1.000
 5551.00    1.02068   0.99946   -1.000
 5552.00    1.02036   0.99685   -1.000
 5553.00    1.01982   0.99409   -1.000
 5554.00    1.01656   0.99219   -1.000
 5555.00    1.01668   0.99184   -1.000
 5556.00    1.01618   0.99267   -1.000
 5557.00    1.01951   0.99365   -1.000
 5558.00    1.02146   0.99425   -1.000
 5559.00    1.01752   0.99449   -1.000
 5560.00    1.01945   0.99379   -1.000
 5561.00    1.02316   0.99142   -1.000
 5562.00    1.01813   0.98807   -1.000
 5563.00    1.00819   0.98538   -1.000
 5564.00    1.00722   0.98399   -1.000
 5565.00    1.01079   0.98303   -1.000
 5566.00    1.00993   0.98154   -1.000
 5567.00    1.00533   0.97955   -1.000
 5568.00    0.99956   0.97753   -1.000
 5569.00    0.99319   0.97598   -1.000
 5570.00    0.99331   0.97485   -1.000
 5571.00    0.99601   0.97305   -1.000
 5572.00    0.99587   0.97084   -1.000
 5573.00    1.00001   0.97058   -1.000
 5574.00    1.00789   0.97327   -1.000
 5575.00    1.03015   0.97718   -1.000
 5576.00    1.11616   0.98046   -1.000
 5577.00    1.18627   0.98311   -1.000
 5578.00    1.09525   0.98549   -1.000
 5579.00    0.89826   0.98704   -1.000
 5580.00    0.82057   0.98693   -1.000
 5581.00    0.89932   0.98565   -1.000
 5582.00    0.97559   0.98464  278.560
 5583.00    0.99798   0.98357   -1.000
 5584.00    1.00397   0.97954   -1.000
 5585.00    0.99823   0.97020   -1.000
 5586.00    0.98204   0.95731   -1.000
 5587.00    0.96788   0.94604   -1.000
 5588.00    0.96576   0.94109   -1.000
 5589.00    0.97668   0.94371   -1.000
 5590.00    0.98743   0.95153   -1.000
 5591.00    0.99049   0.95996   -1.000
 5592.00    0.99624   0.96489   -1.000
 5593.00    0.99728   0.96614   -1.000
 5594.00    0.99399   0.96710   -1.000
 5595.00    0.99941   0.97006   -1.000
 5596.00    1.00306   0.97268   -1.000
 5597.00    1.00379   0.97146   -1.000
 5598.00    0.99271   0.96711   -1.000
 5599.00    0.98849   0.96250   -1.000
 5600.00    0.99230   0.95820   -1.000
 5601.00    0.98524   0.95450   -1.000
 5602.00    0.97950   0.95462   -1.000
 5603.00    0.98492   0.96141   -1.000
 5604.00    1.00252   0.97325   -1.000
 5605.00    1.01395   0.98534   -1.000
 5606.00    1.01790   0.99368   -1.000
 5607.00    1.01491   0.99768   -1.000
 5608.00    1.01538   0.99914   -1.000
 5609.00    1.01643   0.99992   -1.000
 5610.00    1.01625   1.00072   -1.000
 5611.00    1.01757   1.00032   -1.000
 5612.00    1.01881   0.99590   -1.000
 5613.00    1.01094   0.98525   -1.000
 5614.00    0.99342   0.97081   -1.000
 5615.00    0.97655   0.96021   -1.000
 5616.00    0.97710   0.95999   -1.000
 5617.00    0.98936   0.96848   -1.000
 5618.00    1.00442   0.97828   -1.000
 5619.00    1.00886   0.98447   -1.000
 5620.00    1.00982   0.98735   -1.000
 5621.00    1.01320   0.98804   -1.000
 5622.00    1.00937   0.98598   -1.000
 5623.00    1.00327   0.98107   -1.000
 5624.00    0.99309   0.97607   -1.000
 5625.00    0.98995   0.97483   -1.000
 5626.00    0.99873   0.97823   -1.000
 5627.00    1.00468   0.98362   -1.000
 5628.00    1.01012   0.98818   -1.000
 5629.00    1.01576   0.99105   -1.000
 5630.00    1.01627   0.99262   -1.000
 5631.00    1.01397   0.99323   -1.000
 5632.00    1.01373   0.99286   -1.000
 5633.00    1.01281   0.99147   -1.000
 5634.00    1.01068   0.98927   -1.000
 5635.00    1.00824   0.98652   -1.000
 5636.00    1.00554   0.98360   -1.000
 5637.00    1.00979   0.98127   -1.000
 5638.00    1.00917   0.97986   -1.000
 5639.00    1.00120   0.97879   -1.000
 5640.00    0.99941   0.97742   -1.000
 5641.00    0.99978   0.97639   -1.000
 5642.00    1.00342   0.97701   -1.000
 5643.00    1.00897   0.97924   -1.000
 5644.00    1.00735   0.98177   -1.000
 5645.00    1.00840   0.98375   -1.000
 5646.00    1.00781   0.98499   -1.000
 5647.00    1.01169   0.98544   -1.000
 5648.00    1.01408   0.98514   -1.000
 5649.00    1.01005   0.98447   -1.000
 5650.00    1.00827   0.98425   -1.000
 5651.00    1.01002   0.98480   -1.000
 5652.00    1.01459   0.98514   -1.000
 5653.00    1.01203   0.98409   -1.000
 5654.00    1.00646   0.98108   -1.000
 5655.00    1.00292   0.97528   -1.000
 5656.00    1.00249   0.96599   -1.000
 5657.00    0.98500   0.95533   -1.000
 5658.00    0.97521   0.94892   -1.000
 5659.00    0.97747   0.95051   -1.000
 5660.00    0.99182   0.95712   -1.000
 5661.00    0.99537   0.96300   -1.000
 5662.00    0.99405   0.96683   -1.000
 5663.00    0.99765   0.97126   -1.000
 5664.00    1.00515   0.97648   -1.000
 5665.00    1.00611   0.97914   -1.000
 5666.00    1.00186   0.97745   -1.000
 5667.00    0.99696   0.97373   -1.000
 5668.00    0.99412   0.97169   -1.000
 5669.00    0.99904   0.97290   -1.000
 5670.00    1.00081   0.97644   -1.000
 5671.00    1.00199   0.98070   -1.000
 5672.00    1.00849   0.98438   -1.000
 5673.00    1.01048   0.98666   -1.000
 5674.00    1.00474   0.98751   -1.000
 5675.00    1.00708   0.98775   -1.000
 5676.00    1.01002   0.98816   -1.000
 5677.00    1.00717   0.98840   -1.000
 5678.00    1.00420   0.98744   -1.000
 5679.00    1.00462   0.98485   -1.000
 5680.00    1.00439   0.98068   -1.000
 5681.00    0.99810   0.97506   -1.000
 5682.00    0.99814   0.96916   -1.000
 5683.00    0.99798   0.96527   -1.000
 5684.00    0.99510   0.96480   -1.000
 5685.00    0.99354   0.96655   -1.000
 5686.00    0.99141   0.96800   -1.000
 5687.00    0.99563   0.96798   -1.000
 5688.00    0.99163   0.96771   -1.000
 5689.00    0.99407   0.96904   -1.000
 5690.00    1.00213   0.97254   -1.000
 5691.00    1.00830   0.97711   -1.000
 5692.00    1.00691   0.98102   -1.000
 5693.00    1.00129   0.98334   -1.000
 5694.00    1.00255   0.98428   -1.000
 5695.00    1.00608   0.98442   -1.000
 5696.00    1.00447   0.98386   -1.000
 5697.00    1.00629   0.98210   -1.000
 5698.00    1.00559   0.97874   -1.000
 5699.00    0.99735   0.97427   -1.000
 5700.00    0.98948   0.97010   -1.000
 5701.00    0.98803   0.96776   -1.000
 5702.00    0.99082   0.96818   -1.000
 5703.00    0.99379   0.97048   -1.000
 5704.00    0.99897   0.97198   -1.000
 5705.00    0.99533   0.97040   -1.000
 5706.00    0.99136   0.96562   -1.000
 5707.00    0.98352   0.95881   -1.000
 5708.00    0.97262   0.95156   -1.000
 5709.00    0.96496   0.94617   -1.000
 5710.00    0.96993   0.94503   -1.000
 5711.00    0.97405   0.94903   -1.000
 5712.00    0.98405   0.95674   -1.000
 5713.00    0.99574   0.96521   -1.000
 5714.00    1.00128   0.97183   -1.000
 5715.00    1.00206   0.97588   -1.000
 5716.00    1.00031   0.97829   -1.000
 5717.00    1.00187   0.98010   -1.000
 5718.00    1.00013   0.98190   -1.000
 5719.00    1.00226   0.98399   -1.000
 5720.00    1.00589   0.98608   -1.000
 5721.00    1.00334   0.98766   -1.000
 5722.00    1.00478   0.98861   -1.000
 5723.00    1.00627   0.98891   -1.000
 5724.00    1.00453   0.98805   -1.000
 5725.00    1.00273   0.98558   -1.000
 5726.00    0.99580   0.98217   -1.000
 5727.00    0.99191   0.97951   -1.000
 5728.00    0.99596   0.97860   -1.000
 5729.00    1.00034   0.97893   -1.000
 5730.00    1.00562   0.97948   -1.000
 5731.00    1.00423   0.97985   -1.000
 5732.00    1.00097   0.98081   -1.000
 5733.00    1.00940   0.98301   -1.000
 5734.00    1.01222   0.98545   -1.000
 5735.00    1.00656   0.98657   -1.000
 5736.00    1.00812   0.98631   -1.000
 5737.00    1.00542   0.98572   -1.000
 5738.00    0.99696   0.98542   -1.000
 5739.00    0.99679   0.98539   -1.000
 5740.00    1.00190   0.98526   -1.000
 5741.00    1.00512   0.98472   -1.000
 5742.00    1.00170   0.98411   -1.000
 5743.00    1.00365   0.98423   -1.000
 5744.00    1.00448   0.98498   -1.000
 5745.00    1.00356   0.98513   -1.000
 5746.00    1.00093   0.98388   -1.000
 5747.00    0.99373   0.98213   -1.000
 5748.00    0.99451   0.98158   -1.000
 5749.00    0.99906   0.98235   -1.000
 5750.00    0.99978   0.98232   -1.000
 5751.00    0.98827   0.97940  275.101
 5752.00    0.98851   0.97423   -1.000
 5753.00    0.98394   0.97013   -1.000
 5754.00    0.98861   0.97028   -1.000
 5755.00    0.99329   0.97481   -1.000
 5756.00    1.00008   0.98103   -1.000
 5757.00    0.99891   0.98603   -1.000
 5758.00    1.00198   0.98799   -1.000
 5759.00    1.00500   0.98629   -1.000
 5760.00    1.00034   0.98173   -1.000
 5761.00    0.99555   0.97656   -1.000
 5762.00    0.98975   0.97371   -1.000
 5763.00    0.98598   0.97543   -1.000
 5764.00    0.99156   0.98092   -1.000
 5765.00    0.99736   0.98661   -1.000
 5766.00    1.00197   0.98970   -1.000
 5767.00    1.00248   0.99016   -1.000
 5768.00    1.00514   0.98920   -1.000
 5769.00    1.00222   0.98775   -1.000
 5770.00    1.00110   0.98615   -1.000
 5771.00    1.00203   0.98453   -1.000
 5772.00    1.00028   0.98283   -1.000
 5773.00    0.99787   0.98098   -1.000
 5774.00    0.99669   0.97925   -1.000
 5775.00    0.99461   0.97835   -1.000
 5776.00    0.99257   0.97839   -1.000
 5777.00    0.99226   0.97787   -1.000
 5778.00    0.99078   0.97521   -1.000
 5779.00    0.98313   0.97049   -1.000
 5780.00    0.98272   0.96514   -1.000
 5781.00    0.98610   0.96098   -1.000
 5782.00    0.98431   0.95920   -1.000
 5783.00    0.98651   0.95945   -1.000
 5784.00    0.98994   0.96066   -1.000
 5785.00    0.99335   0.96245   -1.000
 5786.00    0.99513   0.96505   -1.000
 5787.00    0.99944   0.96820   -1.000
 5788.00    1.00211   0.97089   -1.000
 5789.00    0.99937   0.97213   -1.000
 5790.00    0.99733   0.97205   -1.000
 5791.00    0.99765   0.97214   -1.000
 5792.00    1.00072   0.97400   -1.000
 5793.00    0.99809   0.97752   -1.000
 5794.00    0.99628   0.98102   -1.000
 5795.00    0.99668   0.98264   -1.000
 5796.00    0.99628   0.98181   -1.000
 5797.00    0.99226   0.98002   -1.000
 5798.00    0.99652   0.97972   -1.000
 5799.00    1.00203   0.98173   -1.000
 5800.00    1.00750   0.98458   -1.000
 5801.00    1.00814   0.98642   -1.000
 5802.00    1.00594   0.98635   -1.000
 5803.00    1.00422   0.98455   -1.000
 5804.00    1.00012   0.98227   -1.000
 5805.00    0.99827   0.98107   -1.000
 5806.00    0.99723   0.98154   -1.000
 5807.00    1.00117   0.98309   -1.000
 5808.00    1.00288   0.98470   -1.000
 5809.00    1.00125   0.98590   -1.000
 5810.00    1.00243   0.98687   -1.000
 5811.00    1.00620   0.98757   -1.000
 5812.00    1.00649   0.98743   -1.000
 5813.00    1.01015   0.98593   -1.000
 5814.00    1.00747   0.98333   -1.000
 5815.00    1.00544   0.98104   -1.000
 5816.00    1.00456   0.98078   -1.000
 5817.00    1.00657   0.98301   -1.000
 5818.00    1.00810   0.98629   -1.000
 5819.00    1.01079   0.98876   -1.000
 5820.00    1.01229   0.98982   -1.000
 5821.00    1.00857   0.99003   -1.000
 5822.00    1.00577   0.99000   -1.000
 5823.00    1.00927   0.98990   -1.000
 5824.00    1.01176   0.98977   -1.000
 5825.00    1.00917   0.98979   -1.000
 5826.00    1.01076   0.99013   -1.000
 5827.00    1.01409   0.99077   -1.000
 5828.00    1.00955   0.99153   -1.000
 5829.00    1.00434   0.99204   -1.000
 5830.00    1.00923   0.99192   -1.000
 5831.00    1.00929   0.99119   -1.000
 5832.00    1.00539   0.98995   -1.000
 5833.00    1.00823   0.98836   -1.000
 5834.00    1.00605   0.98701   -1.000
 5835.00    1.00498   0.98660   -1.000
 5836.00    1.01441   0.98727   -1.000
 5837.00    1.01712   0.98856   -1.000
 5838.00    1.01445   0.99004   -1.000
 5839.00    1.01390   0.99140   -1.000
 5840.00    1.00907   0.99227   -1.000
 5841.00    1.01288   0.99225   -1.000
 5842.00    1.01286   0.99115   -1.000
 5843.00    1.00790   0.98916   -1.000
 5844.00    1.00487   0.98676   -1.000
 5845.00    1.00699   0.98437   -1.000
 5846.00    1.00964   0.98243   -1.000
 5847.00    1.01162   0.98134   -1.000
 5848.00    1.00829   0.98098   -1.000
 5849.00    1.00069   0.98039   -1.000
 5850.00    1.00837   0.97832   -1.000
 5851.00    0.99545   0.97422   -1.000
 5852.00    0.99314   0.96910   -1.000
 5853.00    0.99328   0.96510   -1.000
 5854.00    0.99105   0.96287   -1.000
 5855.00    0.99288   0.96040   -1.000
 5856.00    0.99313   0.95610   -1.000
 5857.00    0.98149   0.95201   -1.000
 5858.00    0.98206   0.95170   -1.000
 5859.00    0.99473   0.95577   -1.000
 5860.00    0.99490   0.96151   -1.000
 5861.00    0.99946   0.96623   -1.000
 5862.00    1.00136   0.96934   -1.000
 5863.00    0.99806   0.97129   -1.000
 5864.00    0.99909   0.97187   -1.000
 5865.00    0.99815   0.97073   -1.000
 5866.00    0.99928   0.96910   -1.000
 5867.00    1.00244   0.96906   -1.000
 5868.00    0.99888   0.97118   -1.000
 5869.00    1.00123   0.97426   -1.000
 5870.00    1.00116   0.97670   -1.000
 5871.00    1.00376   0.97756   -1.000
 5872.00    1.00148   0.97685   -1.000
 5873.00    1.00377   0.97526   -1.000
 5874.00    1.00227   0.97341   -1.000
 5875.00    0.99901   0.97166   -1.000
 5876.00    0.99895   0.97015   -1.000
 5877.00    0.99934   0.96845   -1.000
 5878.00    0.99756   0.96607   -1.000
 5879.00    1.00133   0.96336   -1.000
 5880.00    0.99972   0.96105   -1.000
 5881.00    0.99181   0.95904   -1.000
 5882.00    0.98998   0.95657   -1.000
 5883.00    0.98736   0.95347   -1.000
 5884.00    0.98567   0.95022   -1.000
 5885.00    0.98313   0.94580   -1.000
 5886.00    0.97730   0.93582   -1.000
 5887.00    0.96317   0.91507   -1.000
 5888.00    0.93458   0.88546   -1.000
 5889.00    0.90650   0.85984   -1.000
 5890.00    0.90025   0.85233   -1.000
 5891.00    0.89731   0.86374   -1.000
 5892.00    0.88395   0.88032  312.039
 5893.00    0.89445   0.88696  306.655
 5894.00    0.91084   0.88013   -1.000
 5895.00    0.91058   0.86981   -1.000
 5896.00    0.91025   0.86946   -1.000
 5897.00    0.91285   0.88262   -1.000
 5898.00    0.92288   0.90176   -1.000
 5899.00    0.93906   0.91889   -1.000
 5900.00    0.96684   0.93164   -1.000
 5901.00    0.97996   0.94071   -1.000
 5902.00    0.97965   0.94692   -1.000
 5903.00    0.98385   0.95077   -1.000
 5904.00    0.99080   0.95292   -1.000
 5905.00    0.99280   0.95422   -1.000
 5906.00    0.99317   0.95533   -1.000
 5907.00    0.99107   0.95651   -1.000
 5908.00    0.99082   0.95775   -1.000
 5909.00    0.98623   0.95879   -1.000
 5910.00    0.98250   0.95899   -1.000
 5911.00    0.98817   0.95760   -1.000
 5912.00    0.99423   0.95420   -1.000
 5913.00    0.98415   0.94932   -1.000
 5914.00    0.97858   0.94485   -1.000
 5915.00    0.97410   0.94270   -1.000
 5916.00    0.97624   0.94328   -1.000
 5917.00    0.97595   0.94573   -1.000
 5918.00    0.97289   0.94890   -1.000
 5919.00    0.97270   0.95163   -1.000
 5920.00    0.97593   0.95320   -1.000
 5921.00    0.98343   0.95372   -1.000
 5922.00    0.97920   0.95385   -1.000
 5923.00    0.97775   0.95443   -1.000
 5924.00    0.98181   0.95595   -1.000
 5925.00    0.98805   0.95786   -1.000
 5926.00    0.99204   0.95897   -1.000
 5927.00    0.98569   0.95822   -1.000
 5928.00    0.98874   0.95561   -1.000
 5929.00    0.98300   0.95281   -1.000
 5930.00    0.97519   0.95198   -1.000
 5931.00    0.97943   0.95327   -1.000
 5932.00    0.98611   0.95484   -1.000
 5933.00    0.98321   0.95515   -1.000
 5934.00    0.97697   0.95458   -1.000
 5935.00    0.97644   0.95468   -1.000
 5936.00    0.98372   0.95600   -1.000
 5937.00    0.98288   0.95728   -1.000
 5938.00    0.98297   0.95696   -1.000
 5939.00    0.98322   0.95478   -1.000
 5940.00    0.97549   0.95187   -1.000
 5941.00    0.97087   0.94963   -1.000
 5942.00    0.97051   0.94886   -1.000
 5943.00    0.97434   0.94975   -1.000
 5944.00    0.97908   0.95159   -1.000
 5945.00    0.97611   0.95281   -1.000
 5946.00    0.97207   0.95216   -1.000
 5947.00    0.97535   0.95019   -1.000
 5948.00    0.97381   0.94887   -1.000
 5949.00    0.96522   0.94950   -1.000
 5950.00    0.96574   0.95114   -1.000
 5951.00    0.97120   0.95217   -1.000
 5952.00    0.97583   0.95229   -1.000
 5953.00    0.98012   0.95210   -1.000
 5954.00    0.98005   0.95168   -1.000
 5955.00    0.97629   0.95057   -1.000
 5956.00    0.96428   0.94925   -1.000
 5957.00    0.96331   0.94915   -1.000
 5958.00    0.97229   0.95099   -1.000
 5959.00    0.97919   0.95410   -1.000
 5960.00    0.97901   0.95725   -1.000
 5961.00    0.97926   0.95948   -1.000
 5962.00    0.98182   0.96025   -1.000
 5963.00    0.98067   0.95937   -1.000
 5964.00    0.97882   0.95729   -1.000
 5965.00    0.97665   0.95511   -1.000
 5966.00    0.97078   0.95399   -1.000
 5967.00    0.97148   0.95431   -1.000
 5968.00    0.97347   0.95556   -1.000
 5969.00    0.97786   0.95716   -1.000
 5970.00    0.98340   0.95873   -1.000
 5971.00    0.98219   0.95982   -1.000
 5972.00    0.97764   0.95996   -1.000
 5973.00    0.97554   0.95888   -1.000
 5974.00    0.97645   0.95641   -1.000
 5975.00    0.97021   0.95297   -1.000
 5976.00    0.96949   0.94994   -1.000
 5977.00    0.96994   0.94876   -1.000
 5978.00    0.97353   0.94989   -1.000
 5979.00    0.97747   0.95244   -1.000
 5980.00    0.97058   0.95451   -1.000
 5981.00    0.96903   0.95437   -1.000
 5982.00    0.97059   0.95171   -1.000
 5983.00    0.96503   0.94803   -1.000
 5984.00    0.96636   0.94564   -1.000
 5985.00    0.96660   0.94578   -1.000
 5986.00    0.96579   0.94785   -1.000
 5987.00    0.96980   0.95035   -1.000
 5988.00    0.96825   0.95212   -1.000
 5989.00    0.97082   0.95264   -1.000
 5990.00    0.97360   0.95234   -1.000
 5991.00    0.97244   0.95260   -1.000
 5992.00    0.97049   0.95445   -1.000
 5993.00    0.96950   0.95724   -1.000
 5994.00    0.97279   0.95900   -1.000
 5995.00    0.97580   0.95846   -1.000
 5996.00    0.97429   0.95627   -1.000
 5997.00    0.97803   0.95419   -1.000
 5998.00    0.97065   0.95348   -1.000
 5999.00    0.96573   0.95380   -1.000
 6000.00    0.96777   0.95383   -1.000
 6001.00    0.96916   0.95286   -1.000
 6002.00    0.96538   0.95143   -1.000
 6003.00    0.96346   0.95044   -1.000
 6004.00    0.96505   0.94979   -1.000
 6005.00    0.96420   0.94828   -1.000
 6006.00    0.95612   0.94541   -1.000
 6007.00    0.95559   0.94270   -1.000
 6008.00    0.95528   0.94255   -1.000
 6009.00    0.95395   0.94536  281.929
 6010.00    0.96396   0.94876   -1.000
 6011.00    0.96399   0.95019   -1.000
 6012.00    0.96125   0.94959   -1.000
 6013.00    0.96302   0.94878   -1.000
 6014.00    0.96347   0.94879   -1.000
 6015.00    0.96461   0.94897   -1.000
 6016.00    0.95903   0.94847   -1.000
 6017.00    0.96293   0.94726   -1.000
 6018.00    0.96460   0.94555   -1.000
 6019.00    0.95457   0.94365   -1.000
 6020.00    0.95192   0.94229   -1.000
 6021.00    0.94871   0.94196  284.169
 6022.00    0.94736   0.94252  282.199
 6023.00    0.95147   0.94383  281.739
 6024.00    0.95268   0.94597  281.378
 6025.00    0.95345   0.94869  279.539
 6026.00    0.95485   0.95126  278.831
 6027.00    0.96014   0.95330  276.933
 6028.00    0.95958   0.95487  275.814
 6029.00    0.96205   0.95604  275.505
 6030.00    0.96576   0.95689  275.616
 6031.00    0.96200   0.95757  276.320
 6032.00    0.96099   0.95819  275.683
 6033.00    0.96418   0.95892  274.394
 6034.00    0.96127   0.95986  273.767
 6035.00    0.96337   0.96056  273.697
 6036.00    0.96809   0.96025  273.130
 6037.00    0.96572   0.95872  273.530
 6038.00    0.96078   0.95647  275.222
 6039.00    0.95700   0.95403  275.645
 6040.00    0.95869   0.95152  276.584
 6041.00    0.95697   0.94849  275.818
 6042.00    0.95908   0.94553   -1.000
 6043.00    0.95834   0.94549   -1.000
 6044.00    0.95861   0.94963  271.708
 6045.00    0.95872   0.95498  272.128
 6046.00    0.96187   0.95835  272.136
 6047.00    0.96019   0.95953  271.643
 6048.00    0.96034   0.95942  271.996
 6049.00    0.95685   0.95865  273.015
 6050.00    0.95897   0.95771  273.577
 6051.00    0.95514   0.95679  273.794
 6052.00    0.95579   0.95567  274.354
 6053.00    0.95748   0.95410  275.539
 6054.00    0.95452   0.95216  276.339
 6055.00    0.95407   0.95040  277.964
 6056.00    0.95211   0.94953  278.714
 6057.00    0.95616   0.94981  278.120
 6058.00    0.96096   0.95087   -1.000
 6059.00    0.95982   0.95207  275.156
 6060.00    0.95875   0.95249  275.659
 6061.00    0.95845   0.95109  276.286
 6062.00    0.95702   0.94741   -1.000
 6063.00    0.96172   0.94227   -1.000
 6064.00    0.95367   0.93784   -1.000
 6065.00    0.90746   0.93680   -1.000
 6066.00    0.59366   0.94021   -1.000
 6067.00    0.76476   0.94610   -1.000
 6068.00    0.96333   0.95131   -1.000
 6069.00    0.96154   0.95443  276.186
 6070.00    0.99673   0.95601   -1.000
 6071.00    0.30546   0.95699   -1.000
 6072.00    0.55758   0.95774   -1.000
 6073.00    0.98650   0.95800   -1.000
 6074.00    0.95319   0.95730  273.213
 6075.00    0.95691   0.95546  274.212
 6076.00    0.95035   0.95286  275.678
 6077.00    0.94528   0.95025  277.265
 6078.00    0.94606   0.94836  279.482
 6079.00    0.95024   0.94738  281.135
 6080.00    0.94952   0.94668  281.150
 6081.00    0.94447   0.94558  281.438
 6082.00    0.94222   0.94424  282.299
 6083.00    0.94140   0.94345  282.191
 6084.00    0.93825   0.94357  281.981
 6085.00    0.93968   0.94439  281.673
 6086.00    0.94233   0.94562  280.806
 6087.00    0.94415   0.94683  279.648
 6088.00    0.94542   0.94726  280.359
 6089.00    0.94054   0.94640  282.152
 6090.00    0.93715   0.94473  283.286
 6091.00    0.93769   0.94353  283.029
 6092.00    0.93981   0.94377  281.069
 6093.00    0.94127   0.94538  279.727
 6094.00    0.94238   0.94757  278.113
 6095.00    0.94502   0.94963  276.947
 6096.00    0.94244   0.95132  277.160
 6097.00    0.94268   0.95248  277.894
 6098.00    0.94127   0.95227  278.018
 6099.00    0.93483   0.94916   -1.000
 6100.00    0.93377   0.94219  281.665
 6101.00    0.92630   0.93292  288.886
 6102.00    0.92140   0.92582  293.268
 6103.00    0.92106   0.92503  290.603
 6104.00    0.92830   0.93032  284.815
 6105.00    0.93560   0.93762  280.653
 6106.00    0.93417   0.94345  279.946
 6107.00    0.92979   0.94723   -1.000
 6108.00    0.93144   0.94981   -1.000
 6109.00    0.92911   0.95134   -1.000
 6110.00    0.92851   0.95148   -1.000
 6111.00    0.93172   0.95059   -1.000
 6112.00    0.93537   0.94979   -1.000
 6113.00    0.93216   0.94970   -1.000
 6114.00    0.93601   0.94994   -1.000
 6115.00    0.93947   0.94999  278.739
 6116.00    0.93901   0.94964  280.641
 6117.00    0.93272   0.94814   -1.000
 6118.00    0.92749   0.94396   -1.000
 6119.00    0.92351   0.93648   -1.000
 6120.00    0.91748   0.92718  290.352
 6121.00    0.90763   0.91961   -1.000
 6122.00    0.90777   0.91802  293.075
 6123.00    0.91130   0.92335   -1.000
 6124.00    0.91760   0.93149   -1.000
 6125.00    0.92168   0.93775   -1.000
 6126.00    0.92283   0.94038   -1.000
 6127.00    0.92606   0.94021   -1.000
 6128.00    0.92777   0.93968   -1.000
 6129.00    0.92330   0.94130   -1.000
 6130.00    0.92924   0.94504   -1.000
 6131.00    0.92744   0.94855   -1.000
 6132.00    0.92808   0.94939   -1.000
 6133.00    0.92009   0.94550   -1.000
 6134.00    0.91399   0.93548   -1.000
 6135.00    0.89982   0.92126   -1.000
 6136.00    0.88813   0.90923   -1.000
 6137.00    0.88235   0.90560   -1.000
 6138.00    0.88900   0.90994   -1.000
 6139.00    0.90426   0.91580   -1.000
 6140.00    0.90940   0.91871  286.692
 6141.00    0.91057   0.92061  287.449
 6142.00    0.90951   0.92511   -1.000
 6143.00    0.90995   0.93185   -1.000
 6144.00    0.91910   0.93741   -1.000
 6145.00    0.92583   0.93945   -1.000
 6146.00    0.92683   0.93826  282.502
 6147.00    0.92440   0.93551  284.331
 6148.00    0.91944   0.93299   -1.000
 6149.00    0.91424   0.93202   -1.000
 6150.00    0.91667   0.93290   -1.000
 6151.00    0.92047   0.93481   -1.000
 6152.00    0.91818   0.93627   -1.000
 6153.00    0.91948   0.93609   -1.000
 6154.00    0.91870   0.93431   -1.000
 6155.00    0.91460   0.93206   -1.000
 6156.00    0.91405   0.93021   -1.000
 6157.00    0.91508   0.92837   -1.000
 6158.00    0.91427   0.92480  293.186
 6159.00    0.90617   0.91707   -1.000
 6160.00    0.89423   0.90486   -1.000
 6161.00    0.88196   0.89259   -1.000
 6162.00    0.87594   0.88675   -1.000
 6163.00    0.88132   0.88967  314.451
 6164.00    0.89287   0.89769  305.469
 6165.00    0.90362   0.90537  301.167
 6166.00    0.90044   0.90957  300.109
 6167.00    0.89472   0.90961   -1.000
 6168.00    0.89618   0.90679  305.255
 6169.00    0.89445   0.90450  308.219
 6170.00    0.89194   0.90599   -1.000
 6171.00    0.90031   0.91115  299.282
 6172.00    0.90164   0.91713   -1.000
 6173.00    0.89937   0.92188   -1.000
 6174.00    0.90650   0.92514   -1.000
 6175.00    0.90597   0.92710   -1.000
 6176.00    0.90691   0.92808   -1.000
 6177.00    0.90799   0.92862   -1.000
 6178.00    0.90642   0.92899   -1.000
 6179.00    0.90917   0.92931   -1.000
 6180.00    0.91159   0.92999   -1.000
 6181.00    0.91351   0.93112   -1.000
 6182.00    0.91182   0.93210   -1.000
 6183.00    0.91283   0.93233   -1.000
 6184.00    0.91229   0.93163   -1.000
 6185.00    0.90672   0.92993   -1.000
 6186.00    0.90894   0.92731   -1.000
 6187.00    0.90795   0.92382   -1.000
 6188.00    0.89955   0.91895   -1.000
 6189.00    0.89461   0.91243   -1.000
 6190.00    0.88766   0.90617   -1.000
 6191.00    0.88367   0.90397   -1.000
 6192.00    0.88348   0.90783   -1.000
 6193.00    0.89547   0.91551   -1.000
 6194.00    0.90479   0.92295   -1.000
 6195.00    0.90774   0.92787   -1.000
 6196.00    0.90830   0.92988   -1.000
 6197.00    0.90748   0.92911   -1.000
 6198.00    0.89710   0.92641   -1.000
 6199.00    0.89326   0.92406   -1.000
 6200.00    0.89507   0.92433   -1.000
 6201.00    0.89353   0.92725   -1.000
 6202.00    0.90281   0.93100   -1.000
 6203.00    0.90203   0.93393   -1.000
 6204.00    0.90008   0.93555   -1.000
 6205.00    0.90044   0.93622   -1.000
 6206.00    0.90420   0.93643   -1.000
 6207.00    0.90364   0.93632   -1.000
 6208.00    0.90057   0.93565   -1.000
 6209.00    0.90044   0.93403   -1.000
 6210.00    0.90205   0.93108   -1.000
 6211.00    0.89379   0.92658   -1.000
 6212.00    0.89631   0.92098   -1.000
 6213.00    0.91108   0.91578  306.276
 6214.00    0.90726   0.91260  309.158
 6215.00    0.91012   0.91174  309.770
 6216.00    0.91342   0.91195  305.231
 6217.00    0.91109   0.91167  304.114
 6218.00    0.90697   0.91055  306.775
 6219.00    0.90871   0.90979  305.213
 6220.00    0.90561   0.91075  302.907
 6221.00    0.91134   0.91336  305.232
 6222.00    0.88781   0.91613   -1.000
 6223.00    0.85236   0.91792   -1.000
 6224.00    0.88494   0.91886   -1.000
 6225.00    0.89247   0.91925   -1.000
 6226.00    0.89406   0.91846   -1.000
 6227.00    0.89441   0.91520   -1.000
 6228.00    0.88247   0.90887   -1.000
 6229.00    0.87310   0.90110   -1.000
 6230.00    0.86147   0.89550   -1.000
 6231.00    0.86914   0.89513   -1.000
 6232.00    0.87715   0.90005   -1.000
 6233.00    0.88037   0.90741   -1.000
 6234.00    0.88438   0.91359   -1.000
 6235.00    0.89282   0.91618   -1.000
 6236.00    0.88813   0.91498   -1.000
 6237.00    0.88714   0.91157   -1.000
 6238.00    0.87941   0.90803   -1.000
 6239.00    0.87678   0.90580   -1.000
 6240.00    0.87332   0.90489   -1.000
 6241.00    0.87457   0.90397   -1.000
 6242.00    0.87646   0.90169   -1.000
 6243.00    0.87169   0.89796   -1.000
 6244.00    0.86943   0.89415   -1.000
 6245.00    0.86404   0.89233   -1.000
 6246.00    0.87133   0.89419   -1.000
 6247.00    0.87175   0.89937   -1.000
 6248.00    0.87535   0.90525   -1.000
 6249.00    0.87730   0.90845   -1.000
 6250.00    0.87066   0.90699   -1.000
 6251.00    0.86475   0.90173   -1.000
 6252.00    0.86244   0.89577   -1.000
 6253.00    0.85865   0.89198   -1.000
 6254.00    0.84979   0.89094   -1.000
 6255.00    0.85219   0.89135   -1.000
 6256.00    0.85654   0.89186   -1.000
 6257.00    0.86009   0.89248   -1.000
 6258.00    0.86151   0.89418   -1.000
 6259.00    0.85928   0.89760   -1.000
 6260.00    0.86262   0.90226   -1.000
 6261.00    0.86551   0.90703   -1.000
 6262.00    0.86545   0.91066   -1.000
 6263.00    0.86780   0.91233   -1.000
 6264.00    0.86959   0.91244   -1.000
 6265.00    0.86037   0.91242   -1.000
 6266.00    0.86548   0.91312   -1.000
 6267.00    0.86799   0.91367   -1.000
 6268.00    0.87017   0.91291   -1.000
 6269.00    0.86961   0.91110   -1.000
 6270.00    0.86568   0.90945   -1.000
 6271.00    0.86729   0.90839   -1.000
 6272.00    0.86748   0.90692   -1.000
 6273.00    0.86619   0.90349   -1.000
 6274.00    0.86806   0.89749   -1.000
 6275.00    0.86021   0.88991   -1.000
 6276.00    0.84347   0.88264   -1.000
 6277.00    0.82636   0.87734   -1.000
 6278.00    0.81575   0.87478   -1.000
 6279.00    0.80728   0.87512   -1.000
 6280.00    0.81289   0.87842   -1.000
 6281.00    0.82009   0.88433   -1.000
 6282.00    0.82780   0.89170   -1.000
 6283.00    0.83650   0.89885   -1.000
 6284.00    0.84330   0.90442   -1.000
 6285.00    0.85415   0.90803   -1.000
 6286.00    0.85424   0.91006   -1.000
 6287.00    0.85723   0.91060   -1.000
 6288.00    0.85767   0.90936   -1.000
 6289.00    0.84968   0.90667   -1.000
 6290.00    0.85223   0.90378   -1.000
 6291.00    0.85089   0.90184   -1.000
 6292.00    0.84812   0.90094   -1.000
 6293.00    0.84860   0.90022   -1.000
 6294.00    0.84798   0.89863   -1.000
 6295.00    0.85244   0.89588   -1.000
 6296.00    0.85152   0.89279   -1.000
 6297.00    0.84666   0.89056   -1.000
 6298.00    0.84987   0.88949   -1.000
 6299.00    0.86392   0.88878   -1.000
 6300.00    0.87074   0.88801   -1.000
 6301.00    0.85307   0.88830   -1.000
 6302.00    0.81820   0.89099   -1.000
 6303.00    0.80324   0.89565   -1.000
 6304.00    0.82416   0.90035   -1.000
 6305.00    0.84938   0.90373   -1.000
 6306.00    0.85441   0.90590   -1.000
 6307.00    0.85368   0.90737   -1.000
 6308.00    0.85648   0.90825   -1.000
 6309.00    0.85430   0.90845   -1.000
 6310.00    0.85164   0.90787   -1.000
 6311.00    0.84908   0.90653   -1.000
 6312.00    0.85223   0.90451   -1.000
 6313.00    0.84979   0.90197   -1.000
 6314.00    0.84335   0.89928   -1.000
 6315.00    0.84658   0.89680   -1.000
 6316.00    0.84746   0.89467   -1.000
 6317.00    0.84295   0.89352   -1.000
 6318.00    0.84284   0.89459   -1.000
 6319.00    0.84737   0.89807   -1.000
 6320.00    0.85314   0.90239   -1.000
 6321.00    0.85611   0.90609   -1.000
 6322.00    0.85001   0.90920   -1.000
 6323.00    0.84728   0.91213   -1.000
 6324.00    0.85547   0.91438   -1.000
 6325.00    0.86104   0.91529   -1.000
 6326.00    0.85853   0.91505   -1.000
 6327.00    0.85942   0.91439   -1.000
 6328.00    0.86093   0.91379   -1.000
 6329.00    0.85854   0.91353   -1.000
 6330.00    0.86221   0.91372   -1.000
 6331.00    0.85994   0.91378   -1.000
 6332.00    0.85982   0.91235   -1.000
 6333.00    0.85541   0.90832   -1.000
 6334.00    0.84293   0.90251   -1.000
 6335.00    0.83128   0.89786   -1.000
 6336.00    0.84532   0.89699   -1.000
 6337.00    0.85125   0.89979   -1.000
 6338.00    0.85934   0.90406   -1.000
 6339.00    0.86362   0.90779   -1.000
 6340.00    0.86410   0.91008   -1.000
 6341.00    0.86491   0.91068   -1.000
 6342.00    0.86538   0.90967   -1.000
 6343.00    0.85488   0.90768   -1.000
 6344.00    0.86013   0.90571   -1.000
 6345.00    0.86264   0.90476   -1.000
 6346.00    0.86179   0.90550   -1.000
 6347.00    0.86680   0.90812   -1.000
 6348.00    0.86494   0.91192   -1.000
 6349.00    0.86701   0.91554   -1.000
 6350.00    0.86702   0.91766   -1.000
 6351.00    0.86103   0.91767   -1.000
 6352.00    0.86482   0.91585   -1.000
 6353.00    0.86395   0.91317   -1.000
 6354.00    0.85914   0.91078   -1.000
 6355.00    0.86135   0.90909   -1.000
 6356.00    0.85588   0.90760   -1.000
 6357.00    0.85075   0.90569   -1.000
 6358.00    0.84955   0.90347   -1.000
 6359.00    0.85285   0.90148   -1.000
 6360.00    0.85456   0.89982   -1.000
 6361.00    0.86221   0.89854   -1.000
 6362.00    0.86534   0.89824   -1.000
 6363.00    0.86881   0.89958   -1.000
 6364.00    0.87038   0.90222   -1.000
 6365.00    0.85989   0.90511   -1.000
 6366.00    0.84284   0.90740   -1.000
 6367.00    0.84006   0.90862   -1.000
 6368.00    0.85218   0.90846   -1.000
 6369.00    0.85537   0.90734   -1.000
 6370.00    0.85534   0.90644   -1.000
 6371.00    0.85612   0.90679   -1.000
 6372.00    0.85662   0.90847   -1.000
 6373.00    0.85762   0.91045   -1.000
 6374.00    0.85944   0.91153   -1.000
 6375.00    0.85748   0.91128   -1.000
 6376.00    0.85363   0.91009   -1.000
 6377.00    0.85194   0.90852   -1.000
 6378.00    0.84804   0.90692   -1.000
 6379.00    0.84540   0.90552   -1.000
 6380.00    0.84533   0.90455   -1.000
 6381.00    0.83864   0.90413   -1.000
 6382.00    0.83658   0.90426   -1.000
 6383.00    0.83491   0.90486   -1.000
 6384.00    0.83343   0.90592   -1.000
 6385.00    0.83362   0.90736   -1.000
 6386.00    0.83222   0.90885   -1.000
 6387.00    0.82958   0.90978   -1.000
 6388.00    0.82290   0.90965   -1.000
 6389.00    0.81899   0.90801   -1.000
 6390.00    0.81706   0.90439   -1.000
 6391.00    0.80805   0.89908   -1.000
 6392.00    0.79762   0.89417   -1.000
 6393.00    0.79328   0.89252   -1.000
 6394.00    0.79781   0.89503   -1.000
 6395.00    0.80111   0.89938   -1.000
 6396.00    0.79646   0.90188   -1.000
 6397.00    0.79276   0.90038   -1.000
 6398.00    0.78586   0.89596   -1.000
 6399.00    0.77524   0.89231   -1.000
 6400.00    0.76961   0.89269   -1.000
 6401.00    0.77087   0.89716   -1.000
 6402.00    0.77362   0.90290   -1.000
 6403.00    0.77417   0.90683   -1.000
 6404.00    0.77456   0.90740   -1.000
 6405.00    0.77038   0.90465   -1.000
 6406.00    0.75785   0.89980   -1.000
 6407.00    0.75319   0.89504   -1.000
 6408.00    0.75318   0.89276   -1.000
 6409.00    0.74601   0.89355   -1.000
 6410.00    0.74294   0.89540   -1.000
 6411.00    0.73901   0.89669   -1.000
 6412.00    0.73093   0.89772   -1.000
 6413.00    0.73309   0.89889   -1.000
 6414.00    0.72789   0.89996   -1.000
 6415.00    0.72458   0.90091   -1.000
 6416.00    0.71665   0.90160   -1.000
 6417.00    0.70762   0.90111   -1.000
 6418.00    0.70706   0.89870   -1.000
 6419.00    0.70108   0.89535   -1.000
 6420.00    0.68528   0.89347   -1.000
 6421.00    0.67652   0.89498   -1.000
 6422.00    0.66995   0.89947   -1.000
 6423.00    0.67285   0.90477   -1.000
 6424.00    0.67384   0.90902   -1.000
 6425.00    0.66759   0.91169   -1.000
 6426.00    0.66225   0.91251   -1.000
 6427.00    0.65762   0.91064   -1.000
 6428.00    0.64461   0.90568   -1.000
