###################################################################
## OUTPUT of StarlightChains_v04.for    [Cid@UFSC - 01/Apr/2007] ##
###################################################################

## Some input info
NGC7078_a_1.cxt                          [arq_obs]
Base.BC03.S                              [arq_base]
NGC7078_a_1.msk                          [arq_masks]
StCv04.C11.config                        [arq_config]
  150                                    [N_base]
    0                                    [N_YAV_components = # of components with extra extinction!]
    0                                    [i_FitPowerLaw (1/0 = Yes/No)]
-9.99                                    [alpha_PowerLaw]
CCM                                      [red_law_option]
 1.458241                                [q_norm = A(l_norm)/A(V)]

## (Re)Sampling Parameters
 3359.00                                 [l_ini (A)]
 6428.00                                 [l_fin (A)]
    1.00                                 [dl    (A)]     (OBS: dl_cushion =    50.00 A)

## Normalization info
 4020.00                                 [l_norm (A) - for base]
 4010.00                                 [llow_norm (A) - window for f_obs]
 4060.00                                 [lupp_norm (A) - window for f_obs]
6.411706E-14                             [fobs_norm (in input units)]

## S/N
 4730.00                                 [llow_SN (A) - window for S/N]
 4780.00                                 [lupp_SN (A) - window for S/N]
 192.615                                 [S/N in S/N window]
 195.031                                 [S/N in norm. window]
 239.554                                 [S/N_err in S/N window]
 242.560                                 [S/N_err in norm. window]
  1.0000                                 [fscale_chi2]

## etc...
  2147483588                             [idum_orig]
  3068                                   [NOl_eff]
  1234                                   [Nl_eff]
  1834    NSIGMA                         [Ntot_cliped & clip_method]
  1667610                                [Nglobal_steps]
   7                                     [N_chains]
  15                                     [NEX0s_base = N_base in EX0s-fits]
 0   0   1      255   2.0   5.108E+02    [Clip-Bug, RC-Crash & Burn-In warning-flags, n_censored_weights, wei_nsig_threshold & wei_limit]
   123    122.922    122.906      0.016  [idt_all, wdt_TotTime, wdt_UsrTime & wdt_SysTime (sec)]

## Synthesis Results - Best model ##

 2.44296E+00                             [chi2/Nl_eff]
     0.60323                             [adev (%)]

   103.82279                             [sum-of-x (%)]
 1.49874E-13                             [Flux_tot (units of input spectrum!)]
 1.01798E-09                             [Mini_tot (???)]
 5.15682E-10                             [Mcor_tot (???)]

 -52.44                                  [v0_min  (km/s)]
  88.49                                  [vd_min  (km/s)]
 0.6043                                  [AV_min  (mag)]
 0.0000                                  [YAV_min (mag)]

# j     x_j(%)      Mini_j(%)     Mcor_j(%)     age_j(yr)     Z_j      (L/M)_j    YAV?  Mstars   component_j        a/Fe...       SSP_chi2r SSP_adev(%)   SSP_AV   SSP_x(%)
  1      0.0000     0.0000E+00    0.0000E+00    1.000000E+06  0.00010  8.160E-03    0   1.0000   age020_m22            0.0000     1.2813E+03    11.2993   3.3939    76.9622
  2     31.4444     9.3696E-02    1.8496E-01    3.160000E+06  0.00010  4.759E-02    0   1.0000   age045_m22            0.0000     1.2396E+02     3.2921   1.3246    98.3566
  3      0.0000     0.0000E+00    0.0000E+00    5.010000E+06  0.00010  1.932E-02    0   0.9582   age055_m22            0.0000     1.1598E+03    11.4960   1.6772    83.0390
  4      0.0000     0.0000E+00    0.0000E+00    6.610000E+06  0.00010  9.973E-03    0   0.9297   age061_m22            0.0000     1.2577E+03    11.6340   3.3518    79.6361
  5      0.0000     0.0000E+00    0.0000E+00    8.710000E+06  0.00010  7.690E-03    0   0.9030   age067_m22            0.0000     1.1896E+03    11.2663   3.3422    80.1402
  6      0.0000     0.0000E+00    0.0000E+00    1.000000E+07  0.00010  6.375E-03    0   0.8902   age070_m22            0.0000     1.1343E+03    10.9680   3.3577    80.3257
  7      0.0000     0.0000E+00    0.0000E+00    1.445000E+07  0.00010  4.874E-03    0   0.8589   age078_m22            0.0000     8.2342E+02     9.2242   3.1705    83.4962
  8      0.0000     0.0000E+00    0.0000E+00    2.512000E+07  0.00010  4.103E-03    0   0.8174   age090_m22            0.0000     2.8224E+02     5.3558   2.7384    90.9280
  9      0.0000     0.0000E+00    0.0000E+00    4.000000E+07  0.00010  3.654E-03    0   0.7830   age104_m22            0.0000     6.1380E+01     2.3878   2.4154    96.7484
 10      0.0000     0.0000E+00    0.0000E+00    5.500000E+07  0.00010  3.093E-03    0   0.7597   age110_m22            0.0000     3.7152E+01     1.6825   2.3053    98.6629
 11      5.3882     3.1431E-01    4.4288E-01    1.015200E+08  0.00010  2.431E-03    0   0.7138   age116_m22            0.0000     6.8724E+01     1.9511   1.9454   102.1296
 12      0.0000     0.0000E+00    0.0000E+00    1.609000E+08  0.00010  1.319E-03    0   0.6775   age120_m22            0.0000     7.7456E+01     2.0683   1.4722   104.2010
 13      0.0000     0.0000E+00    0.0000E+00    2.861200E+08  0.00010  1.075E-03    0   0.6412   age125_m22            0.0000     5.4052E+02     6.5275   1.5100   109.1696
 14      0.0000     0.0000E+00    0.0000E+00    5.088000E+08  0.00010  7.183E-04    0   0.6083   age130_m22            0.0000     7.5630E+02     7.8932   1.2720   111.2478
 15      0.0000     0.0000E+00    0.0000E+00    9.047900E+08  0.00010  4.524E-04    0   0.5785   age135_m22            0.0000     7.8492E+02     8.1523   1.0756   112.4934
 16      0.0000     0.0000E+00    0.0000E+00    1.278050E+09  0.00010  3.018E-04    0   0.5588   age138_m22            0.0000     2.8139E+02     5.1933   0.5586   109.5826
 17      0.0000     0.0000E+00    0.0000E+00    1.434000E+09  0.00010  2.691E-04    0   0.5532   age139_m22            0.0000     2.1118E+02     4.6270   0.4066   108.7516
 18      0.0000     0.0000E+00    0.0000E+00    2.500000E+09  0.00010  1.582E-04    0   0.5296   age150_m22            0.0000     1.4801E+02     3.7374   0.2976   109.3154
 19      0.0000     0.0000E+00    0.0000E+00    4.250000E+09  0.00010  1.007E-04    0   0.5110   age158_m22            0.0000     4.9772E+01     2.3121   0.1574   106.9574
 20      0.3439     7.1002E-01    6.9870E-01    6.250000E+09  0.00010  6.869E-05    0   0.4985   age166_m22            0.0000     2.6004E+01     1.4391   0.1127   103.4914
 21      3.2839     7.9292E+00    7.7183E+00    7.500000E+09  0.00010  5.873E-05    0   0.4931   age171_m22            0.0000     2.6285E+01     1.2899   0.1031   102.8108
 22      5.1603     1.6330E+01    1.5648E+01    1.000000E+10  0.00010  4.481E-05    0   0.4854   age181_m22            0.0000     2.8031E+01     1.3279   0.0652   102.4067
 23      8.4339     3.4279E+01    3.2419E+01    1.300000E+10  0.00010  3.489E-05    0   0.4791   age193_m22            0.0000     3.3958E+01     1.4299   0.0094   101.7684
 24      0.0000     0.0000E+00    0.0000E+00    1.500000E+10  0.00010  3.035E-05    0   0.4766   age201_m22            0.0000     3.7488E+01     1.4743  -0.0297   101.5279
 25      0.0000     0.0000E+00    0.0000E+00    1.800000E+10  0.00010  2.510E-05    0   0.4735   age213_m22            0.0000     4.8483E+01     1.5882  -0.0969   100.7801
 26      0.0000     0.0000E+00    0.0000E+00    1.000000E+06  0.00040  8.458E-03    0   1.0000   age020_m32            0.0000     1.2642E+03    11.3272   3.4094    77.5762
 27      0.0000     0.0000E+00    0.0000E+00    3.160000E+06  0.00040  3.973E-02    0   1.0000   age045_m32            0.0000     3.3246E+02     5.8391   2.6297    90.9440
 28      0.0000     0.0000E+00    0.0000E+00    5.010000E+06  0.00040  1.935E-02    0   0.9532   age055_m32            0.0000     9.1184E+02    10.1126   2.8818    83.9434
 29      0.0000     0.0000E+00    0.0000E+00    6.610000E+06  0.00040  1.204E-02    0   0.9243   age061_m32            0.0000     1.0316E+03    10.5006   3.2059    81.8527
 30      0.0000     0.0000E+00    0.0000E+00    8.710000E+06  0.00040  9.433E-03    0   0.9001   age067_m32            0.0000     9.1370E+02     9.8259   3.1752    82.8973
 31      0.0000     0.0000E+00    0.0000E+00    1.000000E+07  0.00040  8.053E-03    0   0.8877   age070_m32            0.0000     8.6884E+02     9.5655   3.1391    83.3912
 32      0.0000     0.0000E+00    0.0000E+00    1.445000E+07  0.00040  7.027E-03    0   0.8578   age078_m32            0.0000     4.5695E+02     7.1020   2.5963    89.2605
 33      0.0000     0.0000E+00    0.0000E+00    2.512000E+07  0.00040  4.707E-03    0   0.8166   age090_m32            0.0000     2.1231E+02     4.8628   2.2884    93.7002
 34      0.0000     0.0000E+00    0.0000E+00    4.000000E+07  0.00040  3.714E-03    0   0.7827   age104_m32            0.0000     6.1117E+01     2.5540   2.0687    97.8447
 35      0.0000     0.0000E+00    0.0000E+00    5.500000E+07  0.00040  2.982E-03    0   0.7593   age110_m32            0.0000     3.6012E+01     1.7685   2.0007    99.3746
 36      3.8038     2.4653E-01    3.4762E-01    1.015200E+08  0.00040  2.188E-03    0   0.7143   age116_m32            0.0000     1.6859E+02     3.4090   1.7082   104.9569
 37      7.5086     6.3003E-01    8.5269E-01    1.609000E+08  0.00040  1.690E-03    0   0.6856   age120_m32            0.0000     3.7278E+02     5.1303   1.4877   108.2402
 38      0.6741     8.2975E-02    1.0662E-01    2.861200E+08  0.00040  1.152E-03    0   0.6509   age125_m32            0.0000     5.9598E+02     6.9140   1.2579   110.4813
 39      0.0000     0.0000E+00    0.0000E+00    5.088000E+08  0.00040  7.331E-04    0   0.6182   age130_m32            0.0000     7.0072E+02     7.7070   1.0925   111.3350
 40      0.0502     1.7975E-02    2.0900E-02    9.047900E+08  0.00040  3.960E-04    0   0.5890   age135_m32            0.0000     3.2142E+02     5.8589   0.6518   108.9477
 41      0.0000     0.0000E+00    0.0000E+00    1.278050E+09  0.00040  2.854E-04    0   0.5687   age138_m32            0.0000     1.9996E+02     4.4227   0.3613   110.5054
 42      0.0000     0.0000E+00    0.0000E+00    1.434000E+09  0.00040  2.531E-04    0   0.5632   age139_m32            0.0000     1.8939E+02     4.2579   0.2998   110.4407
 43     34.4217     3.2804E+01    3.4878E+01    2.500000E+09  0.00040  1.488E-04    0   0.5386   age150_m32            0.0000     1.0890E+02     3.4562   0.0468   108.2852
 44      3.2541     5.0809E+00    5.2146E+00    4.250000E+09  0.00040  9.082E-05    0   0.5199   age158_m32            0.0000     3.7392E+01     1.8996  -0.0341   103.8292
 45      0.0000     0.0000E+00    0.0000E+00    6.250000E+09  0.00040  6.362E-05    0   0.5076   age166_m32            0.0000     1.0475E+02     2.0391  -0.0587    99.4859
 46      0.0000     0.0000E+00    0.0000E+00    7.500000E+09  0.00040  5.289E-05    0   0.5027   age171_m32            0.0000     1.3538E+02     2.2772  -0.0916    98.0614
 47      0.0000     0.0000E+00    0.0000E+00    1.000000E+10  0.00040  3.972E-05    0   0.4948   age181_m32            0.0000     1.6294E+02     2.4866  -0.1511    96.6150
 48      0.0000     0.0000E+00    0.0000E+00    1.300000E+10  0.00040  3.283E-05    0   0.4870   age193_m32            0.0000     9.1083E+01     2.1529  -0.2055    99.8008
 49      0.0000     0.0000E+00    0.0000E+00    1.500000E+10  0.00040  2.925E-05    0   0.4854   age201_m32            0.0000     6.5203E+01     2.1119  -0.2300   101.6741
 50      0.0000     0.0000E+00    0.0000E+00    1.800000E+10  0.00040  2.469E-05    0   0.4819   age213_m32            0.0000     6.1278E+01     2.2044  -0.2737   102.2892
 51      0.0000     0.0000E+00    0.0000E+00    1.000000E+06  0.00400  1.114E-02    0   1.0000   age020_m42            0.0000     1.2205E+03    11.0116   3.3400    78.0262
 52      0.0000     0.0000E+00    0.0000E+00    3.160000E+06  0.00400  4.073E-02    0   0.9999   age045_m42            0.0000     1.9889E+02     4.2799   2.3140    94.0341
 53      0.0000     0.0000E+00    0.0000E+00    5.010000E+06  0.00400  2.534E-02    0   0.9488   age055_m42            0.0000     5.9726E+02     7.7143   2.7502    86.6639
 54      0.0000     0.0000E+00    0.0000E+00    6.610000E+06  0.00400  2.583E-02    0   0.9220   age061_m42            0.0000     1.1859E+02     3.2513   2.1235    95.1866
 55      0.0000     0.0000E+00    0.0000E+00    8.710000E+06  0.00400  1.706E-02    0   0.8983   age067_m42            0.0000     3.0345E+02     5.7562   1.9600    92.4453
 56      0.0000     0.0000E+00    0.0000E+00    1.000000E+07  0.00400  1.271E-02    0   0.8862   age070_m42            0.0000     4.8808E+02     7.5508   1.9513    90.4407
 57      0.0000     0.0000E+00    0.0000E+00    1.445000E+07  0.00400  7.666E-03    0   0.8571   age078_m42            0.0000     7.0948E+02     8.7239   2.3739    86.7260
 58      0.0000     0.0000E+00    0.0000E+00    2.512000E+07  0.00400  5.070E-03    0   0.8174   age090_m42            0.0000     4.2007E+02     6.9090   1.8166    92.0975
 59      0.0000     0.0000E+00    0.0000E+00    4.000000E+07  0.00400  3.505E-03    0   0.7851   age104_m42            0.0000     2.3016E+02     4.7665   1.4858    95.5103
 60      0.0000     0.0000E+00    0.0000E+00    5.500000E+07  0.00400  3.059E-03    0   0.7629   age110_m42            0.0000     2.5477E+01     1.4710   1.5168   101.6223
 61      0.0000     0.0000E+00    0.0000E+00    1.015200E+08  0.00400  2.268E-03    0   0.7207   age116_m42            0.0000     3.1135E+02     5.0970   1.3991   108.6071
 62      0.0000     0.0000E+00    0.0000E+00    1.609000E+08  0.00400  1.720E-03    0   0.6930   age120_m42            0.0000     3.8608E+02     5.9065   1.2551   110.5098
 63      0.0000     0.0000E+00    0.0000E+00    2.861200E+08  0.00400  1.079E-03    0   0.6613   age125_m42            0.0000     4.0964E+02     6.1028   0.9070   110.6377
 64      0.0000     1.0237E-05    1.2758E-05    5.088000E+08  0.00400  6.261E-04    0   0.6313   age130_m42            0.0000     5.1969E+02     6.6866   0.7088   113.8919
 65      0.0000     0.0000E+00    0.0000E+00    9.047900E+08  0.00400  3.535E-04    0   0.6024   age135_m42            0.0000     2.7297E+02     5.2995   0.3173   113.3497
 66      0.0000     0.0000E+00    0.0000E+00    1.278050E+09  0.00400  2.677E-04    0   0.5837   age138_m42            0.0000     2.8497E+02     5.7235  -0.3487   108.8686
 67      0.0000     0.0000E+00    0.0000E+00    1.434000E+09  0.00400  1.910E-04    0   0.5716   age139_m42            0.0000     2.3692E+02     5.4983  -0.1889   110.4042
 68      0.0000     0.0000E+00    0.0000E+00    2.500000E+09  0.00400  9.818E-05    0   0.5463   age150_m42            0.0000     3.2131E+02     5.3601  -0.4310   104.0203
 69      0.0000     0.0000E+00    0.0000E+00    4.250000E+09  0.00400  5.491E-05    0   0.5269   age158_m42            0.0000     4.2613E+02     5.4240  -0.5398   100.4312
 70      0.0000     0.0000E+00    0.0000E+00    6.250000E+09  0.00400  3.857E-05    0   0.5151   age166_m42            0.0000     5.4790E+02     6.0837  -0.6587    98.6956
 71      0.0000     0.0000E+00    0.0000E+00    7.500000E+09  0.00400  3.243E-05    0   0.5110   age171_m42            0.0000     6.2710E+02     6.5020  -0.7326    97.9154
 72      0.0000     0.0000E+00    0.0000E+00    1.000000E+10  0.00400  2.424E-05    0   0.5028   age181_m42            0.0000     7.4094E+02     7.0146  -0.8053    96.9727
 73      0.0000     0.0000E+00    0.0000E+00    1.300000E+10  0.00400  1.883E-05    0   0.4927   age193_m42            0.0000     8.3167E+02     7.3249  -0.8395    96.3824
 74      0.0000     0.0000E+00    0.0000E+00    1.500000E+10  0.00400  1.685E-05    0   0.4919   age201_m42            0.0000     8.0345E+02     7.1861  -0.8362    96.4399
 75      0.0000     0.0000E+00    0.0000E+00    1.800000E+10  0.00400  1.452E-05    0   0.4874   age213_m42            0.0000     7.5373E+02     6.9502  -0.8244    96.7925
 76      0.0000     0.0000E+00    0.0000E+00    1.000000E+06  0.00800  1.286E-02    0   1.0000   age020_m52            0.0000     1.0664E+03    10.2637   3.3134    79.9180
 77      0.0000     0.0000E+00    0.0000E+00    3.160000E+06  0.00800  3.147E-02    0   0.9966   age045_m52            0.0000     1.0126E+03    10.1136   3.2213    81.5192
 78      0.0000     0.0000E+00    0.0000E+00    5.010000E+06  0.00800  2.664E-02    0   0.9443   age055_m52            0.0000     7.0794E+02     8.2573   2.8795    85.4020
 79      0.0000     0.0000E+00    0.0000E+00    6.610000E+06  0.00800  2.151E-02    0   0.9177   age061_m52            0.0000     4.7306E+02     6.6263   1.5448    91.9617
 80      0.0000     0.0000E+00    0.0000E+00    8.710000E+06  0.00800  1.628E-02    0   0.8948   age067_m52            0.0000     3.6843E+02     6.3332   1.9157    92.6139
 81      0.0000     0.0000E+00    0.0000E+00    1.000000E+07  0.00800  1.215E-02    0   0.8827   age070_m52            0.0000     4.6384E+02     7.1667   2.2660    90.5387
 82      0.0000     0.0000E+00    0.0000E+00    1.445000E+07  0.00800  8.739E-03    0   0.8552   age078_m52            0.0000     3.3025E+02     5.9770   2.2980    92.3172
 83      0.0000     0.0000E+00    0.0000E+00    2.512000E+07  0.00800  5.676E-03    0   0.8162   age090_m52            0.0000     1.2519E+02     3.8879   1.8700    97.9941
 84      0.0000     0.0000E+00    0.0000E+00    4.000000E+07  0.00800  3.939E-03    0   0.7841   age104_m52            0.0000     5.4770E+01     2.2888   1.7000   101.0602
 85      0.0000     0.0000E+00    0.0000E+00    5.500000E+07  0.00800  3.155E-03    0   0.7627   age110_m52            0.0000     5.4165E+01     1.6352   1.6639   103.2934
 86      0.0000     0.0000E+00    0.0000E+00    1.015200E+08  0.00800  2.206E-03    0   0.7226   age116_m52            0.0000     1.8466E+02     3.8773   1.4648   108.0289
 87      0.0000     0.0000E+00    0.0000E+00    1.609000E+08  0.00800  1.596E-03    0   0.6963   age120_m52            0.0000     2.7769E+02     4.9796   1.2478   109.8975
 88      0.0000     0.0000E+00    0.0000E+00    2.861200E+08  0.00800  1.002E-03    0   0.6665   age125_m52            0.0000     5.9023E+02     7.5534   0.9406   113.2584
 89      0.0000     0.0000E+00    0.0000E+00    5.088000E+08  0.00800  5.759E-04    0   0.6377   age130_m52            0.0000     7.0763E+02     8.6877   0.5809   117.6032
 90      0.0000     0.0000E+00    0.0000E+00    9.047900E+08  0.00800  2.972E-04    0   0.6086   age135_m52            0.0000     4.7754E+02     7.8907   0.0629   115.1779
 91      0.0000     0.0000E+00    0.0000E+00    1.278050E+09  0.00800  2.242E-04    0   0.5907   age138_m52            0.0000     4.5055E+02     6.9329  -0.5200   111.5500
 92      0.0000     0.0000E+00    0.0000E+00    1.434000E+09  0.00800  1.645E-04    0   0.5787   age139_m52            0.0000     3.7145E+02     6.3107  -0.3703   110.9451
 93      0.0000     0.0000E+00    0.0000E+00    2.500000E+09  0.00800  7.723E-05    0   0.5519   age150_m52            0.0000     5.5179E+02     6.7604  -0.6826   105.7785
 94      0.0000     0.0000E+00    0.0000E+00    4.250000E+09  0.00800  4.151E-05    0   0.5320   age158_m52            0.0000     6.0910E+02     6.7730  -0.7434   102.8396
 95      0.0000     0.0000E+00    0.0000E+00    6.250000E+09  0.00800  3.010E-05    0   0.5197   age166_m52            0.0000     8.1828E+02     7.6465  -0.9242   100.8506
 96      0.0000     0.0000E+00    0.0000E+00    7.500000E+09  0.00800  2.467E-05    0   0.5139   age171_m52            0.0000     8.7762E+02     7.9100  -0.9632   100.3372
 97      0.0000     0.0000E+00    0.0000E+00    1.000000E+10  0.00800  1.862E-05    0   0.5054   age181_m52            0.0000     1.0746E+03     8.0867  -1.0000    97.7039
 98      0.0000     0.0000E+00    0.0000E+00    1.300000E+10  0.00800  1.433E-05    0   0.4988   age193_m52            0.0000     1.3485E+03     8.5985  -1.0000    95.8667
 99      0.0000     0.0000E+00    0.0000E+00    1.500000E+10  0.00800  1.244E-05    0   0.4936   age201_m52            0.0000     1.4611E+03     8.8574  -1.0000    95.5098
100      0.0000     0.0000E+00    0.0000E+00    1.800000E+10  0.00800  1.070E-05    0   0.4888   age213_m52            0.0000     1.5536E+03     9.1482  -1.0000    94.4855
101      0.0000     0.0000E+00    0.0000E+00    1.000000E+06  0.02000  1.989E-02    0   1.0000   age020_m62            0.0000     1.2437E+03    11.0247   3.3030    78.7369
102      0.0000     0.0000E+00    0.0000E+00    3.160000E+06  0.02000  3.772E-02    0   0.9858   age045_m62            0.0000     1.1000E+03    10.4513   3.1515    81.1427
103      0.0000     0.0000E+00    0.0000E+00    5.010000E+06  0.02000  3.227E-02    0   0.9342   age055_m62            0.0000     3.5108E+02     5.8287   2.5927    90.1948
104      0.0000     0.0000E+00    0.0000E+00    6.610000E+06  0.02000  2.387E-02    0   0.9090   age061_m62            0.0000     6.0575E+02     8.2943   2.3451    88.8994
105      0.0000     0.0000E+00    0.0000E+00    8.710000E+06  0.02000  1.102E-02    0   0.8861   age067_m62            0.0000     1.7302E+03    14.7543   1.9911    82.4146
106      0.0000     0.0000E+00    0.0000E+00    1.000000E+07  0.02000  1.011E-02    0   0.8751   age070_m62            0.0000     1.2342E+03    12.2842   2.0029    85.4798
107      0.0000     0.0000E+00    0.0000E+00    1.445000E+07  0.02000  7.331E-03    0   0.8472   age078_m62            0.0000     8.8655E+02    10.1298   2.0134    87.4940
108      0.0000     0.0000E+00    0.0000E+00    2.512000E+07  0.02000  4.206E-03    0   0.8099   age090_m62            0.0000     8.9235E+02     9.9873   1.9239    86.9880
109      0.0000     0.0000E+00    0.0000E+00    4.000000E+07  0.02000  3.373E-03    0   0.7799   age104_m62            0.0000     1.4982E+02     3.9675   1.6859    97.7050
110      0.0000     0.0000E+00    0.0000E+00    5.500000E+07  0.02000  2.747E-03    0   0.7595   age110_m62            0.0000     5.3531E+01     2.0527   1.6001   102.2125
111      0.0000     0.0000E+00    0.0000E+00    1.015200E+08  0.02000  1.878E-03    0   0.7221   age116_m62            0.0000     2.2122E+02     3.8315   1.4338   108.5532
112      0.0000     0.0000E+00    0.0000E+00    1.609000E+08  0.02000  1.378E-03    0   0.6978   age120_m62            0.0000     4.4596E+02     5.8636   1.2689   111.8639
113      0.0000     0.0000E+00    0.0000E+00    2.861200E+08  0.02000  8.869E-04    0   0.6700   age125_m62            0.0000     8.7709E+02     8.4731   0.8793   117.0737
114      0.0000     0.0000E+00    0.0000E+00    5.088000E+08  0.02000  4.834E-04    0   0.6430   age130_m62            0.0000     8.1531E+02     9.2230   0.4412   119.4277
115      0.0000     6.4609E-06    7.8463E-06    9.047900E+08  0.02000  2.312E-04    0   0.6152   age135_m62            0.0000     4.2512E+02     7.5721  -0.1384   116.9973
116      0.0000     0.0000E+00    0.0000E+00    1.278050E+09  0.02000  1.387E-04    0   0.5927   age138_m62            0.0000     3.5731E+02     6.3515  -0.4889   110.6575
117      0.0000     0.0000E+00    0.0000E+00    1.434000E+09  0.02000  1.168E-04    0   0.5865   age139_m62            0.0000     3.8229E+02     6.3242  -0.5061   108.6372
118      0.0000     0.0000E+00    0.0000E+00    2.500000E+09  0.02000  5.505E-05    0   0.5610   age150_m62            0.0000     6.6848E+02     7.4817  -0.8565   104.3632
119      0.0000     0.0000E+00    0.0000E+00    4.250000E+09  0.02000  3.070E-05    0   0.5407   age158_m62            0.0000     1.1189E+03     8.4032  -1.0000   100.3089
120      0.0000     0.0000E+00    0.0000E+00    6.250000E+09  0.02000  2.104E-05    0   0.5277   age166_m62            0.0000     1.4851E+03     9.2219  -1.0000    97.2807
121      0.0000     0.0000E+00    0.0000E+00    7.500000E+09  0.02000  1.770E-05    0   0.5223   age171_m62            0.0000     1.7207E+03    10.1018  -1.0000    95.3324
122      0.0000     0.0000E+00    0.0000E+00    1.000000E+10  0.02000  1.297E-05    0   0.5121   age181_m62            0.0000     2.2603E+03    12.0452  -1.0000    91.5277
123      0.0000     0.0000E+00    0.0000E+00    1.300000E+10  0.02000  9.691E-06    0   0.5047   age193_m62            0.0000     2.6123E+03    13.1297  -1.0000    89.5389
124      0.0000     0.0000E+00    0.0000E+00    1.500000E+10  0.02000  8.360E-06    0   0.4999   age201_m62            0.0000     2.9236E+03    14.0385  -1.0000    87.8150
125      0.0000     0.0000E+00    0.0000E+00    1.800000E+10  0.02000  6.911E-06    0   0.4946   age213_m62            0.0000     3.2853E+03    14.9926  -1.0000    86.0205
126      0.0000     0.0000E+00    0.0000E+00    1.000000E+06  0.05000  2.651E-02    0   0.9998   age020_m72            0.0000     1.1719E+03    10.4699   3.3075    79.6584
127      0.0000     0.0000E+00    0.0000E+00    3.160000E+06  0.05000  4.817E-02    0   0.9577   age045_m72            0.0000     7.5588E+02     8.3216   2.9978    84.9512
128      0.0000     0.0000E+00    0.0000E+00    5.010000E+06  0.05000  3.101E-02    0   0.9147   age055_m72            0.0000     6.8371E+02     8.2239   2.6333    87.6421
129      0.0000     0.0000E+00    0.0000E+00    6.610000E+06  0.05000  1.472E-02    0   0.8877   age061_m72            0.0000     1.4013E+03    12.6940   2.2144    84.3363
130      0.0000     0.0000E+00    0.0000E+00    8.710000E+06  0.05000  1.050E-02    0   0.8638   age067_m72            0.0000     1.0081E+03    10.2328   2.6068    85.3992
131      0.0000     0.0000E+00    0.0000E+00    1.000000E+07  0.05000  8.954E-03    0   0.8524   age070_m72            0.0000     7.6455E+02     8.2191   2.8877    85.9215
132      0.0000     0.0000E+00    0.0000E+00    1.445000E+07  0.05000  6.392E-03    0   0.8262   age078_m72            0.0000     6.4526E+02     7.3931   2.8270    87.1994
133      0.0000     0.0000E+00    0.0000E+00    2.512000E+07  0.05000  4.207E-03    0   0.7902   age090_m72            0.0000     3.1127E+02     5.0321   2.4177    92.5504
134      0.0000     0.0000E+00    0.0000E+00    4.000000E+07  0.05000  3.198E-03    0   0.7618   age104_m72            0.0000     8.5646E+01     2.4490   1.8353   103.0701
135      0.0000     0.0000E+00    0.0000E+00    5.500000E+07  0.05000  2.593E-03    0   0.7432   age110_m72            0.0000     1.4298E+02     3.1717   1.7266   105.5596
136      0.0000     0.0000E+00    0.0000E+00    1.015200E+08  0.05000  1.716E-03    0   0.7092   age116_m72            0.0000     3.2055E+02     4.7480   1.5151   109.0887
137      0.0000     0.0000E+00    0.0000E+00    1.609000E+08  0.05000  1.218E-03    0   0.6876   age120_m72            0.0000     5.8851E+02     6.8251   1.2328   112.5735
138      0.0000     0.0000E+00    0.0000E+00    2.861200E+08  0.05000  7.047E-04    0   0.6618   age125_m72            0.0000     8.9820E+02     9.1337   0.6690   117.3548
139      0.0000     0.0000E+00    0.0000E+00    5.088000E+08  0.05000  3.590E-04    0   0.6356   age130_m72            0.0000     7.5692E+02     9.4013   0.0889   119.7724
140      0.0000     0.0000E+00    0.0000E+00    9.047900E+08  0.05000  1.484E-04    0   0.6088   age135_m72            0.0000     5.1577E+02     7.7805  -0.5956   110.2496
141      0.0000     0.0000E+00    0.0000E+00    1.278050E+09  0.05000  9.435E-05    0   0.5924   age138_m72            0.0000     8.2637E+02     9.0699  -0.9737   105.8323
142      0.0000     0.0000E+00    0.0000E+00    1.434000E+09  0.05000  7.827E-05    0   0.5847   age139_m72            0.0000     8.4902E+02     8.8863  -0.9531   104.9394
143      0.0000     0.0000E+00    0.0000E+00    2.500000E+09  0.05000  3.759E-05    0   0.5583   age150_m72            0.0000     1.4263E+03     9.2894  -1.0000    96.8963
144      0.0000     0.0000E+00    0.0000E+00    4.250000E+09  0.05000  1.842E-05    0   0.5374   age158_m72            0.0000     2.3756E+03    12.9196  -1.0000    88.1446
145      0.0000     0.0000E+00    0.0000E+00    6.250000E+09  0.05000  1.207E-05    0   0.5242   age166_m72            0.0000     3.3816E+03    15.8058  -1.0000    81.5638
146      0.0000     0.0000E+00    0.0000E+00    7.500000E+09  0.05000  9.993E-06    0   0.5183   age171_m72            0.0000     3.5688E+03    16.3201  -1.0000    80.3653
147      0.0000     0.0000E+00    0.0000E+00    1.000000E+10  0.05000  7.291E-06    0   0.5081   age181_m72            0.0000     4.1957E+03    17.7602  -1.0000    77.0695
148      0.0555     1.4817E+00    1.4678E+00    1.300000E+10  0.05000  5.316E-06    0   0.5018   age193_m72            0.0000     5.2076E+03    19.7546  -1.0000    72.2470
149      0.0000     0.0000E+00    0.0000E+00    1.500000E+10  0.05000  4.497E-06    0   0.4972   age201_m72            0.0000     5.6474E+03    20.5080  -1.0000    70.5681
150      0.0000     0.0000E+00    0.0000E+00    1.800000E+10  0.05000  3.739E-06    0   0.4924   age213_m72            0.0000     6.2696E+03    21.4966  -1.0000    68.0570


## Synthesis Results - Average & Chains ##

# j      x_j: min, <> & last-chain-values for 1 ...  7 chains
  1      0.0000      0.0020      0.0000      0.0000      0.0000      0.0000      0.0000      0.0000      0.0000
  2     31.4444     29.8864     29.9740     30.1169     30.7063     30.5483     30.3146     30.3829     30.0238
  3      0.0000      0.0104      0.0000      0.0000      0.0000      0.0000      0.0000      0.0000      0.0000
  4      0.0000      0.0016      0.0000      0.0000      0.0000      0.0000      0.0000      0.0000      0.0000
  5      0.0000      0.0016      0.0000      0.0000      0.0000      0.0000      0.0000      0.0000      0.0000
  6      0.0000      0.0015      0.0000      0.0000      0.0000      0.0000      0.0000      0.0000      0.0000
  7      0.0000      0.0018      0.0000      0.0000      0.0000      0.0000      0.0000      0.0068      0.0000
  8      0.0000      0.0069      0.0163      0.0994      0.0000      0.0000      0.0000      0.0000      0.0148
  9      0.0000      0.0123      0.0548      0.0000      0.0000      0.0122      0.0000      0.0000      0.0000
 10      0.0000      0.0257      0.0000      0.0503      0.0000      0.1192      0.0000      0.1505      0.0000
 11      5.3882      5.4632      5.5115      5.5621      5.4573      5.5639      5.5010      5.4656      5.6151
 12      0.0000      0.0422      0.0170      0.0000      0.0000      0.0000      0.0000      0.1673      0.0407
 13      0.0000      0.0479      0.0000      0.0654      0.0000      0.0000      0.0000      0.0000      0.0000
 14      0.0000      0.0400      0.0000      0.0000      0.0000      0.0734      0.0924      0.0563      0.0043
 15      0.0000      0.0301      0.0000      0.0000      0.0007      0.0345      0.0356      0.1294      0.0000
 16      0.0000      0.0514      0.0000      0.0000      0.0000      0.0000      0.0000      0.0192      0.0840
 17      0.0000      0.0502      0.0000      0.0000      0.0000      0.0000      0.0464      0.0000      0.0000
 18      0.0000      0.0668      0.1653      0.0000      0.0000      0.0848      0.1090      0.0000      0.0094
 19      0.0000      0.0739      0.2668      0.1594      0.0168      0.0610      0.0000      0.2083      0.1339
 20      0.3439      0.0770      0.0707      0.1074      0.0725      0.0228      0.0175      0.1067      0.0087
 21      3.2839      3.5371      3.5486      3.3417      4.0841      3.2564      3.1812      3.6677      3.7199
 22      5.1603      5.2192      4.4330      5.2289      5.7003      5.2700      5.4737      5.2027      5.1746
 23      8.4339      8.2869      8.6352      8.5855      8.0537      8.2414      8.1963      8.4261      8.4662
 24      0.0000      0.1176      0.3006      0.2536      0.0000      0.1091      0.0371      0.1087      0.0275
 25      0.0000      0.0345      0.0077      0.0148      0.0221      0.0072      0.0000      0.0000      0.0251
 26      0.0000      0.0017      0.0134      0.0000      0.0000      0.0000      0.0000      0.0000      0.0000
 27      0.0000      0.0057      0.0000      0.0000      0.0000      0.0000      0.0000      0.0000      0.0000
 28      0.0000      0.0035      0.0000      0.0000      0.0000      0.0021      0.0000      0.0000      0.0000
 29      0.0000      0.0016      0.0000      0.0000      0.0000      0.0000      0.0000      0.0000      0.0000
 30      0.0000      0.0022      0.0000      0.0000      0.0000      0.0000      0.0000      0.0000      0.0000
 31      0.0000      0.0041      0.0000      0.0000      0.0000      0.0000      0.0000      0.0000      0.0000
 32      0.0000      0.0061      0.0000      0.0000      0.0000      0.0072      0.0000      0.0000      0.0000
 33      0.0000      0.0090      0.0000      0.0577      0.0000      0.0000      0.0000      0.0000      0.0000
 34      0.0000      0.0259      0.0000      0.0000      0.0000      0.1029      0.0733      0.0000      0.0095
 35      0.0000      0.0424      0.0324      0.0051      0.0000      0.0148      0.0000      0.0000      0.0000
 36      3.8038      4.0388      3.9394      4.1204      4.1056      3.9887      4.3515      3.9423      4.0258
 37      7.5086      7.0310      7.0939      7.1123      7.5902      7.1061      6.9073      7.0775      7.1446
 38      0.6741      0.1021      0.0000      0.1514      0.0709      0.0000      0.0823      0.0000      0.1795
 39      0.0000      0.0404      0.0000      0.0000      0.0000      0.0000      0.0000      0.0000      0.0324
 40      0.0502      0.0522      0.0029      0.0579      0.0976      0.0567      0.0000      0.1372      0.0779
 41      0.0000      0.1112      0.0000      0.0000      0.0000      0.0000      0.0000      0.0000      0.0353
 42      0.0000      0.1192      0.0000      0.2582      0.0000      0.0461      0.0870      0.0000      0.0000
 43     34.4217     33.8653     34.1075     33.9213     33.7387     34.6916     34.2821     33.9566     34.0551
 44      3.2541      3.5247      3.5335      3.5663      3.7706      3.1729      3.6543      3.5546      3.5361
 45      0.0000      0.0516      0.2432      0.0031      0.0000      0.0839      0.0983      0.0000      0.0000
 46      0.0000      0.0909      0.0000      0.0000      0.0161      0.1578      0.2135      0.0873      0.0360
 47      0.0000      0.0643      0.0317      0.0000      0.0174      0.0000      0.0000      0.0042      0.0000
 48      0.0000      0.0754      0.1068      0.0437      0.0000      0.0000      0.1993      0.0000      0.0000
 49      0.0000      0.0274      0.0791      0.0269      0.0229      0.0000      0.0000      0.0000      0.0000
 50      0.0000      0.0757      0.0615      0.0469      0.0092      0.0000      0.0510      0.0000      0.1624
 51      0.0000      0.0032      0.0000      0.0000      0.0000      0.0000      0.0007      0.0000      0.0000
 52      0.0000      0.0091      0.0000      0.0000      0.0000      0.0000      0.0323      0.0000      0.0000
 53      0.0000      0.0034      0.0000      0.0000      0.0000      0.0038      0.0000      0.0000      0.0000
 54      0.0000      0.0391      0.0000      0.0121      0.0000      0.0000      0.0000      0.0188      0.1190
 55      0.0000      0.0099      0.0204      0.0000      0.0000      0.0076      0.0000      0.0000      0.0000
 56      0.0000      0.0065      0.0449      0.0000      0.0000      0.0000      0.0000      0.0000      0.0000
 57      0.0000      0.0088      0.0000      0.0000      0.0000      0.0000      0.0000      0.0000      0.0000
 58      0.0000      0.0123      0.0000      0.0000      0.0000      0.0000      0.0436      0.0000      0.0000
 59      0.0000      0.0098      0.0000      0.0000      0.0000      0.0000      0.0000      0.0000      0.0000
 60      0.0000      0.0227      0.0000      0.0000      0.0000      0.0000      0.0000      0.0007      0.0000
 61      0.0000      0.0772      0.3149      0.0000      0.0000      0.0000      0.0495      0.0168      0.2054
 62      0.0000      0.0726      0.2151      0.1283      0.0000      0.0529      0.1106      0.3593      0.0000
 63      0.0000      0.0397      0.2004      0.0237      0.0000      0.1518      0.2675      0.0000      0.0447
 64      0.0000      0.0454      0.0000      0.0286      0.0463      0.0110      0.0000      0.0000      0.0000
 65      0.0000      0.0398      0.0578      0.0000      0.0000      0.0000      0.0957      0.0000      0.0337
 66      0.0000      0.0057      0.0000      0.0000      0.0000      0.0000      0.0000      0.0000      0.0000
 67      0.0000      0.0104      0.0000      0.0052      0.0000      0.0000      0.0000      0.0000      0.0000
 68      0.0000      0.0192      0.0000      0.0000      0.0304      0.0000      0.0133      0.0000      0.0000
 69      0.0000      0.0083      0.0123      0.0000      0.0000      0.0000      0.0192      0.0397      0.0076
 70      0.0000      0.0099      0.0000      0.0000      0.0000      0.0466      0.0000      0.0419      0.0000
 71      0.0000      0.0099      0.0000      0.0000      0.0000      0.0676      0.0000      0.0000      0.0000
 72      0.0000      0.0013      0.0000      0.0160      0.0000      0.0000      0.0000      0.0000      0.0000
 73      0.0000      0.0044      0.0000      0.0000      0.0227      0.0000      0.0000      0.0000      0.0000
 74      0.0000      0.0029      0.0000      0.0000      0.0000      0.0000      0.0000      0.0000      0.0000
 75      0.0000      0.0061      0.0000      0.0000      0.0000      0.0000      0.0094      0.0000      0.0698
 76      0.0000      0.0050      0.0000      0.0000      0.0000      0.0000      0.0000      0.0000      0.0000
 77      0.0000      0.0024      0.0000      0.0000      0.0000      0.0000      0.0000      0.0000      0.0009
 78      0.0000      0.0037      0.0000      0.0000      0.0000      0.0261      0.0000      0.0000      0.0000
 79      0.0000      0.0105      0.0000      0.0000      0.0000      0.0092      0.0000      0.0000      0.0000
 80      0.0000      0.0078      0.0000      0.0093      0.0000      0.0000      0.0000      0.0000      0.0000
 81      0.0000      0.0067      0.0000      0.0000      0.0039      0.0000      0.0000      0.0269      0.0061
 82      0.0000      0.0122      0.0000      0.0534      0.0000      0.0000      0.0229      0.0091      0.0000
 83      0.0000      0.0178      0.0000      0.0000      0.0000      0.0000      0.0000      0.0000      0.0000
 84      0.0000      0.0350      0.0479      0.0000      0.0000      0.0000      0.0151      0.0000      0.0000
 85      0.0000      0.0211      0.0000      0.0200      0.0000      0.0066      0.0000      0.0000      0.0000
 86      0.0000      0.0224      0.0000      0.0000      0.0000      0.0000      0.0000      0.0000      0.0734
 87      0.0000      0.0603      0.2595      0.0000      0.0000      0.0000      0.0000      0.1789      0.0000
 88      0.0000      0.0152      0.0000      0.0000      0.0000      0.0000      0.0000      0.0000      0.0000
 89      0.0000      0.0193      0.0000      0.0000      0.0000      0.0363      0.0000      0.0147      0.0000
 90      0.0000      0.0104      0.0000      0.0000      0.0000      0.0000      0.0723      0.0000      0.0000
 91      0.0000      0.0036      0.0038      0.0000      0.0331      0.0000      0.0000      0.0000      0.0000
 92      0.0000      0.0084      0.0000      0.0282      0.0000      0.0000      0.0000      0.0000      0.0000
 93      0.0000      0.0067      0.0000      0.1066      0.0000      0.0000      0.0000      0.0137      0.0273
 94      0.0000      0.0087      0.0000      0.0000      0.0000      0.0000      0.0000      0.0000      0.0000
 95      0.0000      0.0044      0.0000      0.0000      0.0000      0.0000      0.0000      0.0000      0.0000
 96      0.0000      0.0086      0.0000      0.0000      0.0000      0.0035      0.0000      0.0000      0.0000
 97      0.0000      0.0032      0.0000      0.0209      0.0000      0.0000      0.0000      0.0000      0.0415
 98      0.0000      0.0028      0.0000      0.0266      0.0000      0.0000      0.0000      0.0000      0.0000
 99      0.0000      0.0035      0.0344      0.0000      0.0000      0.0000      0.0000      0.0000      0.0000
100      0.0000      0.0023      0.0000      0.0000      0.0000      0.0000      0.0000      0.0000      0.0000
101      0.0000      0.0018      0.0000      0.0000      0.0000      0.0000      0.0000      0.0000      0.0000
102      0.0000      0.0029      0.0000      0.0000      0.0000      0.0000      0.0000      0.0000      0.0000
103      0.0000      0.0064      0.0415      0.0000      0.0000      0.0000      0.0000      0.0000      0.0000
104      0.0000      0.0082      0.0000      0.0000      0.0000      0.0000      0.0000      0.0000      0.0000
105      0.0000      0.0050      0.0082      0.0000      0.0000      0.0000      0.0000      0.0000      0.0000
106      0.0000      0.0060      0.0000      0.0000      0.0000      0.0000      0.0000      0.0000      0.0000
107      0.0000      0.0065      0.0000      0.0000      0.0000      0.0000      0.0000      0.0000      0.0000
108      0.0000      0.0101      0.0000      0.0000      0.0000      0.0000      0.0207      0.0000      0.0000
109      0.0000      0.0166      0.0075      0.0000      0.0000      0.0000      0.0000      0.0000      0.0112
110      0.0000      0.0155      0.0000      0.0149      0.0000      0.0000      0.0000      0.0000      0.0000
111      0.0000      0.0272      0.0542      0.0958      0.0000      0.0000      0.0000      0.1165      0.0000
112      0.0000      0.0526      0.0000      0.0000      0.0000      0.1485      0.0000      0.0139      0.0000
113      0.0000      0.0184      0.0000      0.0000      0.0000      0.1261      0.0000      0.0000      0.0248
114      0.0000      0.0154      0.0000      0.0000      0.0064      0.0000      0.0000      0.0000      0.0000
115      0.0000      0.0140      0.0000      0.0000      0.0365      0.0000      0.0106      0.0000      0.0000
116      0.0000      0.0124      0.0000      0.0000      0.0000      0.0685      0.0000      0.0000      0.0209
117      0.0000      0.0106      0.0000      0.0000      0.0000      0.0000      0.0503      0.0000      0.0550
118      0.0000      0.0083      0.0000      0.0000      0.0000      0.0000      0.0000      0.0000      0.0000
119      0.0000      0.0058      0.0252      0.0000      0.0000      0.0142      0.0021      0.0000      0.0000
120      0.0000      0.0033      0.0132      0.0000      0.0000      0.0000      0.0000      0.0000      0.0000
121      0.0000      0.0033      0.0000      0.0000      0.0000      0.0000      0.0000      0.0000      0.0000
122      0.0000      0.0022      0.0000      0.0000      0.0000      0.0000      0.0000      0.0000      0.0000
123      0.0000      0.0025      0.0000      0.0000      0.0000      0.0000      0.0000      0.0000      0.0000
124      0.0000      0.0012      0.0000      0.0000      0.0000      0.0000      0.0000      0.0000      0.0000
125      0.0000      0.0022      0.0000      0.0000      0.0000      0.0235      0.0000      0.0000      0.0000
126      0.0000      0.0015      0.0000      0.0000      0.0000      0.0000      0.0000      0.0000      0.0000
127      0.0000      0.0052      0.0000      0.0000      0.0000      0.0000      0.0000      0.0000      0.0000
128      0.0000      0.0082      0.0000      0.0000      0.0000      0.0000      0.0000      0.0000      0.0741
129      0.0000      0.0098      0.0024      0.0000      0.0000      0.0000      0.0000      0.0000      0.0281
130      0.0000      0.0047      0.0000      0.0000      0.0000      0.0000      0.0083      0.0000      0.0000
131      0.0000      0.0027      0.0000      0.0000      0.0024      0.0000      0.0000      0.0100      0.0000
132      0.0000      0.0021      0.0000      0.0000      0.0000      0.0000      0.0000      0.0000      0.0000
133      0.0000      0.0053      0.0000      0.0000      0.0000      0.0000      0.0000      0.0000      0.0000
134      0.0000      0.0299      0.1794      0.0000      0.0000      0.0000      0.0000      0.0000      0.1834
135      0.0000      0.0214      0.0149      0.0016      0.0000      0.0000      0.0000      0.0000      0.0000
136      0.0000      0.0531      0.0154      0.0728      0.0000      0.1170      0.0000      0.0000      0.0000
137      0.0000      0.0340      0.0000      0.0120      0.0000      0.0000      0.0000      0.0000      0.0000
138      0.0000      0.0386      0.0000      0.0194      0.0000      0.0000      0.0000      0.0567      0.1243
139      0.0000      0.0285      0.0000      0.0336      0.0155      0.0000      0.0000      0.0242      0.0000
140      0.0000      0.0273      0.0169      0.1689      0.0000      0.0000      0.0007      0.0000      0.0000
141      0.0000      0.0090      0.0000      0.0000      0.0000      0.0000      0.0000      0.0000      0.0000
142      0.0000      0.0075      0.0000      0.0000      0.0000      0.0000      0.0000      0.0000      0.0000
143      0.0000      0.0092      0.0059      0.0000      0.0000      0.0255      0.0000      0.0000      0.0000
144      0.0000      0.0035      0.0000      0.0000      0.0000      0.0460      0.0000      0.0000      0.0000
145      0.0000      0.0016      0.0000      0.0000      0.0000      0.0000      0.0000      0.0089      0.0000
146      0.0000      0.0085      0.0000      0.0005      0.0000      0.0000      0.0000      0.0454      0.0000
147      0.0000      0.0091      0.0000      0.0000      0.0000      0.0271      0.0000      0.0000      0.0000
148      0.0555      0.0099      0.0365      0.0000      0.0362      0.0000      0.0000      0.0000      0.0000
149      0.0000      0.0007      0.0000      0.0000      0.0000      0.0000      0.0000      0.0000      0.0000
150      0.0000      0.0125      0.0000      0.0000      0.0000      0.0029      0.0000      0.0000      0.0612

# j      m_j: min, <> & last-chain-values for 1 ...  7 chains
  1  0.0000E+00  6.5836E-05  0.0000E+00  0.0000E+00  0.0000E+00  0.0000E+00  0.0000E+00  0.0000E+00  0.0000E+00
  2  1.8496E-01  1.7132E-01  1.7175E-01  1.7353E-01  1.7746E-01  1.7768E-01  1.7704E-01  1.7651E-01  1.6970E-01
  3  0.0000E+00  1.4132E-04  0.0000E+00  0.0000E+00  0.0000E+00  0.0000E+00  0.0000E+00  0.0000E+00  0.0000E+00
  4  0.0000E+00  4.0790E-05  0.0000E+00  0.0000E+00  0.0000E+00  0.0000E+00  0.0000E+00  0.0000E+00  0.0000E+00
  5  0.0000E+00  5.2392E-05  0.0000E+00  0.0000E+00  0.0000E+00  0.0000E+00  0.0000E+00  0.0000E+00  0.0000E+00
  6  0.0000E+00  5.8542E-05  0.0000E+00  0.0000E+00  0.0000E+00  0.0000E+00  0.0000E+00  0.0000E+00  0.0000E+00
  7  0.0000E+00  8.8491E-05  0.0000E+00  0.0000E+00  0.0000E+00  0.0000E+00  0.0000E+00  3.3322E-04  0.0000E+00
  8  0.0000E+00  3.7364E-04  8.8485E-04  5.4275E-03  0.0000E+00  0.0000E+00  0.0000E+00  0.0000E+00  7.9215E-04
  9  0.0000E+00  7.2181E-04  3.2030E-03  0.0000E+00  0.0000E+00  7.2538E-04  0.0000E+00  0.0000E+00  0.0000E+00
 10  0.0000E+00  1.7241E-03  0.0000E+00  3.3885E-03  0.0000E+00  8.1033E-03  0.0000E+00  1.0219E-02  0.0000E+00
 11  4.4288E-01  4.3761E-01  4.4128E-01  4.4783E-01  4.4071E-01  4.5220E-01  4.4893E-01  4.4370E-01  4.4350E-01
 12  0.0000E+00  5.9082E-03  2.3864E-03  0.0000E+00  0.0000E+00  0.0000E+00  0.0000E+00  2.3753E-02  5.6259E-03
 13  0.0000E+00  7.7993E-03  0.0000E+00  1.0690E-02  0.0000E+00  0.0000E+00  0.0000E+00  0.0000E+00  0.0000E+00
 14  0.0000E+00  9.2493E-03  0.0000E+00  0.0000E+00  0.0000E+00  1.7202E-02  2.1742E-02  1.3175E-02  9.9059E-04
 15  0.0000E+00  1.0490E-02  0.0000E+00  0.0000E+00  2.5910E-04  1.2207E-02  1.2663E-02  4.5749E-02  0.0000E+00
 16  0.0000E+00  2.5939E-02  0.0000E+00  0.0000E+00  0.0000E+00  0.0000E+00  0.0000E+00  9.8232E-03  4.1854E-02
 17  0.0000E+00  2.8132E-02  0.0000E+00  0.0000E+00  0.0000E+00  0.0000E+00  2.6502E-02  0.0000E+00  0.0000E+00
 18  0.0000E+00  6.0960E-02  1.5090E-01  0.0000E+00  0.0000E+00  7.8564E-02  1.0137E-01  0.0000E+00  8.4443E-03
 19  0.0000E+00  1.0235E-01  3.6917E-01  2.2181E-01  2.3394E-02  8.5617E-02  0.0000E+00  2.9227E-01  1.8280E-01
 20  6.9870E-01  1.5248E-01  1.3996E-01  2.1365E-01  1.4466E-01  4.5780E-02  3.5259E-02  2.1419E-01  1.6992E-02
 21  7.7183E+00  8.1015E+00  8.1243E+00  7.6936E+00  9.4311E+00  7.5678E+00  7.4234E+00  8.5140E+00  8.4013E+00
 22  1.5648E+01  1.5423E+01  1.3094E+01  1.5532E+01  1.6983E+01  1.5802E+01  1.6480E+01  1.5582E+01  1.5078E+01
 23  3.2419E+01  3.1043E+01  3.2334E+01  3.2328E+01  3.0416E+01  3.1325E+01  3.1282E+01  3.1990E+01  3.1272E+01
 24  0.0000E+00  5.0385E-01  1.2870E+00  1.0921E+00  0.0000E+00  4.7412E-01  1.6183E-01  4.7198E-01  1.1623E-01
 25  0.0000E+00  1.7737E-01  3.9529E-02  7.6516E-02  1.1464E-01  3.7443E-02  0.0000E+00  0.0000E+00  1.2731E-01
 26  0.0000E+00  5.3506E-05  4.3146E-04  0.0000E+00  0.0000E+00  0.0000E+00  0.0000E+00  0.0000E+00  0.0000E+00
 27  0.0000E+00  3.9440E-05  0.0000E+00  0.0000E+00  0.0000E+00  0.0000E+00  0.0000E+00  0.0000E+00  0.0000E+00
 28  0.0000E+00  4.6427E-05  0.0000E+00  0.0000E+00  0.0000E+00  2.9148E-05  0.0000E+00  0.0000E+00  0.0000E+00
 29  0.0000E+00  3.4491E-05  0.0000E+00  0.0000E+00  0.0000E+00  0.0000E+00  0.0000E+00  0.0000E+00  0.0000E+00
 30  0.0000E+00  5.8439E-05  0.0000E+00  0.0000E+00  0.0000E+00  0.0000E+00  0.0000E+00  0.0000E+00  0.0000E+00
 31  0.0000E+00  1.2360E-04  0.0000E+00  0.0000E+00  0.0000E+00  0.0000E+00  0.0000E+00  0.0000E+00  0.0000E+00
 32  0.0000E+00  2.0347E-04  0.0000E+00  0.0000E+00  0.0000E+00  2.4278E-04  0.0000E+00  0.0000E+00  0.0000E+00
 33  0.0000E+00  4.2600E-04  0.0000E+00  2.7438E-03  0.0000E+00  0.0000E+00  0.0000E+00  0.0000E+00  0.0000E+00
 34  0.0000E+00  1.4869E-03  0.0000E+00  0.0000E+00  0.0000E+00  6.0047E-03  4.2948E-03  0.0000E+00  5.3903E-04
 35  0.0000E+00  2.9450E-03  2.2525E-03  3.5940E-04  0.0000E+00  1.0397E-03  0.0000E+00  0.0000E+00  0.0000E+00
 36  3.4762E-01  3.5969E-01  3.5069E-01  3.6886E-01  3.6864E-01  3.6044E-01  3.9483E-01  3.5583E-01  3.5354E-01
 37  8.5269E-01  7.7812E-01  7.8474E-01  7.9119E-01  8.4688E-01  7.9795E-01  7.7882E-01  7.9383E-01  7.7966E-01
 38  1.0662E-01  1.5738E-02  0.0000E+00  2.3455E-02  1.1018E-02  0.0000E+00  1.2921E-02  0.0000E+00  2.7283E-02
 39  0.0000E+00  9.2997E-03  0.0000E+00  0.0000E+00  0.0000E+00  0.0000E+00  0.0000E+00  0.0000E+00  7.3590E-03
 40  2.0900E-02  2.1187E-02  1.1721E-03  2.3619E-02  3.9923E-02  2.3327E-02  0.0000E+00  5.6401E-02  3.1161E-02
 41  0.0000E+00  6.0438E-02  0.0000E+00  0.0000E+00  0.0000E+00  0.0000E+00  0.0000E+00  0.0000E+00  1.8899E-02
 42  0.0000E+00  7.2381E-02  0.0000E+00  1.5757E-01  0.0000E+00  2.8417E-02  5.3787E-02  0.0000E+00  0.0000E+00
 43  3.4878E+01  3.3440E+01  3.3664E+01  3.3668E+01  3.3588E+01  3.4758E+01  3.4489E+01  3.3982E+01  3.3158E+01
 44  5.2146E+00  5.5042E+00  5.5157E+00  5.5981E+00  5.9366E+00  5.0275E+00  5.8142E+00  5.6258E+00  5.4450E+00
 45  0.0000E+00  1.1230E-01  5.2911E-01  6.8042E-03  0.0000E+00  1.8535E-01  2.1799E-01  0.0000E+00  0.0000E+00
 46  0.0000E+00  2.3560E-01  0.0000E+00  0.0000E+00  4.2063E-02  4.1527E-01  5.6405E-01  2.2932E-01  9.2157E-02
 47  0.0000E+00  2.1855E-01  1.0783E-01  0.0000E+00  5.9632E-02  0.0000E+00  0.0000E+00  1.4615E-02  0.0000E+00
 48  0.0000E+00  3.0506E-01  4.3181E-01  1.7774E-01  0.0000E+00  0.0000E+00  8.2160E-01  0.0000E+00  0.0000E+00
 49  0.0000E+00  1.2397E-01  3.5789E-01  1.2231E-01  1.0434E-01  0.0000E+00  0.0000E+00  0.0000E+00  0.0000E+00
 50  0.0000E+00  4.0328E-01  3.2720E-01  2.5116E-01  4.9472E-02  0.0000E+00  2.7653E-01  0.0000E+00  8.5245E-01
 51  0.0000E+00  7.9183E-05  0.0000E+00  0.0000E+00  0.0000E+00  0.0000E+00  1.6388E-05  0.0000E+00  0.0000E+00
 52  0.0000E+00  6.0822E-05  0.0000E+00  0.0000E+00  0.0000E+00  0.0000E+00  2.2065E-04  0.0000E+00  0.0000E+00
 53  0.0000E+00  3.4346E-05  0.0000E+00  0.0000E+00  0.0000E+00  3.8917E-05  0.0000E+00  0.0000E+00  0.0000E+00
 54  0.0000E+00  3.8047E-04  0.0000E+00  1.1812E-04  0.0000E+00  0.0000E+00  0.0000E+00  1.8549E-04  1.1426E-03
 55  0.0000E+00  1.4176E-04  2.9362E-04  0.0000E+00  0.0000E+00  1.1056E-04  0.0000E+00  0.0000E+00  0.0000E+00
 56  0.0000E+00  1.2329E-04  8.5290E-04  0.0000E+00  0.0000E+00  0.0000E+00  0.0000E+00  0.0000E+00  0.0000E+00
 57  0.0000E+00  2.6984E-04  0.0000E+00  0.0000E+00  0.0000E+00  0.0000E+00  0.0000E+00  0.0000E+00  0.0000E+00
 58  0.0000E+00  5.3981E-04  0.0000E+00  0.0000E+00  0.0000E+00  0.0000E+00  1.9515E-03  0.0000E+00  0.0000E+00
 59  0.0000E+00  5.9919E-04  0.0000E+00  0.0000E+00  0.0000E+00  0.0000E+00  0.0000E+00  0.0000E+00  0.0000E+00
 60  0.0000E+00  1.5459E-03  0.0000E+00  0.0000E+00  0.0000E+00  0.0000E+00  0.0000E+00  5.1211E-05  0.0000E+00
 61  0.0000E+00  6.6957E-03  2.7287E-02  0.0000E+00  0.0000E+00  0.0000E+00  4.3755E-03  1.4769E-03  1.7561E-02
 62  0.0000E+00  7.9808E-03  2.3628E-02  1.4170E-02  0.0000E+00  5.8957E-03  1.2389E-02  4.0020E-02  0.0000E+00
 63  0.0000E+00  6.6390E-03  3.3494E-02  3.9839E-03  0.0000E+00  2.5758E-02  4.5573E-02  0.0000E+00  7.3704E-03
 64  1.2758E-05  1.2477E-02  0.0000E+00  7.9199E-03  1.2834E-02  3.0805E-03  0.0000E+00  0.0000E+00  0.0000E+00
 65  0.0000E+00  1.8513E-02  2.6838E-02  0.0000E+00  0.0000E+00  0.0000E+00  4.5303E-02  0.0000E+00  1.5435E-02
 66  0.0000E+00  3.4001E-03  0.0000E+00  0.0000E+00  0.0000E+00  0.0000E+00  0.0000E+00  0.0000E+00  0.0000E+00
 67  0.0000E+00  8.4673E-03  0.0000E+00  4.2413E-03  0.0000E+00  0.0000E+00  0.0000E+00  0.0000E+00  0.0000E+00
 68  0.0000E+00  2.9137E-02  0.0000E+00  0.0000E+00  4.6515E-02  0.0000E+00  2.0522E-02  0.0000E+00  0.0000E+00
 69  0.0000E+00  2.1738E-02  3.2281E-02  0.0000E+00  0.0000E+00  0.0000E+00  5.1263E-02  1.0540E-01  1.9661E-02
 70  0.0000E+00  3.6065E-02  0.0000E+00  0.0000E+00  0.0000E+00  1.7232E-01  0.0000E+00  1.5454E-01  0.0000E+00
 71  0.0000E+00  4.2419E-02  0.0000E+00  0.0000E+00  0.0000E+00  2.9465E-01  0.0000E+00  0.0000E+00  0.0000E+00
 72  0.0000E+00  7.3938E-03  0.0000E+00  9.1239E-02  0.0000E+00  0.0000E+00  0.0000E+00  0.0000E+00  0.0000E+00
 73  0.0000E+00  3.1405E-02  0.0000E+00  0.0000E+00  1.6354E-01  0.0000E+00  0.0000E+00  0.0000E+00  0.0000E+00
 74  0.0000E+00  2.2744E-02  0.0000E+00  0.0000E+00  0.0000E+00  0.0000E+00  0.0000E+00  0.0000E+00  0.0000E+00
 75  0.0000E+00  5.6171E-02  0.0000E+00  0.0000E+00  0.0000E+00  0.0000E+00  8.7544E-02  0.0000E+00  6.3011E-01
 76  0.0000E+00  1.0524E-04  0.0000E+00  0.0000E+00  0.0000E+00  0.0000E+00  0.0000E+00  0.0000E+00  0.0000E+00
 77  0.0000E+00  2.0398E-05  0.0000E+00  0.0000E+00  0.0000E+00  0.0000E+00  0.0000E+00  0.0000E+00  7.4527E-06
 78  0.0000E+00  3.5496E-05  0.0000E+00  0.0000E+00  0.0000E+00  2.5637E-04  0.0000E+00  0.0000E+00  0.0000E+00
 79  0.0000E+00  1.2260E-04  0.0000E+00  0.0000E+00  0.0000E+00  1.0806E-04  0.0000E+00  0.0000E+00  0.0000E+00
 80  0.0000E+00  1.1753E-04  0.0000E+00  1.4022E-04  0.0000E+00  0.0000E+00  0.0000E+00  0.0000E+00  0.0000E+00
 81  0.0000E+00  1.3207E-04  0.0000E+00  0.0000E+00  7.8102E-05  0.0000E+00  0.0000E+00  5.4024E-04  1.2013E-04
 82  0.0000E+00  3.2662E-04  0.0000E+00  1.4317E-03  0.0000E+00  0.0000E+00  6.2366E-04  2.4631E-04  0.0000E+00
 83  0.0000E+00  7.0002E-04  0.0000E+00  0.0000E+00  0.0000E+00  0.0000E+00  0.0000E+00  0.0000E+00  0.0000E+00
 84  0.0000E+00  1.8995E-03  2.6013E-03  0.0000E+00  0.0000E+00  0.0000E+00  8.3480E-04  0.0000E+00  0.0000E+00
 85  0.0000E+00  1.3941E-03  0.0000E+00  1.3252E-03  0.0000E+00  4.4424E-04  0.0000E+00  0.0000E+00  0.0000E+00
 86  0.0000E+00  1.9972E-03  0.0000E+00  0.0000E+00  0.0000E+00  0.0000E+00  0.0000E+00  0.0000E+00  6.4715E-03
 87  0.0000E+00  7.1758E-03  3.0869E-02  0.0000E+00  0.0000E+00  0.0000E+00  0.0000E+00  2.1585E-02  0.0000E+00
 88  0.0000E+00  2.7605E-03  0.0000E+00  0.0000E+00  0.0000E+00  0.0000E+00  0.0000E+00  0.0000E+00  0.0000E+00
 89  0.0000E+00  5.8195E-03  0.0000E+00  0.0000E+00  0.0000E+00  1.1115E-02  0.0000E+00  4.4973E-03  0.0000E+00
 90  0.0000E+00  5.7826E-03  0.0000E+00  0.0000E+00  0.0000E+00  0.0000E+00  4.1170E-02  0.0000E+00  0.0000E+00
 91  0.0000E+00  2.5777E-03  2.7226E-03  0.0000E+00  2.3959E-02  0.0000E+00  0.0000E+00  0.0000E+00  0.0000E+00
 92  0.0000E+00  8.0652E-03  0.0000E+00  2.7209E-02  0.0000E+00  0.0000E+00  0.0000E+00  0.0000E+00  0.0000E+00
 93  0.0000E+00  1.3120E-02  0.0000E+00  2.0885E-01  0.0000E+00  0.0000E+00  0.0000E+00  2.6991E-02  5.2481E-02
 94  0.0000E+00  3.0285E-02  0.0000E+00  0.0000E+00  0.0000E+00  0.0000E+00  0.0000E+00  0.0000E+00  0.0000E+00
 95  0.0000E+00  2.0896E-02  0.0000E+00  0.0000E+00  0.0000E+00  0.0000E+00  0.0000E+00  0.0000E+00  0.0000E+00
 96  0.0000E+00  4.9006E-02  0.0000E+00  0.0000E+00  0.0000E+00  2.0169E-02  0.0000E+00  0.0000E+00  0.0000E+00
 97  0.0000E+00  2.4000E-02  0.0000E+00  1.5590E-01  0.0000E+00  0.0000E+00  0.0000E+00  0.0000E+00  3.0317E-01
 98  0.0000E+00  2.6831E-02  0.0000E+00  2.5351E-01  0.0000E+00  0.0000E+00  0.0000E+00  0.0000E+00  0.0000E+00
 99  0.0000E+00  3.8359E-02  3.7189E-01  0.0000E+00  0.0000E+00  0.0000E+00  0.0000E+00  0.0000E+00  0.0000E+00
100  0.0000E+00  2.8444E-02  0.0000E+00  0.0000E+00  0.0000E+00  0.0000E+00  0.0000E+00  0.0000E+00  0.0000E+00
101  0.0000E+00  2.5161E-05  0.0000E+00  0.0000E+00  0.0000E+00  0.0000E+00  0.0000E+00  0.0000E+00  0.0000E+00
102  0.0000E+00  2.0718E-05  0.0000E+00  0.0000E+00  0.0000E+00  0.0000E+00  0.0000E+00  0.0000E+00  0.0000E+00
103  0.0000E+00  5.0507E-05  3.2748E-04  0.0000E+00  0.0000E+00  0.0000E+00  0.0000E+00  0.0000E+00  0.0000E+00
104  0.0000E+00  8.4916E-05  0.0000E+00  0.0000E+00  0.0000E+00  0.0000E+00  0.0000E+00  0.0000E+00  0.0000E+00
105  0.0000E+00  1.0895E-04  1.8031E-04  0.0000E+00  0.0000E+00  0.0000E+00  0.0000E+00  0.0000E+00  0.0000E+00
106  0.0000E+00  1.4137E-04  0.0000E+00  0.0000E+00  0.0000E+00  0.0000E+00  0.0000E+00  0.0000E+00  0.0000E+00
107  0.0000E+00  2.0350E-04  0.0000E+00  0.0000E+00  0.0000E+00  0.0000E+00  0.0000E+00  0.0000E+00  0.0000E+00
108  0.0000E+00  5.3150E-04  0.0000E+00  0.0000E+00  0.0000E+00  0.0000E+00  1.1055E-03  0.0000E+00  0.0000E+00
109  0.0000E+00  1.0451E-03  4.7015E-04  0.0000E+00  0.0000E+00  0.0000E+00  0.0000E+00  0.0000E+00  6.9518E-04
110  0.0000E+00  1.1655E-03  0.0000E+00  1.1313E-03  0.0000E+00  0.0000E+00  0.0000E+00  0.0000E+00  0.0000E+00
111  0.0000E+00  2.8543E-03  5.6870E-03  1.0099E-02  0.0000E+00  0.0000E+00  0.0000E+00  1.2383E-02  4.3673E-06
112  0.0000E+00  7.2696E-03  0.0000E+00  0.0000E+00  0.0000E+00  2.0815E-02  0.0000E+00  1.9425E-03  0.0000E+00
113  0.0000E+00  3.7888E-03  0.0000E+00  0.0000E+00  0.0000E+00  2.6364E-02  0.0000E+00  0.0000E+00  5.0314E-03
114  0.0000E+00  5.5783E-03  0.0000E+00  0.0000E+00  2.3435E-03  0.0000E+00  0.0000E+00  0.0000E+00  0.0000E+00
115  7.8463E-06  1.0190E-02  0.0000E+00  0.0000E+00  2.6685E-02  0.0000E+00  7.8274E-03  0.0000E+00  0.0000E+00
116  0.0000E+00  1.4447E-02  0.0000E+00  0.0000E+00  0.0000E+00  8.1063E-02  0.0000E+00  0.0000E+00  2.4037E-02
117  0.0000E+00  1.4549E-02  0.0000E+00  0.0000E+00  0.0000E+00  0.0000E+00  7.0134E-02  0.0000E+00  7.4293E-02
118  0.0000E+00  2.3089E-02  0.0000E+00  0.0000E+00  0.0000E+00  0.0000E+00  0.0000E+00  0.0000E+00  0.0000E+00
119  0.0000E+00  2.7997E-02  1.2110E-01  0.0000E+00  0.0000E+00  6.9176E-02  1.0384E-02  0.0000E+00  1.6417E-04
120  0.0000E+00  2.2431E-02  9.0459E-02  0.0000E+00  0.0000E+00  0.0000E+00  0.0000E+00  0.0000E+00  0.0000E+00
121  0.0000E+00  2.6543E-02  0.0000E+00  0.0000E+00  0.0000E+00  0.0000E+00  0.0000E+00  0.0000E+00  0.0000E+00
122  0.0000E+00  2.3852E-02  0.0000E+00  0.0000E+00  0.0000E+00  0.0000E+00  0.0000E+00  0.0000E+00  0.0000E+00
123  0.0000E+00  3.6068E-02  0.0000E+00  0.0000E+00  0.0000E+00  0.0000E+00  0.0000E+00  0.0000E+00  0.0000E+00
124  0.0000E+00  1.9185E-02  0.0000E+00  0.0000E+00  0.0000E+00  0.0000E+00  0.0000E+00  0.0000E+00  0.0000E+00
125  0.0000E+00  4.3234E-02  0.0000E+00  0.0000E+00  0.0000E+00  4.6466E-01  0.0000E+00  0.0000E+00  0.0000E+00
126  0.0000E+00  1.5827E-05  0.0000E+00  0.0000E+00  0.0000E+00  0.0000E+00  0.0000E+00  0.0000E+00  0.0000E+00
127  0.0000E+00  2.7942E-05  0.0000E+00  0.0000E+00  0.0000E+00  0.0000E+00  0.0000E+00  0.0000E+00  0.0000E+00
128  0.0000E+00  6.6028E-05  0.0000E+00  0.0000E+00  0.0000E+00  0.0000E+00  0.0000E+00  0.0000E+00  5.8814E-04
129  0.0000E+00  1.6086E-04  3.9725E-05  0.0000E+00  0.0000E+00  0.0000E+00  0.0000E+00  0.0000E+00  4.5652E-04
130  0.0000E+00  1.0492E-04  0.0000E+00  0.0000E+00  0.0000E+00  0.0000E+00  1.8889E-04  0.0000E+00  0.0000E+00
131  0.0000E+00  6.9786E-05  0.0000E+00  0.0000E+00  6.3152E-05  0.0000E+00  0.0000E+00  2.6220E-04  0.0000E+00
132  0.0000E+00  7.2561E-05  0.0000E+00  0.0000E+00  0.0000E+00  0.0000E+00  0.0000E+00  0.0000E+00  0.0000E+00
133  0.0000E+00  2.7314E-04  0.0000E+00  0.0000E+00  0.0000E+00  0.0000E+00  0.0000E+00  0.0000E+00  0.0000E+00
134  0.0000E+00  1.9456E-03  1.1655E-02  0.0000E+00  0.0000E+00  0.0000E+00  0.0000E+00  0.0000E+00  1.1754E-02
135  0.0000E+00  1.6708E-03  1.1659E-03  1.2851E-04  0.0000E+00  0.0000E+00  0.0000E+00  0.0000E+00  0.0000E+00
136  0.0000E+00  5.9885E-03  1.7320E-03  8.2453E-03  0.0000E+00  1.3388E-02  0.0000E+00  0.0000E+00  0.0000E+00
137  0.0000E+00  5.2383E-03  0.0000E+00  1.8522E-03  0.0000E+00  0.0000E+00  0.0000E+00  0.0000E+00  0.0000E+00
138  0.0000E+00  9.8769E-03  0.0000E+00  4.9903E-03  0.0000E+00  0.0000E+00  0.0000E+00  1.4711E-02  3.1405E-02
139  0.0000E+00  1.3778E-02  0.0000E+00  1.6316E-02  7.5365E-03  0.0000E+00  0.0000E+00  1.1832E-02  0.0000E+00
140  0.0000E+00  3.0529E-02  1.8914E-02  1.9004E-01  0.0000E+00  0.0000E+00  7.5239E-04  0.0000E+00  0.0000E+00
141  0.0000E+00  1.5480E-02  0.0000E+00  0.0000E+00  0.0000E+00  0.0000E+00  0.0000E+00  0.0000E+00  0.0000E+00
142  0.0000E+00  1.5204E-02  0.0000E+00  0.0000E+00  0.0000E+00  0.0000E+00  0.0000E+00  0.0000E+00  0.0000E+00
143  0.0000E+00  3.7193E-02  2.4068E-02  0.0000E+00  0.0000E+00  1.0488E-01  0.0000E+00  0.0000E+00  0.0000E+00
144  0.0000E+00  2.7551E-02  0.0000E+00  0.0000E+00  0.0000E+00  3.7111E-01  0.0000E+00  0.0000E+00  0.0000E+00
145  0.0000E+00  1.8843E-02  0.0000E+00  0.0000E+00  0.0000E+00  0.0000E+00  0.0000E+00  1.0718E-01  0.0000E+00
146  0.0000E+00  1.2046E-01  0.0000E+00  7.1082E-03  0.0000E+00  0.0000E+00  0.0000E+00  6.5065E-01  0.0000E+00
147  0.0000E+00  1.7361E-01  0.0000E+00  0.0000E+00  0.0000E+00  5.2278E-01  0.0000E+00  0.0000E+00  0.0000E+00
148  1.4678E+00  2.5551E-01  9.3970E-01  0.0000E+00  9.3885E-01  0.0000E+00  0.0000E+00  0.0000E+00  0.0000E+00
149  0.0000E+00  2.0110E-02  0.0000E+00  0.0000E+00  0.0000E+00  0.0000E+00  0.0000E+00  0.0000E+00  0.0000E+00
150  0.0000E+00  4.4813E-01  0.0000E+00  0.0000E+00  0.0000E+00  1.0486E-01  0.0000E+00  0.0000E+00  2.1665E+00

# AV, chi2 & Mass for <> & i_chain = 1 ...  7 solutions
AV       0.6043      0.5934      0.5937      0.5933      0.5959      0.5953      0.5948      0.5973      0.5931
chi2 2.4430E+00  2.4850E+00  2.4813E+00  2.4781E+00  2.4592E+00  2.4704E+00  2.4724E+00  2.4640E+00  2.4769E+00
Mass 5.1568E-10  5.2148E-10  5.2197E-10  5.1875E-10  5.1901E-10  5.1529E-10  5.1285E-10  5.1727E-10  5.2865E-10
 -52.44                                  [v0_min (km/s) before EX0s...]
  88.49                                  [vd_min (km/s) before EX0s...]


## Synthetic spectrum (Best Model) ##l_obs f_obs f_syn wei
 3070    [Nl_obs]
 3359.00    0.00000   0.50687   -2.000
 3360.00    0.05313   0.50709   -1.000
 3361.00    0.27294   0.51853   -1.000
 3362.00    0.28884   0.53505   -1.000
 3363.00    0.30809   0.54819   -1.000
 3364.00    0.31991   0.55188   -1.000
 3365.00    0.32217   0.54752   -1.000
 3366.00    0.32905   0.54065   -1.000
 3367.00    0.33949   0.53433   -1.000
 3368.00    0.33392   0.52871   -1.000
 3369.00    0.32318   0.52219   -1.000
 3370.00    0.31753   0.51585   -1.000
 3371.00    0.32130   0.51337   -1.000
 3372.00    0.33347   0.51860   -1.000
 3373.00    0.34597   0.53060   -1.000
 3374.00    0.35661   0.54493   -1.000
 3375.00    0.38091   0.55551   -1.000
 3376.00    0.38760   0.55827   -1.000
 3377.00    0.39812   0.55387   -1.000
 3378.00    0.38980   0.54799   -1.000
 3379.00    0.38747   0.54602   -1.000
 3380.00    0.38582   0.54911   -1.000
 3381.00    0.39539   0.55442   -1.000
 3382.00    0.39794   0.55947   -1.000
 3383.00    0.41070   0.56309   -1.000
 3384.00    0.40844   0.56524   -1.000
 3385.00    0.40791   0.56474   -1.000
 3386.00    0.41335   0.56149   -1.000
 3387.00    0.42919   0.55882   -1.000
 3388.00    0.43703   0.55998   -1.000
 3389.00    0.44295   0.56383   -1.000
 3390.00    0.44974   0.56709   -1.000
 3391.00    0.44756   0.56709   -1.000
 3392.00    0.44017   0.56578   -1.000
 3393.00    0.44594   0.56763   -1.000
 3394.00    0.45385   0.57382   -1.000
 3395.00    0.45735   0.58204   -1.000
 3396.00    0.46500   0.58903   -1.000
 3397.00    0.46481   0.59258   -1.000
 3398.00    0.47465   0.59095   -1.000
 3399.00    0.47960   0.58469   -1.000
 3400.00    0.47639   0.57611   -1.000
 3401.00    0.46899   0.56662   -1.000
 3402.00    0.46719   0.55968   -1.000
 3403.00    0.46539   0.55693   -1.000
 3404.00    0.46556   0.55753   -1.000
 3405.00    0.45770   0.55756   -1.000
 3406.00    0.45337   0.55510   -1.000
 3407.00    0.45238   0.55197   -1.000
 3408.00    0.44902   0.55128   -1.000
 3409.00    0.44838   0.55368   -1.000
 3410.00    0.46218   0.55565   -1.000
 3411.00    0.46448   0.55603   -1.000
 3412.00    0.47004   0.55630   -1.000
 3413.00    0.46563   0.55862   -1.000
 3414.00    0.46474   0.56329   -1.000
 3415.00    0.47856   0.56874   -1.000
 3416.00    0.48160   0.57401   -1.000
 3417.00    0.47627   0.57912   -1.000
 3418.00    0.48623   0.58389   -1.000
 3419.00    0.49787   0.58729   -1.000
 3420.00    0.49611   0.58774   -1.000
 3421.00    0.49185   0.58414   -1.000
 3422.00    0.48710   0.57833   -1.000
 3423.00    0.49377   0.57383   -1.000
 3424.00    0.48460   0.57289   -1.000
 3425.00    0.49683   0.57516   -1.000
 3426.00    0.51067   0.58013   -1.000
 3427.00    0.50761   0.58769   -1.000
 3428.00    0.50758   0.59597   -1.000
 3429.00    0.51555   0.60000   -1.000
 3430.00    0.52018   0.59606   -1.000
 3431.00    0.51732   0.58742   -1.000
 3432.00    0.51806   0.58122   -1.000
 3433.00    0.50277   0.58239   -1.000
 3434.00    0.50569   0.58909   -1.000
 3435.00    0.52159   0.59461   -1.000
 3436.00    0.52011   0.59393   -1.000
 3437.00    0.51159   0.58718   -1.000
 3438.00    0.50876   0.57689   -1.000
 3439.00    0.49660   0.56539   -1.000
 3440.00    0.49069   0.55454   -1.000
 3441.00    0.48651   0.54731   -1.000
 3442.00    0.48663   0.54563   -1.000
 3443.00    0.48809   0.54946   -1.000
 3444.00    0.50453   0.55734   -1.000
 3445.00    0.50521   0.56828   -1.000
 3446.00    0.50644   0.58090   -1.000
 3447.00    0.52559   0.59234   -1.000
 3448.00    0.53260   0.59797   -1.000
 3449.00    0.53335   0.59316   -1.000
 3450.00    0.52201   0.58010   -1.000
 3451.00    0.53091   0.56705   -1.000
 3452.00    0.53081   0.56051   -1.000
 3453.00    0.52457   0.56114   -1.000
 3454.00    0.53257   0.56530   -1.000
 3455.00    0.54282   0.56903   -1.000
 3456.00    0.55203   0.57005   -1.000
 3457.00    0.54557   0.56763   -1.000
 3458.00    0.53767   0.56289   -1.000
 3459.00    0.54200   0.55757   -1.000
 3460.00    0.54734   0.55474   65.147
 3461.00    0.54421   0.55750   65.805
 3462.00    0.55294   0.56453   77.385
 3463.00    0.56122   0.56975   -1.000
 3464.00    0.56062   0.57044   -1.000
 3465.00    0.55321   0.57007   -1.000
 3466.00    0.56148   0.57289   -1.000
 3467.00    0.56200   0.57979   -1.000
 3468.00    0.56242   0.58805   -1.000
 3469.00    0.57490   0.59344   -1.000
 3470.00    0.57733   0.59298   -1.000
 3471.00    0.58095   0.58706  510.825
 3472.00    0.56976   0.57741   -1.000
 3473.00    0.56510   0.56683  510.825
 3474.00    0.55600   0.55882  510.825
 3475.00    0.54223   0.55603   -1.000
 3476.00    0.55020   0.55896   65.945
 3477.00    0.56185   0.56524   67.763
 3478.00    0.56823   0.57239   78.247
 3479.00    0.57784   0.57907  510.825
 3480.00    0.58593   0.58309  510.825
 3481.00    0.57454   0.58282   -1.000
 3482.00    0.57839   0.58017  510.825
 3483.00    0.57585   0.57972  510.825
 3484.00    0.57818   0.58455   -1.000
 3485.00    0.58126   0.59196   -1.000
 3486.00    0.58755   0.59630   -1.000
 3487.00    0.58661   0.59462   -1.000
 3488.00    0.57616   0.58774   -1.000
 3489.00    0.56660   0.58001   -1.000
 3490.00    0.56103   0.57672   -1.000
 3491.00    0.55865   0.57876   -1.000
 3492.00    0.57023   0.58123   -1.000
 3493.00    0.57701   0.57961  510.825
 3494.00    0.57381   0.57346  510.825
 3495.00    0.57955   0.56658   -1.000
 3496.00    0.57478   0.56453   -1.000
 3497.00    0.56695   0.56814  510.825
 3498.00    0.57204   0.57383  510.825
 3499.00    0.57979   0.57662  510.825
 3500.00    0.58217   0.57600   -1.000
 3501.00    0.58351   0.57546   -1.000
 3502.00    0.58192   0.57602   -1.000
 3503.00    0.57882   0.57579  506.434
 3504.00    0.59250   0.57342   -1.000
 3505.00    0.58524   0.57009   -1.000
 3506.00    0.58641   0.56762   -1.000
 3507.00    0.59184   0.56659   -1.000
 3508.00    0.59374   0.56645   -1.000
 3509.00    0.59039   0.56598   -1.000
 3510.00    0.58484   0.56454   -1.000
 3511.00    0.57848   0.56221   -1.000
 3512.00    0.57349   0.56007   -1.000
 3513.00    0.57055   0.56027   -1.000
 3514.00    0.57158   0.56481   -1.000
 3515.00    0.58291   0.57382   -1.000
 3516.00    0.59142   0.58329   -1.000
 3517.00    0.59718   0.58799   -1.000
 3518.00    0.59413   0.58555   -1.000
 3519.00    0.58503   0.57871   -1.000
 3520.00    0.58427   0.57199   -1.000
 3521.00    0.58299   0.56745   -1.000
 3522.00    0.56693   0.56391  510.825
 3523.00    0.56066   0.55974  510.825
 3524.00    0.55898   0.55612  265.365
 3525.00    0.55529   0.55659   65.328
 3526.00    0.55301   0.56223   67.254
 3527.00    0.56573   0.57145   77.740
 3528.00    0.57669   0.58143  510.825
 3529.00    0.58977   0.58949  510.825
 3530.00    0.58994   0.59417  510.825
 3531.00    0.59723   0.59494  510.825
 3532.00    0.59906   0.59185   -1.000
 3533.00    0.59579   0.58695   -1.000
 3534.00    0.60282   0.58395   -1.000
 3535.00    0.60628   0.58551   -1.000
 3536.00    0.58697   0.59079  510.825
 3537.00    0.59620   0.59702  510.825
 3538.00    0.61175   0.60196   -1.000
 3539.00    0.60522   0.60466  510.825
 3540.00    0.59259   0.60532   -1.000
 3541.00    0.59469   0.60528   -1.000
 3542.00    0.59789   0.60634   -1.000
 3543.00    0.60601   0.60828  510.825
 3544.00    0.60004   0.60926   -1.000
 3545.00    0.59591   0.60868   -1.000
 3546.00    0.59757   0.60753   -1.000
 3547.00    0.59525   0.60701   -1.000
 3548.00    0.59540   0.60752   -1.000
 3549.00    0.60053   0.60895   -1.000
 3550.00    0.60165   0.61026   -1.000
 3551.00    0.59743   0.60941   -1.000
 3552.00    0.59564   0.60579   -1.000
 3553.00    0.58474   0.60161   -1.000
 3554.00    0.58500   0.59987   -1.000
 3555.00    0.58846   0.60178   -1.000
 3556.00    0.58868   0.60631   -1.000
 3557.00    0.58345   0.61042   -1.000
 3558.00    0.58810   0.61189   -1.000
 3559.00    0.58786   0.61134   -1.000
 3560.00    0.58778   0.61067   -1.000
 3561.00    0.58691   0.60971   -1.000
 3562.00    0.60064   0.60607   -1.000
 3563.00    0.59374   0.59825  510.825
 3564.00    0.57088   0.58797   -1.000
 3565.00    0.56141   0.57915   -1.000
 3566.00    0.56103   0.57447   66.016
 3567.00    0.56746   0.57316   68.211
 3568.00    0.56344   0.57154   67.451
 3569.00    0.56110   0.56660   67.469
 3570.00    0.55120   0.55928   69.652
 3571.00    0.55020   0.55348   70.395
 3572.00    0.55829   0.55149   68.007
 3573.00    0.56212   0.55304   75.240
 3574.00    0.56948   0.55720   -1.000
 3575.00    0.57670   0.56284   -1.000
 3576.00    0.57120   0.56856  510.825
 3577.00    0.57198   0.57242  510.825
 3578.00    0.56783   0.57236  510.825
 3579.00    0.57176   0.56837  288.417
 3580.00    0.56963   0.56264   68.567
 3581.00    0.55999   0.55823   73.827
 3582.00    0.56418   0.55638   77.341
 3583.00    0.56093   0.55391   77.778
 3584.00    0.54616   0.54698   78.331
 3585.00    0.54299   0.53696   80.420
 3586.00    0.53830   0.53001   82.869
 3587.00    0.54271   0.53078   83.212
 3588.00    0.55591   0.53888   78.913
 3589.00    0.56147   0.55008   74.762
 3590.00    0.57881   0.55992   70.672
 3591.00    0.58571   0.56629   74.632
 3592.00    0.58359   0.57003   -1.000
 3593.00    0.57804   0.57345  510.825
 3594.00    0.57421   0.57821  510.825
 3595.00    0.57797   0.58387   -1.000
 3596.00    0.58524   0.58894  510.825
 3597.00    0.59231   0.59252  510.825
 3598.00    0.59413   0.59447  506.715
 3599.00    0.59365   0.59398  494.165
 3600.00    0.58976   0.58993  488.094
 3601.00    0.58444   0.58354  496.564
 3602.00    0.58204   0.57772  510.825
 3603.00    0.58544   0.57515   -1.000
 3604.00    0.57540   0.57571  510.825
 3605.00    0.57241   0.57682  510.825
 3606.00    0.58236   0.57662  510.825
 3607.00    0.57713   0.57522  510.825
 3608.00    0.56819   0.57368  510.825
 3609.00    0.56637   0.57259   -1.000
 3610.00    0.56811   0.57246  510.825
 3611.00    0.57585   0.57370  510.825
 3612.00    0.57570   0.57617  510.825
 3613.00    0.56857   0.58054   -1.000
 3614.00    0.57585   0.58717   -1.000
 3615.00    0.58638   0.59294   -1.000
 3616.00    0.59049   0.59359  510.825
 3617.00    0.58331   0.58838  510.825
 3618.00    0.57356   0.58189   -1.000
 3619.00    0.57084   0.58018  289.942
 3620.00    0.57787   0.58480   73.492
 3621.00    0.58735   0.59248   -1.000
 3622.00    0.58465   0.59920   -1.000
 3623.00    0.59273   0.60440   -1.000
 3624.00    0.59269   0.61064   -1.000
 3625.00    0.59147   0.61906   -1.000
 3626.00    0.60280   0.62662   -1.000
 3627.00    0.61278   0.62771   -1.000
 3628.00    0.59522   0.61951   -1.000
 3629.00    0.58715   0.60491   -1.000
 3630.00    0.57841   0.59112   -1.000
 3631.00    0.57153   0.58477   -1.000
 3632.00    0.57634   0.58755   -1.000
 3633.00    0.58476   0.59498   -1.000
 3634.00    0.59393   0.60063   -1.000
 3635.00    0.60275   0.60246  510.825
 3636.00    0.60070   0.60378  510.825
 3637.00    0.60258   0.60739   -1.000
 3638.00    0.60781   0.61156  505.516
 3639.00    0.60791   0.61285   -1.000
 3640.00    0.60698   0.60974  469.476
 3641.00    0.59959   0.60323  470.755
 3642.00    0.59148   0.59595  483.361
 3643.00    0.58183   0.59039   -1.000
 3644.00    0.58202   0.58733   -1.000
 3645.00    0.58737   0.58608  510.825
 3646.00    0.59159   0.58604  510.825
 3647.00    0.58783   0.58687  510.825
 3648.00    0.59407   0.58816  510.825
 3649.00    0.59819   0.58991   -1.000
 3650.00    0.59465   0.59288  510.825
 3651.00    0.60590   0.59797   -1.000
 3652.00    0.60912   0.60482  501.400
 3653.00    0.60629   0.61212   -1.000
 3654.00    0.61341   0.61874   -1.000
 3655.00    0.62278   0.62381  464.678
 3656.00    0.62633   0.62673  462.700
 3657.00    0.62275   0.62739  457.338
 3658.00    0.62282   0.62599  452.219
 3659.00    0.61700   0.62279   -1.000
 3660.00    0.60889   0.61840   -1.000
 3661.00    0.61061   0.61423  446.607
 3662.00    0.60965   0.61190  451.652
 3663.00    0.62488   0.61192   -1.000
 3664.00    0.62274   0.61321   -1.000
 3665.00    0.62502   0.61414   -1.000
 3666.00    0.61785   0.61378  461.411
 3667.00    0.61656   0.61239  462.999
 3668.00    0.61357   0.61114  472.412
 3669.00    0.61389   0.61115  478.313
 3670.00    0.61038   0.61317  488.465
 3671.00    0.61805   0.61686  483.064
 3672.00    0.62456   0.62005  465.660
 3673.00    0.62146   0.62032  457.417
 3674.00    0.62470   0.61678   -1.000
 3675.00    0.62515   0.61016   -1.000
 3676.00    0.62377   0.60253   -1.000
 3677.00    0.60932   0.59688   -1.000
 3678.00    0.59845   0.59564  488.102
 3679.00    0.60605   0.59862   -1.000
 3680.00    0.60701   0.60299  510.825
 3681.00    0.61077   0.60560  510.439
 3682.00    0.60985   0.60509  496.656
 3683.00    0.61091   0.60174   -1.000
 3684.00    0.60637   0.59669   -1.000
 3685.00    0.59682   0.59289  494.112
 3686.00    0.59499   0.59515  510.825
 3687.00    0.60482   0.60575  510.825
 3688.00    0.61839   0.61999  510.825
 3689.00    0.62893   0.62961  510.825
 3690.00    0.62888   0.63185  487.388
 3691.00    0.62679   0.63170  457.246
 3692.00    0.63369   0.63447  445.764
 3693.00    0.64288   0.63926  450.539
 3694.00    0.64582   0.64083  462.540
 3695.00    0.63192   0.63659  467.732
 3696.00    0.62192   0.63175   -1.000
 3697.00    0.62174   0.63560   -1.000
 3698.00    0.64031   0.65093   -1.000
 3699.00    0.66467   0.66867  439.332
 3700.00    0.67671   0.67375  428.879
 3701.00    0.66210   0.65801  424.865
 3702.00    0.64102   0.62759   -1.000
 3703.00    0.61250   0.59844   -1.000
 3704.00    0.59901   0.58488   -1.000
 3705.00    0.61317   0.59103   -1.000
 3706.00    0.62676   0.60954   -1.000
 3707.00    0.65124   0.62646   -1.000
 3708.00    0.65392   0.62984   -1.000
 3709.00    0.63134   0.61804   -1.000
 3710.00    0.61441   0.60075   -1.000
 3711.00    0.60465   0.59207   -1.000
 3712.00    0.62178   0.60205   -1.000
 3713.00    0.65562   0.63057   -1.000
 3714.00    0.69105   0.66712   -1.000
 3715.00    0.71585   0.69840   -1.000
 3716.00    0.72773   0.71469   -1.000
 3717.00    0.71806   0.70903   -1.000
 3718.00    0.68528   0.67836   -1.000
 3719.00    0.63482   0.63032   -1.000
 3720.00    0.58486   0.58381  510.825
 3721.00    0.56389   0.55845  326.116
 3722.00    0.57872   0.56524   73.162
 3723.00    0.62467   0.60171   -1.000
 3724.00    0.67475   0.65078   -1.000
 3725.00    0.71155   0.69239   -1.000
 3726.00    0.72052   0.71839  469.103
 3727.00    0.72690   0.73208   -1.000
 3728.00    0.73403   0.73696  489.027
 3729.00    0.72470   0.72980  491.500
 3730.00    0.70597   0.70348  484.550
 3731.00    0.67265   0.65692   -1.000
 3732.00    0.60911   0.60107   -1.000
 3733.00    0.55840   0.55392  309.111
 3734.00    0.54163   0.53200   65.510
 3735.00    0.55708   0.54314   72.905
 3736.00    0.59414   0.58240   74.865
 3737.00    0.65251   0.63695   70.671
 3738.00    0.71335   0.69276   71.435
 3739.00    0.74618   0.73712   -1.000
 3740.00    0.75968   0.76217  510.825
 3741.00    0.76000   0.76819   -1.000
 3742.00    0.75765   0.76068  484.297
 3743.00    0.74294   0.74438  505.032
 3744.00    0.71849   0.72022  510.825
 3745.00    0.69174   0.68732  510.825
 3746.00    0.66587   0.64628   -1.000
 3747.00    0.62407   0.60080   -1.000
 3748.00    0.57422   0.56006   66.087
 3749.00    0.54010   0.53881   70.029
 3750.00    0.55537   0.54863   77.837
 3751.00    0.61106   0.58822   -1.000
 3752.00    0.66658   0.64388   -1.000
 3753.00    0.72455   0.69843   -1.000
 3754.00    0.75554   0.73965   -1.000
 3755.00    0.77678   0.76177   -1.000
 3756.00    0.77380   0.76444   -1.000
 3757.00    0.76403   0.75412   -1.000
 3758.00    0.75651   0.74200   -1.000
 3759.00    0.75140   0.73687   -1.000
 3760.00    0.76755   0.74108   -1.000
 3761.00    0.77735   0.75092   -1.000
 3762.00    0.78058   0.75921   -1.000
 3763.00    0.78460   0.75954   -1.000
 3764.00    0.76815   0.74898   -1.000
 3765.00    0.75252   0.72725   -1.000
 3766.00    0.72449   0.69450   -1.000
 3767.00    0.68475   0.65232   -1.000
 3768.00    0.64366   0.60719   -1.000
 3769.00    0.59941   0.57192   -1.000
 3770.00    0.57860   0.56091   -1.000
 3771.00    0.60651   0.58021   -1.000
 3772.00    0.66455   0.62097   -1.000
 3773.00    0.71106   0.66688   -1.000
 3774.00    0.74107   0.70702   -1.000
 3775.00    0.76053   0.74065   -1.000
 3776.00    0.79627   0.77190   -1.000
 3777.00    0.81617   0.80270   -1.000
 3778.00    0.84174   0.83115   -1.000
 3779.00    0.86237   0.85438   -1.000
 3780.00    0.86873   0.87009  423.719
 3781.00    0.86723   0.87728   -1.000
 3782.00    0.86464   0.87758   -1.000
 3783.00    0.85879   0.87356   -1.000
 3784.00    0.85634   0.86572   -1.000
 3785.00    0.85086   0.85316  421.841
 3786.00    0.84595   0.83766   -1.000
 3787.00    0.83771   0.82401   -1.000
 3788.00    0.82546   0.81535   -1.000
 3789.00    0.81947   0.80979   -1.000
 3790.00    0.82263   0.80195   -1.000
 3791.00    0.81119   0.78650   -1.000
 3792.00    0.78506   0.75982   -1.000
 3793.00    0.75225   0.72047   -1.000
 3794.00    0.70178   0.67057   -1.000
 3795.00    0.64907   0.61653   -1.000
 3796.00    0.59765   0.56899   -1.000
 3797.00    0.55792   0.54236   -1.000
 3798.00    0.56751   0.54956   -1.000
 3799.00    0.62872   0.59107   -1.000
 3800.00    0.68997   0.65280   -1.000
 3801.00    0.74390   0.71536   -1.000
 3802.00    0.78989   0.76577   -1.000
 3803.00    0.81511   0.80025   -1.000
 3804.00    0.82181   0.82087  458.169
 3805.00    0.82656   0.83306   -1.000
 3806.00    0.84247   0.84407  464.806
 3807.00    0.85801   0.85893  482.069
 3808.00    0.87369   0.87707  489.205
 3809.00    0.88534   0.89252   -1.000
 3810.00    0.89036   0.89721   -1.000
 3811.00    0.88239   0.88725  454.273
 3812.00    0.87182   0.86754  464.899
 3813.00    0.86439   0.84945   -1.000
 3814.00    0.85520   0.84239   -1.000
 3815.00    0.85971   0.84745   -1.000
 3816.00    0.88514   0.85742   -1.000
 3817.00    0.88394   0.86234   -1.000
 3818.00    0.88526   0.85706   -1.000
 3819.00    0.87085   0.84565   -1.000
 3820.00    0.85318   0.83735   -1.000
 3821.00    0.86246   0.83574   -1.000
 3822.00    0.86211   0.83377   -1.000
 3823.00    0.86085   0.82289   -1.000
 3824.00    0.83250   0.80420   -1.000
 3825.00    0.81159   0.78553   -1.000
 3826.00    0.80461   0.77095   68.013
 3827.00    0.79351   0.75828   69.277
 3828.00    0.78580   0.74348   -1.000
 3829.00    0.77695   0.72275   -1.000
 3830.00    0.76175   0.69205   -1.000
 3831.00    0.70963   0.64877   -1.000
 3832.00    0.65174   0.59609   -1.000
 3833.00    0.60332   0.54561   -1.000
 3834.00    0.55819   0.51250   -1.000
 3835.00    0.55214   0.50659   -1.000
 3836.00    0.58285   0.52812   -1.000
 3837.00    0.64293   0.56873   -1.000
 3838.00    0.69110   0.61673   -1.000
 3839.00    0.72491   0.66445   -1.000
 3840.00    0.75921   0.70978   -1.000
 3841.00    0.78906   0.75230   75.255
 3842.00    0.82045   0.79066   -1.000
 3843.00    0.84953   0.82278   -1.000
 3844.00    0.86881   0.84751   -1.000
 3845.00    0.88282   0.86555   -1.000
 3846.00    0.88826   0.87783   -1.000
 3847.00    0.89254   0.88439   -1.000
 3848.00    0.89386   0.88623   -1.000
 3849.00    0.89360   0.88779   -1.000
 3850.00    0.89390   0.89424  510.825
 3851.00    0.90574   0.90569  510.825
 3852.00    0.92211   0.91656  510.825
 3853.00    0.92749   0.92097   -1.000
 3854.00    0.91582   0.91754  510.825
 3855.00    0.91068   0.90989  510.825
 3856.00    0.91418   0.90285   -1.000
 3857.00    0.90524   0.89880   -1.000
 3858.00    0.89307   0.89841  365.769
 3859.00    0.88215   0.90249   64.588
 3860.00    0.90095   0.91012   68.272
 3861.00    0.93114   0.91741   71.658
 3862.00    0.95085   0.92113   -1.000
 3863.00    0.94981   0.92154   -1.000
 3864.00    0.93734   0.92094   -1.000
 3865.00    0.93741   0.92195   -1.000
 3866.00    0.93728   0.92611   -1.000
 3867.00    0.93663   0.93133  510.825
 3868.00    0.93727   0.93222  510.825
 3869.00    0.92820   0.92425  510.825
 3870.00    0.91080   0.90778  510.825
 3871.00    0.89210   0.88879  385.029
 3872.00    0.87625   0.87579   69.761
 3873.00    0.87841   0.87316   -1.000
 3874.00    0.89266   0.87633   -1.000
 3875.00    0.89490   0.87534   -1.000
 3876.00    0.87706   0.86484   -1.000
 3877.00    0.85031   0.84948  510.825
 3878.00    0.84138   0.83775   -1.000
 3879.00    0.83855   0.83162   -1.000
 3880.00    0.83223   0.82497   -1.000
 3881.00    0.82384   0.81146   -1.000
 3882.00    0.80695   0.78957   -1.000
 3883.00    0.78997   0.75904   -1.000
 3884.00    0.76476   0.71784   -1.000
 3885.00    0.71591   0.66556   -1.000
 3886.00    0.65752   0.60877   -1.000
 3887.00    0.60124   0.56178   -1.000
 3888.00    0.56522   0.54022   -1.000
 3889.00    0.58610   0.55264   -1.000
 3890.00    0.64819   0.59463   -1.000
 3891.00    0.71479   0.64987   -1.000
 3892.00    0.75930   0.70066   -1.000
 3893.00    0.78073   0.73872   -1.000
 3894.00    0.79386   0.76595   -1.000
 3895.00    0.80412   0.78794   -1.000
 3896.00    0.83338   0.80721   -1.000
 3897.00    0.84471   0.82211   -1.000
 3898.00    0.85065   0.83203   -1.000
 3899.00    0.84871   0.84100   -1.000
 3900.00    0.85519   0.85321  435.335
 3901.00    0.87539   0.86727   -1.000
 3902.00    0.88419   0.87826  425.590
 3903.00    0.89579   0.88359   -1.000
 3904.00    0.88912   0.88555  449.363
 3905.00    0.88628   0.89001  460.194
 3906.00    0.89769   0.90251  473.077
 3907.00    0.91559   0.92311   -1.000
 3908.00    0.93795   0.94511   -1.000
 3909.00    0.94285   0.96033   -1.000
 3910.00    0.95402   0.96458   -1.000
 3911.00    0.94026   0.95838   -1.000
 3912.00    0.92845   0.94604   -1.000
 3913.00    0.93735   0.93460  392.273
 3914.00    0.93789   0.92979   -1.000
 3915.00    0.93454   0.93148  405.792
 3916.00    0.93507   0.93488  415.114
 3917.00    0.94026   0.93584  420.273
 3918.00    0.93142   0.93380  426.333
 3919.00    0.92081   0.93096   -1.000
 3920.00    0.93345   0.92921  459.255
 3921.00    0.93410   0.92861  480.552
 3922.00    0.92655   0.92844  489.161
 3923.00    0.93622   0.92729   -1.000
 3924.00    0.94797   0.92203   -1.000
 3925.00    0.92851   0.90893   -1.000
 3926.00    0.90911   0.88649   -1.000
 3927.00    0.88058   0.85536   -1.000
 3928.00    0.85033   0.81605   -1.000
 3929.00    0.80230   0.76667   72.528
 3930.00    0.74227   0.70475   -1.000
 3931.00    0.65263   0.63531   99.539
 3932.00    0.53239   0.57704   -1.000
 3933.00    0.45246   0.55469   -1.000
 3934.00    0.48850   0.57949   -1.000
 3935.00    0.60172   0.63947   -1.000
 3936.00    0.71884   0.71137  121.917
 3937.00    0.82443   0.77744   -1.000
 3938.00    0.87631   0.82988   -1.000
 3939.00    0.89570   0.86730   74.261
 3940.00    0.91109   0.89092   -1.000
 3941.00    0.91344   0.90340   -1.000
 3942.00    0.90987   0.90898  510.825
 3943.00    0.90255   0.91214   -1.000
 3944.00    0.91334   0.91570  510.825
 3945.00    0.93035   0.92010   -1.000
 3946.00    0.93969   0.92324   -1.000
 3947.00    0.93955   0.92254   -1.000
 3948.00    0.92958   0.91798   -1.000
 3949.00    0.93121   0.91217   -1.000
 3950.00    0.93137   0.90792   -1.000
 3951.00    0.92737   0.90679   -1.000
 3952.00    0.92785   0.90858   -1.000
 3953.00    0.92257   0.91031   -1.000
 3954.00    0.92672   0.90778   -1.000
 3955.00    0.91850   0.89970   -1.000
 3956.00    0.90310   0.88916   -1.000
 3957.00    0.89966   0.87982   -1.000
 3958.00    0.89613   0.87056   -1.000
 3959.00    0.87847   0.85606   -1.000
 3960.00    0.85617   0.83257   -1.000
 3961.00    0.82463   0.80080   -1.000
 3962.00    0.80758   0.76281   -1.000
 3963.00    0.77618   0.71694   -1.000
 3964.00    0.73888   0.65800   -1.000
 3965.00    0.66195   0.58314   -1.000
 3966.00    0.55320   0.49858   -1.000
 3967.00    0.42786   0.42248   99.058
 3968.00    0.34917   0.37742  120.604
 3969.00    0.35729   0.37749  131.832
 3970.00    0.44313   0.42081  121.266
 3971.00    0.55971   0.49168   -1.000
 3972.00    0.66135   0.57045   -1.000
 3973.00    0.73620   0.64378   -1.000
 3974.00    0.78158   0.70636   -1.000
 3975.00    0.81856   0.75730   -1.000
 3976.00    0.84698   0.79758   -1.000
 3977.00    0.86753   0.82907   -1.000
 3978.00    0.88191   0.85327   -1.000
 3979.00    0.89609   0.87005   -1.000
 3980.00    0.91047   0.87989   -1.000
 3981.00    0.90551   0.88648   -1.000
 3982.00    0.91132   0.89524   -1.000
 3983.00    0.92290   0.90840   -1.000
 3984.00    0.93810   0.92278   -1.000
 3985.00    0.94570   0.93386   -1.000
 3986.00    0.95347   0.94115   -1.000
 3987.00    0.94832   0.94742  352.464
 3988.00    0.95186   0.95421  345.817
 3989.00    0.96757   0.96134  342.803
 3990.00    0.96903   0.96898  344.040
 3991.00    0.97632   0.97708  341.476
 3992.00    0.98338   0.98399  333.347
 3993.00    0.97594   0.98644   -1.000
 3994.00    0.96744   0.98230   -1.000
 3995.00    0.96809   0.97343  338.358
 3996.00    0.95618   0.96536  346.086
 3997.00    0.96702   0.96316  352.520
 3998.00    0.96964   0.96737  354.866
 3999.00    0.98265   0.97425  346.153
 4000.00    0.99946   0.97944   -1.000
 4001.00    0.99495   0.98080   -1.000
 4002.00    1.00037   0.97854   -1.000
 4003.00    0.98381   0.97416  310.401
 4004.00    0.97933   0.97048  317.496
 4005.00    0.98105   0.97143   -1.000
 4006.00    0.98613   0.97877  356.066
 4007.00    0.99504   0.98956  351.893
 4008.00    0.99838   0.99859  331.221
 4009.00    1.00146   1.00278  318.673
 4010.00    0.98580   1.00236   -1.000
 4011.00    0.99785   0.99973  311.469
 4012.00    0.99116   0.99821  310.637
 4013.00    0.99429   1.00022  312.959
 4014.00    0.99721   1.00582  314.476
 4015.00    0.99467   1.01328   -1.000
 4016.00    1.00055   1.02074   -1.000
 4017.00    0.99699   1.02719   -1.000
 4018.00    1.00695   1.03190   -1.000
 4019.00    1.00994   1.03340   -1.000
 4020.00    1.00076   1.03008   -1.000
 4021.00    1.00174   1.02175   -1.000
 4022.00    1.00721   1.01044  313.369
 4023.00    0.99924   1.00028  315.128
 4024.00    0.99357   0.99608  317.217
 4025.00    1.00000   0.99953  319.304
 4026.00    1.00517   1.00643  310.914
 4027.00    1.00411   1.01033  299.860
 4028.00    1.00356   1.00859  294.263
 4029.00    0.99160   1.00327   -1.000
 4030.00    0.98824   0.99823   -1.000
 4031.00    0.99347   0.99655  331.916
 4032.00    0.97879   0.99918   -1.000
 4033.00    0.98445   1.00562   -1.000
 4034.00    0.99171   1.01509   -1.000
 4035.00    1.00074   1.02668   -1.000
 4036.00    1.00944   1.03836   -1.000
 4037.00    1.01659   1.04668   -1.000
 4038.00    1.00789   1.04920   -1.000
 4039.00    1.00300   1.04684   -1.000
 4040.00    1.00591   1.04226   -1.000
 4041.00    1.00129   1.03637   -1.000
 4042.00    0.99580   1.02741   -1.000
 4043.00    0.99752   1.01428   -1.000
 4044.00    0.97642   1.00078   -1.000
 4045.00    0.95639   0.99456   -1.000
 4046.00    0.97277   0.99999   -1.000
 4047.00    0.99677   1.01297   -1.000
 4048.00    1.00319   1.02531   -1.000
 4049.00    1.01500   1.03230   -1.000
 4050.00    1.00514   1.03365   -1.000
 4051.00    1.01017   1.03063   -1.000
 4052.00    1.00974   1.02541   -1.000
 4053.00    0.99494   1.02120   -1.000
 4054.00    0.99528   1.02046   -1.000
 4055.00    1.00056   1.02304   -1.000
 4056.00    0.99670   1.02735   -1.000
 4057.00    0.99348   1.03231   -1.000
 4058.00    1.00054   1.03603   -1.000
 4059.00    1.00468   1.03482   -1.000
 4060.00    1.00162   1.02676   -1.000
 4061.00    0.99002   1.01408   -1.000
 4062.00    0.96960   1.00054   -1.000
 4063.00    0.97315   0.98937   -1.000
 4064.00    0.97391   0.98336   -1.000
 4065.00    0.98081   0.98336  352.668
 4066.00    0.98623   0.98684  335.081
 4067.00    0.98903   0.98993  327.160
 4068.00    0.98773   0.98960  318.216
 4069.00    0.98686   0.98420  308.034
 4070.00    0.98055   0.97539  304.730
 4071.00    0.97077   0.96832  317.425
 4072.00    0.96916   0.96670  331.660
 4073.00    0.97720   0.96786  328.454
 4074.00    0.98019   0.96486   -1.000
 4075.00    0.96697   0.95431   -1.000
 4076.00    0.95473   0.94148   -1.000
 4077.00    0.95019   0.93620   -1.000
 4078.00    0.95156   0.94347   -1.000
 4079.00    0.96301   0.95854  356.413
 4080.00    0.96528   0.97177  331.442
 4081.00    0.97160   0.97701  308.898
 4082.00    0.96877   0.97423  300.245
 4083.00    0.96376   0.96698  305.933
 4084.00    0.95167   0.95955  316.542
 4085.00    0.94613   0.95531  320.959
 4086.00    0.95543   0.95538  315.707
 4087.00    0.95912   0.95800  304.765
 4088.00    0.94892   0.95966   -1.000
 4089.00    0.94231   0.95762   -1.000
 4090.00    0.93407   0.95128   -1.000
 4091.00    0.92566   0.94082   -1.000
 4092.00    0.91750   0.92605  297.117
 4093.00    0.91017   0.90713  300.329
 4094.00    0.88838   0.88412  300.603
 4095.00    0.87563   0.85614   -1.000
 4096.00    0.84870   0.82143   -1.000
 4097.00    0.82212   0.77804   -1.000
 4098.00    0.77604   0.72541   -1.000
 4099.00    0.71656   0.66813   -1.000
 4100.00    0.64104   0.62001   -1.000
 4101.00    0.59662   0.59991  392.794
 4102.00    0.62967   0.61854   -1.000
 4103.00    0.70844   0.66880   -1.000
 4104.00    0.77808   0.73053   -1.000
 4105.00    0.82107   0.78479   -1.000
 4106.00    0.84609   0.82382   -1.000
 4107.00    0.86052   0.84957  316.843
 4108.00    0.87343   0.86742  315.642
 4109.00    0.88915   0.88237  318.882
 4110.00    0.90367   0.89769  325.244
 4111.00    0.91900   0.91453  329.851
 4112.00    0.93301   0.93206  325.372
 4113.00    0.94509   0.94847  317.901
 4114.00    0.95457   0.96162  312.510
 4115.00    0.95544   0.96926   -1.000
 4116.00    0.95077   0.97049   -1.000
 4117.00    0.95283   0.96722   -1.000
 4118.00    0.94939   0.96343   -1.000
 4119.00    0.95298   0.96218  324.156
 4120.00    0.95324   0.96356   -1.000
 4121.00    0.95827   0.96631  323.195
 4122.00    0.96762   0.97061  319.924
 4123.00    0.97737   0.97706  320.333
 4124.00    0.97774   0.98355  316.715
 4125.00    0.97962   0.98600  311.051
 4126.00    0.97601   0.98276  310.237
 4127.00    0.97941   0.97662  314.666
 4128.00    0.98225   0.97174   -1.000
 4129.00    0.97474   0.96955  324.030
 4130.00    0.96969   0.96895  325.656
 4131.00    0.96636   0.97003  329.946
 4132.00    0.95723   0.97500   -1.000
 4133.00    0.96008   0.98484   -1.000
 4134.00    0.97136   0.99731   -1.000
 4135.00    0.97753   1.00937   -1.000
 4136.00    0.98980   1.01967   -1.000
 4137.00    0.99917   1.02809   -1.000
 4138.00    0.99607   1.03385   -1.000
 4139.00    0.99824   1.03470   -1.000
 4140.00    0.99456   1.02858   -1.000
 4141.00    0.98030   1.01639   -1.000
 4142.00    0.96802   1.00338   -1.000
 4143.00    0.95828   0.99664   -1.000
 4144.00    0.97226   0.99953   -1.000
 4145.00    0.98574   1.00847   -1.000
 4146.00    0.98859   1.01654   -1.000
 4147.00    0.99330   1.01983   -1.000
 4148.00    0.99302   1.01971   -1.000
 4149.00    0.99089   1.01949   -1.000
 4150.00    0.98920   1.02028   -1.000
 4151.00    0.99152   1.02042   -1.000
 4152.00    0.98991   1.01837   -1.000
 4153.00    0.98597   1.01500   -1.000
 4154.00    0.98216   1.01280   -1.000
 4155.00    0.96969   1.01370   -1.000
 4156.00    0.98302   1.01782   -1.000
 4157.00    1.02454   1.02344  331.424
 4158.00    1.00569   1.02773   -1.000
 4159.00    0.98465   1.02864   -1.000
 4160.00    0.99960   1.02669   -1.000
 4161.00    1.00165   1.02467   -1.000
 4162.00    0.99654   1.02540   -1.000
 4163.00    0.99171   1.02961   -1.000
 4164.00    0.98826   1.03525   -1.000
 4165.00    0.99292   1.03885   -1.000
 4166.00    0.99309   1.03871   -1.000
 4167.00    0.98918   1.03564   -1.000
 4168.00    0.99297   1.02976   -1.000
 4169.00    0.99755   1.01893   -1.000
 4170.00    0.98697   1.00232   -1.000
 4171.00    0.97883   0.98441  328.162
 4172.00    0.97204   0.97336  348.546
 4173.00    0.96460   0.97423   -1.000
 4174.00    0.97200   0.98387   -1.000
 4175.00    0.97729   0.99273   -1.000
 4176.00    0.97834   0.99425   -1.000
 4177.00    0.97169   0.99130   -1.000
 4178.00    0.97441   0.99161   -1.000
 4179.00    0.99045   0.99811   -1.000
 4180.00    1.00031   1.00647  338.395
 4181.00    0.99144   1.01180   -1.000
 4182.00    0.98953   1.01395   -1.000
 4183.00    0.98269   1.01502   -1.000
 4184.00    0.98584   1.01537   -1.000
 4185.00    0.98143   1.01382   -1.000
 4186.00    0.97188   1.01076   -1.000
 4187.00    0.97355   1.00867   -1.000
 4188.00    0.97993   1.00877   -1.000
 4189.00    0.98073   1.00978   -1.000
 4190.00    0.98224   1.01072   -1.000
 4191.00    0.98535   1.01233   -1.000
 4192.00    0.98934   1.01478   -1.000
 4193.00    0.99775   1.01569   -1.000
 4194.00    0.98973   1.01192   -1.000
 4195.00    0.99167   1.00293   -1.000
 4196.00    0.98855   0.99133  339.021
 4197.00    0.96778   0.98093   -1.000
 4198.00    0.96486   0.97473   -1.000
 4199.00    0.97336   0.97319  356.479
 4200.00    0.97263   0.97423  352.380
 4201.00    0.97426   0.97620  346.623
 4202.00    0.98146   0.97929  345.881
 4203.00    0.98855   0.98385  343.590
 4204.00    0.97726   0.98938   -1.000
 4205.00    0.97406   0.99541   -1.000
 4206.00    0.98218   1.00121   -1.000
 4207.00    0.99067   1.00533   -1.000
 4208.00    0.99250   1.00737   -1.000
 4209.00    0.98980   1.00877   -1.000
 4210.00    0.98458   1.01079   -1.000
 4211.00    0.99437   1.01249   -1.000
 4212.00    0.99080   1.01090   -1.000
 4213.00    0.98109   1.00404   -1.000
 4214.00    0.97312   0.99447   -1.000
 4215.00    0.95694   0.98850   -1.000
 4216.00    0.95893   0.99071   -1.000
 4217.00    0.96816   0.99952   -1.000
 4218.00    0.98563   1.00947   -1.000
 4219.00    0.99086   1.01641   -1.000
 4220.00    0.99998   1.01861   -1.000
 4221.00    0.98882   1.01476   -1.000
 4222.00    0.98619   1.00374   -1.000
 4223.00    0.97910   0.98630  304.451
 4224.00    0.96104   0.96673  326.257
 4225.00    0.93813   0.95237   -1.000
 4226.00    0.92143   0.95095   -1.000
 4227.00    0.93612   0.96520   -1.000
 4228.00    0.96496   0.98830   -1.000
 4229.00    0.98257   1.00700   -1.000
 4230.00    0.98181   1.01192   -1.000
 4231.00    0.98116   1.00410   -1.000
 4232.00    0.97241   0.99217   -1.000
 4233.00    0.96455   0.98462   -1.000
 4234.00    0.97020   0.98434   -1.000
 4235.00    0.96728   0.98888   -1.000
 4236.00    0.96718   0.99492   -1.000
 4237.00    0.96513   1.00127   -1.000
 4238.00    0.97200   1.00779   -1.000
 4239.00    0.98344   1.01380   -1.000
 4240.00    0.98675   1.01828   -1.000
 4241.00    0.97879   1.02069   -1.000
 4242.00    0.98777   1.02100   -1.000
 4243.00    0.98802   1.01841   -1.000
 4244.00    0.98283   1.01170   -1.000
 4245.00    0.97279   1.00160   -1.000
 4246.00    0.96389   0.99181   -1.000
 4247.00    0.95642   0.98611   -1.000
 4248.00    0.95525   0.98484   -1.000
 4249.00    0.94611   0.98626   -1.000
 4250.00    0.94904   0.98972   -1.000
 4251.00    0.96954   0.99496   -1.000
 4252.00    0.95991   1.00033   -1.000
 4253.00    0.96774   1.00429   -1.000
 4254.00    0.96566   1.00682   -1.000
 4255.00    0.97159   1.00805   -1.000
 4256.00    0.97898   1.00693   -1.000
 4257.00    0.97720   1.00270   -1.000
 4258.00    0.96668   0.99705   -1.000
 4259.00    0.96621   0.99354   -1.000
 4260.00    0.96254   0.99541   -1.000
 4261.00    0.96312   1.00348   -1.000
 4262.00    0.98004   1.01489   -1.000
 4263.00    0.98820   1.02452   -1.000
 4264.00    0.98694   1.02887   -1.000
 4265.00    0.98524   1.02787   -1.000
 4266.00    0.98350   1.02295   -1.000
 4267.00    0.97801   1.01480   -1.000
 4268.00    0.96779   1.00331   -1.000
 4269.00    0.96092   0.98908   -1.000
 4270.00    0.94148   0.97514   -1.000
 4271.00    0.93314   0.96629   -1.000
 4272.00    0.93535   0.96561   -1.000
 4273.00    0.94665   0.97244   -1.000
 4274.00    0.95908   0.98390   -1.000
 4275.00    0.95968   0.99705   -1.000
 4276.00    0.96877   1.00891   -1.000
 4277.00    0.97790   1.01641   -1.000
 4278.00    0.97501   1.01792   -1.000
 4279.00    0.96625   1.01427   -1.000
 4280.00    0.96037   1.00810   -1.000
 4281.00    0.95447   1.00248   -1.000
 4282.00    0.95554   0.99941   -1.000
 4283.00    0.95847   0.99846   -1.000
 4284.00    0.95659   0.99656   -1.000
 4285.00    0.95610   0.99014   -1.000
 4286.00    0.95183   0.97806   -1.000
 4287.00    0.94710   0.96262   -1.000
 4288.00    0.92598   0.94852   -1.000
 4289.00    0.91138   0.94120   -1.000
 4290.00    0.91323   0.94299   -1.000
 4291.00    0.93173   0.94963   -1.000
 4292.00    0.93683   0.95362   -1.000
 4293.00    0.94146   0.95223   -1.000
 4294.00    0.93485   0.94885   -1.000
 4295.00    0.93743   0.94593  332.606
 4296.00    0.93465   0.94091  338.187
 4297.00    0.92190   0.92996  345.993
 4298.00    0.89962   0.91320   -1.000
 4299.00    0.88759   0.89576  395.985
 4300.00    0.88002   0.88426  425.459
 4301.00    0.88344   0.88234  430.185
 4302.00    0.89659   0.88939   -1.000
 4303.00    0.89870   0.90097  410.719
 4304.00    0.90386   0.91016  404.474
 4305.00    0.90450   0.91199  399.612
 4306.00    0.88449   0.90780   -1.000
 4307.00    0.87584   0.90389   -1.000
 4308.00    0.87878   0.90548   -1.000
 4309.00    0.88467   0.91198   -1.000
 4310.00    0.89928   0.91782   -1.000
 4311.00    0.90065   0.91818   -1.000
 4312.00    0.92049   0.91473  388.360
 4313.00    0.91852   0.91527  368.860
 4314.00    0.91196   0.92647   -1.000
 4315.00    0.93700   0.94697   -1.000
 4316.00    0.95560   0.96824   -1.000
 4317.00    0.96363   0.98175   -1.000
 4318.00    0.95990   0.98479   -1.000
 4319.00    0.95079   0.98038   -1.000
 4320.00    0.94689   0.97333   -1.000
 4321.00    0.94359   0.96561   -1.000
 4322.00    0.93254   0.95530   -1.000
 4323.00    0.92128   0.94137   -1.000
 4324.00    0.90868   0.92857   -1.000
 4325.00    0.89656   0.92445   -1.000
 4326.00    0.90136   0.93030   -1.000
 4327.00    0.92032   0.93884   -1.000
 4328.00    0.92684   0.94191   -1.000
 4329.00    0.92173   0.93782   -1.000
 4330.00    0.91895   0.93008   -1.000
 4331.00    0.90753   0.92111   -1.000
 4332.00    0.89796   0.90939   -1.000
 4333.00    0.88888   0.89125  278.762
 4334.00    0.87311   0.86292  275.968
 4335.00    0.84768   0.82139   -1.000
 4336.00    0.80773   0.76688   -1.000
 4337.00    0.75377   0.70593   -1.000
 4338.00    0.68448   0.65144   -1.000
 4339.00    0.62073   0.61855  358.710
 4340.00    0.60446   0.61870   -1.000
 4341.00    0.66373   0.65235   -1.000
 4342.00    0.74336   0.70658   -1.000
 4343.00    0.79516   0.76377   -1.000
 4344.00    0.83639   0.81321   -1.000
 4345.00    0.86180   0.85290  300.997
 4346.00    0.87762   0.88336  292.837
 4347.00    0.89098   0.90324   -1.000
 4348.00    0.90176   0.91112   -1.000
 4349.00    0.90702   0.90942  280.209
 4350.00    0.90279   0.90544  281.122
 4351.00    0.90220   0.90749  297.149
 4352.00    0.90774   0.91924   -1.000
 4353.00    0.92155   0.93785   -1.000
 4354.00    0.93248   0.95683   -1.000
 4355.00    0.94333   0.97062   -1.000
 4356.00    0.95249   0.97753   -1.000
 4357.00    0.95683   0.97975   -1.000
 4358.00    0.95383   0.98131   -1.000
 4359.00    0.95145   0.98514   -1.000
 4360.00    0.96165   0.99151   -1.000
 4361.00    0.96762   0.99872   -1.000
 4362.00    0.96815   1.00475   -1.000
 4363.00    0.96565   1.00788   -1.000
 4364.00    0.97064   1.00685   -1.000
 4365.00    0.96607   1.00142   -1.000
 4366.00    0.96630   0.99314   -1.000
 4367.00    0.96236   0.98519   -1.000
 4368.00    0.95845   0.98029   -1.000
 4369.00    0.96511   0.97853   -1.000
 4370.00    0.96861   0.97727  288.094
 4371.00    0.97016   0.97290  286.338
 4372.00    0.96893   0.96398  286.116
 4373.00    0.95978   0.95398  289.049
 4374.00    0.94306   0.94991  301.121
 4375.00    0.94532   0.95627   -1.000
 4376.00    0.96134   0.97023  313.104
 4377.00    0.96703   0.98408   -1.000
 4378.00    0.97101   0.99146   -1.000
 4379.00    0.97321   0.98987   -1.000
 4380.00    0.97399   0.97881  281.662
 4381.00    0.96649   0.95936  286.783
 4382.00    0.94263   0.93677  300.553
 4383.00    0.93090   0.92013   -1.000
 4384.00    0.93642   0.91681   -1.000
 4385.00    0.95155   0.92679   -1.000
 4386.00    0.96535   0.94320   -1.000
 4387.00    0.97470   0.95796   -1.000
 4388.00    0.97293   0.96671  298.603
 4389.00    0.97225   0.96964  298.956
 4390.00    0.97237   0.96911  302.296
 4391.00    0.96498   0.96597  303.218
 4392.00    0.96788   0.95916  297.214
 4393.00    0.96405   0.95008   -1.000
 4394.00    0.94959   0.94441  292.601
 4395.00    0.95191   0.94629  299.234
 4396.00    0.96358   0.95261  297.997
 4397.00    0.97167   0.95652   -1.000
 4398.00    0.97171   0.95572   -1.000
 4399.00    0.96795   0.95447   -1.000
 4400.00    0.96449   0.95730  290.515
 4401.00    0.97386   0.96322   -1.000
 4402.00    0.97855   0.96778   -1.000
 4403.00    0.97139   0.96910  290.043
 4404.00    0.96209   0.96908  300.519
 4405.00    0.95981   0.96972   -1.000
 4406.00    0.97176   0.97075  320.760
 4407.00    0.97669   0.97150  309.752
 4408.00    0.98055   0.97299  305.328
 4409.00    0.98207   0.97657  302.635
 4410.00    0.98308   0.98126  290.889
 4411.00    0.98145   0.98337  278.376
 4412.00    0.98457   0.97904  268.965
 4413.00    0.97900   0.96743   -1.000
 4414.00    0.96460   0.95235   -1.000
 4415.00    0.95331   0.94068   -1.000
 4416.00    0.95530   0.93848   -1.000
 4417.00    0.96830   0.94727   -1.000
 4418.00    0.97296   0.96279  287.189
 4419.00    0.97828   0.97756  275.204
 4420.00    0.98289   0.98629  267.483
 4421.00    0.97395   0.98938   -1.000
 4422.00    0.97353   0.99024   -1.000
 4423.00    0.97957   0.99064   -1.000
 4424.00    0.97758   0.99015   -1.000
 4425.00    0.96917   0.98885   -1.000
 4426.00    0.96916   0.98805   -1.000
 4427.00    0.96975   0.98876   -1.000
 4428.00    0.96867   0.99061   -1.000
 4429.00    0.96936   0.99247   -1.000
 4430.00    0.97851   0.99350   -1.000
 4431.00    0.97792   0.99318   -1.000
 4432.00    0.97476   0.99103   -1.000
 4433.00    0.97331   0.98773   -1.000
 4434.00    0.96575   0.98613   -1.000
 4435.00    0.96540   0.98953   -1.000
 4436.00    0.97666   0.99804   -1.000
 4437.00    0.98886   1.00721   -1.000
 4438.00    0.98799   1.01081   -1.000
 4439.00    0.98030   1.00504   -1.000
 4440.00    0.97872   0.99078   -1.000
 4441.00    0.97351   0.97353  268.593
 4442.00    0.95686   0.96152  281.620
 4443.00    0.95043   0.96123  293.543
 4444.00    0.96508   0.97237  294.485
 4445.00    0.98025   0.98769  283.347
 4446.00    0.98489   0.99911   -1.000
 4447.00    0.98190   1.00343   -1.000
 4448.00    0.97958   1.00256   -1.000
 4449.00    0.98022   1.00048   -1.000
 4450.00    0.97656   1.00010   -1.000
 4451.00    0.97798   1.00102   -1.000
 4452.00    0.97911   1.00039   -1.000
 4453.00    0.97329   0.99688   -1.000
 4454.00    0.96989   0.99312   -1.000
 4455.00    0.97384   0.99265   -1.000
 4456.00    0.97853   0.99564   -1.000
 4457.00    0.98384   0.99909   -1.000
 4458.00    0.98852   1.00033   -1.000
 4459.00    0.98124   0.99920   -1.000
 4460.00    0.97601   0.99738   -1.000
 4461.00    0.97323   0.99636   -1.000
 4462.00    0.97677   0.99610   -1.000
 4463.00    0.99044   0.99554  292.648
 4464.00    0.98353   0.99338  281.058
 4465.00    0.98021   0.98815  274.435
 4466.00    0.97301   0.97951  274.041
 4467.00    0.96700   0.97024  274.238
 4468.00    0.96244   0.96544  277.377
 4469.00    0.96630   0.96842  282.770
 4470.00    0.96961   0.97808  284.484
 4471.00    0.98539   0.99050  280.505
 4472.00    0.99603   1.00203  271.648
 4473.00    1.00157   1.01064  262.237
 4474.00    0.99616   1.01580   -1.000
 4475.00    0.99698   1.01797   -1.000
 4476.00    0.99787   1.01731   -1.000
 4477.00    0.99952   1.01246   -1.000
 4478.00    0.99718   1.00201  249.717
 4479.00    0.99634   0.98816  251.965
 4480.00    0.98371   0.97769  261.328
 4481.00    0.97908   0.97725  273.259
 4482.00    0.97746   0.98750  281.016
 4483.00    0.98580   1.00249   -1.000
 4484.00    0.98696   1.01456   -1.000
 4485.00    0.99725   1.01884   -1.000
 4486.00    0.99759   1.01468   -1.000
 4487.00    0.99329   1.00567   -1.000
 4488.00    0.99395   0.99775  256.648
 4489.00    0.98664   0.99535  266.548
 4490.00    0.98754   0.99843   -1.000
 4491.00    0.98458   1.00346   -1.000
 4492.00    0.98480   1.00690   -1.000
 4493.00    0.99600   1.00799   -1.000
 4494.00    0.98631   1.00829   -1.000
 4495.00    0.98559   1.00916   -1.000
 4496.00    0.98878   1.01014   -1.000
 4497.00    0.99453   1.00921   -1.000
 4498.00    0.99864   1.00459  263.793
 4499.00    0.99371   0.99753  256.328
 4500.00    0.97292   0.99284   -1.000
 4501.00    0.96557   0.99500   -1.000
 4502.00    0.98420   1.00359   -1.000
 4503.00    0.99141   1.01343   -1.000
 4504.00    0.99654   1.01903   -1.000
 4505.00    0.99974   1.01847   -1.000
 4506.00    0.99731   1.01387   -1.000
 4507.00    0.99795   1.00968  244.953
 4508.00    1.00063   1.00928  247.398
 4509.00    1.00200   1.01245  247.616
 4510.00    0.99807   1.01604   -1.000
 4511.00    0.99819   1.01707   -1.000
 4512.00    0.99355   1.01453   -1.000
 4513.00    0.99239   1.00953   -1.000
 4514.00    0.99171   1.00450   -1.000
 4515.00    0.99141   1.00139  257.042
 4516.00    0.99444   0.99975  255.799
 4517.00    0.99501   0.99754  255.590
 4518.00    0.99533   0.99377  258.677
 4519.00    0.99803   0.98942  260.227
 4520.00    0.99826   0.98567   -1.000
 4521.00    0.99192   0.98311  250.819
 4522.00    0.98565   0.98252  251.485
 4523.00    0.98556   0.98445  257.402
 4524.00    0.99024   0.98752  262.662
 4525.00    0.98877   0.98886  264.961
 4526.00    0.98364   0.98664  269.370
 4527.00    0.97971   0.98203  277.592
 4528.00    0.97317   0.97835  285.468
 4529.00    0.97370   0.97754  288.983
 4530.00    0.98005   0.97752  286.974
 4531.00    0.98633   0.97425   -1.000
 4532.00    0.97644   0.96734  276.798
 4533.00    0.96498   0.96198  275.363
 4534.00    0.96649   0.96422  282.928
 4535.00    0.97448   0.97493  292.571
 4536.00    0.98491   0.98918  289.061
 4537.00    0.99753   1.00057  272.775
 4538.00    1.00109   1.00542  256.640
 4539.00    1.00197   1.00422  249.544
 4540.00    1.00124   1.00038  251.767
 4541.00    0.99363   0.99742  257.822
 4542.00    1.03359   0.99662   -1.000
 4543.00    0.80647   0.99711   -1.000
 4544.00    0.07134   0.99755   -1.000
 4545.00   -0.04725   0.99635    0.000
 4546.00    0.16025   0.99098   -1.000
 4547.00    0.65789   0.98023   -1.000
 4548.00    0.22073   0.96793   -1.000
 4549.00    0.84722   0.96143   -1.000
 4550.00    0.98035   0.96375  123.075
 4551.00    0.97731   0.96946  261.676
 4552.00    0.97573   0.97086  268.183
 4553.00    0.97041   0.96691  267.142
 4554.00    0.97376   0.96359  271.253
 4555.00    0.98197   0.96650   -1.000
 4556.00    0.98646   0.97544  269.890
 4557.00    0.99423   0.98623  260.155
 4558.00    0.99966   0.99560  249.672
 4559.00    0.99778   1.00223  245.112
 4560.00    1.00137   1.00453  246.314
 4561.00    0.99136   1.00095  246.230
 4562.00    0.98575   0.99346  246.315
 4563.00    0.98061   0.98776  251.877
 4564.00    0.98384   0.98838  258.187
 4565.00    0.99346   0.99456  262.679
 4566.00    0.99795   1.00170  260.029
 4567.00    0.99662   1.00545  253.512
 4568.00    0.99595   1.00372  246.790
 4569.00    0.99753   0.99682  244.174
 4570.00    0.98231   0.98784  246.700
 4571.00    0.97370   0.98221  252.878
 4572.00    0.98167   0.98348  259.554
 4573.00    0.98686   0.98945  257.986
 4574.00    0.99552   0.99466  250.343
 4575.00    0.99223   0.99640  246.605
 4576.00    0.99383   0.99568  246.628
 4577.00    0.99181   0.99364  247.743
 4578.00    0.99207   0.98994  249.176
 4579.00    0.99551   0.98410   -1.000
 4580.00    0.99137   0.97637   -1.000
 4581.00    0.98663   0.96782   -1.000
 4582.00    0.98251   0.96135   -1.000
 4583.00    0.98032   0.96077   -1.000
 4584.00    0.98106   0.96685   -1.000
 4585.00    0.98457   0.97548  260.843
 4586.00    0.99276   0.98143  262.469
 4587.00    0.99796   0.98274   -1.000
 4588.00    0.99367   0.98130   -1.000
 4589.00    0.98963   0.98024  246.912
 4590.00    0.99309   0.98138  246.346
 4591.00    0.98778   0.98463  249.815
 4592.00    0.98312   0.98910  254.461
 4593.00    0.99531   0.99404  258.947
 4594.00    0.99827   0.99895  259.377
 4595.00    0.99360   1.00318  257.252
 4596.00    0.99400   1.00574  255.211
 4597.00    0.99747   1.00575  254.475
 4598.00    0.99815   1.00331  253.938
 4599.00    0.98914   0.99957  253.369
 4600.00    0.98903   0.99607  255.481
 4601.00    0.98861   0.99394  257.792
 4602.00    0.98193   0.99356  258.587
 4603.00    0.98545   0.99451  255.989
 4604.00    0.98887   0.99618  253.102
 4605.00    0.98933   0.99813  253.374
 4606.00    0.98942   1.00014  253.002
 4607.00    0.98978   1.00192  250.348
 4608.00    0.99345   1.00321  245.482
 4609.00    0.99434   1.00380  240.225
 4610.00    0.99798   1.00365  237.284
 4611.00    1.00699   1.00302  238.173
 4612.00    0.99723   1.00223  241.376
 4613.00    0.99616   1.00091  244.100
 4614.00    0.99234   0.99816  245.735
 4615.00    0.98935   0.99375  244.648
 4616.00    0.99523   0.98874  242.497
 4617.00    0.99787   0.98469   -1.000
 4618.00    0.99668   0.98298   -1.000
 4619.00    0.99781   0.98455   -1.000
 4620.00    0.99518   0.98925  244.645
 4621.00    0.99610   0.99528  242.396
 4622.00    0.99704   1.00010  238.595
 4623.00    0.99547   1.00212  238.334
 4624.00    0.99643   1.00140  238.920
 4625.00    0.99565   0.99856  239.399
 4626.00    0.99441   0.99396  241.523
 4627.00    0.98741   0.98856  242.202
 4628.00    0.98584   0.98487  242.103
 4629.00    0.99559   0.98533  243.586
 4630.00    0.98961   0.98938  244.169
 4631.00    0.99461   0.99355  243.026
 4632.00    0.99100   0.99498  240.280
 4633.00    0.99289   0.99420  241.150
 4634.00    0.99546   0.99388  244.582
 4635.00    0.99736   0.99565  247.342
 4636.00    0.99685   0.99901  247.265
 4637.00    0.99869   1.00277  249.143
 4638.00    0.99694   1.00649  252.404
 4639.00    0.99470   1.01018   -1.000
 4640.00    0.99603   1.01354   -1.000
 4641.00    1.00127   1.01587   -1.000
 4642.00    1.00179   1.01656   -1.000
 4643.00    0.99957   1.01530   -1.000
 4644.00    0.99488   1.01210   -1.000
 4645.00    0.99079   1.00770   -1.000
 4646.00    0.98857   1.00374   -1.000
 4647.00    0.99333   1.00200  258.531
 4648.00    0.99592   1.00301  259.969
 4649.00    0.99709   1.00574  255.639
 4650.00    1.00054   1.00841  249.697
 4651.00    0.99721   1.00943  246.134
 4652.00    0.99257   1.00806   -1.000
 4653.00    0.99030   1.00464   -1.000
 4654.00    0.98703   1.00040  247.792
 4655.00    0.99066   0.99725  253.426
 4656.00    0.99287   0.99740  256.527
 4657.00    0.98966   1.00185  254.604
 4658.00    0.99481   1.00889   -1.000
 4659.00    1.00094   1.01487   -1.000
 4660.00    1.00232   1.01705   -1.000
 4661.00    0.99895   1.01537   -1.000
 4662.00    1.00209   1.01156  234.035
 4663.00    1.00413   1.00680  239.655
 4664.00    1.00291   1.00082  244.468
 4665.00    1.00013   0.99341  245.279
 4666.00    0.99101   0.98606  249.090
 4667.00    0.98594   0.98130  259.463
 4668.00    0.97896   0.98069  270.347
 4669.00    0.98344   0.98407  271.288
 4670.00    0.98827   0.99001  263.393
 4671.00    0.99901   0.99653  252.459
 4672.00    0.99348   1.00202  245.395
 4673.00    0.99336   1.00597  243.650
 4674.00    1.00065   1.00858  243.768
 4675.00    0.99993   1.00970  243.547
 4676.00    1.00180   1.00867  240.541
 4677.00    0.99545   1.00545  236.924
 4678.00    0.99559   1.00102  237.825
 4679.00    0.99647   0.99678  242.792
 4680.00    0.99644   0.99386  247.653
 4681.00    0.99468   0.99282  251.794
 4682.00    1.00066   0.99342  254.334
 4683.00    0.99996   0.99480  251.502
 4684.00    1.00584   0.99616  245.296
 4685.00    1.00713   0.99726  241.880
 4686.00    1.00904   0.99829  242.472
 4687.00    1.00697   0.99933  242.634
 4688.00    1.00746   0.99994  243.941
 4689.00    1.00370   0.99971  244.048
 4690.00    1.00333   0.99896  244.062
 4691.00    0.99824   0.99852  245.718
 4692.00    0.99786   0.99876  246.320
 4693.00    0.99741   0.99934  243.604
 4694.00    1.00131   0.99961  240.000
 4695.00    1.00662   0.99871  234.746
 4696.00    1.00153   0.99602  231.596
 4697.00    1.00103   0.99208  232.485
 4698.00    1.00415   0.98816   -1.000
 4699.00    0.99669   0.98482   -1.000
 4700.00    0.99196   0.98155  249.293
 4701.00    0.98582   0.97821  247.582
 4702.00    0.98063   0.97601  249.153
 4703.00    0.98440   0.97613  253.435
 4704.00    0.99018   0.97777   -1.000
 4705.00    0.99681   0.97854   -1.000
 4706.00    0.99167   0.97697   -1.000
 4707.00    0.98377   0.97435  249.692
 4708.00    0.98571   0.97346   -1.000
 4709.00    0.98646   0.97563   -1.000
 4710.00    0.98785   0.97945  256.214
 4711.00    0.98949   0.98225  249.047
 4712.00    0.98911   0.98262  242.142
 4713.00    0.99088   0.98162  239.456
 4714.00    0.99133   0.98152  241.450
 4715.00    0.99185   0.98342  245.909
 4716.00    0.99172   0.98637  246.260
 4717.00    0.99465   0.98881  241.673
 4718.00    0.99889   0.99015  236.985
 4719.00    0.99983   0.99068  235.302
 4720.00    0.99497   0.99088  234.443
 4721.00    0.98975   0.99126  233.640
 4722.00    0.99439   0.99236  235.437
 4723.00    0.99288   0.99416  237.154
 4724.00    0.99452   0.99576  235.982
 4725.00    0.99815   0.99598  233.481
 4726.00    0.99390   0.99424  233.625
 4727.00    0.98846   0.99078  238.936
 4728.00    0.98968   0.98612  247.852
 4729.00    0.99222   0.98116   -1.000
 4730.00    0.99130   0.97767   -1.000
 4731.00    0.98573   0.97731  250.744
 4732.00    0.98242   0.97978  248.719
 4733.00    0.99679   0.98274   -1.000
 4734.00    0.98093   0.98395  243.595
 4735.00    0.98272   0.98319  242.163
 4736.00    0.98590   0.98186  240.815
 4737.00    0.98616   0.98112  243.115
 4738.00    0.98787   0.98121  243.627
 4739.00    0.99237   0.98198  240.709
 4740.00    0.99341   0.98332  240.546
 4741.00    0.99518   0.98518  241.875
 4742.00    0.99048   0.98738  242.284
 4743.00    0.99332   0.98968  240.505
 4744.00    0.99074   0.99209  237.911
 4745.00    0.98740   0.99467  238.150
 4746.00    0.99140   0.99750  238.402
 4747.00    0.99157   1.00032  236.771
 4748.00    0.99309   1.00271  234.403
 4749.00    0.99178   1.00435  233.758
 4750.00    0.99203   1.00505  234.063
 4751.00    0.99165   1.00475  234.239
 4752.00    0.99278   1.00357  235.822
 4753.00    0.98595   1.00187   -1.000
 4754.00    0.98160   1.00043   -1.000
 4755.00    0.98700   0.99993  242.178
 4756.00    0.98970   1.00034  241.918
 4757.00    0.99248   1.00079  242.737
 4758.00    0.99443   1.00017  244.484
 4759.00    0.98681   0.99733  244.885
 4760.00    0.98223   0.99172  243.024
 4761.00    0.98568   0.98426  242.438
 4762.00    0.98211   0.97758  245.889
 4763.00    0.97434   0.97467  251.900
 4764.00    0.97347   0.97681  255.425
 4765.00    0.98086   0.98274  256.030
 4766.00    0.98793   0.98994  255.556
 4767.00    0.98815   0.99633  253.857
 4768.00    0.98525   1.00072   -1.000
 4769.00    0.98550   1.00256   -1.000
 4770.00    0.98976   1.00213  241.348
 4771.00    0.98728   1.00067   -1.000
 4772.00    0.98205   0.99980   -1.000
 4773.00    0.98639   1.00019   -1.000
 4774.00    0.99177   1.00124  243.133
 4775.00    0.99145   1.00183  238.086
 4776.00    0.99274   1.00082  236.143
 4777.00    0.98889   0.99756  236.196
 4778.00    0.98601   0.99302  236.859
 4779.00    0.97990   0.98988  238.337
 4780.00    0.98132   0.99008  240.933
 4781.00    0.99018   0.99262  242.479
 4782.00    0.98469   0.99494  243.151
 4783.00    0.98290   0.99531  244.285
 4784.00    0.98547   0.99370  246.196
 4785.00    0.98566   0.99125  246.287
 4786.00    0.98198   0.98930  247.020
 4787.00    0.98214   0.98864  249.348
 4788.00    0.98184   0.98942  250.893
 4789.00    0.98929   0.99138  250.788
 4790.00    0.99240   0.99415  249.630
 4791.00    0.99404   0.99732  248.112
 4792.00    0.98765   1.00059   -1.000
 4793.00    0.98884   1.00322   -1.000
 4794.00    0.99039   1.00419   -1.000
 4795.00    0.99467   1.00279  232.248
 4796.00    0.99077   0.99946  231.113
 4797.00    0.98802   0.99593  233.166
 4798.00    0.98921   0.99427  237.686
 4799.00    0.98645   0.99528  242.191
 4800.00    0.99013   0.99783  245.228
 4801.00    0.98864   0.99927  243.547
 4802.00    0.98983   0.99709  238.831
 4803.00    0.98755   0.99175  235.249
 4804.00    0.98629   0.98650  235.250
 4805.00    0.98098   0.98463  238.161
 4806.00    0.98507   0.98681  241.247
 4807.00    0.98745   0.99093  243.528
 4808.00    0.98792   0.99419  243.681
 4809.00    0.98991   0.99531  243.105
 4810.00    0.98815   0.99508  242.055
 4811.00    0.98755   0.99534  239.959
 4812.00    0.98918   0.99722  238.189
 4813.00    0.99192   1.00012  236.925
 4814.00    0.98966   1.00262  236.598
 4815.00    0.98647   1.00393   -1.000
 4816.00    0.98759   1.00409   -1.000
 4817.00    0.99116   1.00332  233.812
 4818.00    0.99185   1.00173  232.355
 4819.00    0.98924   0.99910  231.362
 4820.00    0.98916   0.99490  231.196
 4821.00    0.98466   0.98872  231.203
 4822.00    0.98005   0.98170  233.036
 4823.00    0.98131   0.97647  238.805
 4824.00    0.98316   0.97518  243.578
 4825.00    0.98836   0.97750  243.631
 4826.00    0.99007   0.98106  239.668
 4827.00    0.98867   0.98349  235.878
 4828.00    0.99180   0.98406  236.383
 4829.00    0.98903   0.98337  239.033
 4830.00    0.98978   0.98208  240.676
 4831.00    0.99108   0.98068  240.765
 4832.00    0.98991   0.97928  242.749
 4833.00    0.98153   0.97774  243.374
 4834.00    0.98148   0.97592  239.904
 4835.00    0.98116   0.97429  236.616
 4836.00    0.98131   0.97340  235.507
 4837.00    0.97527   0.97308  235.776
 4838.00    0.97983   0.97268  236.835
 4839.00    0.97867   0.97196  239.860
 4840.00    0.97601   0.97104  244.074
 4841.00    0.96937   0.96981  244.687
 4842.00    0.97294   0.96794  244.208
 4843.00    0.97762   0.96523   -1.000
 4844.00    0.97700   0.96166   -1.000
 4845.00    0.96909   0.95691   -1.000
 4846.00    0.96775   0.95070   -1.000
 4847.00    0.96161   0.94403   -1.000
 4848.00    0.95562   0.93863   -1.000
 4849.00    0.94945   0.93488   -1.000
 4850.00    0.94453   0.93128   -1.000
 4851.00    0.93616   0.92510  239.007
 4852.00    0.93259   0.91407   -1.000
 4853.00    0.92524   0.89776   -1.000
 4854.00    0.91173   0.87808   -1.000
 4855.00    0.90250   0.85683   -1.000
 4856.00    0.88623   0.83203   -1.000
 4857.00    0.85418   0.79832   -1.000
 4858.00    0.80690   0.75090   -1.000
 4859.00    0.72934   0.69566   -1.000
 4860.00    0.65211   0.65092  279.237
 4861.00    0.64077   0.63752  311.275
 4862.00    0.70339   0.66120   -1.000
 4863.00    0.78694   0.70928   -1.000
 4864.00    0.84541   0.76276   -1.000
 4865.00    0.87784   0.80888   -1.000
 4866.00    0.89673   0.84401   -1.000
 4867.00    0.91179   0.86899   -1.000
 4868.00    0.92191   0.88476   -1.000
 4869.00    0.92784   0.89255   -1.000
 4870.00    0.93060   0.89579   -1.000
 4871.00    0.92886   0.89917   -1.000
 4872.00    0.93235   0.90557   -1.000
 4873.00    0.94129   0.91420   -1.000
 4874.00    0.95523   0.92239   -1.000
 4875.00    0.95618   0.92859   -1.000
 4876.00    0.95397   0.93364   -1.000
 4877.00    0.95505   0.93950   -1.000
 4878.00    0.95916   0.94686   -1.000
 4879.00    0.96893   0.95410   -1.000
 4880.00    0.96895   0.95839  239.395
 4881.00    0.96882   0.95842  240.937
 4882.00    0.96768   0.95589   -1.000
 4883.00    0.97149   0.95435   -1.000
 4884.00    0.97599   0.95582   -1.000
 4885.00    0.97527   0.95942   -1.000
 4886.00    0.97306   0.96254  250.543
 4887.00    0.97183   0.96263  252.235
 4888.00    0.97135   0.95902   -1.000
 4889.00    0.96395   0.95349   -1.000
 4890.00    0.95785   0.95031  253.909
 4891.00    0.96250   0.95324  259.356
 4892.00    0.96953   0.96197  258.637
 4893.00    0.98062   0.97295  249.300
 4894.00    0.98353   0.98247  237.817
 4895.00    0.98722   0.98865  230.256
 4896.00    0.98682   0.99116  225.631
 4897.00    0.98325   0.99014  224.138
 4898.00    0.98447   0.98656  224.431
 4899.00    0.98585   0.98259  228.724
 4900.00    0.98331   0.98022  234.130
 4901.00    0.97991   0.97967  237.132
 4902.00    0.98282   0.98046  236.463
 4903.00    0.98676   0.98270  236.567
 4904.00    0.98789   0.98646  239.161
 4905.00    0.98923   0.99034  237.334
 4906.00    0.98670   0.99212  232.528
 4907.00    0.98823   0.99060  230.262
 4908.00    0.98776   0.98612  231.868
 4909.00    0.98900   0.98060  237.026
 4910.00    0.98881   0.97676   -1.000
 4911.00    0.98250   0.97649  247.460
 4912.00    0.98575   0.97950  245.062
 4913.00    0.98748   0.98395  240.737
 4914.00    0.98414   0.98710  237.281
 4915.00    0.98741   0.98649  234.174
 4916.00    0.98616   0.98043  231.963
 4917.00    0.98079   0.96937   -1.000
 4918.00    0.97245   0.95604   -1.000
 4919.00    0.95892   0.94447   -1.000
 4920.00    0.95320   0.93740   -1.000
 4921.00    0.95944   0.93432   -1.000
 4922.00    0.96738   0.93364   -1.000
 4923.00    0.96764   0.93635   -1.000
 4924.00    0.97298   0.94439   -1.000
 4925.00    0.98227   0.95678   -1.000
 4926.00    0.98836   0.96977   -1.000
 4927.00    0.99348   0.97981   -1.000
 4928.00    0.98857   0.98558  234.042
 4929.00    0.99155   0.98717  231.564
 4930.00    0.99429   0.98452  229.903
 4931.00    0.98881   0.97766  228.490
 4932.00    0.98089   0.96855   -1.000
 4933.00    0.97466   0.96174   -1.000
 4934.00    0.97104   0.96037   -1.000
 4935.00    0.97800   0.96296   -1.000
 4936.00    0.98642   0.96555   -1.000
 4937.00    0.98350   0.96607   -1.000
 4938.00    0.97463   0.96638  247.608
 4939.00    0.98209   0.96933   -1.000
 4940.00    0.98510   0.97570  253.770
 4941.00    0.98297   0.98342  245.982
 4942.00    0.99036   0.98973  237.969
 4943.00    0.99314   0.99301  233.090
 4944.00    0.99661   0.99339  230.645
 4945.00    0.99380   0.99253  230.478
 4946.00    0.99116   0.99205  231.918
 4947.00    0.99436   0.99258  232.608
 4948.00    0.99431   0.99356  230.895
 4949.00    0.99215   0.99412  228.231
 4950.00    0.98972   0.99393  227.230
 4951.00    0.99067   0.99311  226.324
 4952.00    0.99307   0.99154  227.176
 4953.00    0.99444   0.98794  228.695
 4954.00    0.99170   0.98045  231.184
 4955.00    0.97797   0.96898  234.045
 4956.00    0.96068   0.95797  239.785
 4957.00    0.95855   0.95407  251.277
 4958.00    0.96762   0.95969  261.954
 4959.00    0.97871   0.97143  259.128
 4960.00    0.98631   0.98341  245.584
 4961.00    0.99313   0.99151  236.194
 4962.00    0.99864   0.99476  233.406
 4963.00    0.99351   0.99406  234.076
 4964.00    0.98679   0.99083  235.843
 4965.00    0.98749   0.98702  238.500
 4966.00    0.98965   0.98434  243.230
 4967.00    0.98841   0.98340  246.733
 4968.00    0.98906   0.98409  247.283
 4969.00    0.99316   0.98595  246.667
 4970.00    0.99889   0.98827  245.012
 4971.00    0.99703   0.99053  242.509
 4972.00    0.99333   0.99233  239.904
 4973.00    0.99577   0.99323  237.078
 4974.00    0.99584   0.99306  234.742
 4975.00    0.99267   0.99172  233.586
 4976.00    0.99688   0.98934  234.802
 4977.00    0.99923   0.98659   -1.000
 4978.00    0.99004   0.98340  240.276
 4979.00    0.99377   0.97855   -1.000
 4980.00    0.99090   0.97150   -1.000
 4981.00    0.97702   0.96342   -1.000
 4982.00    0.97292   0.95733   -1.000
 4983.00    0.97044   0.95580   -1.000
 4984.00    0.97636   0.95927   -1.000
 4985.00    0.98174   0.96620   -1.000
 4986.00    0.98871   0.97389   -1.000
 4987.00    0.99243   0.97935   -1.000
 4988.00    0.98951   0.98062  242.279
 4989.00    0.99142   0.97799   -1.000
 4990.00    0.98559   0.97382   -1.000
 4991.00    0.98424   0.97109   -1.000
 4992.00    0.98585   0.97128   -1.000
 4993.00    0.98743   0.97425   -1.000
 4994.00    0.98843   0.97864  244.652
 4995.00    0.99078   0.98214  244.392
 4996.00    0.99057   0.98232  243.325
 4997.00    0.99122   0.97777   -1.000
 4998.00    0.98968   0.96935   -1.000
 4999.00    0.98552   0.96142   -1.000
 5000.00    0.98480   0.95807   -1.000
 5001.00    0.98526   0.95916   -1.000
 5002.00    0.98670   0.96148   -1.000
 5003.00    0.98611   0.96135   -1.000
 5004.00    0.98277   0.95817   -1.000
 5005.00    0.97710   0.95470   -1.000
 5006.00    0.97446   0.95434   -1.000
 5007.00    0.97486   0.95768   -1.000
 5008.00    0.98113   0.96200   -1.000
 5009.00    0.98757   0.96381   -1.000
 5010.00    0.98092   0.96146   -1.000
 5011.00    0.97308   0.95615   -1.000
 5012.00    0.96925   0.95067   -1.000
 5013.00    0.96939   0.94734   -1.000
 5014.00    0.97089   0.94609   -1.000
 5015.00    0.97371   0.94430   -1.000
 5016.00    0.97029   0.93987   -1.000
 5017.00    0.96384   0.93465   -1.000
 5018.00    0.96629   0.93389   -1.000
 5019.00    0.97127   0.94014   -1.000
 5020.00    0.97727   0.95077   -1.000
 5021.00    0.98004   0.96143   -1.000
 5022.00    0.98491   0.96963   -1.000
 5023.00    0.98706   0.97540   -1.000
 5024.00    0.98530   0.97933  253.718
 5025.00    0.98907   0.98138  251.228
 5026.00    0.98840   0.98157  249.362
 5027.00    0.98563   0.98045  250.058
 5028.00    0.98491   0.97856  251.278
 5029.00    0.98706   0.97668  249.590
 5030.00    0.98654   0.97607  245.272
 5031.00    0.98859   0.97721   -1.000
 5032.00    0.98591   0.97881  237.722
 5033.00    0.98163   0.97900  234.782
 5034.00    0.98196   0.97708  234.626
 5035.00    0.97661   0.97410  240.900
 5036.00    0.97830   0.97102  250.223
 5037.00    0.97325   0.96705  255.435
 5038.00    0.97365   0.96103   -1.000
 5039.00    0.96938   0.95354   -1.000
 5040.00    0.95664   0.94819   -1.000
 5041.00    0.95700   0.94890  279.577
 5042.00    0.96617   0.95604   -1.000
 5043.00    0.97615   0.96665  270.361
 5044.00    1.00132   0.97657   -1.000
 5045.00    0.74688   0.98297   -1.000
 5046.00    0.37423   0.98472   -1.000
 5047.00    0.07882   0.98176   -1.000
 5048.00    0.38365   0.97503   -1.000
 5049.00    0.81941   0.96639   -1.000
 5050.00    0.90008   0.95848   -1.000
 5051.00    0.96469   0.95537   -1.000
 5052.00    0.97846   0.95964   -1.000
 5053.00    0.98475   0.96897   -1.000
 5054.00    0.98833   0.97857  242.115
 5055.00    0.98578   0.98517  237.396
 5056.00    0.98172   0.98858  234.781
 5057.00    0.98169   0.99039  233.773
 5058.00    0.98349   0.99168  234.002
 5059.00    0.98382   0.99248  234.445
 5060.00    0.98440   0.99230  234.446
 5061.00    0.98652   0.99059  233.109
 5062.00    0.98674   0.98715  232.920
 5063.00    0.98323   0.98262  235.533
 5064.00    0.98300   0.97839  241.764
 5065.00    0.98609   0.97560   -1.000
 5066.00    0.98471   0.97426   -1.000
 5067.00    0.98327   0.97372  252.091
 5068.00    0.98358   0.97355  248.353
 5069.00    0.98196   0.97362  247.024
 5070.00    0.98357   0.97357  245.943
 5071.00    0.98309   0.97306  244.395
 5072.00    0.98822   0.97219   -1.000
 5073.00    0.98532   0.97141   -1.000
 5074.00    0.98673   0.97086   -1.000
 5075.00    0.98832   0.96995   -1.000
 5076.00    0.98441   0.96745   -1.000
 5077.00    0.98084   0.96298   -1.000
 5078.00    0.97726   0.95820   -1.000
 5079.00    0.97186   0.95574   -1.000
 5080.00    0.96926   0.95669   -1.000
 5081.00    0.97161   0.95986   -1.000
 5082.00    0.97679   0.96381   -1.000
 5083.00    0.98310   0.96792   -1.000
 5084.00    0.98611   0.97178   -1.000
 5085.00    0.98835   0.97483   -1.000
 5086.00    0.99263   0.97691   -1.000
 5087.00    0.99133   0.97855   -1.000
 5088.00    0.98663   0.98051  242.841
 5089.00    0.98615   0.98289  241.789
 5090.00    0.99250   0.98523  240.126
 5091.00    0.99421   0.98714  238.722
 5092.00    0.99524   0.98831  237.474
 5093.00    0.99584   0.98833  235.002
 5094.00    0.99145   0.98659  232.767
 5095.00    0.98727   0.98269  234.122
 5096.00    0.98608   0.97720  238.552
 5097.00    0.98407   0.97173   -1.000
 5098.00    0.98062   0.96842   -1.000
 5099.00    0.98358   0.96864   -1.000
 5100.00    0.98827   0.97185   -1.000
 5101.00    0.99556   0.97634   -1.000
 5102.00    0.99684   0.97997   -1.000
 5103.00    0.99265   0.98124   -1.000
 5104.00    0.99157   0.97949   -1.000
 5105.00    0.98381   0.97505  244.972
 5106.00    0.97951   0.96954   -1.000
 5107.00    0.97639   0.96541   -1.000
 5108.00    0.97155   0.96413  254.311
 5109.00    0.97282   0.96597  254.587
 5110.00    0.97717   0.97036  253.148
 5111.00    0.98712   0.97618   -1.000
 5112.00    0.99457   0.98186   -1.000
 5113.00    0.99188   0.98623  244.911
 5114.00    0.99102   0.98894  241.928
 5115.00    0.99493   0.99053  239.605
 5116.00    0.99500   0.99140  238.166
 5117.00    0.99870   0.99131  235.883
 5118.00    0.99766   0.98992  233.801
 5119.00    0.99131   0.98711  234.005
 5120.00    0.99120   0.98303  236.654
 5121.00    0.98967   0.97816   -1.000
 5122.00    0.98628   0.97339   -1.000
 5123.00    0.98110   0.96983   -1.000
 5124.00    0.98355   0.96791   -1.000
 5125.00    0.98842   0.96672   -1.000
 5126.00    0.98448   0.96514   -1.000
 5127.00    0.97871   0.96331   -1.000
 5128.00    0.98419   0.96252   -1.000
 5129.00    0.98708   0.96390   -1.000
 5130.00    0.98938   0.96714   -1.000
 5131.00    0.98580   0.97079   -1.000
 5132.00    0.98104   0.97386  248.643
 5133.00    0.98531   0.97588  246.197
 5134.00    0.99045   0.97646   -1.000
 5135.00    0.98975   0.97506   -1.000
 5136.00    0.98494   0.97165   -1.000
 5137.00    0.97661   0.96720  244.257
 5138.00    0.96894   0.96357  249.976
 5139.00    0.96917   0.96221  254.388
 5140.00    0.97364   0.96316   -1.000
 5141.00    0.97764   0.96527   -1.000
 5142.00    0.97919   0.96778   -1.000
 5143.00    0.97950   0.97042  258.422
 5144.00    0.98291   0.97278   -1.000
 5145.00    0.98571   0.97435   -1.000
 5146.00    0.99015   0.97497   -1.000
 5147.00    0.99363   0.97448   -1.000
 5148.00    0.98807   0.97262   -1.000
 5149.00    0.98144   0.96926   -1.000
 5150.00    0.98111   0.96499   -1.000
 5151.00    0.97947   0.96130   -1.000
 5152.00    0.98298   0.95974   -1.000
 5153.00    0.98550   0.96115   -1.000
 5154.00    0.98403   0.96558   -1.000
 5155.00    0.98639   0.97173   -1.000
 5156.00    0.99262   0.97763   -1.000
 5157.00    1.00009   0.98166   -1.000
 5158.00    0.99733   0.98336   -1.000
 5159.00    0.99438   0.98316   -1.000
 5160.00    0.99322   0.98174   -1.000
 5161.00    0.98898   0.97920  235.663
 5162.00    0.98947   0.97427   -1.000
 5163.00    0.99044   0.96388   -1.000
 5164.00    0.98039   0.94522   -1.000
 5165.00    0.95564   0.91949   -1.000
 5166.00    0.93354   0.89361   -1.000
 5167.00    0.91815   0.87690   -1.000
 5168.00    0.92208   0.87321   -1.000
 5169.00    0.93762   0.87886   -1.000
 5170.00    0.94278   0.88607   -1.000
 5171.00    0.93749   0.89232   -1.000
 5172.00    0.93890   0.90168   -1.000
 5173.00    0.95067   0.91794   -1.000
 5174.00    0.97213   0.93916   -1.000
 5175.00    0.99077   0.95878   -1.000
 5176.00    0.99618   0.97225   -1.000
 5177.00    0.99713   0.97876   -1.000
 5178.00    0.99871   0.97899   -1.000
 5179.00    0.99694   0.97275   -1.000
 5180.00    0.99278   0.95897   -1.000
 5181.00    0.98294   0.93910   -1.000
 5182.00    0.96022   0.91964   -1.000
 5183.00    0.94355   0.90878   -1.000
 5184.00    0.95480   0.91106   -1.000
 5185.00    0.97455   0.92217   -1.000
 5186.00    0.98159   0.93417   -1.000
 5187.00    0.98317   0.94180   -1.000
 5188.00    0.98260   0.94455   -1.000
 5189.00    0.98047   0.94447   -1.000
 5190.00    0.97452   0.94297   -1.000
 5191.00    0.96811   0.94135   -1.000
 5192.00    0.97080   0.94094   -1.000
 5193.00    0.97231   0.94202   -1.000
 5194.00    0.97162   0.94361   -1.000
 5195.00    0.97924   0.94513   -1.000
 5196.00    0.98377   0.94690   -1.000
 5197.00    0.98577   0.94986   -1.000
 5198.00    0.98949   0.95407   -1.000
 5199.00    0.98760   0.95790   -1.000
 5200.00    0.98819   0.95926   -1.000
 5201.00    0.98072   0.95660   -1.000
 5202.00    0.97700   0.95006   -1.000
 5203.00    0.96976   0.94155   -1.000
 5204.00    0.96675   0.93424   -1.000
 5205.00    0.96894   0.93038   -1.000
 5206.00    0.96966   0.93021   -1.000
 5207.00    0.96708   0.93249   -1.000
 5208.00    0.96770   0.93637   -1.000
 5209.00    0.97755   0.94218   -1.000
 5210.00    0.98732   0.94949   -1.000
 5211.00    0.98732   0.95641   -1.000
 5212.00    0.99117   0.96073   -1.000
 5213.00    0.99322   0.96080   -1.000
 5214.00    0.99054   0.95771   -1.000
 5215.00    0.98653   0.95432   -1.000
 5216.00    0.98587   0.95388   -1.000
 5217.00    0.98600   0.95755   -1.000
 5218.00    0.99199   0.96381   -1.000
 5219.00    1.00022   0.96999   -1.000
 5220.00    0.99968   0.97381   -1.000
 5221.00    0.99961   0.97390   -1.000
 5222.00    0.99725   0.96902   -1.000
 5223.00    0.98992   0.95861   -1.000
 5224.00    0.98196   0.94393   -1.000
 5225.00    0.96555   0.92956   -1.000
 5226.00    0.95179   0.92200   -1.000
 5227.00    0.95829   0.92464   -1.000
 5228.00    0.97502   0.93427   -1.000
 5229.00    0.98658   0.94414   -1.000
 5230.00    0.99340   0.94841   -1.000
 5231.00    0.98719   0.94647   -1.000
 5232.00    0.97949   0.94163   -1.000
 5233.00    0.98350   0.93879   -1.000
 5234.00    0.98729   0.94072   -1.000
 5235.00    0.98982   0.94667   -1.000
 5236.00    0.99340   0.95405   -1.000
 5237.00    0.99548   0.96031   -1.000
 5238.00    0.99941   0.96462   -1.000
 5239.00    1.00081   0.96731   -1.000
 5240.00    0.99821   0.96905   -1.000
 5241.00    1.00141   0.97021   -1.000
 5242.00    1.00114   0.97092   -1.000
 5243.00    0.99998   0.97106   -1.000
 5244.00    0.99785   0.97026   -1.000
 5245.00    0.99357   0.96808   -1.000
 5246.00    0.99282   0.96481   -1.000
 5247.00    0.99018   0.96134   -1.000
 5248.00    0.98908   0.95847   -1.000
 5249.00    0.98879   0.95671   -1.000
 5250.00    0.98765   0.95631   -1.000
 5251.00    0.98664   0.95683   -1.000
 5252.00    0.99242   0.95745   -1.000
 5253.00    0.99536   0.95790   -1.000
 5254.00    0.99582   0.95891   -1.000
 5255.00    0.99241   0.96150   -1.000
 5256.00    0.99435   0.96546   -1.000
 5257.00    0.99921   0.96867   -1.000
 5258.00    0.99747   0.96884   -1.000
 5259.00    0.99595   0.96445   -1.000
 5260.00    0.99169   0.95590   -1.000
 5261.00    0.98497   0.94501   -1.000
 5262.00    0.97981   0.93444   -1.000
 5263.00    0.97621   0.92611   -1.000
 5264.00    0.97207   0.92137   -1.000
 5265.00    0.96776   0.91943   -1.000
 5266.00    0.96483   0.91818   -1.000
 5267.00    0.96349   0.91518   -1.000
 5268.00    0.95646   0.91102   -1.000
 5269.00    0.94724   0.90970   -1.000
 5270.00    0.95168   0.91412   -1.000
 5271.00    0.96639   0.92302   -1.000
 5272.00    0.98093   0.93121   -1.000
 5273.00    0.98762   0.93563   -1.000
 5274.00    0.98548   0.93732   -1.000
 5275.00    0.98754   0.93980   -1.000
 5276.00    0.99389   0.94528   -1.000
 5277.00    0.99953   0.95223   -1.000
 5278.00    1.00038   0.95736   -1.000
 5279.00    0.99730   0.95837   -1.000
 5280.00    0.99640   0.95537   -1.000
 5281.00    0.99311   0.95057   -1.000
 5282.00    0.98699   0.94696   -1.000
 5283.00    0.98129   0.94729   -1.000
 5284.00    0.95905   0.95215  245.287
 5285.00    0.98184   0.95996   -1.000
 5286.00    0.99579   0.96731   -1.000
 5287.00    0.99800   0.97232   -1.000
 5288.00    1.00029   0.97470   -1.000
 5289.00    1.00237   0.97532   -1.000
 5290.00    1.00071   0.97490   -1.000
 5291.00    0.99816   0.97383   -1.000
 5292.00    0.99991   0.97237   -1.000
 5293.00    0.99955   0.97038   -1.000
 5294.00    0.99579   0.96745   -1.000
 5295.00    0.99520   0.96345   -1.000
 5296.00    0.99347   0.95930   -1.000
 5297.00    0.99377   0.95635   -1.000
 5298.00    0.99596   0.95567   -1.000
 5299.00    0.99466   0.95678   -1.000
 5300.00    0.99141   0.95861   -1.000
 5301.00    0.99418   0.96048   -1.000
 5302.00    0.99874   0.96230   -1.000
 5303.00    0.99763   0.96393   -1.000
 5304.00    0.99744   0.96490   -1.000
 5305.00    0.99811   0.96498   -1.000
 5306.00    0.99752   0.96473   -1.000
 5307.00    0.99622   0.96496   -1.000
 5308.00    0.99778   0.96598   -1.000
 5309.00    0.99793   0.96723   -1.000
 5310.00    0.99778   0.96770   -1.000
 5311.00    1.00154   0.96655   -1.000
 5312.00    1.00220   0.96320   -1.000
 5313.00    0.99947   0.95756   -1.000
 5314.00    0.99487   0.95056   -1.000
 5315.00    0.99143   0.94469   -1.000
 5316.00    0.99020   0.94278   -1.000
 5317.00    0.99158   0.94611   -1.000
 5318.00    0.99523   0.95256   -1.000
 5319.00    0.99616   0.95854   -1.000
 5320.00    0.99703   0.96093   -1.000
 5321.00    0.99313   0.95886   -1.000
 5322.00    0.98596   0.95351   -1.000
 5323.00    0.98886   0.94675   -1.000
 5324.00    0.98756   0.93970   -1.000
 5325.00    0.97960   0.93200   -1.000
 5326.00    0.96616   0.92416   -1.000
 5327.00    0.95718   0.91926   -1.000
 5328.00    0.95516   0.92090   -1.000
 5329.00    0.96874   0.92979   -1.000
 5330.00    0.98654   0.94132   -1.000
 5331.00    0.99502   0.95056   -1.000
 5332.00    0.99488   0.95465   -1.000
 5333.00    0.99586   0.95432   -1.000
 5334.00    0.99459   0.95164   -1.000
 5335.00    0.98958   0.94845   -1.000
 5336.00    0.98796   0.94598   -1.000
 5337.00    0.99336   0.94435   -1.000
 5338.00    0.99264   0.94340   -1.000
 5339.00    0.98895   0.94333   -1.000
 5340.00    0.98636   0.94493   -1.000
 5341.00    0.98513   0.94850   -1.000
 5342.00    0.99022   0.95257   -1.000
 5343.00    0.99407   0.95533   -1.000
 5344.00    0.99173   0.95583   -1.000
 5345.00    0.99232   0.95468   -1.000
 5346.00    0.99620   0.95315   -1.000
 5347.00    0.99749   0.95237   -1.000
 5348.00    0.99804   0.95279   -1.000
 5349.00    1.00100   0.95463   -1.000
 5350.00    1.00282   0.95738   -1.000
 5351.00    1.00293   0.96016   -1.000
 5352.00    1.00324   0.96252   -1.000
 5353.00    1.00305   0.96451   -1.000
 5354.00    1.00469   0.96635   -1.000
 5355.00    1.00781   0.96793   -1.000
 5356.00    1.00758   0.96874   -1.000
 5357.00    1.00567   0.96852   -1.000
 5358.00    1.00441   0.96693   -1.000
 5359.00    1.00135   0.96384   -1.000
 5360.00    1.00029   0.95944   -1.000
 5361.00    1.00327   0.95454   -1.000
 5362.00    1.00359   0.95052   -1.000
 5363.00    0.99831   0.94827   -1.000
 5364.00    0.99424   0.94786   -1.000
 5365.00    0.99622   0.94831   -1.000
 5366.00    0.99607   0.94809   -1.000
 5367.00    0.99761   0.94597   -1.000
 5368.00    0.99585   0.94176   -1.000
 5369.00    0.98524   0.93691   -1.000
 5370.00    0.97807   0.93421   -1.000
 5371.00    0.97741   0.93619   -1.000
 5372.00    0.98965   0.94290   -1.000
 5373.00    0.99795   0.95144   -1.000
 5374.00    0.99841   0.95878   -1.000
 5375.00    1.00221   0.96302   -1.000
 5376.00    1.00363   0.96432   -1.000
 5377.00    1.00422   0.96330   -1.000
 5378.00    1.00061   0.96054   -1.000
 5379.00    0.99900   0.95684   -1.000
 5380.00    0.99827   0.95344   -1.000
 5381.00    0.99680   0.95159   -1.000
 5382.00    0.99437   0.95198   -1.000
 5383.00    0.99487   0.95427   -1.000
 5384.00    1.00008   0.95761   -1.000
 5385.00    1.00400   0.96081   -1.000
 5386.00    1.00403   0.96275   -1.000
 5387.00    1.00659   0.96286   -1.000
 5388.00    1.00905   0.96122   -1.000
 5389.00    1.00552   0.95837   -1.000
 5390.00    1.00216   0.95520   -1.000
 5391.00    1.00069   0.95209   -1.000
 5392.00    0.99733   0.94933   -1.000
 5393.00    0.99426   0.94634   -1.000
 5394.00    0.99340   0.94254   -1.000
 5395.00    0.98633   0.93828   -1.000
 5396.00    0.97869   0.93543   -1.000
 5397.00    0.98306   0.93615   -1.000
 5398.00    0.99067   0.93996   -1.000
 5399.00    0.99561   0.94462   -1.000
 5400.00    0.99864   0.94706   -1.000
 5401.00    1.00119   0.94586   -1.000
 5402.00    0.99887   0.94109   -1.000
 5403.00    0.98981   0.93471   -1.000
 5404.00    0.98070   0.92947   -1.000
 5405.00    0.97640   0.92765   -1.000
 5406.00    0.98487   0.92935   -1.000
 5407.00    0.99092   0.93227   -1.000
 5408.00    0.99041   0.93458   -1.000
 5409.00    0.99089   0.93596   -1.000
 5410.00    0.99630   0.93746   -1.000
 5411.00    0.99811   0.93947   -1.000
 5412.00    0.99584   0.94102   -1.000
 5413.00    0.99911   0.94191   -1.000
 5414.00    0.99402   0.94261   -1.000
 5415.00    0.98946   0.94394   -1.000
 5416.00    0.99020   0.94592   -1.000
 5417.00    0.98965   0.94778   -1.000
 5418.00    0.99208   0.94912   -1.000
 5419.00    0.99899   0.94966   -1.000
 5420.00    0.99672   0.94921   -1.000
 5421.00    0.99254   0.94757   -1.000
 5422.00    0.98919   0.94529   -1.000
 5423.00    0.98767   0.94338   -1.000
 5424.00    0.99349   0.94304   -1.000
 5425.00    0.99290   0.94396   -1.000
 5426.00    0.98996   0.94442   -1.000
 5427.00    0.98790   0.94313   -1.000
 5428.00    0.98022   0.94038   -1.000
 5429.00    0.97708   0.93833   -1.000
 5430.00    0.98278   0.93771   -1.000
 5431.00    0.98815   0.93741   -1.000
 5432.00    0.98947   0.93665   -1.000
 5433.00    0.98625   0.93582   -1.000
 5434.00    0.97873   0.93727   -1.000
 5435.00    0.98155   0.94182   -1.000
 5436.00    0.99169   0.94814   -1.000
 5437.00    0.99756   0.95417   -1.000
 5438.00    1.00210   0.95820   -1.000
 5439.00    1.00181   0.96019   -1.000
 5440.00    1.00006   0.96043   -1.000
 5441.00    0.99837   0.95900   -1.000
 5442.00    0.99327   0.95544   -1.000
 5443.00    0.99005   0.94941   -1.000
 5444.00    0.98815   0.94184   -1.000
 5445.00    0.98155   0.93498   -1.000
 5446.00    0.97536   0.93202   -1.000
 5447.00    0.98074   0.93410   -1.000
 5448.00    0.98795   0.93991   -1.000
 5449.00    0.99386   0.94623   -1.000
 5450.00    0.99566   0.95013   -1.000
 5451.00    0.99751   0.95007   -1.000
 5452.00    0.99489   0.94614   -1.000
 5453.00    0.98525   0.94018   -1.000
 5454.00    0.97831   0.93520   -1.000
 5455.00    0.97612   0.93451   -1.000
 5456.00    0.98005   0.93860   -1.000
 5457.00    0.98726   0.94578   -1.000
 5458.00    0.99332   0.95217   -1.000
 5459.00    0.99560   0.95575   -1.000
 5460.00    0.98989   0.95581   -1.000
 5461.00    0.99114   0.95368   -1.000
 5462.00    0.99070   0.95103   -1.000
 5463.00    0.98871   0.94957   -1.000
 5464.00    0.98913   0.94979   -1.000
 5465.00    0.99283   0.95119   -1.000
 5466.00    0.99568   0.95302   -1.000
 5467.00    0.99484   0.95481   -1.000
 5468.00    0.99486   0.95629   -1.000
 5469.00    0.99716   0.95710   -1.000
 5470.00    0.99688   0.95656   -1.000
 5471.00    0.99534   0.95458   -1.000
 5472.00    0.99344   0.95113   -1.000
 5473.00    0.99161   0.94640   -1.000
 5474.00    0.99028   0.94081   -1.000
 5475.00    0.98492   0.93600   -1.000
 5476.00    0.97854   0.93389   -1.000
 5477.00    0.97837   0.93581   -1.000
 5478.00    0.98345   0.94024   -1.000
 5479.00    0.99053   0.94486   -1.000
 5480.00    0.99189   0.94814   -1.000
 5481.00    0.98830   0.95012   -1.000
 5482.00    0.98837   0.95167   -1.000
 5483.00    0.98874   0.95320   -1.000
 5484.00    0.99183   0.95440   -1.000
 5485.00    0.99452   0.95480   -1.000
 5486.00    0.98881   0.95421   -1.000
 5487.00    0.98692   0.95309   -1.000
 5488.00    0.98653   0.95203   -1.000
 5489.00    0.98700   0.95158   -1.000
 5490.00    0.99006   0.95182   -1.000
 5491.00    0.98813   0.95249   -1.000
 5492.00    0.98742   0.95279   -1.000
 5493.00    0.98904   0.95221   -1.000
 5494.00    0.98839   0.95032   -1.000
 5495.00    0.98588   0.94759   -1.000
 5496.00    0.98073   0.94487   -1.000
 5497.00    0.97895   0.94324   -1.000
 5498.00    0.97972   0.94268   -1.000
 5499.00    0.98149   0.94218   -1.000
 5500.00    0.98010   0.94144   -1.000
 5501.00    0.98093   0.94088   -1.000
 5502.00    0.98527   0.94105   -1.000
 5503.00    0.98853   0.94147   -1.000
 5504.00    0.98729   0.94075   -1.000
 5505.00    0.97958   0.93908   -1.000
 5506.00    0.97345   0.93781   -1.000
 5507.00    0.97844   0.93818   -1.000
 5508.00    0.98442   0.94024   -1.000
 5509.00    0.98768   0.94225   -1.000
 5510.00    0.98956   0.94351   -1.000
 5511.00    0.98682   0.94398   -1.000
 5512.00    0.98516   0.94449   -1.000
 5513.00    0.98676   0.94567   -1.000
 5514.00    0.99058   0.94753   -1.000
 5515.00    0.99310   0.94989   -1.000
 5516.00    0.98953   0.95217   -1.000
 5517.00    0.99043   0.95399   -1.000
 5518.00    0.99690   0.95493   -1.000
 5519.00    0.99786   0.95506   -1.000
 5520.00    0.99210   0.95454   -1.000
 5521.00    0.99003   0.95360   -1.000
 5522.00    0.99211   0.95176   -1.000
 5523.00    0.99123   0.94800   -1.000
 5524.00    0.98879   0.94196   -1.000
 5525.00    0.98483   0.93427   -1.000
 5526.00    0.97890   0.92779   -1.000
 5527.00    0.97482   0.92507   -1.000
 5528.00    0.97516   0.92735   -1.000
 5529.00    0.97847   0.93280   -1.000
 5530.00    0.98333   0.93819   -1.000
 5531.00    0.98644   0.94093   -1.000
 5532.00    0.98503   0.94048   -1.000
 5533.00    0.98263   0.93883   -1.000
 5534.00    0.98057   0.93824   -1.000
 5535.00    0.98527   0.94024   -1.000
 5536.00    0.98762   0.94387   -1.000
 5537.00    0.98556   0.94761   -1.000
 5538.00    0.98698   0.95010   -1.000
 5539.00    0.98782   0.95106   -1.000
 5540.00    0.98941   0.95086   -1.000
 5541.00    0.98904   0.94996   -1.000
 5542.00    0.98819   0.94879   -1.000
 5543.00    0.98761   0.94795   -1.000
 5544.00    0.98778   0.94784   -1.000
 5545.00    0.98525   0.94865   -1.000
 5546.00    0.98415   0.95007   -1.000
 5547.00    0.98760   0.95172   -1.000
 5548.00    0.98966   0.95296   -1.000
 5549.00    0.98863   0.95349   -1.000
 5550.00    0.99000   0.95327   -1.000
 5551.00    0.99162   0.95266   -1.000
 5552.00    0.98915   0.95215   -1.000
 5553.00    0.98304   0.95179   -1.000
 5554.00    0.97985   0.95182   -1.000
 5555.00    0.98195   0.95209   -1.000
 5556.00    0.98526   0.95249   -1.000
 5557.00    0.98524   0.95275   -1.000
 5558.00    0.98554   0.95265   -1.000
 5559.00    0.98909   0.95218   -1.000
 5560.00    0.98925   0.95125   -1.000
 5561.00    0.98472   0.95005   -1.000
 5562.00    0.98210   0.94900   -1.000
 5563.00    0.98395   0.94824   -1.000
 5564.00    0.98388   0.94766   -1.000
 5565.00    0.98293   0.94678   -1.000
 5566.00    0.98217   0.94538   -1.000
 5567.00    0.98012   0.94369   -1.000
 5568.00    0.97750   0.94177   -1.000
 5569.00    0.97677   0.94002   -1.000
 5570.00    0.97617   0.93837   -1.000
 5571.00    0.97217   0.93695   -1.000
 5572.00    0.97262   0.93662   -1.000
 5573.00    0.97708   0.93744   -1.000
 5574.00    0.97797   0.93928   -1.000
 5575.00    0.97721   0.94144   -1.000
 5576.00    0.98460   0.94336   -1.000
 5577.00    1.00630   0.94479   -1.000
 5578.00    1.02825   0.94545   -1.000
 5579.00    1.02118   0.94549   -1.000
 5580.00    0.97478   0.94488   -1.000
 5581.00    0.93757   0.94421  239.882
 5582.00    0.94321   0.94302  238.281
 5583.00    0.96122   0.94066   -1.000
 5584.00    0.96942   0.93638   -1.000
 5585.00    0.97026   0.93076   -1.000
 5586.00    0.96690   0.92565   -1.000
 5587.00    0.96235   0.92281   -1.000
 5588.00    0.96165   0.92323   -1.000
 5589.00    0.96715   0.92606   -1.000
 5590.00    0.97501   0.92994   -1.000
 5591.00    0.98049   0.93286   -1.000
 5592.00    0.97570   0.93447   -1.000
 5593.00    0.96960   0.93510   -1.000
 5594.00    0.97034   0.93562   -1.000
 5595.00    0.97232   0.93615   -1.000
 5596.00    0.97180   0.93594   -1.000
 5597.00    0.96984   0.93491   -1.000
 5598.00    0.96974   0.93322   -1.000
 5599.00    0.97442   0.93138   -1.000
 5600.00    0.97335   0.92987   -1.000
 5601.00    0.97283   0.92994   -1.000
 5602.00    0.97369   0.93229   -1.000
 5603.00    0.97295   0.93674   -1.000
 5604.00    0.97256   0.94186   -1.000
 5605.00    0.97423   0.94614   -1.000
 5606.00    0.97506   0.94888   -1.000
 5607.00    0.97770   0.95027   -1.000
 5608.00    0.98100   0.95088   -1.000
 5609.00    0.98085   0.95094   -1.000
 5610.00    0.97591   0.95010   -1.000
 5611.00    0.97427   0.94761   -1.000
 5612.00    0.97606   0.94313   -1.000
 5613.00    0.96777   0.93792   -1.000
 5614.00    0.95816   0.93400   -1.000
 5615.00    0.96030   0.93392   -1.000
 5616.00    0.96675   0.93709   -1.000
 5617.00    0.97161   0.94193   -1.000
 5618.00    0.97610   0.94576   -1.000
 5619.00    0.97544   0.94784   -1.000
 5620.00    0.97154   0.94811   -1.000
 5621.00    0.97318   0.94722   -1.000
 5622.00    0.97450   0.94560   -1.000
 5623.00    0.97456   0.94422   -1.000
 5624.00    0.97505   0.94371   -1.000
 5625.00    0.97176   0.94448   -1.000
 5626.00    0.96799   0.94601   -1.000
 5627.00    0.97157   0.94758   -1.000
 5628.00    0.97450   0.94878   -1.000
 5629.00    0.97506   0.94933   -1.000
 5630.00    0.97384   0.94931   -1.000
 5631.00    0.97525   0.94890   -1.000
 5632.00    0.97385   0.94824   -1.000
 5633.00    0.96883   0.94762   -1.000
 5634.00    0.96916   0.94705   -1.000
 5635.00    0.97074   0.94630   -1.000
 5636.00    0.97012   0.94529   -1.000
 5637.00    0.97249   0.94392   -1.000
 5638.00    0.96845   0.94238   -1.000
 5639.00    0.96838   0.94102   -1.000
 5640.00    0.97061   0.94031   -1.000
 5641.00    0.96580   0.94056   -1.000
 5642.00    0.96466   0.94165   -1.000
 5643.00    0.96730   0.94307   -1.000
 5644.00    0.96991   0.94442   -1.000
 5645.00    0.97087   0.94541   -1.000
 5646.00    0.97381   0.94596   -1.000
 5647.00    0.97390   0.94615   -1.000
 5648.00    0.97083   0.94594   -1.000
 5649.00    0.96858   0.94545   -1.000
 5650.00    0.96686   0.94491   -1.000
 5651.00    0.96813   0.94438   -1.000
 5652.00    0.96856   0.94357   -1.000
 5653.00    0.96711   0.94185   -1.000
 5654.00    0.96668   0.93831   -1.000
 5655.00    0.96490   0.93310   -1.000
 5656.00    0.96214   0.92745   -1.000
 5657.00    0.95954   0.92394   -1.000
 5658.00    0.95708   0.92399   -1.000
 5659.00    0.95882   0.92675   -1.000
 5660.00    0.96328   0.93049   -1.000
 5661.00    0.96483   0.93374   -1.000
 5662.00    0.96426   0.93652   -1.000
 5663.00    0.96324   0.93867   -1.000
 5664.00    0.96395   0.93939   -1.000
 5665.00    0.96563   0.93837   -1.000
 5666.00    0.96364   0.93643   -1.000
 5667.00    0.95855   0.93498   -1.000
 5668.00    0.95573   0.93518   -1.000
 5669.00    0.95902   0.93689   -1.000
 5670.00    0.96271   0.93926   -1.000
 5671.00    0.96505   0.94142   -1.000
 5672.00    0.96563   0.94282   -1.000
 5673.00    0.95984   0.94361   -1.000
 5674.00    0.95684   0.94404   -1.000
 5675.00    0.96110   0.94429   -1.000
 5676.00    0.96118   0.94428   -1.000
 5677.00    0.95974   0.94382   -1.000
 5678.00    0.96466   0.94265   -1.000
 5679.00    0.96469   0.94079   -1.000
 5680.00    0.96030   0.93812   -1.000
 5681.00    0.95636   0.93517   -1.000
 5682.00    0.95523   0.93261   -1.000
 5683.00    0.95502   0.93136   -1.000
 5684.00    0.95351   0.93157   -1.000
 5685.00    0.95553   0.93272   -1.000
 5686.00    0.95640   0.93396   -1.000
 5687.00    0.95670   0.93481   -1.000
 5688.00    0.95821   0.93546   -1.000
 5689.00    0.95803   0.93615   -1.000
 5690.00    0.95777   0.93719   -1.000
 5691.00    0.95465   0.93840   -1.000
 5692.00    0.95364   0.93967   -1.000
 5693.00    0.95479   0.94072   -1.000
 5694.00    0.95501   0.94148   -1.000
 5695.00    0.95371   0.94179   -1.000
 5696.00    0.95323   0.94157   -1.000
 5697.00    0.95456   0.94062   -1.000
 5698.00    0.95466   0.93901   -1.000
 5699.00    0.95136   0.93722   -1.000
 5700.00    0.95009   0.93589   -1.000
 5701.00    0.95205   0.93547   -1.000
 5702.00    0.95278   0.93573   -1.000
 5703.00    0.95218   0.93602   -1.000
 5704.00    0.95255   0.93542   -1.000
 5705.00    0.95255   0.93370   -1.000
 5706.00    0.94856   0.93093   -1.000
 5707.00    0.94533   0.92768   -1.000
 5708.00    0.94468   0.92502   -1.000
 5709.00    0.94524   0.92393   -1.000
 5710.00    0.94774   0.92489   -1.000
 5711.00    0.94952   0.92757   -1.000
 5712.00    0.95075   0.93083   -1.000
 5713.00    0.95178   0.93367   -1.000
 5714.00    0.95143   0.93577   -1.000
 5715.00    0.95096   0.93721   -1.000
 5716.00    0.95233   0.93825   -1.000
 5717.00    0.95310   0.93895   -1.000
 5718.00    0.95262   0.93944   -1.000
 5719.00    0.95146   0.93978   -1.000
 5720.00    0.95163   0.93996   -1.000
 5721.00    0.94870   0.94002  228.589
 5722.00    0.94650   0.94000  227.918
 5723.00    0.94754   0.93981  227.533
 5724.00    0.94925   0.93931  227.244
 5725.00    0.94695   0.93844  227.566
 5726.00    0.94497   0.93742  229.146
 5727.00    0.94731   0.93663   -1.000
 5728.00    0.95024   0.93627   -1.000
 5729.00    0.94737   0.93648   -1.000
 5730.00    0.94279   0.93707  231.603
 5731.00    0.94597   0.93783  231.689
 5732.00    0.94816   0.93859  232.811
 5733.00    0.95024   0.93927   -1.000
 5734.00    0.94814   0.93963  230.536
 5735.00    0.94411   0.93961  228.812
 5736.00    0.94303   0.93947  228.600
 5737.00    0.94325   0.93930  228.918
 5738.00    0.94373   0.93928  229.492
 5739.00    0.94319   0.93934  229.826
 5740.00    0.94329   0.93948  230.211
 5741.00    0.94906   0.93953  230.616
 5742.00    0.94982   0.93949   -1.000
 5743.00    0.94462   0.93926  230.838
 5744.00    0.93979   0.93886  230.481
 5745.00    0.94073   0.93834  229.207
 5746.00    0.94560   0.93802  227.778
 5747.00    0.94460   0.93800  228.360
 5748.00    0.94271   0.93821  230.461
 5749.00    0.94252   0.93812  231.772
 5750.00    0.94212   0.93731  230.964
 5751.00    0.94406   0.93601  229.985
 5752.00    0.94693   0.93478   -1.000
 5753.00    0.94450   0.93451   -1.000
 5754.00    0.93894   0.93540  236.299
 5755.00    0.93840   0.93719  236.902
 5756.00    0.94161   0.93901  234.606
 5757.00    0.94336   0.94029  230.504
 5758.00    0.94439   0.94038  227.297
 5759.00    0.94611   0.93944  227.107
 5760.00    0.94713   0.93793  229.272
 5761.00    0.94319   0.93681  232.228
 5762.00    0.94189   0.93661  235.385
 5763.00    0.94546   0.93752  237.147
 5764.00    0.94254   0.93871  235.556
 5765.00    0.94039   0.93946  231.661
 5766.00    0.94193   0.93957  228.405
 5767.00    0.94316   0.93916  227.163
 5768.00    0.94173   0.93865  226.876
 5769.00    0.93727   0.93812  226.543
 5770.00    0.93946   0.93763  226.756
 5771.00    0.94526   0.93702  227.464
 5772.00    0.94074   0.93614  228.593
 5773.00    0.93296   0.93509  229.995
 5774.00    0.93128   0.93394  230.819
 5775.00    0.93398   0.93295  231.149
 5776.00    0.93903   0.93184  230.879
 5777.00    0.93969   0.93035  229.879
 5778.00    0.93686   0.92865  229.364
 5779.00    0.93425   0.92713  229.859
 5780.00    0.93063   0.92620  232.477
 5781.00    0.92291   0.92609  237.312
 5782.00    0.92049   0.92669  241.151
 5783.00    0.92722   0.92768  241.658
 5784.00    0.93527   0.92869  240.728
 5785.00    0.93472   0.92945  239.840
 5786.00    0.93289   0.92996  238.972
 5787.00    0.93732   0.93036  236.823
 5788.00    0.93941   0.93076  233.745
 5789.00    0.93976   0.93124  231.554
 5790.00    0.93876   0.93180  231.263
 5791.00    0.93599   0.93262  232.156
 5792.00    0.93420   0.93362  232.247
 5793.00    0.93251   0.93465  230.728
 5794.00    0.93532   0.93535  228.994
 5795.00    0.93952   0.93560  227.577
 5796.00    0.93634   0.93560  227.061
 5797.00    0.93389   0.93577  228.019
 5798.00    0.93248   0.93620  229.513
 5799.00    0.93400   0.93673  229.184
 5800.00    0.93924   0.93717  226.695
 5801.00    0.94277   0.93751  223.580
 5802.00    0.94124   0.93772  222.285
 5803.00    0.94016   0.93789  223.538
 5804.00    0.94019   0.93832  225.410
 5805.00    0.93899   0.93889  227.212
 5806.00    0.94105   0.93957  228.488
 5807.00    0.94192   0.94009  228.394
 5808.00    0.94120   0.94040  227.574
 5809.00    0.94177   0.94055  226.834
 5810.00    0.94340   0.94057  226.629
 5811.00    0.94354   0.94039  226.500
 5812.00    0.94288   0.94002  225.824
 5813.00    0.94535   0.93943  225.078
 5814.00    0.94485   0.93908  225.198
 5815.00    0.94299   0.93903  226.688
 5816.00    0.94221   0.93944  228.049
 5817.00    0.94214   0.93997  227.515
 5818.00    0.94233   0.94048  225.981
 5819.00    0.94040   0.94089  224.642
 5820.00    0.93832   0.94119  223.512
 5821.00    0.94002   0.94144  222.661
 5822.00    0.94383   0.94161  222.697
 5823.00    0.94210   0.94178  223.403
 5824.00    0.94253   0.94194  223.380
 5825.00    0.94283   0.94220  222.977
 5826.00    0.94087   0.94247  222.596
 5827.00    0.94236   0.94273  222.316
 5828.00    0.94234   0.94294  222.303
 5829.00    0.94144   0.94291  222.646
 5830.00    0.94254   0.94265  222.491
 5831.00    0.94054   0.94222  222.356
 5832.00    0.93855   0.94160  222.187
 5833.00    0.94221   0.94114  222.382
 5834.00    0.94470   0.94095  223.592
 5835.00    0.94313   0.94127  224.349
 5836.00    0.94186   0.94193  223.888
 5837.00    0.93931   0.94280  223.314
 5838.00    0.93861   0.94344  223.698
 5839.00    0.93818   0.94357  224.325
 5840.00    0.93939   0.94299  223.972
 5841.00    0.94095   0.94196  222.552
 5842.00    0.93926   0.94063  221.208
 5843.00    0.93728   0.93938  220.911
 5844.00    0.93863   0.93834  221.485
 5845.00    0.94018   0.93762  222.333
 5846.00    0.93758   0.93713  223.633
 5847.00    0.93683   0.93657  224.895
 5848.00    0.93816   0.93556  225.990
 5849.00    0.93722   0.93379  226.165
 5850.00    0.93453   0.93136  226.276
 5851.00    0.93021   0.92858  227.320
 5852.00    0.92766   0.92606  228.743
 5853.00    0.92788   0.92423  230.751
 5854.00    0.92993   0.92296  232.262
 5855.00    0.93155   0.92180  232.825
 5856.00    0.93302   0.92093   -1.000
 5857.00    0.93325   0.92103   -1.000
 5858.00    0.93293   0.92222   -1.000
 5859.00    0.93426   0.92434  236.713
 5860.00    0.93379   0.92656  233.982
 5861.00    0.93163   0.92843  231.698
 5862.00    0.92977   0.92960  230.627
 5863.00    0.93279   0.92997  229.756
 5864.00    0.93605   0.92963  229.216
 5865.00    0.93523   0.92904  229.583
 5866.00    0.93520   0.92871  230.370
 5867.00    0.93506   0.92893  231.404
 5868.00    0.93218   0.92939  231.617
 5869.00    0.92894   0.92981  229.964
 5870.00    0.93041   0.92968  227.871
 5871.00    0.93208   0.92880  226.609
 5872.00    0.93251   0.92714  226.307
 5873.00    0.93162   0.92512  226.750
 5874.00    0.93355   0.92324  226.989
 5875.00    0.93471   0.92198   -1.000
 5876.00    0.92999   0.92146  227.068
 5877.00    0.92771   0.92108  228.001
 5878.00    0.92855   0.92059  228.548
 5879.00    0.92434   0.91954  229.848
 5880.00    0.92206   0.91789  231.509
 5881.00    0.92317   0.91552  231.974
 5882.00    0.91882   0.91253  231.458
 5883.00    0.91541   0.90895  231.236
 5884.00    0.91417   0.90403  231.957
 5885.00    0.91016   0.89624   -1.000
 5886.00    0.90338   0.88432   -1.000
 5887.00    0.88983   0.86982   -1.000
 5888.00    0.86072   0.85697  241.964
 5889.00    0.82288   0.85161   -1.000
 5890.00    0.78369   0.85386   -1.000
 5891.00    0.77211   0.86010   -1.000
 5892.00    0.78810   0.86421   -1.000
 5893.00    0.81088   0.86388   -1.000
 5894.00    0.82157   0.86142   -1.000
 5895.00    0.81909   0.86155   -1.000
 5896.00    0.81028   0.86741   -1.000
 5897.00    0.80849   0.87671   -1.000
 5898.00    0.82527   0.88705   -1.000
 5899.00    0.84937   0.89575   -1.000
 5900.00    0.87458   0.90227   -1.000
 5901.00    0.89066   0.90694   -1.000
 5902.00    0.89715   0.91026  235.546
 5903.00    0.90281   0.91260  233.384
 5904.00    0.90836   0.91413  232.958
 5905.00    0.91391   0.91504  232.874
 5906.00    0.91715   0.91545  233.118
 5907.00    0.91764   0.91552  233.175
 5908.00    0.91829   0.91541  232.808
 5909.00    0.91551   0.91493  232.276
 5910.00    0.91204   0.91388  232.645
 5911.00    0.91045   0.91231  233.204
 5912.00    0.91142   0.91035  233.443
 5913.00    0.91283   0.90842  234.121
 5914.00    0.91204   0.90698  236.753
 5915.00    0.91153   0.90628  239.192
 5916.00    0.91205   0.90629  239.345
 5917.00    0.91236   0.90707  238.133
 5918.00    0.91016   0.90830  237.072
 5919.00    0.90267   0.90953  236.154
 5920.00    0.89706   0.91053  235.445
 5921.00    0.90033   0.91130  234.690
 5922.00    0.90344   0.91194  234.446
 5923.00    0.90254   0.91281  234.681
 5924.00    0.90136   0.91383  234.103
 5925.00    0.89887   0.91470   -1.000
 5926.00    0.89791   0.91517   -1.000
 5927.00    0.90284   0.91500  232.499
 5928.00    0.90975   0.91432  232.755
 5929.00    0.91425   0.91378  234.083
 5930.00    0.91716   0.91365  235.942
 5931.00    0.91574   0.91375  236.382
 5932.00    0.91505   0.91395  234.609
 5933.00    0.91369   0.91390  233.037
 5934.00    0.91397   0.91370  233.944
 5935.00    0.91708   0.91344  235.746
 5936.00    0.91760   0.91299  236.490
 5937.00    0.91706   0.91207  235.520
 5938.00    0.91678   0.91063  233.588
 5939.00    0.91866   0.90900  232.344
 5940.00    0.91779   0.90768   -1.000
 5941.00    0.90814   0.90682  234.699
 5942.00    0.89921   0.90649  236.434
 5943.00    0.89304   0.90670  236.666
 5944.00    0.89307   0.90704  235.600
 5945.00    0.89612   0.90726  234.159
 5946.00    0.89823   0.90738  233.104
 5947.00    0.89719   0.90763  233.280
 5948.00    0.89532   0.90846  234.999
 5949.00    0.89926   0.90967  237.441
 5950.00    0.90290   0.91084  238.620
 5951.00    0.90128   0.91184  237.851
 5952.00    0.90414   0.91222  236.785
 5953.00    0.91152   0.91197  236.947
 5954.00    0.91358   0.91114  237.088
 5955.00    0.91278   0.91030  236.667
 5956.00    0.91479   0.90994  236.554
 5957.00    0.91329   0.91024  237.262
 5958.00    0.90849   0.91113  237.856
 5959.00    0.90791   0.91224  237.295
 5960.00    0.90668   0.91329  235.077
 5961.00    0.90959   0.91399  232.580
 5962.00    0.91226   0.91401  231.278
 5963.00    0.91426   0.91341  230.876
 5964.00    0.91801   0.91236  231.182
 5965.00    0.91774   0.91136  232.267
 5966.00    0.91650   0.91076  233.247
 5967.00    0.91657   0.91067  234.039
 5968.00    0.91293   0.91106  233.959
 5969.00    0.90562   0.91170  232.491
 5970.00    0.90562   0.91234  231.476
 5971.00    0.91018   0.91277  231.331
 5972.00    0.91000   0.91275  230.981
 5973.00    0.91156   0.91239  230.616
 5974.00    0.91545   0.91153  231.399
 5975.00    0.91386   0.91056  233.138
 5976.00    0.91157   0.90988  234.962
 5977.00    0.91051   0.90968  236.668
 5978.00    0.90661   0.91018  237.932
 5979.00    0.90502   0.91081  237.527
 5980.00    0.91061   0.91115  235.694
 5981.00    0.91674   0.91095  234.394
 5982.00    0.91524   0.91040  234.548
 5983.00    0.91272   0.90988  236.094
 5984.00    0.91437   0.90971  238.192
 5985.00    0.91474   0.90987  239.669
 5986.00    0.91397   0.91007  239.433
 5987.00    0.91372   0.91012  237.356
 5988.00    0.91254   0.90992  235.506
 5989.00    0.91170   0.90968  234.587
 5990.00    0.91300   0.90983  233.582
 5991.00    0.91399   0.91066  233.420
 5992.00    0.91337   0.91201  233.995
 5993.00    0.91360   0.91342  233.398
 5994.00    0.91502   0.91436  231.612
 5995.00    0.91648   0.91468  230.502
 5996.00    0.91473   0.91455  231.431
 5997.00    0.91276   0.91422  233.163
 5998.00    0.91369   0.91386  234.368
 5999.00    0.91286   0.91334  235.007
 6000.00    0.91055   0.91266  234.866
 6001.00    0.91176   0.91187  234.827
 6002.00    0.91417   0.91104  235.881
 6003.00    0.91238   0.91019  236.935
 6004.00    0.91321   0.90923  237.095
 6005.00    0.91390   0.90828  236.593
 6006.00    0.91342   0.90755  236.454
 6007.00    0.91405   0.90735  237.693
 6008.00    0.91363   0.90781  239.949
 6009.00    0.91361   0.90867  240.780
 6010.00    0.91311   0.90950  238.786
 6011.00    0.91301   0.91016  236.088
 6012.00    0.91166   0.91063  235.366
 6013.00    0.91222   0.91107  236.743
 6014.00    0.91497   0.91135  238.265
 6015.00    0.91476   0.91117  237.857
 6016.00    0.91370   0.91058  237.301
 6017.00    0.91271   0.90959  238.068
 6018.00    0.91092   0.90857  238.781
 6019.00    0.91155   0.90780  238.488
 6020.00    0.91302   0.90733  238.701
 6021.00    0.91398   0.90717  240.047
 6022.00    0.91262   0.90734  239.997
 6023.00    0.90826   0.90797  238.458
 6024.00    0.90978   0.90895  237.549
 6025.00    0.91267   0.91002  237.241
 6026.00    0.91304   0.91098  236.197
 6027.00    0.91416   0.91175  235.184
 6028.00    0.91394   0.91222  234.016
 6029.00    0.91520   0.91248  232.782
 6030.00    0.91732   0.91264  232.261
 6031.00    0.91505   0.91275  232.225
 6032.00    0.90903   0.91291  232.621
 6033.00    0.90835   0.91313  232.558
 6034.00    0.91128   0.91332  231.669
 6035.00    0.91571   0.91307  230.901
 6036.00    0.91945   0.91224  230.664
 6037.00    0.91622   0.91102  230.368
 6038.00    0.90992   0.90936  230.360
 6039.00    0.90791   0.90701  231.357
 6040.00    0.91125   0.90433  232.180
 6041.00    0.91203   0.90163   -1.000
 6042.00    0.90867   0.90023  232.723
 6043.00    0.90723   0.90171  232.266
 6044.00    0.90923   0.90472  231.400
 6045.00    0.91157   0.90780  229.723
 6046.00    0.90940   0.90957  229.139
 6047.00    0.90909   0.90985  229.344
 6048.00    0.91261   0.90908  229.091
 6049.00    0.91285   0.90827  229.085
 6050.00    0.91114   0.90815  229.728
 6051.00    0.91149   0.90839  230.374
 6052.00    0.91238   0.90883  230.667
 6053.00    0.91145   0.90892  231.013
 6054.00    0.91116   0.90867  231.800
 6055.00    0.91463   0.90816  232.621
 6056.00    0.91527   0.90771  233.692
 6057.00    0.91160   0.90736  234.649
 6058.00    0.91036   0.90713  234.600
 6059.00    0.92395   0.90676   -1.000
 6060.00    0.79968   0.90587   -1.000
 6061.00    0.64408   0.90434   -1.000
 6062.00    0.77837   0.90232   -1.000
 6063.00    0.86439   0.90055   -1.000
 6064.00    0.58224   0.89975   -1.000
 6065.00    0.37493   0.90036   -1.000
 6066.00    0.65158   0.90211   -1.000
 6067.00    0.90904   0.90417  110.016
 6068.00    0.92866   0.90593  116.858
 6069.00    0.92235   0.90723   -1.000
 6070.00    0.91553   0.90805  232.591
 6071.00    0.90874   0.90861  228.804
 6072.00    0.90667   0.90887  224.312
 6073.00    0.91147   0.90872  226.501
 6074.00    0.91087   0.90820  229.734
 6075.00    0.90597   0.90746  230.193
 6076.00    0.90307   0.90678  230.734
 6077.00    0.90654   0.90635  231.821
 6078.00    0.90800   0.90605  233.123
 6079.00    0.90530   0.90566  234.768
 6080.00    0.90676   0.90504  236.376
 6081.00    0.90620   0.90428  236.959
 6082.00    0.90296   0.90369  237.071
 6083.00    0.90362   0.90359  237.600
 6084.00    0.90357   0.90395  237.866
 6085.00    0.90211   0.90455  237.704
 6086.00    0.90408   0.90518  237.478
 6087.00    0.90671   0.90560  236.944
 6088.00    0.90640   0.90576  236.060
 6089.00    0.90622   0.90562  235.988
 6090.00    0.90619   0.90530  237.151
 6091.00    0.90556   0.90522  238.363
 6092.00    0.90663   0.90547  238.629
 6093.00    0.90696   0.90606  237.555
 6094.00    0.90505   0.90695  236.171
 6095.00    0.90478   0.90783  234.923
 6096.00    0.90536   0.90836  233.774
 6097.00    0.90506   0.90798  233.470
 6098.00    0.90228   0.90620  233.930
 6099.00    0.89784   0.90316  234.263
 6100.00    0.89571   0.89954  234.301
 6101.00    0.89730   0.89664  236.052
 6102.00    0.89935   0.89568  240.898
 6103.00    0.90205   0.89683  245.709
 6104.00    0.90405   0.89952  245.937
 6105.00    0.90332   0.90256  242.020
 6106.00    0.89766   0.90524  237.885
 6107.00    0.89546   0.90707  236.092
 6108.00    0.89738   0.90796  236.491
 6109.00    0.89855   0.90791  237.273
 6110.00    0.90221   0.90720  237.403
 6111.00    0.89947   0.90621  237.010
 6112.00    0.89687   0.90550  236.146
 6113.00    0.89926   0.90518  235.695
 6114.00    0.89901   0.90523  234.957
 6115.00    0.89701   0.90503  234.051
 6116.00    0.89439   0.90405  234.449
 6117.00    0.89500   0.90168  235.838
 6118.00    0.89669   0.89768  236.665
 6119.00    0.89542   0.89329  237.425
 6120.00    0.89200   0.88962  240.054
 6121.00    0.88766   0.88830  243.445
 6122.00    0.88570   0.89017  246.048
 6123.00    0.88754   0.89373  247.025
 6124.00    0.89122   0.89707  244.495
 6125.00    0.89506   0.89871  240.817
 6126.00    0.89659   0.89851  239.657
 6127.00    0.89770   0.89738  240.653
 6128.00    0.89974   0.89732  241.068
 6129.00    0.90032   0.89930  240.517
 6130.00    0.89851   0.90171  239.103
 6131.00    0.89609   0.90301  236.877
 6132.00    0.89628   0.90183  235.706
 6133.00    0.89556   0.89783  235.897
 6134.00    0.88842   0.89215  237.486
 6135.00    0.87838   0.88666  241.750
 6136.00    0.87402   0.88316  248.446
 6137.00    0.87632   0.88173  255.226
 6138.00    0.88018   0.88162  258.097
 6139.00    0.88288   0.88164  254.069
 6140.00    0.88259   0.88222  246.833
 6141.00    0.88059   0.88435  242.454
 6142.00    0.88146   0.88763  241.911
 6143.00    0.88610   0.89094  242.465
 6144.00    0.89058   0.89285  241.091
 6145.00    0.89276   0.89291  238.211
 6146.00    0.89192   0.89181  236.875
 6147.00    0.89014   0.89063  237.550
 6148.00    0.89179   0.89034  238.966
 6149.00    0.89234   0.89113  240.633
 6150.00    0.89083   0.89248  242.182
 6151.00    0.89328   0.89370  242.722
 6152.00    0.89587   0.89427  242.104
 6153.00    0.89432   0.89390  240.678
 6154.00    0.89184   0.89282  239.800
 6155.00    0.89028   0.89129  241.016
 6156.00    0.88849   0.88935  242.702
 6157.00    0.88782   0.88680  243.226
 6158.00    0.88884   0.88332  243.858
 6159.00    0.88369   0.87898  245.893
 6160.00    0.87293   0.87476  249.859
 6161.00    0.86787   0.87244  256.458
 6162.00    0.87231   0.87274  264.216
 6163.00    0.87849   0.87495  268.736
 6164.00    0.88320   0.87768  267.007
 6165.00    0.88593   0.87961  260.602
 6166.00    0.88438   0.88048  255.205
 6167.00    0.88281   0.88057  253.219
 6168.00    0.88025   0.88054  253.330
 6169.00    0.87999   0.88106  255.685
 6170.00    0.88121   0.88236  258.726
 6171.00    0.88027   0.88428  258.519
 6172.00    0.88261   0.88635  254.444
 6173.00    0.88280   0.88823  250.203
 6174.00    0.88279   0.88965  249.080
 6175.00    0.88402   0.89036  249.506
 6176.00    0.88179   0.89054  249.173
 6177.00    0.88212   0.89043  248.600
 6178.00    0.88263   0.89025  248.020
 6179.00    0.88103   0.89027  246.993
 6180.00    0.88255   0.89051  245.938
 6181.00    0.88234   0.89079  245.138
 6182.00    0.88215   0.89100  244.138
 6183.00    0.88005   0.89106  243.293
 6184.00    0.88178   0.89081  243.385
 6185.00    0.88534   0.88994  244.164
 6186.00    0.88173   0.88824  245.701
 6187.00    0.88089   0.88558  248.181
 6188.00    0.87863   0.88240  250.845
 6189.00    0.87492   0.87963  253.295
 6190.00    0.87053   0.87841  255.342
 6191.00    0.86614   0.87931  258.069
 6192.00    0.87315   0.88184  260.514
 6193.00    0.88145   0.88493  259.264
 6194.00    0.88289   0.88751  253.919
 6195.00    0.88192   0.88901  248.744
 6196.00    0.88337   0.88946  246.390
 6197.00    0.88404   0.88918  245.704
 6198.00    0.88089   0.88877  246.586
 6199.00    0.87680   0.88892  249.088
 6200.00    0.87532   0.88976  251.528
 6201.00    0.87749   0.89105  252.123
 6202.00    0.87650   0.89238   -1.000
 6203.00    0.87268   0.89329   -1.000
 6204.00    0.87208   0.89372   -1.000
 6205.00    0.86986   0.89382   -1.000
 6206.00    0.86854   0.89367   -1.000
 6207.00    0.87218   0.89340   -1.000
 6208.00    0.87532   0.89284   -1.000
 6209.00    0.87704   0.89188  246.138
 6210.00    0.87645   0.89051  246.708
 6211.00    0.87487   0.88875  248.602
 6212.00    0.87440   0.88696  250.745
 6213.00    0.87205   0.88549  252.970
 6214.00    0.87014   0.88438  256.329
 6215.00    0.87321   0.88351  259.535
 6216.00    0.87249   0.88263  260.877
 6217.00    0.86721   0.88177   -1.000
 6218.00    0.86842   0.88128  256.608
 6219.00    0.86915   0.88141  257.482
 6220.00    0.87045   0.88223  257.872
 6221.00    0.80364   0.88339   -1.000
 6222.00    0.76954   0.88429   -1.000
 6223.00    0.84270   0.88473   -1.000
 6224.00    0.87394   0.88452  272.126
 6225.00    0.86487   0.88346   -1.000
 6226.00    0.86384   0.88151   -1.000
 6227.00    0.86428   0.87871  254.273
 6228.00    0.86537   0.87567  255.125
 6229.00    0.86139   0.87341  257.885
 6230.00    0.85854   0.87280  261.992
 6231.00    0.85933   0.87400   -1.000
 6232.00    0.86037   0.87626   -1.000
 6233.00    0.86398   0.87842   -1.000
 6234.00    0.86402   0.87944   -1.000
 6235.00    0.86041   0.87898   -1.000
 6236.00    0.86023   0.87760   -1.000
 6237.00    0.86187   0.87613  252.575
 6238.00    0.86180   0.87542  254.946
 6239.00    0.86363   0.87544  257.568
 6240.00    0.86434   0.87548  260.259
 6241.00    0.86032   0.87470   -1.000
 6242.00    0.85964   0.87277  262.315
 6243.00    0.86269   0.87016  263.352
 6244.00    0.86404   0.86789  265.316
 6245.00    0.85943   0.86709  265.895
 6246.00    0.85286   0.86814   -1.000
 6247.00    0.85323   0.87045   -1.000
 6248.00    0.85575   0.87273   -1.000
 6249.00    0.85479   0.87378   -1.000
 6250.00    0.85294   0.87316   -1.000
 6251.00    0.85204   0.87163   -1.000
 6252.00    0.85226   0.87028   -1.000
 6253.00    0.85302   0.86984   -1.000
 6254.00    0.85270   0.87043   -1.000
 6255.00    0.85360   0.87168   -1.000
 6256.00    0.85432   0.87319   -1.000
 6257.00    0.85437   0.87473   -1.000
 6258.00    0.85290   0.87621   -1.000
 6259.00    0.85114   0.87750   -1.000
 6260.00    0.85545   0.87846   -1.000
 6261.00    0.85464   0.87913   -1.000
 6262.00    0.84913   0.87942   -1.000
 6263.00    0.84866   0.87949   -1.000
 6264.00    0.85238   0.87947   -1.000
 6265.00    0.85583   0.87943   -1.000
 6266.00    0.85394   0.87913   -1.000
 6267.00    0.85256   0.87820   -1.000
 6268.00    0.85271   0.87664   -1.000
 6269.00    0.85159   0.87459   -1.000
 6270.00    0.84998   0.87228   -1.000
 6271.00    0.84863   0.86951   -1.000
 6272.00    0.84864   0.86585   -1.000
 6273.00    0.84840   0.86100  255.938
 6274.00    0.84746   0.85528  256.089
 6275.00    0.84299   0.84971  257.525
 6276.00    0.83577   0.84541  259.583
 6277.00    0.82417   0.84339   -1.000
 6278.00    0.80526   0.84382   -1.000
 6279.00    0.78695   0.84640   -1.000
 6280.00    0.77705   0.85041   -1.000
 6281.00    0.78078   0.85502   -1.000
 6282.00    0.79667   0.85944   -1.000
 6283.00    0.80696   0.86324   -1.000
 6284.00    0.80799   0.86607   -1.000
 6285.00    0.81062   0.86787   -1.000
 6286.00    0.81745   0.86866   -1.000
 6287.00    0.82622   0.86845   -1.000
 6288.00    0.83084   0.86755   -1.000
 6289.00    0.83301   0.86644   -1.000
 6290.00    0.83359   0.86551   -1.000
 6291.00    0.83155   0.86487   -1.000
 6292.00    0.82981   0.86432   -1.000
 6293.00    0.82891   0.86356   -1.000
 6294.00    0.82797   0.86247   -1.000
 6295.00    0.82824   0.86123   -1.000
 6296.00    0.82716   0.86010   -1.000
 6297.00    0.82498   0.85927   -1.000
 6298.00    0.82534   0.85884   -1.000
 6299.00    0.82707   0.85886   -1.000
 6300.00    0.82834   0.85959   -1.000
 6301.00    0.83268   0.86116   -1.000
 6302.00    0.83549   0.86325   -1.000
 6303.00    0.82834   0.86534   -1.000
 6304.00    0.82272   0.86690   -1.000
 6305.00    0.82328   0.86794   -1.000
 6306.00    0.82799   0.86869   -1.000
 6307.00    0.83236   0.86929   -1.000
 6308.00    0.83186   0.86984   -1.000
 6309.00    0.83166   0.87019   -1.000
 6310.00    0.83292   0.87017   -1.000
 6311.00    0.83368   0.86977   -1.000
 6312.00    0.83318   0.86902   -1.000
 6313.00    0.83377   0.86802   -1.000
 6314.00    0.83325   0.86691   -1.000
 6315.00    0.83219   0.86593   -1.000
 6316.00    0.82956   0.86535   -1.000
 6317.00    0.82667   0.86564   -1.000
 6318.00    0.82714   0.86693   -1.000
 6319.00    0.82952   0.86883   -1.000
 6320.00    0.83257   0.87096   -1.000
 6321.00    0.83020   0.87298   -1.000
 6322.00    0.82786   0.87462   -1.000
 6323.00    0.82923   0.87573   -1.000
 6324.00    0.83178   0.87617   -1.000
 6325.00    0.83516   0.87609   -1.000
 6326.00    0.83863   0.87577   -1.000
 6327.00    0.84061   0.87538   -1.000
 6328.00    0.84121   0.87513   -1.000
 6329.00    0.83956   0.87496   -1.000
 6330.00    0.83827   0.87453   -1.000
 6331.00    0.84033   0.87348   -1.000
 6332.00    0.83818   0.87176   -1.000
 6333.00    0.84434   0.86973   -1.000
 6334.00    0.84516   0.86826   -1.000
 6335.00    0.83290   0.86812   -1.000
 6336.00    0.83179   0.86920   -1.000
 6337.00    0.83470   0.87094   -1.000
 6338.00    0.83654   0.87259   -1.000
 6339.00    0.83868   0.87368   -1.000
 6340.00    0.83990   0.87407   -1.000
 6341.00    0.84153   0.87367   -1.000
 6342.00    0.83925   0.87242   -1.000
 6343.00    0.83504   0.87047   -1.000
 6344.00    0.83386   0.86833   -1.000
 6345.00    0.83402   0.86692   -1.000
 6346.00    0.83567   0.86711   -1.000
 6347.00    0.83363   0.86896   -1.000
 6348.00    0.83196   0.87170   -1.000
 6349.00    0.83587   0.87428   -1.000
 6350.00    0.83859   0.87589   -1.000
 6351.00    0.83747   0.87636   -1.000
 6352.00    0.83235   0.87601   -1.000
 6353.00    0.83013   0.87538   -1.000
 6354.00    0.83100   0.87479   -1.000
 6355.00    0.82909   0.87430   -1.000
 6356.00    0.82715   0.87382   -1.000
 6357.00    0.82825   0.87326   -1.000
 6358.00    0.82882   0.87264   -1.000
 6359.00    0.82960   0.87204   -1.000
 6360.00    0.82837   0.87155   -1.000
 6361.00    0.82628   0.87128   -1.000
 6362.00    0.82823   0.87135   -1.000
 6363.00    0.82974   0.87164   -1.000
 6364.00    0.82551   0.87177   -1.000
 6365.00    0.82185   0.87147   -1.000
 6366.00    0.82450   0.87047   -1.000
 6367.00    0.82467   0.86874   -1.000
 6368.00    0.81999   0.86674   -1.000
 6369.00    0.81869   0.86518   -1.000
 6370.00    0.81876   0.86469   -1.000
 6371.00    0.81658   0.86557   -1.000
 6372.00    0.81859   0.86729   -1.000
 6373.00    0.81923   0.86900   -1.000
 6374.00    0.81343   0.87014   -1.000
 6375.00    0.80924   0.87053   -1.000
 6376.00    0.80867   0.87033   -1.000
 6377.00    0.80773   0.86979   -1.000
 6378.00    0.80466   0.86907   -1.000
 6379.00    0.80267   0.86831   -1.000
 6380.00    0.80087   0.86765   -1.000
 6381.00    0.79753   0.86724   -1.000
 6382.00    0.79567   0.86719   -1.000
 6383.00    0.79514   0.86749   -1.000
 6384.00    0.79259   0.86804   -1.000
 6385.00    0.78963   0.86876   -1.000
 6386.00    0.78980   0.86929   -1.000
 6387.00    0.78869   0.86923   -1.000
 6388.00    0.78476   0.86846   -1.000
 6389.00    0.77943   0.86694   -1.000
 6390.00    0.77327   0.86498   -1.000
 6391.00    0.77028   0.86323   -1.000
 6392.00    0.76894   0.86239   -1.000
 6393.00    0.76663   0.86266   -1.000
 6394.00    0.76552   0.86348   -1.000
 6395.00    0.76467   0.86396   -1.000
 6396.00    0.76406   0.86355   -1.000
 6397.00    0.75681   0.86247   -1.000
 6398.00    0.74624   0.86166   -1.000
 6399.00    0.74400   0.86194   -1.000
 6400.00    0.74544   0.86344   -1.000
 6401.00    0.74115   0.86551   -1.000
 6402.00    0.73581   0.86712   -1.000
 6403.00    0.73593   0.86744   -1.000
 6404.00    0.73352   0.86622   -1.000
 6405.00    0.72668   0.86392   -1.000
 6406.00    0.72058   0.86130   -1.000
 6407.00    0.71790   0.85942   -1.000
 6408.00    0.71590   0.85924   -1.000
 6409.00    0.71095   0.86019   -1.000
 6410.00    0.70395   0.86130   -1.000
 6411.00    0.69648   0.86219   -1.000
 6412.00    0.69411   0.86244   -1.000
 6413.00    0.69289   0.86206   -1.000
 6414.00    0.68569   0.86177   -1.000
 6415.00    0.67723   0.86205   -1.000
 6416.00    0.67236   0.86240   -1.000
 6417.00    0.66741   0.86247   -1.000
 6418.00    0.66195   0.86225   -1.000
 6419.00    0.65785   0.86208   -1.000
 6420.00    0.65152   0.86258   -1.000
 6421.00    0.64577   0.86398   -1.000
 6422.00    0.64110   0.86594   -1.000
 6423.00    0.63302   0.86788   -1.000
 6424.00    0.62710   0.86927   -1.000
 6425.00    0.62315   0.86968   -1.000
 6426.00    0.61715   0.86887   -1.000
 6427.00    0.60924   0.86687   -1.000
 6428.00    0.59941   0.86428   -1.000
