###################################################################
## OUTPUT of StarlightChains_v04.for    [Cid@UFSC - 01/Apr/2007] ##
###################################################################

## Some input info
NGC1904_a_1.cxt                          [arq_obs]
Base.BC03.S                              [arq_base]
NGC1904_a_1.msk                          [arq_masks]
StCv04.C99.config                        [arq_config]
  150                                    [N_base]
    0                                    [N_YAV_components = # of components with extra extinction!]
    0                                    [i_FitPowerLaw (1/0 = Yes/No)]
-9.99                                    [alpha_PowerLaw]
CCM                                      [red_law_option]
 1.458241                                [q_norm = A(l_norm)/A(V)]

## (Re)Sampling Parameters
 3359.00                                 [l_ini (A)]
 6428.00                                 [l_fin (A)]
    1.00                                 [dl    (A)]     (OBS: dl_cushion =    50.00 A)

## Normalization info
 4020.00                                 [l_norm (A) - for base]
 4010.00                                 [llow_norm (A) - window for f_obs]
 4060.00                                 [lupp_norm (A) - window for f_obs]
1.460937E-14                             [fobs_norm (in input units)]

## S/N
 4730.00                                 [llow_SN (A) - window for S/N]
 4780.00                                 [lupp_SN (A) - window for S/N]
 130.069                                 [S/N in S/N window]
 127.140                                 [S/N in norm. window]
 564.433                                 [S/N_err in S/N window]
 551.723                                 [S/N_err in norm. window]
  1.0000                                 [fscale_chi2]

## etc...
  2147483646                             [idum_orig]
  3064                                   [NOl_eff]
   364                                   [Nl_eff]
  2700    NSIGMA                         [Ntot_cliped & clip_method]
 10519740                                [Nglobal_steps]
   7                                     [N_chains]
  15                                     [NEX0s_base = N_base in EX0s-fits]
 0   0   1      254   2.0   1.168E+03    [Clip-Bug, RC-Crash & Burn-In warning-flags, n_censored_weights, wei_nsig_threshold & wei_limit]
   426    425.831    425.803      0.028  [idt_all, wdt_TotTime, wdt_UsrTime & wdt_SysTime (sec)]

## Synthesis Results - Best model ##

 2.65694E+00                             [chi2/Nl_eff]
     0.38326                             [adev (%)]

   102.56728                             [sum-of-x (%)]
 1.57297E-14                             [Flux_tot (units of input spectrum!)]
 1.56227E-10                             [Mini_tot (???)]
 8.16430E-11                             [Mcor_tot (???)]

 -19.82                                  [v0_min  (km/s)]
  68.96                                  [vd_min  (km/s)]
 0.0361                                  [AV_min  (mag)]
 0.0000                                  [YAV_min (mag)]

# j     x_j(%)      Mini_j(%)     Mcor_j(%)     age_j(yr)     Z_j      (L/M)_j    YAV?  Mstars   component_j        a/Fe...       SSP_chi2r SSP_adev(%)   SSP_AV   SSP_x(%)
  1      0.0000     0.0000E+00    0.0000E+00    1.000000E+06  0.00010  8.160E-03    0   1.0000   age020_m22            0.0000     7.3135E+03    15.3025   3.5158    78.6233
  2     18.1289     3.7395E-02    7.1556E-02    3.160000E+06  0.00010  4.759E-02    0   1.0000   age045_m22            0.0000     8.8440E+02     5.4751   1.4137    97.8519
  3      0.0000     0.0000E+00    0.0000E+00    5.010000E+06  0.00010  1.932E-02    0   0.9582   age055_m22            0.0000     6.3817E+03    14.3326   1.8065    84.6635
  4      0.0000     0.0000E+00    0.0000E+00    6.610000E+06  0.00010  9.973E-03    0   0.9297   age061_m22            0.0000     7.1358E+03    15.1582   3.4738    81.3744
  5      0.0000     0.0000E+00    0.0000E+00    8.710000E+06  0.00010  7.690E-03    0   0.9030   age067_m22            0.0000     6.7131E+03    14.7313   3.4642    81.7719
  6      0.0000     0.0000E+00    0.0000E+00    1.000000E+07  0.00010  6.375E-03    0   0.8902   age070_m22            0.0000     6.3426E+03    14.3217   3.4774    81.8918
  7      0.0000     0.0000E+00    0.0000E+00    1.445000E+07  0.00010  4.874E-03    0   0.8589   age078_m22            0.0000     4.5934E+03    12.3988   3.2801    84.6777
  8      0.0000     0.0000E+00    0.0000E+00    2.512000E+07  0.00010  4.103E-03    0   0.8174   age090_m22            0.0000     1.9052E+03     8.5870   2.8375    90.8735
  9      0.0000     0.0000E+00    0.0000E+00    4.000000E+07  0.00010  3.654E-03    0   0.7830   age104_m22            0.0000     1.1460E+03     6.0508   2.5086    95.4924
 10      0.0000     0.0000E+00    0.0000E+00    5.500000E+07  0.00010  3.093E-03    0   0.7597   age110_m22            0.0000     1.1086E+03     5.2833   2.3889    97.0499
 11      0.0000     0.0000E+00    0.0000E+00    1.015200E+08  0.00010  2.431E-03    0   0.7138   age116_m22            0.0000     1.5747E+03     5.3609   2.0258    99.8757
 12      0.0116     8.6213E-04    1.1177E-03    1.609000E+08  0.00010  1.319E-03    0   0.6775   age120_m22            0.0000     1.6446E+03     4.9110   1.5352   102.0159
 13      0.0000     0.0000E+00    0.0000E+00    2.861200E+08  0.00010  1.075E-03    0   0.6412   age125_m22            0.0000     4.8499E+03     8.1403   1.5529   105.6056
 14      0.0000     0.0000E+00    0.0000E+00    5.088000E+08  0.00010  7.183E-04    0   0.6083   age130_m22            0.0000     6.1166E+03     9.4805   1.2980   107.4584
 15      0.0000     0.0000E+00    0.0000E+00    9.047900E+08  0.00010  4.524E-04    0   0.5785   age135_m22            0.0000     6.2137E+03     9.5791   1.0897   108.7735
 16      0.0000     0.0000E+00    0.0000E+00    1.278050E+09  0.00010  3.018E-04    0   0.5588   age138_m22            0.0000     2.6528E+03     6.3006   0.5679   107.0800
 17      0.0000     0.0000E+00    0.0000E+00    1.434000E+09  0.00010  2.691E-04    0   0.5532   age139_m22            0.0000     2.0595E+03     5.5899   0.4101   106.5970
 18      0.0000     0.0000E+00    0.0000E+00    2.500000E+09  0.00010  1.582E-04    0   0.5296   age150_m22            0.0000     1.7254E+03     5.0045   0.3172   107.1466
 19      0.6264     6.1065E-01    5.9711E-01    4.250000E+09  0.00010  1.007E-04    0   0.5110   age158_m22            0.0000     7.3104E+02     3.2932   0.1735   105.6181
 20      0.0000     0.0000E+00    0.0000E+00    6.250000E+09  0.00010  6.869E-05    0   0.4985   age166_m22            0.0000     1.8093E+02     1.7672   0.1246   103.0101
 21      0.0000     0.0000E+00    0.0000E+00    7.500000E+09  0.00010  5.873E-05    0   0.4931   age171_m22            0.0000     1.6728E+02     1.8468   0.1221   102.3853
 22      0.0000     0.0000E+00    0.0000E+00    1.000000E+10  0.00010  4.481E-05    0   0.4854   age181_m22            0.0000     1.4723E+02     1.7284   0.0829   102.0121
 23      0.0000     0.0000E+00    0.0000E+00    1.300000E+10  0.00010  3.489E-05    0   0.4791   age193_m22            0.0000     1.0346E+02     1.4704   0.0231   101.4944
 24      0.0005     1.5207E-03    1.3868E-03    1.500000E+10  0.00010  3.035E-05    0   0.4766   age201_m22            0.0000     8.5416E+01     1.3636  -0.0171   101.3141
 25      0.0000     0.0000E+00    0.0000E+00    1.800000E+10  0.00010  2.510E-05    0   0.4735   age213_m22            0.0000     5.9902E+01     1.2183  -0.0865   100.7247
 26      0.0000     0.0000E+00    0.0000E+00    1.000000E+06  0.00040  8.458E-03    0   1.0000   age020_m32            0.0000     7.1562E+03    15.1305   3.5314    79.2456
 27      0.0000     0.0000E+00    0.0000E+00    3.160000E+06  0.00040  3.973E-02    0   1.0000   age045_m32            0.0000     2.2036E+03     9.0356   2.7370    90.9620
 28      0.0000     0.0000E+00    0.0000E+00    5.010000E+06  0.00040  1.935E-02    0   0.9532   age055_m32            0.0000     5.2935E+03    13.4439   3.0074    85.0745
 29      0.0000     0.0000E+00    0.0000E+00    6.610000E+06  0.00040  1.204E-02    0   0.9243   age061_m32            0.0000     5.8803E+03    13.9184   3.3244    83.2968
 30      0.0000     0.0000E+00    0.0000E+00    8.710000E+06  0.00040  9.433E-03    0   0.9001   age067_m32            0.0000     5.2022E+03    13.1619   3.2897    84.1768
 31      0.0000     0.0000E+00    0.0000E+00    1.000000E+07  0.00040  8.053E-03    0   0.8877   age070_m32            0.0000     4.9498E+03    12.8692   3.2520    84.6115
 32      0.0000     0.0000E+00    0.0000E+00    1.445000E+07  0.00040  7.027E-03    0   0.8578   age078_m32            0.0000     2.8714E+03    10.3373   2.7073    89.5215
 33      0.0000     0.0000E+00    0.0000E+00    2.512000E+07  0.00040  4.707E-03    0   0.8166   age090_m32            0.0000     1.6567E+03     8.1308   2.3857    93.3258
 34      0.0000     0.0000E+00    0.0000E+00    4.000000E+07  0.00040  3.714E-03    0   0.7827   age104_m32            0.0000     1.1183E+03     6.1052   2.1605    96.6320
 35      0.0000     0.0000E+00    0.0000E+00    5.500000E+07  0.00040  2.982E-03    0   0.7593   age110_m32            0.0000     1.1212E+03     5.5140   2.0879    97.8160
 36      0.0000     0.0000E+00    0.0000E+00    1.015200E+08  0.00040  2.188E-03    0   0.7143   age116_m32            0.0000     2.3197E+03     5.7763   1.7759   102.2223
 37      0.0000     0.0000E+00    0.0000E+00    1.609000E+08  0.00040  1.690E-03    0   0.6856   age120_m32            0.0000     3.7672E+03     7.0964   1.5484   104.8258
 38      0.0000     0.0000E+00    0.0000E+00    2.861200E+08  0.00040  1.152E-03    0   0.6509   age125_m32            0.0000     5.1682E+03     8.5257   1.2958   106.8314
 39      0.0000     0.0000E+00    0.0000E+00    5.088000E+08  0.00040  7.331E-04    0   0.6182   age130_m32            0.0000     5.6751E+03     9.1962   1.1136   107.7130
 40      0.0000     0.0000E+00    0.0000E+00    9.047900E+08  0.00040  3.960E-04    0   0.5890   age135_m32            0.0000     2.7580E+03     6.6267   0.6408   106.6625
 41      0.0000     0.0000E+00    0.0000E+00    1.278050E+09  0.00040  2.854E-04    0   0.5687   age138_m32            0.0000     2.0395E+03     5.4682   0.3761   108.2143
 42      0.0000     0.0000E+00    0.0000E+00    1.434000E+09  0.00040  2.531E-04    0   0.5632   age139_m32            0.0000     1.9747E+03     5.3902   0.3156   108.1776
 43      9.5132     6.2759E+00    6.4682E+00    2.500000E+09  0.00040  1.488E-04    0   0.5386   age150_m32            0.0000     1.1512E+03     4.1949   0.0521   106.7322
 44     39.4097     4.2597E+01    4.2377E+01    4.250000E+09  0.00040  9.082E-05    0   0.5199   age158_m32            0.0000     1.1951E+02     1.4145  -0.0343   103.4859
 45      0.0000     0.0000E+00    0.0000E+00    6.250000E+09  0.00040  6.362E-05    0   0.5076   age166_m32            0.0000     1.2960E+02     1.7103  -0.0520    99.9630
 46      3.6493     6.7732E+00    6.5154E+00    7.500000E+09  0.00040  5.289E-05    0   0.5027   age171_m32            0.0000     2.0737E+02     2.0146  -0.0908    98.7540
 47      6.6542     1.6445E+01    1.5571E+01    1.000000E+10  0.00040  3.972E-05    0   0.4948   age181_m32            0.0000     2.7563E+02     2.1177  -0.1611    97.4954
 48      0.8307     2.4838E+00    2.3147E+00    1.300000E+10  0.00040  3.283E-05    0   0.4870   age193_m32            0.0000     4.5707E+01     0.9019  -0.2168   100.1802
 49      0.0000     0.0000E+00    0.0000E+00    1.500000E+10  0.00040  2.925E-05    0   0.4854   age201_m32            0.0000     2.3127E+01     0.7807  -0.2408   101.7366
 50      0.4475     1.7793E+00    1.6408E+00    1.800000E+10  0.00040  2.469E-05    0   0.4819   age213_m32            0.0000     3.7674E+01     1.0085  -0.2855   102.2301
 51      0.0000     0.0000E+00    0.0000E+00    1.000000E+06  0.00400  1.114E-02    0   1.0000   age020_m42            0.0000     6.8703E+03    14.7919   3.4546    79.7426
 52      0.0000     0.0000E+00    0.0000E+00    3.160000E+06  0.00400  4.073E-02    0   0.9999   age045_m42            0.0000     1.3743E+03     7.0969   2.4140    93.6746
 53      0.0000     0.0000E+00    0.0000E+00    5.010000E+06  0.00400  2.534E-02    0   0.9488   age055_m42            0.0000     3.4518E+03    10.9298   2.8544    87.5002
 54      0.0000     0.0000E+00    0.0000E+00    6.610000E+06  0.00400  2.583E-02    0   0.9220   age061_m42            0.0000     1.1001E+03     6.4380   2.2158    94.4629
 55      0.0000     0.0000E+00    0.0000E+00    8.710000E+06  0.00400  1.706E-02    0   0.8983   age067_m42            0.0000     1.9633E+03     8.7478   2.0614    92.3392
 56      0.0000     0.0000E+00    0.0000E+00    1.000000E+07  0.00400  1.271E-02    0   0.8862   age070_m42            0.0000     2.9112E+03    10.5401   2.0636    90.6698
 57      0.0000     0.0000E+00    0.0000E+00    1.445000E+07  0.00400  7.666E-03    0   0.8571   age078_m42            0.0000     3.9386E+03    11.7570   2.4730    87.7398
 58      0.0000     0.0000E+00    0.0000E+00    2.512000E+07  0.00400  5.070E-03    0   0.8174   age090_m42            0.0000     2.4421E+03     9.6036   1.9166    92.3497
 59      0.0000     0.0000E+00    0.0000E+00    4.000000E+07  0.00400  3.505E-03    0   0.7851   age104_m42            0.0000     1.4021E+03     7.1499   1.5653    95.4134
 60      0.0000     0.0000E+00    0.0000E+00    5.500000E+07  0.00400  3.059E-03    0   0.7629   age110_m42            0.0000     8.3860E+02     4.0589   1.5800   100.0987
 61      0.0000     0.0000E+00    0.0000E+00    1.015200E+08  0.00400  2.268E-03    0   0.7207   age116_m42            0.0000     3.1460E+03     6.3565   1.4429   105.5067
 62      0.6345     3.6210E-02    4.8018E-02    1.609000E+08  0.00400  1.720E-03    0   0.6930   age120_m42            0.0000     3.5008E+03     6.8675   1.2844   107.4020
 63      0.0000     0.0000E+00    0.0000E+00    2.861200E+08  0.00400  1.079E-03    0   0.6613   age125_m42            0.0000     3.6216E+03     7.4113   0.9271   107.5539
 64      0.0000     0.0000E+00    0.0000E+00    5.088000E+08  0.00400  6.261E-04    0   0.6313   age130_m42            0.0000     4.2869E+03     7.9529   0.7340   110.4008
 65      0.0000     0.0000E+00    0.0000E+00    9.047900E+08  0.00400  3.535E-04    0   0.6024   age135_m42            0.0000     2.1426E+03     6.1569   0.3200   110.9210
 66      0.0000     0.0000E+00    0.0000E+00    1.278050E+09  0.00400  2.677E-04    0   0.5837   age138_m42            0.0000     9.2647E+02     6.0063  -0.4284   108.5808
 67      0.0000     0.0000E+00    0.0000E+00    1.434000E+09  0.00400  1.910E-04    0   0.5716   age139_m42            0.0000     9.4921E+02     5.5980  -0.2528   109.6230
 68     18.2255     1.8223E+01    1.9049E+01    2.500000E+09  0.00400  9.818E-05    0   0.5463   age150_m42            0.0000     8.7135E+02     5.2697  -0.5312   104.8959
 69      0.0000     0.0000E+00    0.0000E+00    4.250000E+09  0.00400  5.491E-05    0   0.5269   age158_m42            0.0000     1.3816E+03     5.6697  -0.6436   101.8300
 70      0.0000     0.0000E+00    0.0000E+00    6.250000E+09  0.00400  3.857E-05    0   0.5151   age166_m42            0.0000     2.0824E+03     6.6250  -0.7848   100.4864
 71      0.0000     0.0000E+00    0.0000E+00    7.500000E+09  0.00400  3.243E-05    0   0.5110   age171_m42            0.0000     2.5610E+03     7.2451  -0.8747    99.9457
 72      0.0000     0.0000E+00    0.0000E+00    1.000000E+10  0.00400  2.424E-05    0   0.5028   age181_m42            0.0000     3.2835E+03     8.0792  -0.9648    99.3000
 73      0.0000     0.0000E+00    0.0000E+00    1.300000E+10  0.00400  1.883E-05    0   0.4927   age193_m42            0.0000     3.8850E+03     8.7166  -1.0000    98.8020
 74      0.0000     0.0000E+00    0.0000E+00    1.500000E+10  0.00400  1.685E-05    0   0.4919   age201_m42            0.0000     3.7155E+03     8.5027  -0.9995    98.8930
 75      0.0000     0.0000E+00    0.0000E+00    1.800000E+10  0.00400  1.452E-05    0   0.4874   age213_m42            0.0000     3.3977E+03     8.1386  -0.9794    99.1183
 76      0.0000     0.0000E+00    0.0000E+00    1.000000E+06  0.00800  1.286E-02    0   1.0000   age020_m52            0.0000     6.0256E+03    13.8032   3.4295    81.4715
 77      0.0000     0.0000E+00    0.0000E+00    3.160000E+06  0.00800  3.147E-02    0   0.9966   age045_m52            0.0000     5.7756E+03    13.6132   3.3326    83.0889
 78      0.0000     0.0000E+00    0.0000E+00    5.010000E+06  0.00800  2.664E-02    0   0.9443   age055_m52            0.0000     4.1166E+03    11.5869   2.9800    86.5377
 79      0.0000     0.0000E+00    0.0000E+00    6.610000E+06  0.00800  2.151E-02    0   0.9177   age061_m52            0.0000     2.4651E+03     8.7781   1.6329    92.6472
 80      0.0000     0.0000E+00    0.0000E+00    8.710000E+06  0.00800  1.628E-02    0   0.8948   age067_m52            0.0000     2.3434E+03     9.2090   2.0139    92.7435
 81      0.0000     0.0000E+00    0.0000E+00    1.000000E+07  0.00800  1.215E-02    0   0.8827   age070_m52            0.0000     2.9988E+03    10.3867   2.3643    90.9000
 82      0.0000     0.0000E+00    0.0000E+00    1.445000E+07  0.00800  8.739E-03    0   0.8552   age078_m52            0.0000     2.4113E+03     9.4137   2.3962    92.2848
 83      0.0000     0.0000E+00    0.0000E+00    2.512000E+07  0.00800  5.676E-03    0   0.8162   age090_m52            0.0000     1.6215E+03     7.4159   1.9727    96.7663
 84      0.0000     0.0000E+00    0.0000E+00    4.000000E+07  0.00800  3.939E-03    0   0.7841   age104_m52            0.0000     1.3422E+03     5.7655   1.7937    99.2600
 85      0.0000     0.0000E+00    0.0000E+00    5.500000E+07  0.00800  3.155E-03    0   0.7627   age110_m52            0.0000     1.4305E+03     5.0106   1.7463   101.0758
 86      0.0000     0.0000E+00    0.0000E+00    1.015200E+08  0.00800  2.206E-03    0   0.7226   age116_m52            0.0000     2.2455E+03     5.2431   1.5168   105.2271
 87      0.0000     0.0000E+00    0.0000E+00    1.609000E+08  0.00800  1.596E-03    0   0.6963   age120_m52            0.0000     2.8152E+03     5.9646   1.2839   106.8931
 88      0.0000     0.0000E+00    0.0000E+00    2.861200E+08  0.00800  1.002E-03    0   0.6665   age125_m52            0.0000     4.6553E+03     8.6239   0.9381   109.9232
 89      0.0000     0.0000E+00    0.0000E+00    5.088000E+08  0.00800  5.759E-04    0   0.6377   age130_m52            0.0000     4.9675E+03     9.8398   0.5378   114.5234
 90      0.0000     0.0000E+00    0.0000E+00    9.047900E+08  0.00800  2.972E-04    0   0.6086   age135_m52            0.0000     2.4205E+03     8.2003  -0.0501   114.2758
 91      0.0000     0.0000E+00    0.0000E+00    1.278050E+09  0.00800  2.242E-04    0   0.5907   age138_m52            0.0000     1.5070E+03     7.3344  -0.6668   112.4052
 92      0.0000     0.0000E+00    0.0000E+00    1.434000E+09  0.00800  1.645E-04    0   0.5787   age139_m52            0.0000     1.1695E+03     6.4533  -0.4973   111.6466
 93      0.0000     0.0000E+00    0.0000E+00    2.500000E+09  0.00800  7.723E-05    0   0.5519   age150_m52            0.0000     1.9177E+03     7.3965  -0.8386   107.7129
 94      0.0000     0.0000E+00    0.0000E+00    4.250000E+09  0.00800  4.151E-05    0   0.5320   age158_m52            0.0000     2.3870E+03     7.5566  -0.9091   105.2181
 95      0.0548     1.7868E-01    1.7769E-01    6.250000E+09  0.00800  3.010E-05    0   0.5197   age166_m52            0.0000     3.7307E+03     8.9944  -1.0000   102.0571
 96      0.0000     0.0000E+00    0.0000E+00    7.500000E+09  0.00800  2.467E-05    0   0.5139   age171_m52            0.0000     4.1913E+03     9.4405  -1.0000   100.9646
 97      0.0000     0.0000E+00    0.0000E+00    1.000000E+10  0.00800  1.862E-05    0   0.5054   age181_m52            0.0000     5.8516E+03    10.9695  -1.0000    98.3266
 98      0.0000     0.0000E+00    0.0000E+00    1.300000E+10  0.00800  1.433E-05    0   0.4988   age193_m52            0.0000     7.7439E+03    12.7841  -1.0000    97.0596
 99      0.0000     2.3581E-04    2.2273E-04    1.500000E+10  0.00800  1.244E-05    0   0.4936   age201_m52            0.0000     8.4684E+03    13.4651  -1.0000    96.8718
100      0.0000     0.0000E+00    0.0000E+00    1.800000E+10  0.00800  1.070E-05    0   0.4888   age213_m52            0.0000     9.1543E+03    14.1127  -1.0000    96.0305
101      0.0000     0.0000E+00    0.0000E+00    1.000000E+06  0.02000  1.989E-02    0   1.0000   age020_m62            0.0000     6.8532E+03    14.5800   3.4043    80.7273
102      0.0000     0.0000E+00    0.0000E+00    3.160000E+06  0.02000  3.772E-02    0   0.9858   age045_m62            0.0000     6.2441E+03    14.1093   3.2491    83.0111
103      0.0000     0.0000E+00    0.0000E+00    5.010000E+06  0.02000  3.227E-02    0   0.9342   age055_m62            0.0000     2.2675E+03     9.2016   2.6858    90.4703
104      0.0000     0.0000E+00    0.0000E+00    6.610000E+06  0.02000  2.387E-02    0   0.9090   age061_m62            0.0000     3.6531E+03    11.5592   2.4465    89.5736
105      0.0000     0.0000E+00    0.0000E+00    8.710000E+06  0.02000  1.102E-02    0   0.8861   age067_m62            0.0000     9.9166E+03    18.4364   2.0924    84.3449
106      0.0000     0.0000E+00    0.0000E+00    1.000000E+07  0.02000  1.011E-02    0   0.8751   age070_m62            0.0000     6.9691E+03    15.5185   2.0998    87.0224
107      0.0000     0.0000E+00    0.0000E+00    1.445000E+07  0.02000  7.331E-03    0   0.8472   age078_m62            0.0000     4.9756E+03    13.1225   2.1034    88.7251
108      0.0000     0.0000E+00    0.0000E+00    2.512000E+07  0.02000  4.206E-03    0   0.8099   age090_m62            0.0000     5.1687E+03    13.0931   2.0052    88.2645
109      0.0000     0.0000E+00    0.0000E+00    4.000000E+07  0.02000  3.373E-03    0   0.7799   age104_m62            0.0000     1.4691E+03     7.1439   1.7562    97.0627
110      0.0000     0.0000E+00    0.0000E+00    5.500000E+07  0.02000  2.747E-03    0   0.7595   age110_m62            0.0000     1.3136E+03     5.1874   1.6644   100.5733
111      0.0000     0.0000E+00    0.0000E+00    1.015200E+08  0.02000  1.878E-03    0   0.7221   age116_m62            0.0000     2.8673E+03     5.9661   1.4900   105.4925
112      0.0000     0.0000E+00    0.0000E+00    1.609000E+08  0.02000  1.378E-03    0   0.6978   age120_m62            0.0000     4.3535E+03     7.4479   1.3118   108.2182
113      0.0000     0.0000E+00    0.0000E+00    2.861200E+08  0.02000  8.869E-04    0   0.6700   age125_m62            0.0000     7.0015E+03     9.9437   0.8980   112.7384
114      0.0000     0.0000E+00    0.0000E+00    5.088000E+08  0.02000  4.834E-04    0   0.6430   age130_m62            0.0000     5.7011E+03    10.4364   0.3869   116.3281
115      0.0000     0.0000E+00    0.0000E+00    9.047900E+08  0.02000  2.312E-04    0   0.6152   age135_m62            0.0000     2.1369E+03     7.8281  -0.2583   116.4648
116      0.0000     0.0000E+00    0.0000E+00    1.278050E+09  0.02000  1.387E-04    0   0.5927   age138_m62            0.0000     1.1630E+03     6.2933  -0.6319   111.5793
117      0.0000     0.0000E+00    0.0000E+00    1.434000E+09  0.02000  1.168E-04    0   0.5865   age139_m62            0.0000     1.2026E+03     6.2868  -0.6541   109.8729
118      0.0000     0.0000E+00    0.0000E+00    2.500000E+09  0.02000  5.505E-05    0   0.5610   age150_m62            0.0000     2.6856E+03     8.2971  -1.0000   106.1238
119      0.0000     0.0000E+00    0.0000E+00    4.250000E+09  0.02000  3.070E-05    0   0.5407   age158_m62            0.0000     6.1830E+03    11.8414  -1.0000   100.8667
120      0.0000     0.0000E+00    0.0000E+00    6.250000E+09  0.02000  2.104E-05    0   0.5277   age166_m62            0.0000     8.7146E+03    14.2420  -1.0000    98.6781
121      0.0000     0.0000E+00    0.0000E+00    7.500000E+09  0.02000  1.770E-05    0   0.5223   age171_m62            0.0000     1.0399E+04    15.7559  -1.0000    97.2618
122      0.0000     0.0000E+00    0.0000E+00    1.000000E+10  0.02000  1.297E-05    0   0.5121   age181_m62            0.0000     1.4116E+04    18.6041  -1.0000    94.3589
123      0.0000     0.0000E+00    0.0000E+00    1.300000E+10  0.02000  9.691E-06    0   0.5047   age193_m62            0.0000     1.6552E+04    20.1486  -1.0000    92.8003
124      0.0000     0.0000E+00    0.0000E+00    1.500000E+10  0.02000  8.360E-06    0   0.4999   age201_m62            0.0000     1.8714E+04    21.4192  -1.0000    91.3987
125      0.0000     0.0000E+00    0.0000E+00    1.800000E+10  0.02000  6.911E-06    0   0.4946   age213_m62            0.0000     2.1257E+04    22.7722  -1.0000    89.8763
126      0.0000     0.0000E+00    0.0000E+00    1.000000E+06  0.05000  2.651E-02    0   0.9998   age020_m72            0.0000     6.4191E+03    13.9520   3.4021    81.7508
127      0.0000     0.0000E+00    0.0000E+00    3.160000E+06  0.05000  4.817E-02    0   0.9577   age045_m72            0.0000     4.3319E+03    11.8186   3.0864    86.3542
128      0.0000     0.0000E+00    0.0000E+00    5.010000E+06  0.05000  3.101E-02    0   0.9147   age055_m72            0.0000     4.0249E+03    11.5722   2.7169    88.8660
129      0.0000     0.0000E+00    0.0000E+00    6.610000E+06  0.05000  1.472E-02    0   0.8877   age061_m72            0.0000     8.0909E+03    16.2949   2.2898    86.3882
130      0.0000     0.0000E+00    0.0000E+00    8.710000E+06  0.05000  1.050E-02    0   0.8638   age067_m72            0.0000     5.6978E+03    13.5276   2.6734    87.2866
131      0.0000     0.0000E+00    0.0000E+00    1.000000E+07  0.05000  8.954E-03    0   0.8524   age070_m72            0.0000     4.1954E+03    11.3777   2.9453    87.6948
132      0.0000     0.0000E+00    0.0000E+00    1.445000E+07  0.05000  6.392E-03    0   0.8262   age078_m72            0.0000     3.5283E+03    10.4103   2.8818    88.7476
133      0.0000     0.0000E+00    0.0000E+00    2.512000E+07  0.05000  4.207E-03    0   0.7902   age090_m72            0.0000     1.9337E+03     7.9222   2.4670    93.0689
134      0.0000     0.0000E+00    0.0000E+00    4.000000E+07  0.05000  3.198E-03    0   0.7618   age104_m72            0.0000     1.5074E+03     4.4429   1.8736   101.1344
135      0.0000     0.0000E+00    0.0000E+00    5.500000E+07  0.05000  2.593E-03    0   0.7432   age110_m72            0.0000     2.1046E+03     5.1451   1.7686   103.0962
136      0.0000     0.0000E+00    0.0000E+00    1.015200E+08  0.05000  1.716E-03    0   0.7092   age116_m72            0.0000     3.4987E+03     6.5879   1.5589   105.8075
137      0.0000     0.0000E+00    0.0000E+00    1.609000E+08  0.05000  1.218E-03    0   0.6876   age120_m72            0.0000     5.1302E+03     8.0948   1.2647   108.7221
138      0.0000     0.0000E+00    0.0000E+00    2.861200E+08  0.05000  7.047E-04    0   0.6618   age125_m72            0.0000     6.4281E+03    10.2839   0.6396   113.7373
139      0.0000     0.0000E+00    0.0000E+00    5.088000E+08  0.05000  3.590E-04    0   0.6356   age130_m72            0.0000     4.4763E+03    10.2342  -0.0248   118.0208
140      0.0000     0.0000E+00    0.0000E+00    9.047900E+08  0.05000  1.484E-04    0   0.6088   age135_m72            0.0000     1.9346E+03     8.0390  -0.7869   111.7191
141      4.3805     4.5576E+00    5.1665E+00    1.278050E+09  0.05000  9.435E-05    0   0.5924   age138_m72            0.0000     3.8674E+03    10.4013  -1.0000   105.3044
142      0.0000     0.0000E+00    0.0000E+00    1.434000E+09  0.05000  7.827E-05    0   0.5847   age139_m72            0.0000     3.8959E+03    10.2286  -1.0000   104.9057
143      0.0000     0.0000E+00    0.0000E+00    2.500000E+09  0.05000  3.759E-05    0   0.5583   age150_m72            0.0000     8.4165E+03    14.0934  -1.0000    98.1830
144      0.0000     0.0000E+00    0.0000E+00    4.250000E+09  0.05000  1.842E-05    0   0.5374   age158_m72            0.0000     1.4828E+04    19.1464  -1.0000    91.2138
145      0.0000     0.0000E+00    0.0000E+00    6.250000E+09  0.05000  1.207E-05    0   0.5242   age166_m72            0.0000     2.1407E+04    23.0600  -1.0000    85.6878
146      0.0000     0.0000E+00    0.0000E+00    7.500000E+09  0.05000  9.993E-06    0   0.5183   age171_m72            0.0000     2.2606E+04    23.6883  -1.0000    84.6595
147      0.0000     0.0000E+00    0.0000E+00    1.000000E+10  0.05000  7.291E-06    0   0.5081   age181_m72            0.0000     2.6855E+04    25.6822  -1.0000    81.6850
148      0.0000     0.0000E+00    0.0000E+00    1.300000E+10  0.05000  5.316E-06    0   0.5018   age193_m72            0.0000     3.3677E+04    28.4157  -1.0000    77.2736
149      0.0000     0.0000E+00    0.0000E+00    1.500000E+10  0.05000  4.497E-06    0   0.4972   age201_m72            0.0000     3.6716E+04    29.4941  -1.0000    75.7030
150      0.0000     0.0000E+00    0.0000E+00    1.800000E+10  0.05000  3.739E-06    0   0.4924   age213_m72            0.0000     4.1008E+04    30.9212  -1.0000    73.3560


## Synthesis Results - Average & Chains ##

# j      x_j: min, <> & last-chain-values for 1 ...  7 chains
  1      0.0000      0.0026      0.0000      0.0000      0.0000      0.0058      0.0000      0.0000      0.0001
  2     18.1289     17.4163     18.1402     17.9882     17.9666     18.1729     17.5996     18.1645     18.1110
  3      0.0000      0.0141      0.0006      0.0000      0.0000      0.0073      0.0000      0.0016      0.0100
  4      0.0000      0.0033      0.0009      0.0000      0.0000      0.0010      0.0000      0.0000      0.0128
  5      0.0000      0.0047      0.0102      0.0000      0.0000      0.0010      0.0000      0.0046      0.0022
  6      0.0000      0.0035      0.0000      0.0000      0.0000      0.0036      0.0000      0.0023      0.0000
  7      0.0000      0.0044      0.0005      0.0000      0.0316      0.0008      0.0000      0.0000      0.0000
  8      0.0000      0.0077      0.0000      0.0000      0.0000      0.0031      0.0014      0.0008      0.0134
  9      0.0000      0.0219      0.0097      0.0000      0.0000      0.0000      0.0000      0.0029      0.0000
 10      0.0000      0.0157      0.0000      0.0112      0.0000      0.0000      0.0000      0.0010      0.0000
 11      0.0000      0.0371      0.0010      0.0000      0.0000      0.0106      0.1980      0.0000      0.0000
 12      0.0116      0.0185      0.0000      0.0000      0.0000      0.0128      0.0355      0.0000      0.0053
 13      0.0000      0.0183      0.0002      0.0000      0.0278      0.0049      0.0000      0.0000      0.0030
 14      0.0000      0.0255      0.0016      0.2022      0.0000      0.0044      0.0000      0.0000      0.0033
 15      0.0000      0.0190      0.0000      0.0000      0.0000      0.0069      0.0000      0.0034      0.0020
 16      0.0000      0.0400      0.0000      0.0000      0.0284      0.0025      0.0000      0.0124      0.0072
 17      0.0000      0.0557      0.0008      0.0102      0.0000      0.0000      0.0371      0.0000      0.0000
 18      0.0000      0.0472      0.0000      0.0000      0.0000      0.0030      0.0961      0.0015      0.0030
 19      0.6264      0.1009      0.0063      0.1965      0.0000      0.0241      0.1115      0.0000      0.0029
 20      0.0000      0.1549      0.0065      0.2594      0.4376      0.0004      0.2112      0.0052      0.0000
 21      0.0000      0.1576      0.0001      0.0211      0.0000      0.0031      0.0000      0.0000      0.0028
 22      0.0000      0.1565      0.0013      0.1140      0.0000      0.0022      0.0000      0.0095      0.0018
 23      0.0000      0.1828      0.0000      0.3268      0.0000      0.0000      0.0000      0.0027      0.0000
 24      0.0005      0.1762      0.0029      0.0675      0.1109      0.0124      0.3924      0.0185      0.0016
 25      0.0000      0.1649      0.0033      0.1408      0.0000      0.0027      0.0124      0.0090      0.0068
 26      0.0000      0.0042      0.0061      0.0037      0.0000      0.0061      0.0000      0.0093      0.0207
 27      0.0000      0.0117      0.0082      0.0000      0.0000      0.0022      0.0000      0.0065      0.0005
 28      0.0000      0.0039      0.0000      0.0106      0.0000      0.0055      0.0000      0.0021      0.0000
 29      0.0000      0.0065      0.0053      0.0000      0.0000      0.0026      0.0000      0.0004      0.0000
 30      0.0000      0.0037      0.0046      0.0000      0.0000      0.0030      0.0000      0.0040      0.0008
 31      0.0000      0.0035      0.0048      0.0000      0.0000      0.0070      0.0000      0.0086      0.0030
 32      0.0000      0.0099      0.0112      0.0000      0.0000      0.0015      0.0129      0.0053      0.0016
 33      0.0000      0.0103      0.0071      0.0000      0.0000      0.0034      0.0000      0.0030      0.0013
 34      0.0000      0.0195      0.0007      0.0000      0.0000      0.0026      0.0540      0.0037      0.0137
 35      0.0000      0.0151      0.0004      0.0000      0.0000      0.0038      0.0000      0.0056      0.0038
 36      0.0000      0.0309      0.0000      0.0719      0.0283      0.0021      0.0000      0.0072      0.0000
 37      0.0000      0.0154      0.0034      0.0000      0.0000      0.0000      0.0000      0.0000      0.0042
 38      0.0000      0.0317      0.0000      0.0000      0.0000      0.0048      0.0000      0.0059      0.0025
 39      0.0000      0.0192      0.0004      0.0000      0.0000      0.0000      0.0000      0.0000      0.0073
 40      0.0000      0.0360      0.0017      0.0000      0.1212      0.0036      0.0000      0.0029      0.0000
 41      0.0000      0.0552      0.0014      0.0000      0.0000      0.0028      0.0000      0.0061      0.0074
 42      0.0000      0.0575      0.0051      0.0000      0.0553      0.0079      0.0000      0.0029      0.0011
 43      9.5132      9.3390     10.1318      9.6529      9.2330     10.1756      9.6462     10.2649     10.1156
 44     39.4097     40.0853     41.7834     40.4493     40.3853     41.6257     40.2254     41.5277     41.7905
 45      0.0000      0.2313      0.0033      0.2685      0.4408      0.0000      0.0000      0.0000      0.0066
 46      3.6493      4.0152      4.0447      3.7945      4.1608      4.0341      3.9566      4.0995      4.0446
 47      6.6542      5.3469      5.2061      5.4944      5.1374      5.1912      5.5550      5.1879      5.2041
 48      0.8307      0.2175      0.0014      0.0000      0.2874      0.0152      0.8180      0.0101      0.0091
 49      0.0000      0.1733      0.0047      0.0152      0.1720      0.0016      0.0000      0.0033      0.0054
 50      0.4475      0.1319      0.0000      0.1107      0.4624      0.0123      0.0870      0.0035      0.0003
 51      0.0000      0.0034      0.0151      0.0365      0.0000      0.0078      0.0000      0.0073      0.0018
 52      0.0000      0.0147      0.0020      0.0000      0.0074      0.0030      0.0000      0.0062      0.0000
 53      0.0000      0.0092      0.0000      0.0000      0.0000      0.0000      0.0000      0.0000      0.0055
 54      0.0000      0.0261      0.0014      0.0244      0.0346      0.0000      0.0000      0.0156      0.0000
 55      0.0000      0.0148      0.0050      0.0000      0.0000      0.0051      0.1160      0.0000      0.0104
 56      0.0000      0.0233      0.0031      0.0000      0.0000      0.0005      0.0000      0.0104      0.0020
 57      0.0000      0.0066      0.0045      0.0000      0.0000      0.0094      0.0000      0.0093      0.0000
 58      0.0000      0.0124      0.0000      0.0000      0.0000      0.0051      0.0000      0.0000      0.0025
 59      0.0000      0.0239      0.0064      0.0000      0.1033      0.0000      0.1023      0.0000      0.0024
 60      0.0000      0.0198      0.0021      0.0000      0.0000      0.0033      0.0000      0.0007      0.0048
 61      0.0000      0.0251      0.0104      0.0401      0.0024      0.0027      0.0000      0.0025      0.0000
 62      0.6345      0.0252      0.0000      0.0000      0.0797      0.0125      0.0000      0.0074      0.0002
 63      0.0000      0.0277      0.0000      0.0000      0.0285      0.0010      0.0000      0.0000      0.0014
 64      0.0000      0.0298      0.0000      0.0863      0.0673      0.0100      0.0000      0.0000      0.0011
 65      0.0000      0.0476      0.0044      0.0000      0.0788      0.0011      0.0190      0.0000      0.0021
 66      0.0000      0.0741      0.0000      0.0000      0.2437      0.0061      0.0428      0.0020      0.0111
 67      0.0000      0.0954      0.0000      0.1167      0.0000      0.0122      0.1739      0.0059      0.0052
 68     18.2255     17.8396     18.5998     17.4608     17.8316     18.5849     18.3885     18.5574     18.5803
 69      0.0000      0.0584      0.0032      0.3179      0.0149      0.0000      0.0205      0.0002      0.0046
 70      0.0000      0.0530      0.0179      0.0000      0.0676      0.0026      0.0752      0.0138      0.0000
 71      0.0000      0.0311      0.0031      0.0102      0.0000      0.0004      0.0710      0.0004      0.0000
 72      0.0000      0.0494      0.0071      0.0031      0.1161      0.0009      0.0000      0.0070      0.0102
 73      0.0000      0.0216      0.0006      0.0000      0.0076      0.0004      0.0000      0.0000      0.0001
 74      0.0000      0.0319      0.0082      0.0000      0.0000      0.0007      0.0168      0.0161      0.0072
 75      0.0000      0.0276      0.0099      0.0000      0.0059      0.0041      0.0000      0.0073      0.0089
 76      0.0000      0.0047      0.0000      0.0000      0.0000      0.0080      0.0000      0.0000      0.0030
 77      0.0000      0.0062      0.0031      0.0000      0.0000      0.0001      0.0000      0.0000      0.0022
 78      0.0000      0.0048      0.0049      0.0000      0.0000      0.0101      0.0000      0.0000      0.0000
 79      0.0000      0.0210      0.0000      0.0291      0.0000      0.0108      0.0941      0.0029      0.0000
 80      0.0000      0.0111      0.0088      0.0000      0.0000      0.0093      0.0000      0.0001      0.0071
 81      0.0000      0.0156      0.0040      0.1238      0.0000      0.0074      0.0000      0.0000      0.0012
 82      0.0000      0.0076      0.0008      0.0000      0.0000      0.0018      0.0000      0.0074      0.0002
 83      0.0000      0.0240      0.0018      0.0000      0.0000      0.0003      0.0000      0.0070      0.0049
 84      0.0000      0.0224      0.0024      0.0000      0.0344      0.0109      0.0000      0.0000      0.0000
 85      0.0000      0.0183      0.0039      0.0000      0.0429      0.0021      0.0000      0.0115      0.0000
 86      0.0000      0.0202      0.0003      0.0000      0.0016      0.0000      0.0000      0.0043      0.0000
 87      0.0000      0.0237      0.0051      0.0168      0.0379      0.0000      0.0000      0.0000      0.0000
 88      0.0000      0.0160      0.0013      0.0000      0.0000      0.0006      0.0000      0.0023      0.0000
 89      0.0000      0.0195      0.0000      0.0000      0.0000      0.0002      0.1024      0.0013      0.0009
 90      0.0000      0.0337      0.0041      0.0540      0.0000      0.0000      0.0000      0.0029      0.0216
 91      0.0000      0.0451      0.0012      0.1035      0.1419      0.0000      0.0758      0.0064      0.0022
 92      0.0000      0.0489      0.0092      0.0002      0.0000      0.0027      0.0000      0.0015      0.0000
 93      0.0000      0.0634      0.0112      0.0000      0.0000      0.0121      0.0144      0.0032      0.0000
 94      0.0000      0.0485      0.0003      0.2090      0.0000      0.0078      0.0000      0.0000      0.0133
 95      0.0548      0.0346      0.0056      0.1587      0.0000      0.0132      0.0000      0.0014      0.0060
 96      0.0000      0.0237      0.0000      0.0000      0.0000      0.0000      0.0000      0.0070      0.0114
 97      0.0000      0.0293      0.0000      0.0000      0.0046      0.0097      0.0000      0.0028      0.0025
 98      0.0000      0.0160      0.0124      0.0014      0.0000      0.0006      0.0000      0.0029      0.0037
 99      0.0000      0.0099      0.0009      0.0000      0.0000      0.0123      0.0000      0.0052      0.0000
100      0.0000      0.0127      0.0080      0.0000      0.0734      0.0000      0.0161      0.0016      0.0000
101      0.0000      0.0024      0.0000      0.0017      0.0000      0.0000      0.0000      0.0002      0.0011
102      0.0000      0.0034      0.0036      0.0000      0.0000      0.0043      0.0000      0.0121      0.0048
103      0.0000      0.0104      0.0117      0.0000      0.0000      0.0016      0.0000      0.0050      0.0037
104      0.0000      0.0130      0.0041      0.0026      0.0359      0.0000      0.0000      0.0029      0.0122
105      0.0000      0.0046      0.0024      0.0000      0.0000      0.0000      0.0000      0.0000      0.0000
106      0.0000      0.0049      0.0000      0.0108      0.0000      0.0036      0.0000      0.0010      0.0037
107      0.0000      0.0097      0.0005      0.0000      0.0000      0.0119      0.0000      0.0079      0.0009
108      0.0000      0.0079      0.0025      0.0000      0.0000      0.0018      0.0000      0.0000      0.0044
109      0.0000      0.0104      0.0000      0.0000      0.0000      0.0000      0.0000      0.0047      0.0030
110      0.0000      0.0090      0.0052      0.0000      0.0000      0.0000      0.0378      0.0079      0.0000
111      0.0000      0.0143      0.0013      0.0000      0.0000      0.0071      0.0000      0.0024      0.0000
112      0.0000      0.0194      0.0105      0.0248      0.0000      0.0022      0.0168      0.0083      0.0018
113      0.0000      0.0130      0.0000      0.0193      0.0000      0.0048      0.0000      0.0020      0.0018
114      0.0000      0.0229      0.0046      0.0000      0.0633      0.0014      0.0000      0.0047      0.0000
115      0.0000      0.0465      0.0000      0.0000      0.0000      0.0063      0.0000      0.0000      0.0109
116      0.0000      0.0446      0.0003      0.0172      0.0000      0.0090      0.0000      0.0000      0.0084
117      0.0000      0.0408      0.0000      0.0000      0.0000      0.0059      0.0000      0.0000      0.0013
118      0.0000      0.0224      0.0001      0.0317      0.0044      0.0032      0.0193      0.0095      0.0000
119      0.0000      0.0208      0.0044      0.0000      0.0000      0.0085      0.0000      0.0079      0.0049
120      0.0000      0.0167      0.0000      0.0000      0.0855      0.0065      0.0000      0.0016      0.0042
121      0.0000      0.0122      0.0000      0.0000      0.0000      0.0000      0.0000      0.0002      0.0083
122      0.0000      0.0067      0.0083      0.0000      0.0000      0.0003      0.0000      0.0116      0.0030
123      0.0000      0.0097      0.0045      0.0000      0.0000      0.0026      0.0000      0.0070      0.0094
124      0.0000      0.0102      0.0038      0.0000      0.0000      0.0000      0.0000      0.0011      0.0046
125      0.0000      0.0032      0.0000      0.0000      0.0000      0.0085      0.0000      0.0000      0.0000
126      0.0000      0.0033      0.0020      0.0000      0.0000      0.0053      0.0000      0.0044      0.0091
127      0.0000      0.0096      0.0000      0.0000      0.0000      0.0067      0.0000      0.0021      0.0006
128      0.0000      0.0047      0.0032      0.0156      0.0000      0.0002      0.0000      0.0052      0.0107
129      0.0000      0.0036      0.0000      0.0000      0.0000      0.0000      0.0000      0.0000      0.0016
130      0.0000      0.0038      0.0039      0.0000      0.0081      0.0075      0.0000      0.0000      0.0014
131      0.0000      0.0037      0.0000      0.0000      0.0036      0.0000      0.0000      0.0001      0.0003
132      0.0000      0.0043      0.0066      0.0000      0.0000      0.0002      0.0000      0.0000      0.0055
133      0.0000      0.0058      0.0000      0.0000      0.0000      0.0034      0.0000      0.0135      0.0044
134      0.0000      0.0095      0.0033      0.0000      0.0016      0.0054      0.0000      0.0000      0.0014
135      0.0000      0.0127      0.0044      0.0000      0.0000      0.0036      0.0000      0.0000      0.0010
136      0.0000      0.0140      0.0025      0.0000      0.0000      0.0018      0.0043      0.0003      0.0069
137      0.0000      0.0147      0.0006      0.0000      0.0000      0.0022      0.0321      0.0000      0.0061
138      0.0000      0.0196      0.0042      0.0000      0.0000      0.0007      0.0000      0.0041      0.0018
139      0.0000      0.0423      0.0012      0.0000      0.1123      0.0041      0.0000      0.0000      0.0046
140      0.0000      0.0566      0.0028      0.1829      0.0185      0.0005      0.0000      0.0018      0.0001
141      4.3805      4.0338      4.2568      4.1784      4.0724      4.2507      4.0860      4.2732      4.2522
142      0.0000      0.0440      0.0000      0.1193      0.0000      0.0017      0.0073      0.0071      0.0000
143      0.0000      0.0161      0.0004      0.0000      0.0878      0.0008      0.0000      0.0016      0.0000
144      0.0000      0.0066      0.0022      0.0000      0.0000      0.0000      0.0000      0.0011      0.0078
145      0.0000      0.0029      0.0000      0.0000      0.0000      0.0014      0.0000      0.0000      0.0053
146      0.0000      0.0032      0.0080      0.0000      0.0000      0.0030      0.0000      0.0038      0.0000
147      0.0000      0.0019      0.0009      0.0000      0.0000      0.0000      0.0000      0.0053      0.0000
148      0.0000      0.0018      0.0000      0.0000      0.0000      0.0061      0.0000      0.0025      0.0006
149      0.0000      0.0045      0.0037      0.0000      0.0000      0.0072      0.0000      0.0092      0.0000
150      0.0000      0.0021      0.0065      0.0002      0.0000      0.0018      0.0000      0.0112      0.0097

# j      m_j: min, <> & last-chain-values for 1 ...  7 chains
  1  0.0000E+00  5.9815E-05  0.0000E+00  0.0000E+00  0.0000E+00  1.3940E-04  0.0000E+00  0.0000E+00  2.6741E-06
  2  7.1556E-02  6.8516E-02  7.4017E-02  7.2171E-02  7.1141E-02  7.4268E-02  7.0030E-02  7.3929E-02  7.3906E-02
  3  0.0000E+00  1.3129E-04  5.3431E-06  0.0000E+00  0.0000E+00  7.0286E-05  0.0000E+00  1.5246E-05  9.6268E-05
  4  0.0000E+00  5.7261E-05  1.6789E-05  0.0000E+00  0.0000E+00  1.8646E-05  0.0000E+00  0.0000E+00  2.3243E-04
  5  0.0000E+00  1.0359E-04  2.3257E-04  0.0000E+00  0.0000E+00  2.3219E-05  0.0000E+00  1.0533E-04  4.9320E-05
  6  0.0000E+00  9.0995E-05  0.0000E+00  0.0000E+00  0.0000E+00  9.7615E-05  0.0000E+00  6.2661E-05  0.0000E+00
  7  0.0000E+00  1.4647E-04  1.7181E-05  0.0000E+00  1.0494E-03  2.5904E-05  0.0000E+00  0.0000E+00  0.0000E+00
  8  0.0000E+00  2.8746E-04  0.0000E+00  0.0000E+00  0.0000E+00  1.1879E-04  5.1597E-05  3.0164E-05  5.1849E-04
  9  0.0000E+00  8.7755E-04  4.0407E-04  0.0000E+00  0.0000E+00  0.0000E+00  0.0000E+00  1.1937E-04  0.0000E+00
 10  0.0000E+00  7.2188E-04  0.0000E+00  5.2536E-04  0.0000E+00  0.0000E+00  0.0000E+00  4.7207E-05  0.0000E+00
 11  0.0000E+00  2.0396E-03  5.5825E-05  0.0000E+00  0.0000E+00  6.0284E-04  1.1012E-02  0.0000E+00  0.0000E+00
 12  1.1177E-03  1.7746E-03  0.0000E+00  0.0000E+00  0.0000E+00  1.2776E-03  3.4558E-03  0.0000E+00  5.2679E-04
 13  0.0000E+00  2.0463E-03  1.9708E-05  0.0000E+00  3.1214E-03  5.6778E-04  0.0000E+00  0.0000E+00  3.5080E-04
 14  0.0000E+00  4.0428E-03  2.7082E-04  3.2687E-02  0.0000E+00  7.2404E-04  0.0000E+00  0.0000E+00  5.4753E-04
 15  0.0000E+00  4.5432E-03  0.0000E+00  0.0000E+00  0.0000E+00  1.7261E-03  0.0000E+00  8.5301E-04  4.9919E-04
 16  0.0000E+00  1.3855E-02  0.0000E+00  0.0000E+00  9.9029E-03  9.0192E-04  0.0000E+00  4.4553E-03  2.6004E-03
 17  0.0000E+00  2.1439E-02  3.2880E-04  4.0220E-03  0.0000E+00  0.0000E+00  1.4429E-02  0.0000E+00  0.0000E+00
 18  0.0000E+00  2.9586E-02  0.0000E+00  0.0000E+00  0.0000E+00  1.9406E-03  6.0923E-02  1.0020E-03  1.9583E-03
 19  5.9711E-01  9.5816E-02  6.2098E-03  1.9036E-01  0.0000E+00  2.3788E-02  1.0717E-01  0.0000E+00  2.8810E-03
 20  0.0000E+00  2.1050E-01  9.1900E-03  3.5946E-01  5.9849E-01  6.3201E-04  2.9028E-01  7.3476E-03  0.0000E+00
 21  0.0000E+00  2.4780E-01  1.9283E-04  3.3885E-02  0.0000E+00  5.1271E-03  0.0000E+00  0.0000E+00  4.5955E-03
 22  0.0000E+00  3.1744E-01  2.7476E-03  2.3583E-01  0.0000E+00  4.6022E-03  0.0000E+00  1.9877E-02  3.8322E-03
 23  0.0000E+00  4.6989E-01  0.0000E+00  8.5693E-01  0.0000E+00  0.0000E+00  0.0000E+00  7.2831E-03  0.0000E+00
 24  1.3868E-03  5.1800E-01  8.8241E-03  2.0248E-01  3.2816E-01  3.8004E-02  1.1670E+00  5.6206E-02  4.9535E-03
 25  0.0000E+00  5.8229E-01  1.1936E-02  5.0704E-01  0.0000E+00  9.8462E-03  4.4220E-02  3.2949E-02  2.5067E-02
 26  0.0000E+00  9.2121E-05  1.3922E-04  8.2967E-05  0.0000E+00  1.4087E-04  0.0000E+00  2.1261E-04  4.7499E-04
 27  0.0000E+00  5.5294E-05  3.9885E-05  0.0000E+00  0.0000E+00  1.0789E-05  0.0000E+00  3.1750E-05  2.5357E-06
 28  0.0000E+00  3.5837E-05  0.0000E+00  9.9365E-05  0.0000E+00  5.2281E-05  0.0000E+00  1.9635E-05  0.0000E+00
 29  0.0000E+00  9.2921E-05  7.9720E-05  0.0000E+00  0.0000E+00  3.9083E-05  0.0000E+00  5.5733E-06  0.0000E+00
 30  0.0000E+00  6.5750E-05  8.4357E-05  0.0000E+00  0.0000E+00  5.6341E-05  0.0000E+00  7.4585E-05  1.5392E-05
 31  0.0000E+00  7.3181E-05  1.0250E-04  0.0000E+00  0.0000E+00  1.4928E-04  0.0000E+00  1.8356E-04  6.4643E-05
 32  0.0000E+00  2.2676E-04  2.6529E-04  0.0000E+00  0.0000E+00  3.5299E-05  2.9888E-04  1.2532E-04  3.7941E-05
 33  0.0000E+00  3.3568E-04  2.3801E-04  0.0000E+00  0.0000E+00  1.1477E-04  0.0000E+00  1.0140E-04  4.5322E-05
 34  0.0000E+00  7.6919E-04  2.8340E-05  0.0000E+00  0.0000E+00  1.0766E-04  2.1544E-03  1.4921E-04  5.6064E-04
 35  0.0000E+00  7.2120E-04  1.9550E-05  0.0000E+00  0.0000E+00  1.8984E-04  0.0000E+00  2.7829E-04  1.8565E-04
 36  0.0000E+00  1.8874E-03  2.1125E-06  4.4809E-03  1.7412E-03  1.3565E-04  0.0000E+00  4.5726E-04  0.0000E+00
 37  0.0000E+00  1.1715E-03  2.7134E-04  0.0000E+00  0.0000E+00  0.0000E+00  0.0000E+00  0.0000E+00  3.3453E-04
 38  0.0000E+00  3.3520E-03  0.0000E+00  0.0000E+00  0.0000E+00  5.2527E-04  0.0000E+00  6.4808E-04  2.7638E-04
 39  0.0000E+00  3.0378E-03  6.7724E-05  0.0000E+00  0.0000E+00  0.0000E+00  0.0000E+00  0.0000E+00  1.1944E-03
 40  0.0000E+00  1.0013E-02  4.9413E-04  0.0000E+00  3.3960E-02  1.0492E-03  0.0000E+00  8.3006E-04  0.0000E+00
 41  0.0000E+00  2.0575E-02  5.2365E-04  0.0000E+00  0.0000E+00  1.0822E-03  0.0000E+00  2.3426E-03  2.8469E-03
 42  0.0000E+00  2.3959E-02  2.2023E-03  0.0000E+00  2.3176E-02  3.4045E-03  0.0000E+00  1.2300E-03  4.5556E-04
 43  6.4682E+00  6.3288E+00  7.1212E+00  6.6713E+00  6.2976E+00  7.1633E+00  6.6118E+00  7.1965E+00  7.1106E+00
 44  4.2377E+01  4.2961E+01  4.6446E+01  4.4212E+01  4.3564E+01  4.6344E+01  4.3605E+01  4.6045E+01  4.6459E+01
 45  0.0000E+00  3.4555E-01  5.0952E-03  4.0902E-01  6.6272E-01  0.0000E+00  0.0000E+00  0.0000E+00  1.0154E-02
 46  6.5154E+00  7.1450E+00  7.4649E+00  6.8862E+00  7.4522E+00  7.4571E+00  7.1212E+00  7.5471E+00  7.4656E+00
 47  1.5571E+01  1.2470E+01  1.2593E+01  1.3069E+01  1.2060E+01  1.2577E+01  1.3104E+01  1.2518E+01  1.2590E+01
 48  2.3147E+00  6.0398E-01  4.1350E-03  0.0000E+00  8.0329E-01  4.3739E-02  2.2979E+00  2.8937E-02  2.6088E-02
 49  0.0000E+00  5.3843E-01  1.5114E-02  4.8061E-02  5.3774E-01  5.0405E-03  0.0000E+00  1.0621E-02  1.7454E-02
 50  1.6408E+00  4.8212E-01  0.0000E+00  4.1264E-01  1.7007E+00  4.6723E-02  3.2168E-01  1.3378E-02  1.1774E-03
 51  0.0000E+00  5.7266E-05  2.6341E-04  6.2521E-04  0.0000E+00  1.3651E-04  0.0000E+00  1.2658E-04  3.1854E-05
 52  0.0000E+00  6.7530E-05  9.4539E-06  0.0000E+00  3.4410E-05  1.4289E-05  0.0000E+00  2.9362E-05  0.0000E+00
 53  0.0000E+00  6.4353E-05  0.0000E+00  0.0000E+00  0.0000E+00  0.0000E+00  0.0000E+00  0.0000E+00  3.9985E-05
 54  0.0000E+00  1.7428E-04  9.4271E-06  1.6640E-04  2.3293E-04  0.0000E+00  0.0000E+00  1.0800E-04  0.0000E+00
 55  0.0000E+00  1.4563E-04  5.1554E-05  0.0000E+00  0.0000E+00  5.2079E-05  1.1564E-03  0.0000E+00  1.0639E-04
 56  0.0000E+00  3.0362E-04  4.1918E-05  0.0000E+00  0.0000E+00  7.3434E-06  0.0000E+00  1.3991E-04  2.7407E-05
 57  0.0000E+00  1.3855E-04  9.8158E-05  0.0000E+00  0.0000E+00  2.0353E-04  0.0000E+00  2.0211E-04  0.0000E+00
 58  0.0000E+00  3.7337E-04  0.0000E+00  0.0000E+00  0.0000E+00  1.5924E-04  0.0000E+00  0.0000E+00  7.7768E-05
 59  0.0000E+00  1.0023E-03  2.7934E-04  0.0000E+00  4.3618E-03  0.0000E+00  4.3410E-03  0.0000E+00  1.0321E-04
 60  0.0000E+00  9.2680E-04  1.0186E-04  0.0000E+00  0.0000E+00  1.5839E-04  0.0000E+00  3.3467E-05  2.3133E-04
 61  0.0000E+00  1.4933E-03  6.3914E-04  2.4326E-03  1.4390E-04  1.6730E-04  0.0000E+00  1.5322E-04  0.0000E+00
 62  4.8018E-02  1.8981E-03  0.0000E+00  0.0000E+00  6.0503E-03  9.7689E-04  0.0000E+00  5.8004E-04  1.4832E-05
 63  0.0000E+00  3.1811E-03  0.0000E+00  0.0000E+00  3.2945E-03  1.2115E-04  0.0000E+00  0.0000E+00  1.6298E-04
 64  0.0000E+00  5.6274E-03  0.0000E+00  1.6616E-02  1.2783E-02  1.9576E-03  0.0000E+00  0.0000E+00  2.1080E-04
 65  0.0000E+00  1.5174E-02  1.4563E-03  0.0000E+00  2.5313E-02  3.7338E-04  6.1228E-03  0.0000E+00  7.0650E-04
 66  0.0000E+00  3.0244E-02  0.0000E+00  0.0000E+00  1.0014E-01  2.6029E-03  1.7684E-02  8.6157E-04  4.7095E-03
 67  0.0000E+00  5.3464E-02  0.0000E+00  6.6696E-02  0.0000E+00  7.0982E-03  9.8543E-02  3.4181E-03  3.0408E-03
 68  1.9049E+01  1.8584E+01  2.0096E+01  1.8551E+01  1.8697E+01  2.0112E+01  1.9376E+01  2.0000E+01  2.0078E+01
 69  0.0000E+00  1.0484E-01  5.9970E-03  5.8237E-01  2.6997E-02  0.0000E+00  3.7258E-02  3.2297E-04  8.5410E-03
 70  0.0000E+00  1.3251E-01  4.6442E-02  0.0000E+00  1.7014E-01  6.8145E-03  1.9016E-01  3.5764E-02  0.0000E+00
 71  0.0000E+00  9.1646E-02  9.4751E-03  3.0703E-02  0.0000E+00  1.3617E-03  2.1179E-01  1.2089E-03  0.0000E+00
 72  0.0000E+00  1.9166E-01  2.8787E-02  1.2266E-02  4.5390E-01  3.5822E-03  0.0000E+00  2.8234E-02  4.1226E-02
 73  0.0000E+00  1.0600E-01  2.9577E-03  0.0000E+00  3.7517E-02  1.8793E-03  0.0000E+00  0.0000E+00  4.8511E-04
 74  0.0000E+00  1.7438E-01  4.6728E-02  0.0000E+00  0.0000E+00  3.8027E-03  9.2757E-02  9.0931E-02  4.0607E-02
 75  0.0000E+00  1.7327E-01  6.4605E-02  0.0000E+00  3.7017E-02  2.6801E-02  0.0000E+00  4.7196E-02  5.7811E-02
 76  0.0000E+00  6.8551E-05  0.0000E+00  0.0000E+00  0.0000E+00  1.2142E-04  0.0000E+00  0.0000E+00  4.5455E-05
 77  0.0000E+00  3.6731E-05  1.8756E-05  0.0000E+00  0.0000E+00  4.7392E-07  0.0000E+00  0.0000E+00  1.3479E-05
 78  0.0000E+00  3.1838E-05  3.3795E-05  0.0000E+00  0.0000E+00  6.9744E-05  0.0000E+00  0.0000E+00  0.0000E+00
 79  0.0000E+00  1.6747E-04  0.0000E+00  2.3706E-04  0.0000E+00  8.9274E-05  7.5992E-04  2.4150E-05  0.0000E+00
 80  0.0000E+00  1.1383E-04  9.4333E-05  0.0000E+00  0.0000E+00  9.9883E-05  0.0000E+00  8.9554E-07  7.6154E-05
 81  0.0000E+00  2.1164E-04  5.6972E-05  1.7178E-03  0.0000E+00  1.0482E-04  0.0000E+00  0.0000E+00  1.6786E-05
 82  0.0000E+00  1.3836E-04  1.6061E-05  0.0000E+00  0.0000E+00  3.3940E-05  0.0000E+00  1.3979E-04  4.7067E-06
 83  0.0000E+00  6.4499E-04  5.0724E-05  0.0000E+00  0.0000E+00  7.8376E-06  0.0000E+00  1.9527E-04  1.3625E-04
 84  0.0000E+00  8.3463E-04  9.1097E-05  0.0000E+00  1.2898E-03  4.2053E-04  0.0000E+00  0.0000E+00  0.0000E+00
 85  0.0000E+00  8.2678E-04  1.8160E-04  0.0000E+00  1.9540E-03  9.6518E-05  0.0000E+00  5.3792E-04  0.0000E+00
 86  0.0000E+00  1.2413E-03  1.6830E-05  0.0000E+00  9.7353E-05  0.0000E+00  0.0000E+00  2.7329E-04  0.0000E+00
 87  0.0000E+00  1.9382E-03  4.3180E-04  1.4027E-03  3.1188E-03  0.0000E+00  0.0000E+00  0.0000E+00  0.0000E+00
 88  0.0000E+00  1.9935E-03  1.6729E-04  0.0000E+00  0.0000E+00  7.8395E-05  0.0000E+00  2.9014E-04  0.0000E+00
 89  0.0000E+00  4.0328E-03  0.0000E+00  0.0000E+00  0.0000E+00  4.5827E-05  2.1469E-02  2.6973E-04  2.0298E-04
 90  0.0000E+00  1.2912E-02  1.6485E-03  2.1133E-02  0.0000E+00  0.0000E+00  0.0000E+00  1.1381E-03  8.5760E-03
 91  0.0000E+00  2.2235E-02  6.1561E-04  5.2071E-02  7.0448E-02  0.0000E+00  3.7802E-02  3.2739E-03  1.1086E-03
 92  0.0000E+00  3.2231E-02  6.2851E-03  1.0895E-04  0.0000E+00  1.8258E-03  0.0000E+00  1.0076E-03  0.0000E+00
 93  0.0000E+00  8.4796E-02  1.5516E-02  0.0000E+00  0.0000E+00  1.6798E-02  1.9439E-02  4.4253E-03  0.0000E+00
 94  0.0000E+00  1.1633E-01  7.2710E-04  5.1146E-01  0.0000E+00  1.9502E-02  0.0000E+00  0.0000E+00  3.3094E-02
 95  1.7769E-01  1.1169E-01  1.8931E-02  5.2303E-01  0.0000E+00  4.4464E-02  0.0000E+00  4.6658E-03  2.0191E-02
 96  0.0000E+00  9.2585E-02  0.0000E+00  0.0000E+00  0.0000E+00  0.0000E+00  0.0000E+00  2.8329E-02  4.6273E-02
 97  0.0000E+00  1.4911E-01  0.0000E+00  0.0000E+00  2.3508E-02  5.1441E-02  0.0000E+00  1.4901E-02  1.3176E-02
 98  0.0000E+00  1.0417E-01  8.4022E-02  9.0214E-03  0.0000E+00  4.0346E-03  0.0000E+00  1.9455E-02  2.4799E-02
 99  2.2273E-04  7.3872E-02  6.8308E-03  0.0000E+00  0.0000E+00  9.4783E-02  0.0000E+00  3.9975E-02  0.0000E+00
100  0.0000E+00  1.0822E-01  7.1144E-02  0.0000E+00  6.3147E-01  0.0000E+00  1.3910E-01  1.4170E-02  0.0000E+00
101  0.0000E+00  2.2599E-05  0.0000E+00  1.5926E-05  0.0000E+00  0.0000E+00  0.0000E+00  2.3325E-06  1.0574E-05
102  0.0000E+00  1.6496E-05  1.8101E-05  0.0000E+00  0.0000E+00  2.1919E-05  0.0000E+00  6.1343E-05  2.4231E-05
103  0.0000E+00  5.6279E-05  6.5819E-05  0.0000E+00  0.0000E+00  8.7569E-06  0.0000E+00  2.8027E-05  2.0984E-05
104  0.0000E+00  9.2812E-05  3.0649E-05  1.8850E-05  2.5755E-04  0.0000E+00  0.0000E+00  2.1437E-05  8.9962E-05
105  0.0000E+00  6.9769E-05  3.6706E-05  0.0000E+00  0.0000E+00  0.0000E+00  0.0000E+00  0.0000E+00  0.0000E+00
106  0.0000E+00  7.9614E-05  0.0000E+00  1.7813E-04  0.0000E+00  6.0039E-05  0.0000E+00  1.6929E-05  6.2053E-05
107  0.0000E+00  2.1032E-04  1.0856E-05  0.0000E+00  0.0000E+00  2.6804E-04  0.0000E+00  1.7596E-04  1.9856E-05
108  0.0000E+00  2.8581E-04  9.4898E-05  0.0000E+00  0.0000E+00  6.6440E-05  0.0000E+00  0.0000E+00  1.6573E-04
109  0.0000E+00  4.5016E-04  0.0000E+00  0.0000E+00  0.0000E+00  0.0000E+00  0.0000E+00  2.1104E-04  1.3320E-04
110  0.0000E+00  4.6564E-04  2.7653E-04  0.0000E+00  0.0000E+00  0.0000E+00  1.9768E-03  4.2259E-04  0.0000E+00
111  0.0000E+00  1.0289E-03  1.0040E-04  0.0000E+00  0.0000E+00  5.3192E-04  0.0000E+00  1.8236E-04  0.0000E+00
112  0.0000E+00  1.8438E-03  1.0277E-03  2.3983E-03  0.0000E+00  2.1822E-04  1.6133E-03  8.1656E-04  1.7463E-04
113  0.0000E+00  1.8355E-03  0.0000E+00  2.7887E-03  0.0000E+00  6.9958E-04  0.0000E+00  2.9557E-04  2.6807E-04
114  0.0000E+00  5.6998E-03  1.1962E-03  0.0000E+00  1.5857E-02  3.6682E-04  0.0000E+00  1.2096E-03  0.0000E+00
115  0.0000E+00  2.3165E-02  0.0000E+00  0.0000E+00  0.0000E+00  3.2476E-03  0.0000E+00  0.0000E+00  5.6439E-03
116  0.0000E+00  3.5684E-02  2.3519E-04  1.3998E-02  0.0000E+00  7.4837E-03  0.0000E+00  0.0000E+00  6.9696E-03
117  0.0000E+00  3.8386E-02  0.0000E+00  0.0000E+00  0.0000E+00  5.7256E-03  0.0000E+00  0.0000E+00  1.2973E-03
118  0.0000E+00  4.2738E-02  2.3399E-04  6.1756E-02  8.4208E-03  6.3942E-03  3.7278E-02  1.8657E-02  0.0000E+00
119  0.0000E+00  6.8486E-02  1.5204E-02  0.0000E+00  0.0000E+00  2.9230E-02  0.0000E+00  2.6836E-02  1.6764E-02
120  0.0000E+00  7.8552E-02  0.0000E+00  0.0000E+00  4.0396E-01  3.1583E-02  0.0000E+00  7.7774E-03  2.0574E-02
121  0.0000E+00  6.7225E-02  0.0000E+00  0.0000E+00  0.0000E+00  0.0000E+00  0.0000E+00  9.4962E-04  4.7830E-02
122  0.0000E+00  4.9716E-02  6.3652E-02  0.0000E+00  0.0000E+00  2.5808E-03  0.0000E+00  8.9040E-02  2.3160E-02
123  0.0000E+00  9.4438E-02  4.5787E-02  0.0000E+00  0.0000E+00  2.6174E-02  0.0000E+00  7.0609E-02  9.4864E-02
124  0.0000E+00  1.1396E-01  4.3696E-02  0.0000E+00  0.0000E+00  0.0000E+00  0.0000E+00  1.3109E-02  5.3161E-02
125  0.0000E+00  4.3163E-02  0.0000E+00  0.0000E+00  0.0000E+00  1.1830E-01  0.0000E+00  0.0000E+00  0.0000E+00
126  0.0000E+00  2.3305E-05  1.4458E-05  0.0000E+00  0.0000E+00  3.8818E-05  0.0000E+00  3.1841E-05  6.6401E-05
127  0.0000E+00  3.5584E-05  1.6271E-07  0.0000E+00  0.0000E+00  2.5788E-05  0.0000E+00  7.9678E-06  2.1670E-06
128  0.0000E+00  2.5817E-05  1.8350E-05  8.7779E-05  0.0000E+00  8.7577E-07  0.0000E+00  2.9728E-05  6.1220E-05
129  0.0000E+00  4.0585E-05  0.0000E+00  0.0000E+00  0.0000E+00  0.0000E+00  0.0000E+00  0.0000E+00  1.9222E-05
130  0.0000E+00  5.8733E-05  6.1809E-05  0.0000E+00  1.2537E-04  1.2033E-04  0.0000E+00  0.0000E+00  2.2401E-05
131  0.0000E+00  6.6259E-05  0.0000E+00  0.0000E+00  6.5004E-05  0.0000E+00  0.0000E+00  1.6881E-06  6.0204E-06
132  0.0000E+00  1.0419E-04  1.6599E-04  0.0000E+00  0.0000E+00  5.6653E-06  0.0000E+00  0.0000E+00  1.3893E-04
133  0.0000E+00  2.0425E-04  0.0000E+00  0.0000E+00  0.0000E+00  1.2247E-04  0.0000E+00  4.9135E-04  1.6214E-04
134  0.0000E+00  4.2179E-04  1.5334E-04  0.0000E+00  7.2985E-05  2.5022E-04  0.0000E+00  0.0000E+00  6.5422E-05
135  0.0000E+00  6.8219E-04  2.4536E-04  0.0000E+00  0.0000E+00  2.0273E-04  0.0000E+00  0.0000E+00  5.7975E-05
136  0.0000E+00  1.0863E-03  2.0159E-04  0.0000E+00  0.0000E+00  1.4226E-04  3.3975E-04  2.1224E-05  5.5200E-04
137  0.0000E+00  1.5537E-03  7.0873E-05  0.0000E+00  0.0000E+00  2.4135E-04  3.4280E-03  0.0000E+00  6.7341E-04
138  0.0000E+00  3.4387E-03  7.6585E-04  0.0000E+00  0.0000E+00  1.3247E-04  0.0000E+00  7.3879E-04  3.2413E-04
139  0.0000E+00  1.4010E-02  4.1151E-04  0.0000E+00  3.7458E-02  1.4087E-03  0.0000E+00  0.0000E+00  1.5730E-03
140  0.0000E+00  4.3442E-02  2.2644E-03  1.4329E-01  1.4306E-02  3.7567E-04  0.0000E+00  1.3987E-03  5.4392E-05
141  5.1665E+00  4.7417E+00  5.1899E+00  5.0093E+00  4.8183E+00  5.1907E+00  4.8582E+00  5.1968E+00  5.1849E+00
142  0.0000E+00  6.1564E-02  0.0000E+00  1.7022E-01  0.0000E+00  2.4599E-03  1.0275E-02  1.0218E-02  3.5432E-05
143  0.0000E+00  4.4763E-02  1.2795E-03  0.0000E+00  2.4568E-01  2.3807E-03  0.0000E+00  4.4677E-03  0.0000E+00
144  0.0000E+00  3.6084E-02  1.2709E-02  0.0000E+00  0.0000E+00  0.0000E+00  0.0000E+00  5.9907E-03  4.4069E-02
145  0.0000E+00  2.3524E-02  0.0000E+00  0.0000E+00  0.0000E+00  1.1476E-02  0.0000E+00  0.0000E+00  4.4444E-02
146  0.0000E+00  3.0761E-02  8.0818E-02  0.0000E+00  0.0000E+00  3.0067E-02  0.0000E+00  3.7730E-02  0.0000E+00
147  0.0000E+00  2.4529E-02  1.2451E-02  0.0000E+00  0.0000E+00  0.0000E+00  0.0000E+00  7.1505E-02  0.0000E+00
148  0.0000E+00  3.2018E-02  0.0000E+00  0.0000E+00  0.0000E+00  1.1143E-01  0.0000E+00  4.6489E-02  1.0989E-02
149  0.0000E+00  9.3492E-02  8.0494E-02  0.0000E+00  0.0000E+00  1.5513E-01  0.0000E+00  1.9633E-01  0.0000E+00
150  0.0000E+00  5.1585E-02  1.6696E-01  5.4715E-03  0.0000E+00  4.7316E-02  0.0000E+00  2.8475E-01  2.4787E-01

# AV, chi2 & Mass for <> & i_chain = 1 ...  7 solutions
AV       0.0361      0.0374      0.0371      0.0386      0.0365      0.0387      0.0369      0.0370      0.0371
chi2 2.6569E+00  2.7217E+00  2.6824E+00  2.6864E+00  2.6843E+00  2.6795E+00  2.6799E+00  2.6865E+00  2.6834E+00
Mass 8.1643E-11  8.2049E-11  7.9076E-11  8.0587E-11  8.1428E-11  7.9122E-11  8.1064E-11  7.9265E-11  7.9074E-11
 -20.11                                  [v0_min (km/s) before EX0s...]
  68.82                                  [vd_min (km/s) before EX0s...]


## Synthetic spectrum (Best Model) ##l_obs f_obs f_syn wei
 3070    [Nl_obs]
 3359.00    0.27773   0.47890   -1.000
 3360.00    0.28337   0.46663   -1.000
 3361.00    0.28021   0.47760   -1.000
 3362.00    0.31403   0.50473   -1.000
 3363.00    0.33978   0.53450   -1.000
 3364.00    0.35171   0.55128   -1.000
 3365.00    0.36779   0.54995   -1.000
 3366.00    0.37499   0.53905   -1.000
 3367.00    0.36725   0.52652   -1.000
 3368.00    0.35529   0.51516   -1.000
 3369.00    0.34775   0.50339   -1.000
 3370.00    0.34895   0.48989   -1.000
 3371.00    0.33237   0.48144   -1.000
 3372.00    0.34175   0.48592   -1.000
 3373.00    0.34482   0.50421   -1.000
 3374.00    0.38619   0.52949   -1.000
 3375.00    0.40150   0.55234   -1.000
 3376.00    0.40941   0.56286   -1.000
 3377.00    0.42365   0.55774   -1.000
 3378.00    0.42570   0.54325   -1.000
 3379.00    0.42168   0.53143   -1.000
 3380.00    0.39395   0.52985   -1.000
 3381.00    0.41427   0.53649   -1.000
 3382.00    0.42031   0.54567   -1.000
 3383.00    0.42911   0.55378   -1.000
 3384.00    0.43819   0.56064   -1.000
 3385.00    0.44196   0.56472   -1.000
 3386.00    0.45619   0.56175   -1.000
 3387.00    0.44596   0.55460   -1.000
 3388.00    0.44449   0.55203   -1.000
 3389.00    0.47337   0.55635   -1.000
 3390.00    0.46808   0.56143   -1.000
 3391.00    0.45977   0.56038   -1.000
 3392.00    0.45294   0.55307   -1.000
 3393.00    0.44095   0.54960   -1.000
 3394.00    0.45846   0.55680   -1.000
 3395.00    0.47560   0.57197   -1.000
 3396.00    0.49850   0.58904   -1.000
 3397.00    0.48642   0.60272   -1.000
 3398.00    0.49283   0.61028   -1.000
 3399.00    0.50204   0.60943   -1.000
 3400.00    0.51175   0.60047   -1.000
 3401.00    0.49701   0.58506   -1.000
 3402.00    0.48288   0.56836   -1.000
 3403.00    0.48709   0.55821   -1.000
 3404.00    0.48476   0.55591   -1.000
 3405.00    0.48041   0.55723   -1.000
 3406.00    0.47802   0.55481   -1.000
 3407.00    0.47412   0.54771   -1.000
 3408.00    0.46455   0.54271   -1.000
 3409.00    0.46434   0.54629   -1.000
 3410.00    0.49415   0.55379   -1.000
 3411.00    0.50340   0.55542   -1.000
 3412.00    0.49171   0.55039   -1.000
 3413.00    0.49435   0.54481   -1.000
 3414.00    0.48815   0.54664   -1.000
 3415.00    0.48159   0.55652   -1.000
 3416.00    0.49694   0.56895   -1.000
 3417.00    0.49849   0.58058   -1.000
 3418.00    0.51209   0.59067   -1.000
 3419.00    0.52348   0.59830   -1.000
 3420.00    0.53793   0.60108   -1.000
 3421.00    0.53269   0.59580   -1.000
 3422.00    0.51748   0.58368   -1.000
 3423.00    0.52583   0.57210   -1.000
 3424.00    0.52479   0.56780   -1.000
 3425.00    0.52111   0.57083   -1.000
 3426.00    0.54230   0.57841   -1.000
 3427.00    0.54533   0.59096   -1.000
 3428.00    0.55040   0.60746   -1.000
 3429.00    0.56076   0.62013   -1.000
 3430.00    0.55232   0.61906   -1.000
 3431.00    0.55679   0.60379   -1.000
 3432.00    0.55301   0.58754   -1.000
 3433.00    0.54139   0.58320   -1.000
 3434.00    0.54351   0.59249   -1.000
 3435.00    0.55219   0.60401   -1.000
 3436.00    0.55807   0.60526   -1.000
 3437.00    0.54190   0.59482   -1.000
 3438.00    0.54132   0.57767   -1.000
 3439.00    0.50740   0.55782   -1.000
 3440.00    0.50337   0.53801   -1.000
 3441.00    0.49717   0.52275   -1.000
 3442.00    0.49832   0.51712   -1.000
 3443.00    0.49095   0.52150   -1.000
 3444.00    0.50564   0.53299   -1.000
 3445.00    0.51723   0.54963   -1.000
 3446.00    0.54476   0.57092   -1.000
 3447.00    0.55591   0.59319   -1.000
 3448.00    0.56638   0.60977   -1.000
 3449.00    0.56306   0.61313   -1.000
 3450.00    0.58017   0.60032   -1.000
 3451.00    0.57005   0.58000   -1.000
 3452.00    0.54778   0.56501   -1.000
 3453.00    0.55863   0.56198 1167.769
 3454.00    0.57089   0.56821   -1.000
 3455.00    0.57014   0.57623   -1.000
 3456.00    0.57972   0.57930 1167.769
 3457.00    0.58221   0.57537  151.677
 3458.00    0.57949   0.56660  150.068
 3459.00    0.56550   0.55587  149.109
 3460.00    0.55823   0.54706   -1.000
 3461.00    0.56465   0.54715   -1.000
 3462.00    0.56274   0.55775   -1.000
 3463.00    0.58489   0.56963   -1.000
 3464.00    0.59603   0.57407   -1.000
 3465.00    0.60356   0.57284   -1.000
 3466.00    0.58789   0.57492   -1.000
 3467.00    0.59577   0.58456   -1.000
 3468.00    0.59834   0.59808 1167.769
 3469.00    0.61032   0.60855 1167.769
 3470.00    0.62081   0.61066   -1.000
 3471.00    0.59878   0.60385   -1.000
 3472.00    0.58674   0.58994   -1.000
 3473.00    0.58431   0.57095  151.681
 3474.00    0.56788   0.55298  154.907
 3475.00    0.55912   0.54340  151.550
 3476.00    0.54919   0.54648   -1.000
 3477.00    0.56098   0.56023 1167.769
 3478.00    0.58207   0.57668   -1.000
 3479.00    0.59791   0.59043   -1.000
 3480.00    0.60931   0.59867   -1.000
 3481.00    0.61176   0.59917   -1.000
 3482.00    0.59789   0.59395   -1.000
 3483.00    0.59532   0.58890   -1.000
 3484.00    0.60585   0.59039   -1.000
 3485.00    0.62358   0.59998   -1.000
 3486.00    0.62056   0.60961   -1.000
 3487.00    0.62295   0.60962   -1.000
 3488.00    0.62568   0.59860   -1.000
 3489.00    0.60121   0.58263   -1.000
 3490.00    0.58784   0.57258   -1.000
 3491.00    0.57659   0.57428   -1.000
 3492.00    0.58882   0.58102   -1.000
 3493.00    0.59811   0.58267   -1.000
 3494.00    0.58681   0.57617   -1.000
 3495.00    0.58418   0.56532   -1.000
 3496.00    0.58270   0.55918   -1.000
 3497.00    0.57681   0.56397   -1.000
 3498.00    0.59882   0.57552   -1.000
 3499.00    0.61730   0.58553   -1.000
 3500.00    0.61044   0.58907   -1.000
 3501.00    0.61929   0.58991   -1.000
 3502.00    0.62418   0.59278   -1.000
 3503.00    0.63430   0.59501   -1.000
 3504.00    0.62180   0.59237   -1.000
 3505.00    0.61059   0.58566   -1.000
 3506.00    0.60727   0.57982   -1.000
 3507.00    0.62522   0.57715   -1.000
 3508.00    0.62670   0.57653   -1.000
 3509.00    0.61959   0.57568   -1.000
 3510.00    0.61642   0.57273   -1.000
 3511.00    0.59772   0.56800   -1.000
 3512.00    0.59578   0.56226   -1.000
 3513.00    0.59672   0.55878   -1.000
 3514.00    0.59492   0.56282   -1.000
 3515.00    0.60174   0.57698   -1.000
 3516.00    0.62422   0.59696   -1.000
 3517.00    0.63306   0.61132   -1.000
 3518.00    0.62077   0.61130   -1.000
 3519.00    0.61778   0.59849   -1.000
 3520.00    0.61565   0.58256   -1.000
 3521.00    0.60118   0.57062   -1.000
 3522.00    0.58139   0.56192   -1.000
 3523.00    0.57903   0.55240   -1.000
 3524.00    0.56509   0.54220   -1.000
 3525.00    0.54889   0.53830   -1.000
 3526.00    0.55260   0.54644   -1.000
 3527.00    0.57256   0.56369   -1.000
 3528.00    0.59937   0.58333   -1.000
 3529.00    0.60396   0.59869   -1.000
 3530.00    0.61083   0.60657   -1.000
 3531.00    0.60245   0.60760   -1.000
 3532.00    0.59714   0.60279   -1.000
 3533.00    0.61282   0.59549   -1.000
 3534.00    0.61179   0.59138   -1.000
 3535.00    0.62450   0.59459   -1.000
 3536.00    0.62604   0.60520   -1.000
 3537.00    0.62647   0.61804   -1.000
 3538.00    0.62438   0.62789   -1.000
 3539.00    0.62128   0.63227   -1.000
 3540.00    0.62884   0.63130 1167.769
 3541.00    0.60200   0.62888   -1.000
 3542.00    0.60463   0.62971   -1.000
 3543.00    0.62878   0.63428   -1.000
 3544.00    0.63958   0.63785 1167.769
 3545.00    0.64554   0.63677   -1.000
 3546.00    0.64015   0.63280   -1.000
 3547.00    0.62437   0.62954   -1.000
 3548.00    0.63795   0.62948   -1.000
 3549.00    0.63085   0.63259 1167.769
 3550.00    0.62510   0.63643   -1.000
 3551.00    0.61387   0.63663   -1.000
 3552.00    0.61704   0.63033   -1.000
 3553.00    0.60111   0.62137   -1.000
 3554.00    0.59350   0.61640   -1.000
 3555.00    0.61264   0.61796   -1.000
 3556.00    0.61394   0.62407   -1.000
 3557.00    0.60426   0.63037   -1.000
 3558.00    0.60031   0.63292   -1.000
 3559.00    0.59851   0.63265   -1.000
 3560.00    0.61506   0.63330   -1.000
 3561.00    0.62512   0.63514   -1.000
 3562.00    0.61105   0.63285   -1.000
 3563.00    0.60512   0.62054  149.749
 3564.00    0.58873   0.59965  155.637
 3565.00    0.55664   0.57995   -1.000
 3566.00    0.54274   0.56945   -1.000
 3567.00    0.55826   0.56725  158.395
 3568.00    0.57052   0.56612  160.974
 3569.00    0.55531   0.56030  155.743
 3570.00    0.54096   0.55188  154.343
 3571.00    0.54147   0.54737   -1.000
 3572.00    0.54361   0.54884   -1.000
 3573.00    0.56403   0.55330   -1.000
 3574.00    0.55960   0.55894 1167.769
 3575.00    0.56687   0.56594 1167.769
 3576.00    0.57880   0.57351   -1.000
 3577.00    0.58007   0.57929  155.053
 3578.00    0.57655   0.57876  167.339
 3579.00    0.57991   0.56956  176.122
 3580.00    0.55607   0.55622  177.149
 3581.00    0.53823   0.54544  178.043
 3582.00    0.53536   0.54118  182.666
 3583.00    0.53679   0.54006  188.571
 3584.00    0.54025   0.53315  190.586
 3585.00    0.51761   0.51894  180.769
 3586.00    0.50995   0.50659  171.161
 3587.00    0.51605   0.50611  162.517
 3588.00    0.52410   0.51987  155.345
 3589.00    0.55130   0.54213   -1.000
 3590.00    0.56959   0.56383   -1.000
 3591.00    0.58692   0.57846   -1.000
 3592.00    0.58570   0.58531 1167.769
 3593.00    0.60284   0.58886   -1.000
 3594.00    0.59484   0.59488 1167.769
 3595.00    0.59207   0.60494   -1.000
 3596.00    0.60290   0.61536   -1.000
 3597.00    0.61413   0.62298   -1.000
 3598.00    0.61545   0.62729   -1.000
 3599.00    0.61437   0.62773   -1.000
 3600.00    0.62330   0.62153 1167.769
 3601.00    0.61041   0.60817 1167.769
 3602.00    0.58792   0.59345   -1.000
 3603.00    0.59145   0.58451   -1.000
 3604.00    0.58967   0.58408   -1.000
 3605.00    0.58169   0.58714   -1.000
 3606.00    0.58783   0.58706 1167.769
 3607.00    0.58761   0.58229   -1.000
 3608.00    0.57535   0.57581 1167.769
 3609.00    0.57435   0.57224 1167.769
 3610.00    0.57448   0.57352 1167.769
 3611.00    0.59659   0.57846   -1.000
 3612.00    0.59494   0.58507   -1.000
 3613.00    0.59069   0.59293 1167.769
 3614.00    0.59179   0.60388   -1.000
 3615.00    0.60572   0.61406   -1.000
 3616.00    0.60390   0.61341   -1.000
 3617.00    0.58551   0.59989  156.436
 3618.00    0.56841   0.58338   -1.000
 3619.00    0.56396   0.57719   -1.000
 3620.00    0.57495   0.58581   -1.000
 3621.00    0.59088   0.60121   -1.000
 3622.00    0.59644   0.61440   -1.000
 3623.00    0.61647   0.62374   -1.000
 3624.00    0.61740   0.63438   -1.000
 3625.00    0.62856   0.65037   -1.000
 3626.00    0.64114   0.66799   -1.000
 3627.00    0.64785   0.67692   -1.000
 3628.00    0.64955   0.66734   -1.000
 3629.00    0.61962   0.64012   -1.000
 3630.00    0.59069   0.60812   -1.000
 3631.00    0.56854   0.58787   -1.000
 3632.00    0.57594   0.58700   -1.000
 3633.00    0.58342   0.59914   -1.000
 3634.00    0.59000   0.61148   -1.000
 3635.00    0.60016   0.61774   -1.000
 3636.00    0.62206   0.62267 1103.829
 3637.00    0.63533   0.63204   -1.000
 3638.00    0.64113   0.64410 1071.221
 3639.00    0.64541   0.65257   -1.000
 3640.00    0.64302   0.65254   -1.000
 3641.00    0.61102   0.64352   -1.000
 3642.00    0.60529   0.62939   -1.000
 3643.00    0.60726   0.61620   -1.000
 3644.00    0.59761   0.60759   -1.000
 3645.00    0.59776   0.60297   -1.000
 3646.00    0.59728   0.60048   -1.000
 3647.00    0.58596   0.59967   -1.000
 3648.00    0.58527   0.60052   -1.000
 3649.00    0.59575   0.60344   -1.000
 3650.00    0.60033   0.60972   -1.000
 3651.00    0.61229   0.62017   -1.000
 3652.00    0.62977   0.63346   -1.000
 3653.00    0.63264   0.64658   -1.000
 3654.00    0.64403   0.65802   -1.000
 3655.00    0.64922   0.66781   -1.000
 3656.00    0.65139   0.67529   -1.000
 3657.00    0.66299   0.67924   -1.000
 3658.00    0.66089   0.67955   -1.000
 3659.00    0.65182   0.67701   -1.000
 3660.00    0.64728   0.67167   -1.000
 3661.00    0.63815   0.66418   -1.000
 3662.00    0.63753   0.65690   -1.000
 3663.00    0.64231   0.65289   -1.000
 3664.00    0.65162   0.65343 1054.263
 3665.00    0.64473   0.65597   -1.000
 3666.00    0.65022   0.65664   -1.000
 3667.00    0.65115   0.65320 1113.217
 3668.00    0.63060   0.64713   -1.000
 3669.00    0.61260   0.64352   -1.000
 3670.00    0.61999   0.64579   -1.000
 3671.00    0.63345   0.65336   -1.000
 3672.00    0.63883   0.66163   -1.000
 3673.00    0.64180   0.66527   -1.000
 3674.00    0.63925   0.66249   -1.000
 3675.00    0.63981   0.65377   -1.000
 3676.00    0.63129   0.64070   -1.000
 3677.00    0.61813   0.62715   -1.000
 3678.00    0.61061   0.61842   -1.000
 3679.00    0.61241   0.61748   -1.000
 3680.00    0.61603   0.62210   -1.000
 3681.00    0.62176   0.62812   -1.000
 3682.00    0.62360   0.63220   -1.000
 3683.00    0.62157   0.63175   -1.000
 3684.00    0.62950   0.62571   -1.000
 3685.00    0.61900   0.61632   -1.000
 3686.00    0.59212   0.61077   -1.000
 3687.00    0.58846   0.61639   -1.000
 3688.00    0.60137   0.63345   -1.000
 3689.00    0.63640   0.65293   -1.000
 3690.00    0.64931   0.66525   -1.000
 3691.00    0.63722   0.66876   -1.000
 3692.00    0.65836   0.66849   -1.000
 3693.00    0.66325   0.66901   -1.000
 3694.00    0.64819   0.66991   -1.000
 3695.00    0.65870   0.66819   -1.000
 3696.00    0.66031   0.66429   -1.000
 3697.00    0.65889   0.66614   -1.000
 3698.00    0.67654   0.68041   -1.000
 3699.00    0.69016   0.70144   -1.000
 3700.00    0.69227   0.71335   -1.000
 3701.00    0.68294   0.70156   -1.000
 3702.00    0.66377   0.66698   -1.000
 3703.00    0.61220   0.62530   -1.000
 3704.00    0.58074   0.59507   -1.000
 3705.00    0.56635   0.58676   -1.000
 3706.00    0.59112   0.59718   -1.000
 3707.00    0.61832   0.61435   -1.000
 3708.00    0.62417   0.62569 1141.967
 3709.00    0.62588   0.62492 1088.231
 3710.00    0.61725   0.61671 1027.243
 3711.00    0.61766   0.61342   -1.000
 3712.00    0.62489   0.62530  959.864
 3713.00    0.65563   0.65326  960.636
 3714.00    0.69094   0.68766   -1.000
 3715.00    0.71444   0.71515 1039.723
 3716.00    0.71883   0.72752   -1.000
 3717.00    0.71320   0.72027   -1.000
 3718.00    0.68290   0.68893   -1.000
 3719.00    0.62138   0.63632  168.908
 3720.00    0.57023   0.58079   -1.000
 3721.00    0.54225   0.54775   -1.000
 3722.00    0.54917   0.55145 1107.213
 3723.00    0.59166   0.58910   -1.000
 3724.00    0.65698   0.64179   -1.000
 3725.00    0.69050   0.68353   -1.000
 3726.00    0.69718   0.70413   -1.000
 3727.00    0.70001   0.71238   -1.000
 3728.00    0.69685   0.71769   -1.000
 3729.00    0.69905   0.71869   -1.000
 3730.00    0.69469   0.70460   -1.000
 3731.00    0.66126   0.66555  149.644
 3732.00    0.61022   0.60671  166.257
 3733.00    0.54140   0.54789  170.356
 3734.00    0.50056   0.50983  160.604
 3735.00    0.50874   0.50619  167.081
 3736.00    0.54073   0.53740   -1.000
 3737.00    0.58603   0.59060   -1.000
 3738.00    0.64578   0.65008   -1.000
 3739.00    0.68837   0.70170   -1.000
 3740.00    0.71119   0.73295   -1.000
 3741.00    0.72316   0.73967   -1.000
 3742.00    0.70904   0.72773   -1.000
 3743.00    0.69499   0.70658   -1.000
 3744.00    0.68081   0.68179  655.989
 3745.00    0.65686   0.65427  150.905
 3746.00    0.62201   0.62184  159.620
 3747.00    0.58638   0.58334  183.861
 3748.00    0.53545   0.54477   -1.000
 3749.00    0.51441   0.52076   -1.000
 3750.00    0.53093   0.52709   -1.000
 3751.00    0.57345   0.56702   -1.000
 3752.00    0.63423   0.62707   -1.000
 3753.00    0.68807   0.68728  989.639
 3754.00    0.72705   0.73177   -1.000
 3755.00    0.75620   0.75244   -1.000
 3756.00    0.75906   0.74735   -1.000
 3757.00    0.71800   0.72445   -1.000
 3758.00    0.68194   0.70078   -1.000
 3759.00    0.67993   0.69018   -1.000
 3760.00    0.70759   0.69468   -1.000
 3761.00    0.73984   0.70763   -1.000
 3762.00    0.74122   0.72034   -1.000
 3763.00    0.74546   0.72647   -1.000
 3764.00    0.74634   0.72313   -1.000
 3765.00    0.72896   0.71015   -1.000
 3766.00    0.70380   0.68807   -1.000
 3767.00    0.66582   0.65669   -1.000
 3768.00    0.63721   0.61919   -1.000
 3769.00    0.60544   0.58523   -1.000
 3770.00    0.58162   0.56966   -1.000
 3771.00    0.59952   0.58363   -1.000
 3772.00    0.64222   0.62194   -1.000
 3773.00    0.68809   0.66627   -1.000
 3774.00    0.71573   0.70115   -1.000
 3775.00    0.72478   0.72466 1014.131
 3776.00    0.74853   0.74456   -1.000
 3777.00    0.77414   0.76803   -1.000
 3778.00    0.79042   0.79473   -1.000
 3779.00    0.80515   0.81986   -1.000
 3780.00    0.83739   0.83874  933.714
 3781.00    0.85999   0.84833   -1.000
 3782.00    0.85567   0.84915   -1.000
 3783.00    0.83653   0.84369   -1.000
 3784.00    0.82630   0.83240   -1.000
 3785.00    0.81744   0.81432   -1.000
 3786.00    0.79859   0.79190   -1.000
 3787.00    0.78147   0.77168   -1.000
 3788.00    0.78002   0.76021   -1.000
 3789.00    0.77187   0.75762   -1.000
 3790.00    0.77366   0.75770   -1.000
 3791.00    0.76715   0.75266   -1.000
 3792.00    0.74734   0.73691   -1.000
 3793.00    0.71491   0.70831   -1.000
 3794.00    0.67208   0.66831   -1.000
 3795.00    0.63361   0.62169   -1.000
 3796.00    0.59045   0.57532   -1.000
 3797.00    0.55148   0.54095   -1.000
 3798.00    0.54826   0.53545   -1.000
 3799.00    0.58150   0.56817   -1.000
 3800.00    0.64170   0.62892   -1.000
 3801.00    0.69543   0.69468 1043.515
 3802.00    0.74849   0.74679 1041.714
 3803.00    0.77123   0.77903   -1.000
 3804.00    0.78875   0.79386   -1.000
 3805.00    0.79924   0.79664   -1.000
 3806.00    0.79904   0.79740 1079.329
 3807.00    0.80478   0.80616 1042.276
 3808.00    0.81644   0.82471   -1.000
 3809.00    0.84373   0.84556 1064.121
 3810.00    0.84686   0.85647   -1.000
 3811.00    0.83338   0.84792   -1.000
 3812.00    0.82599   0.82153   -1.000
 3813.00    0.81259   0.79058   -1.000
 3814.00    0.79001   0.77078   -1.000
 3815.00    0.78296   0.77038   -1.000
 3816.00    0.79335   0.78412   -1.000
 3817.00    0.82061   0.79716   -1.000
 3818.00    0.82366   0.79616   -1.000
 3819.00    0.79706   0.78108   -1.000
 3820.00    0.76556   0.76567 1167.769
 3821.00    0.76953   0.76162   -1.000
 3822.00    0.79115   0.76403   -1.000
 3823.00    0.77869   0.75710   -1.000
 3824.00    0.74826   0.73614  157.706
 3825.00    0.72110   0.71256  156.029
 3826.00    0.70555   0.69644  153.470
 3827.00    0.70084   0.68735  151.777
 3828.00    0.70119   0.67988   -1.000
 3829.00    0.69710   0.66910   -1.000
 3830.00    0.67607   0.65010   -1.000
 3831.00    0.64046   0.61857   -1.000
 3832.00    0.59466   0.57438   -1.000
 3833.00    0.55314   0.52669   -1.000
 3834.00    0.52707   0.49171   -1.000
 3835.00    0.51524   0.48047   -1.000
 3836.00    0.53180   0.49360   -1.000
 3837.00    0.56564   0.52404   -1.000
 3838.00    0.59603   0.56188   -1.000
 3839.00    0.63383   0.60124   -1.000
 3840.00    0.66683   0.64232   -1.000
 3841.00    0.70400   0.68538   -1.000
 3842.00    0.74433   0.72747   -1.000
 3843.00    0.77116   0.76351   -1.000
 3844.00    0.79056   0.78971 1167.769
 3845.00    0.81077   0.80773   -1.000
 3846.00    0.82639   0.82141   -1.000
 3847.00    0.82990   0.83046 1167.769
 3848.00    0.82608   0.83231   -1.000
 3849.00    0.81738   0.82970   -1.000
 3850.00    0.81440   0.83125   -1.000
 3851.00    0.82647   0.84208   -1.000
 3852.00    0.84263   0.85671   -1.000
 3853.00    0.84803   0.86466   -1.000
 3854.00    0.84947   0.86122   -1.000
 3855.00    0.84854   0.84963  511.898
 3856.00    0.83311   0.83572  148.282
 3857.00    0.81969   0.82286  155.081
 3858.00    0.80228   0.81322  185.572
 3859.00    0.78993   0.81187   -1.000
 3860.00    0.80221   0.82269   -1.000
 3861.00    0.83122   0.84170   -1.000
 3862.00    0.86076   0.85887 1167.769
 3863.00    0.87583   0.86690   -1.000
 3864.00    0.87774   0.86663   -1.000
 3865.00    0.86873   0.86396   -1.000
 3866.00    0.85816   0.86425   -1.000
 3867.00    0.85172   0.86810   -1.000
 3868.00    0.85315   0.87006   -1.000
 3869.00    0.84243   0.86278   -1.000
 3870.00    0.82170   0.84431   -1.000
 3871.00    0.79619   0.82046   -1.000
 3872.00    0.77632   0.80228   -1.000
 3873.00    0.78473   0.79902   -1.000
 3874.00    0.80918   0.80843 1167.769
 3875.00    0.83068   0.81629   -1.000
 3876.00    0.82732   0.80973   -1.000
 3877.00    0.79517   0.79117   -1.000
 3878.00    0.76479   0.77482   -1.000
 3879.00    0.75285   0.76984   -1.000
 3880.00    0.75546   0.77114   -1.000
 3881.00    0.74963   0.76760   -1.000
 3882.00    0.74108   0.75523   -1.000
 3883.00    0.73088   0.73548   -1.000
 3884.00    0.72667   0.70635   -1.000
 3885.00    0.70253   0.66402   -1.000
 3886.00    0.64909   0.61159   -1.000
 3887.00    0.59825   0.56264   -1.000
 3888.00    0.56601   0.53489   -1.000
 3889.00    0.56921   0.54036   -1.000
 3890.00    0.61101   0.57827   -1.000
 3891.00    0.66642   0.63266   -1.000
 3892.00    0.71787   0.68146   -1.000
 3893.00    0.73651   0.71333   -1.000
 3894.00    0.74063   0.73228   -1.000
 3895.00    0.76512   0.74787   -1.000
 3896.00    0.78793   0.76465   -1.000
 3897.00    0.79854   0.77973   -1.000
 3898.00    0.80408   0.78910   -1.000
 3899.00    0.81020   0.79523   -1.000
 3900.00    0.82458   0.80413   -1.000
 3901.00    0.84222   0.81519   -1.000
 3902.00    0.84900   0.82211   -1.000
 3903.00    0.83856   0.82137   -1.000
 3904.00    0.83496   0.81651   -1.000
 3905.00    0.82924   0.81561   -1.000
 3906.00    0.82424   0.82576  931.144
 3907.00    0.84922   0.84876  913.083
 3908.00    0.87752   0.87749  905.003
 3909.00    0.89508   0.90081   -1.000
 3910.00    0.91235   0.91277  895.655
 3911.00    0.91644   0.91370  908.543
 3912.00    0.90919   0.90603   -1.000
 3913.00    0.90302   0.89363   -1.000
 3914.00    0.88491   0.88282  959.790
 3915.00    0.88035   0.87788  976.300
 3916.00    0.89501   0.87646   -1.000
 3917.00    0.88807   0.87328   -1.000
 3918.00    0.86860   0.86617   -1.000
 3919.00    0.85700   0.85754 1112.638
 3920.00    0.84876   0.85147 1099.265
 3921.00    0.85159   0.85002 1085.740
 3922.00    0.85283   0.85230 1105.875
 3923.00    0.85053   0.85436   -1.000
 3924.00    0.84757   0.85042 1167.769
 3925.00    0.83544   0.83485  497.933
 3926.00    0.81441   0.80543  169.818
 3927.00    0.77337   0.76384  199.066
 3928.00    0.71194   0.71222  233.482
 3929.00    0.65623   0.65079  275.730
 3930.00    0.58576   0.57678   -1.000
 3931.00    0.50293   0.49210   -1.000
 3932.00    0.43389   0.41342   -1.000
 3933.00    0.39007   0.36870   -1.000
 3934.00    0.40407   0.37897   -1.000
 3935.00    0.47468   0.43992   -1.000
 3936.00    0.56364   0.52639   -1.000
 3937.00    0.64317   0.61451   -1.000
 3938.00    0.70525   0.69057   -1.000
 3939.00    0.75133   0.74821   -1.000
 3940.00    0.78708   0.78640 1167.769
 3941.00    0.81038   0.80730   -1.000
 3942.00    0.81587   0.81643 1161.189
 3943.00    0.81044   0.82183   -1.000
 3944.00    0.81249   0.82971   -1.000
 3945.00    0.83679   0.84140   -1.000
 3946.00    0.86156   0.85267   -1.000
 3947.00    0.87342   0.85818   -1.000
 3948.00    0.87216   0.85767   -1.000
 3949.00    0.87897   0.85478   -1.000
 3950.00    0.88466   0.85227   -1.000
 3951.00    0.88013   0.85133   -1.000
 3952.00    0.86593   0.85381   -1.000
 3953.00    0.87440   0.85885   -1.000
 3954.00    0.87961   0.86048   -1.000
 3955.00    0.87637   0.85424   -1.000
 3956.00    0.85747   0.84325   -1.000
 3957.00    0.84924   0.83479   -1.000
 3958.00    0.84916   0.82947   -1.000
 3959.00    0.84099   0.81807   -1.000
 3960.00    0.81253   0.79316   -1.000
 3961.00    0.77133   0.75692   -1.000
 3962.00    0.72486   0.71635  160.325
 3963.00    0.68517   0.67342  190.533
 3964.00    0.63650   0.62012   -1.000
 3965.00    0.56725   0.54788   -1.000
 3966.00    0.46778   0.45921  295.378
 3967.00    0.37395   0.37289  264.249
 3968.00    0.31596   0.31701  217.306
 3969.00    0.31651   0.31155  179.486
 3970.00    0.36636   0.35615  206.772
 3971.00    0.45405   0.43314   -1.000
 3972.00    0.54720   0.51892   -1.000
 3973.00    0.62122   0.59724   -1.000
 3974.00    0.67687   0.66303   -1.000
 3975.00    0.73948   0.71677   -1.000
 3976.00    0.78550   0.76036   -1.000
 3977.00    0.81369   0.79623   -1.000
 3978.00    0.84008   0.82605   -1.000
 3979.00    0.86216   0.84769   -1.000
 3980.00    0.87940   0.85831   -1.000
 3981.00    0.87974   0.86069   -1.000
 3982.00    0.88173   0.86294   -1.000
 3983.00    0.88679   0.87164   -1.000
 3984.00    0.91429   0.88604   -1.000
 3985.00    0.92316   0.90033   -1.000
 3986.00    0.92904   0.91109   -1.000
 3987.00    0.94361   0.92010   -1.000
 3988.00    0.94935   0.92846   -1.000
 3989.00    0.95157   0.93543   -1.000
 3990.00    0.95088   0.94252   -1.000
 3991.00    0.96609   0.95154   -1.000
 3992.00    0.97698   0.96094   -1.000
 3993.00    0.98725   0.96569   -1.000
 3994.00    0.97655   0.96125   -1.000
 3995.00    0.95394   0.94809   -1.000
 3996.00    0.94134   0.93348   -1.000
 3997.00    0.93710   0.92719   -1.000
 3998.00    0.94337   0.93330   -1.000
 3999.00    0.96439   0.94756   -1.000
 4000.00    0.98732   0.96194   -1.000
 4001.00    0.99511   0.96992   -1.000
 4002.00    0.99144   0.96867   -1.000
 4003.00    0.99611   0.95857   -1.000
 4004.00    0.97562   0.94357   -1.000
 4005.00    0.94922   0.93381   -1.000
 4006.00    0.94480   0.93862   -1.000
 4007.00    0.96501   0.95609   -1.000
 4008.00    0.98357   0.97548   -1.000
 4009.00    0.99474   0.98791   -1.000
 4010.00    0.99681   0.99210   -1.000
 4011.00    0.99443   0.99121  715.126
 4012.00    0.98862   0.98923  708.082
 4013.00    0.99622   0.98972   -1.000
 4014.00    1.00205   0.99353   -1.000
 4015.00    1.00938   0.99885   -1.000
 4016.00    1.01050   1.00394   -1.000
 4017.00    1.00408   1.00910   -1.000
 4018.00    1.00461   1.01511   -1.000
 4019.00    1.01541   1.02032   -1.000
 4020.00    1.02415   1.02119  719.243
 4021.00    1.01035   1.01601   -1.000
 4022.00    1.00019   1.00672   -1.000
 4023.00    0.99499   0.99719  701.605
 4024.00    0.98251   0.99260   -1.000
 4025.00    0.98792   0.99736   -1.000
 4026.00    1.00709   1.00902  685.324
 4027.00    1.01443   1.01688  719.887
 4028.00    1.01084   1.01190  764.289
 4029.00    0.99442   0.99479  789.000
 4030.00    0.96751   0.97372   -1.000
 4031.00    0.95210   0.95857   -1.000
 4032.00    0.94905   0.95463   -1.000
 4033.00    0.94815   0.96138   -1.000
 4034.00    0.96205   0.97655   -1.000
 4035.00    0.98948   0.99778   -1.000
 4036.00    1.01448   1.02118   -1.000
 4037.00    1.02819   1.03955   -1.000
 4038.00    1.03560   1.04629   -1.000
 4039.00    1.02397   1.04230   -1.000
 4040.00    1.01297   1.03422   -1.000
 4041.00    1.01228   1.02616   -1.000
 4042.00    1.01252   1.01451  827.247
 4043.00    0.99841   0.99306   -1.000
 4044.00    0.96104   0.96603   -1.000
 4045.00    0.92880   0.94877   -1.000
 4046.00    0.93165   0.95391   -1.000
 4047.00    0.96631   0.97834   -1.000
 4048.00    0.99629   1.00583   -1.000
 4049.00    1.00860   1.02323   -1.000
 4050.00    1.01059   1.02861   -1.000
 4051.00    1.00857   1.02502   -1.000
 4052.00    1.00697   1.01553   -1.000
 4053.00    1.00245   1.00502  738.933
 4054.00    0.98758   0.99806   -1.000
 4055.00    0.98914   0.99524   -1.000
 4056.00    0.99722   0.99517  731.893
 4057.00    0.99123   0.99849   -1.000
 4058.00    0.99159   1.00690   -1.000
 4059.00    1.00000   1.01591   -1.000
 4060.00    1.00646   1.01516   -1.000
 4061.00    1.00033   1.00016  814.883
 4062.00    0.97099   0.97707   -1.000
 4063.00    0.94643   0.95700   -1.000
 4064.00    0.94802   0.94806  739.404
 4065.00    0.96133   0.95084   -1.000
 4066.00    0.97160   0.95971   -1.000
 4067.00    0.97464   0.96878   -1.000
 4068.00    0.98830   0.97407   -1.000
 4069.00    1.00019   0.97151   -1.000
 4070.00    0.98684   0.96018   -1.000
 4071.00    0.96561   0.94750   -1.000
 4072.00    0.96567   0.94334   -1.000
 4073.00    0.97683   0.94730   -1.000
 4074.00    0.97953   0.94768   -1.000
 4075.00    0.96293   0.93501   -1.000
 4076.00    0.94105   0.91373   -1.000
 4077.00    0.92481   0.89894   -1.000
 4078.00    0.92667   0.90343   -1.000
 4079.00    0.95300   0.92602   -1.000
 4080.00    0.97815   0.95201   -1.000
 4081.00    0.98257   0.96672   -1.000
 4082.00    0.98132   0.96622   -1.000
 4083.00    0.97804   0.95651   -1.000
 4084.00    0.96358   0.94715   -1.000
 4085.00    0.95916   0.94533   -1.000
 4086.00    0.97004   0.95245   -1.000
 4087.00    0.98270   0.96380   -1.000
 4088.00    0.98495   0.97214   -1.000
 4089.00    0.98317   0.97268   -1.000
 4090.00    0.97229   0.96631   -1.000
 4091.00    0.95776   0.95682  689.002
 4092.00    0.95079   0.94500   -1.000
 4093.00    0.94343   0.92961   -1.000
 4094.00    0.93146   0.90982   -1.000
 4095.00    0.90153   0.88557   -1.000
 4096.00    0.86479   0.85739   -1.000
 4097.00    0.84708   0.82370   -1.000
 4098.00    0.82862   0.78057   -1.000
 4099.00    0.77970   0.72564   -1.000
 4100.00    0.70450   0.66838   -1.000
 4101.00    0.64272   0.63161   -1.000
 4102.00    0.64422   0.63622   -1.000
 4103.00    0.69997   0.68229   -1.000
 4104.00    0.77206   0.74772   -1.000
 4105.00    0.83424   0.80643   -1.000
 4106.00    0.86826   0.84605   -1.000
 4107.00    0.88247   0.86856   -1.000
 4108.00    0.89601   0.88086   -1.000
 4109.00    0.90568   0.88967   -1.000
 4110.00    0.91319   0.89965   -1.000
 4111.00    0.92468   0.91305   -1.000
 4112.00    0.93919   0.92947   -1.000
 4113.00    0.95234   0.94708   -1.000
 4114.00    0.95938   0.96314  703.734
 4115.00    0.96555   0.97337   -1.000
 4116.00    0.96709   0.97447   -1.000
 4117.00    0.96402   0.96762  743.000
 4118.00    0.95789   0.95832  733.845
 4119.00    0.94969   0.95281  729.323
 4120.00    0.95618   0.95328  727.112
 4121.00    0.96246   0.95703   -1.000
 4122.00    0.96368   0.96169  708.058
 4123.00    0.97274   0.96806   -1.000
 4124.00    0.97939   0.97574  722.292
 4125.00    0.98646   0.98045   -1.000
 4126.00    0.98628   0.97870   -1.000
 4127.00    0.97141   0.97247  745.294
 4128.00    0.96611   0.96686  760.040
 4129.00    0.97001   0.96328   -1.000
 4130.00    0.96775   0.95826   -1.000
 4131.00    0.95217   0.95071  791.720
 4132.00    0.94164   0.94637   -1.000
 4133.00    0.94735   0.95207   -1.000
 4134.00    0.95362   0.96772   -1.000
 4135.00    0.96516   0.98736   -1.000
 4136.00    0.98406   1.00549   -1.000
 4137.00    1.00742   1.02012   -1.000
 4138.00    1.01806   1.03080   -1.000
 4139.00    1.01097   1.03448   -1.000
 4140.00    1.00414   1.02652   -1.000
 4141.00    0.98936   1.00704   -1.000
 4142.00    0.96120   0.98352   -1.000
 4143.00    0.93770   0.96830   -1.000
 4144.00    0.94498   0.97000   -1.000
 4145.00    0.96934   0.98473   -1.000
 4146.00    0.98170   0.99986   -1.000
 4147.00    0.98963   1.00648   -1.000
 4148.00    0.98861   1.00584   -1.000
 4149.00    1.00879   1.00414   -1.000
 4150.00    1.09145   1.00439   -1.000
 4151.00    1.07043   1.00419   -1.000
 4152.00    0.90678   1.00013   -1.000
 4153.00    0.88167   0.99278   -1.000
 4154.00    0.97341   0.98649   -1.000
 4155.00    0.98441   0.98573  752.194
 4156.00    0.96500   0.99154   -1.000
 4157.00    0.97511   1.00160   -1.000
 4158.00    0.98534   1.01193   -1.000
 4159.00    0.99455   1.01881   -1.000
 4160.00    0.99746   1.02146   -1.000
 4161.00    1.00185   1.02241   -1.000
 4162.00    1.00360   1.02483   -1.000
 4163.00    1.00184   1.02931   -1.000
 4164.00    1.00137   1.03343   -1.000
 4165.00    1.00166   1.03368   -1.000
 4166.00    0.99748   1.02946   -1.000
 4167.00    0.99706   1.02414   -1.000
 4168.00    0.99906   1.01929   -1.000
 4169.00    0.99531   1.01075   -1.000
 4170.00    0.98265   0.99286   -1.000
 4171.00    0.96323   0.96748   -1.000
 4172.00    0.93466   0.94642   -1.000
 4173.00    0.92123   0.94111   -1.000
 4174.00    0.93410   0.95209   -1.000
 4175.00    0.95212   0.96790   -1.000
 4176.00    0.95852   0.97654   -1.000
 4177.00    0.96179   0.97767   -1.000
 4178.00    0.96664   0.97932   -1.000
 4179.00    0.96891   0.98630   -1.000
 4180.00    0.97391   0.99414   -1.000
 4181.00    0.97166   0.99694   -1.000
 4182.00    0.96872   0.99696   -1.000
 4183.00    0.96807   0.99902   -1.000
 4184.00    0.96967   1.00180   -1.000
 4185.00    0.97144   1.00061   -1.000
 4186.00    0.96441   0.99450   -1.000
 4187.00    0.95698   0.98889   -1.000
 4188.00    0.95701   0.98919   -1.000
 4189.00    0.96143   0.99399   -1.000
 4190.00    0.96759   0.99893   -1.000
 4191.00    0.97367   1.00326   -1.000
 4192.00    0.98487   1.00806   -1.000
 4193.00    0.99768   1.01124   -1.000
 4194.00    0.99403   1.00752   -1.000
 4195.00    0.97645   0.99455   -1.000
 4196.00    0.96507   0.97642   -1.000
 4197.00    0.95211   0.95955   -1.000
 4198.00    0.94095   0.94856   -1.000
 4199.00    0.93962   0.94538   -1.000
 4200.00    0.94536   0.94778  777.743
 4201.00    0.95001   0.95141  768.063
 4202.00    0.94341   0.95562   -1.000
 4203.00    0.94484   0.96269   -1.000
 4204.00    0.95816   0.97240   -1.000
 4205.00    0.95951   0.98280   -1.000
 4206.00    0.96095   0.99278   -1.000
 4207.00    0.96641   1.00047   -1.000
 4208.00    0.97360   1.00414   -1.000
 4209.00    0.97479   1.00539   -1.000
 4210.00    0.97395   1.00767   -1.000
 4211.00    0.97747   1.01172   -1.000
 4212.00    0.98387   1.01290   -1.000
 4213.00    0.98436   1.00525   -1.000
 4214.00    0.96839   0.99011   -1.000
 4215.00    0.94285   0.97668   -1.000
 4216.00    0.93651   0.97449   -1.000
 4217.00    0.95069   0.98513   -1.000
 4218.00    0.96542   1.00090   -1.000
 4219.00    0.97339   1.01335   -1.000
 4220.00    0.97567   1.01876   -1.000
 4221.00    0.97814   1.01510   -1.000
 4222.00    0.96991   0.99964   -1.000
 4223.00    0.95216   0.97092   -1.000
 4224.00    0.92593   0.93382   -1.000
 4225.00    0.88731   0.90082   -1.000
 4226.00    0.86224   0.88752   -1.000
 4227.00    0.87169   0.90382   -1.000
 4228.00    0.90977   0.94323   -1.000
 4229.00    0.95870   0.98385   -1.000
 4230.00    0.98428   1.00562   -1.000
 4231.00    0.97842   1.00498   -1.000
 4232.00    0.96423   0.99159   -1.000
 4233.00    0.94741   0.97712   -1.000
 4234.00    0.94207   0.96892   -1.000
 4235.00    0.94403   0.96755   -1.000
 4236.00    0.93685   0.96982   -1.000
 4237.00    0.93266   0.97472   -1.000
 4238.00    0.94462   0.98253   -1.000
 4239.00    0.95769   0.99239   -1.000
 4240.00    0.96810   1.00262   -1.000
 4241.00    0.97133   1.01111   -1.000
 4242.00    0.96713   1.01641   -1.000
 4243.00    0.96270   1.01766   -1.000
 4244.00    0.97331   1.01344   -1.000
 4245.00    0.97440   1.00222   -1.000
 4246.00    0.94802   0.98599   -1.000
 4247.00    0.92677   0.97133   -1.000
 4248.00    0.92696   0.96349   -1.000
 4249.00    0.93136   0.96260   -1.000
 4250.00    0.93155   0.96734   -1.000
 4251.00    0.93392   0.97596   -1.000
 4252.00    0.94544   0.98367   -1.000
 4253.00    0.95205   0.98669   -1.000
 4254.00    0.94933   0.98750   -1.000
 4255.00    0.95037   0.99061   -1.000
 4256.00    0.96263   0.99452   -1.000
 4257.00    0.96952   0.99225   -1.000
 4258.00    0.95579   0.98117   -1.000
 4259.00    0.93488   0.96860   -1.000
 4260.00    0.93131   0.96526   -1.000
 4261.00    0.93189   0.97590   -1.000
 4262.00    0.95189   0.99584   -1.000
 4263.00    0.97790   1.01497   -1.000
 4264.00    0.98556   1.02534   -1.000
 4265.00    0.98281   1.02601   -1.000
 4266.00    0.97646   1.02024   -1.000
 4267.00    0.97150   1.00973   -1.000
 4268.00    0.96120   0.99392   -1.000
 4269.00    0.95216   0.97279   -1.000
 4270.00    0.93039   0.94957   -1.000
 4271.00    0.90001   0.93142   -1.000
 4272.00    0.89192   0.92500   -1.000
 4273.00    0.90532   0.93104   -1.000
 4274.00    0.92015   0.94572   -1.000
 4275.00    0.93209   0.96573   -1.000
 4276.00    0.94991   0.98742   -1.000
 4277.00    0.97012   1.00390   -1.000
 4278.00    0.97280   1.00899   -1.000
 4279.00    0.95462   1.00298   -1.000
 4280.00    0.94203   0.99211   -1.000
 4281.00    0.93694   0.98338   -1.000
 4282.00    0.93236   0.97932   -1.000
 4283.00    0.93517   0.97804   -1.000
 4284.00    0.94087   0.97604   -1.000
 4285.00    0.93504   0.96948   -1.000
 4286.00    0.92287   0.95609   -1.000
 4287.00    0.91066   0.93674   -1.000
 4288.00    0.89341   0.91545   -1.000
 4289.00    0.87629   0.90019   -1.000
 4290.00    0.86508   0.89927   -1.000
 4291.00    0.87962   0.91192   -1.000
 4292.00    0.90481   0.92661   -1.000
 4293.00    0.91272   0.93234   -1.000
 4294.00    0.91337   0.92925   -1.000
 4295.00    0.91114   0.92292   -1.000
 4296.00    0.90636   0.91305   -1.000
 4297.00    0.88871   0.89535   -1.000
 4298.00    0.85453   0.86995   -1.000
 4299.00    0.82472   0.84388   -1.000
 4300.00    0.81999   0.82638   -1.000
 4301.00    0.82611   0.82187   -1.000
 4302.00    0.82550   0.82830  912.376
 4303.00    0.82811   0.84080   -1.000
 4304.00    0.83378   0.85226   -1.000
 4305.00    0.83712   0.85488   -1.000
 4306.00    0.83155   0.84726   -1.000
 4307.00    0.81725   0.83675   -1.000
 4308.00    0.80836   0.83340   -1.000
 4309.00    0.81497   0.84172   -1.000
 4310.00    0.82719   0.85700   -1.000
 4311.00    0.83878   0.87054   -1.000
 4312.00    0.84882   0.87907   -1.000
 4313.00    0.86138   0.88883   -1.000
 4314.00    0.88535   0.90869   -1.000
 4315.00    0.91706   0.94027   -1.000
 4316.00    0.94669   0.97437   -1.000
 4317.00    0.97001   0.99792   -1.000
 4318.00    0.97802   1.00514   -1.000
 4319.00    0.97416   0.99939   -1.000
 4320.00    0.96509   0.98702   -1.000
 4321.00    0.95222   0.97122   -1.000
 4322.00    0.93510   0.95089   -1.000
 4323.00    0.91375   0.92544   -1.000
 4324.00    0.88349   0.90145   -1.000
 4325.00    0.86229   0.89216   -1.000
 4326.00    0.87326   0.90478   -1.000
 4327.00    0.90350   0.93014   -1.000
 4328.00    0.92960   0.95109   -1.000
 4329.00    0.94175   0.95841   -1.000
 4330.00    0.94225   0.95601   -1.000
 4331.00    0.93272   0.95187   -1.000
 4332.00    0.92012   0.94786   -1.000
 4333.00    0.91239   0.93963   -1.000
 4334.00    0.90526   0.92152   -1.000
 4335.00    0.88939   0.88859  782.139
 4336.00    0.85285   0.83797   -1.000
 4337.00    0.79853   0.77316   -1.000
 4338.00    0.73708   0.70753   -1.000
 4339.00    0.67485   0.65972   -1.000
 4340.00    0.63453   0.64624   -1.000
 4341.00    0.65382   0.67370   -1.000
 4342.00    0.72090   0.73063   -1.000
 4343.00    0.78397   0.79329   -1.000
 4344.00    0.82919   0.84476   -1.000
 4345.00    0.86536   0.88325   -1.000
 4346.00    0.89112   0.91306   -1.000
 4347.00    0.90384   0.93470   -1.000
 4348.00    0.91551   0.94424   -1.000
 4349.00    0.92615   0.93862   -1.000
 4350.00    0.91954   0.92247  722.018
 4351.00    0.89876   0.90897   -1.000
 4352.00    0.88790   0.91026   -1.000
 4353.00    0.90648   0.92789   -1.000
 4354.00    0.93569   0.95279   -1.000
 4355.00    0.95188   0.97372   -1.000
 4356.00    0.96104   0.98513   -1.000
 4357.00    0.96110   0.98800   -1.000
 4358.00    0.95455   0.98722   -1.000
 4359.00    0.95532   0.98882   -1.000
 4360.00    0.96339   0.99585   -1.000
 4361.00    0.97626   1.00634   -1.000
 4362.00    0.98636   1.01627   -1.000
 4363.00    0.98705   1.02288   -1.000
 4364.00    0.98786   1.02431   -1.000
 4365.00    0.98858   1.01903   -1.000
 4366.00    0.97831   1.00778   -1.000
 4367.00    0.96618   0.99489   -1.000
 4368.00    0.96292   0.98553   -1.000
 4369.00    0.96732   0.98126   -1.000
 4370.00    0.97215   0.97932   -1.000
 4371.00    0.97464   0.97475  700.748
 4372.00    0.97093   0.96370   -1.000
 4373.00    0.95638   0.94765   -1.000
 4374.00    0.93660   0.93531  664.241
 4375.00    0.92601   0.93713   -1.000
 4376.00    0.93859   0.95452   -1.000
 4377.00    0.95842   0.97725   -1.000
 4378.00    0.97427   0.99275   -1.000
 4379.00    0.97944   0.99472   -1.000
 4380.00    0.97788   0.98185   -1.000
 4381.00    0.97055   0.95462   -1.000
 4382.00    0.93593   0.91903   -1.000
 4383.00    0.89337   0.88992  733.842
 4384.00    0.88264   0.88206  689.192
 4385.00    0.90500   0.89717   -1.000
 4386.00    0.93256   0.92280   -1.000
 4387.00    0.95532   0.94440   -1.000
 4388.00    0.96356   0.95605   -1.000
 4389.00    0.95823   0.96002  668.636
 4390.00    0.95609   0.96131   -1.000
 4391.00    0.96355   0.96279  674.827
 4392.00    0.97049   0.96207   -1.000
 4393.00    0.96601   0.95597   -1.000
 4394.00    0.95445   0.94879   -1.000
 4395.00    0.94981   0.94954  633.184
 4396.00    0.95635   0.95900  650.893
 4397.00    0.97286   0.96710   -1.000
 4398.00    0.98176   0.96565   -1.000
 4399.00    0.96690   0.95793   -1.000
 4400.00    0.95691   0.95345  673.282
 4401.00    0.96181   0.95569   -1.000
 4402.00    0.96741   0.95872   -1.000
 4403.00    0.96512   0.95663   -1.000
 4404.00    0.94900   0.95170  699.651
 4405.00    0.94242   0.95013   -1.000
 4406.00    0.95476   0.95349  674.583
 4407.00    0.95895   0.95881  646.297
 4408.00    0.95885   0.96543   -1.000
 4409.00    0.97013   0.97614   -1.000
 4410.00    0.98789   0.98999  614.711
 4411.00    1.00355   0.99996  642.545
 4412.00    1.00900   0.99892   -1.000
 4413.00    1.00027   0.98498   -1.000
 4414.00    0.97527   0.96329   -1.000
 4415.00    0.95284   0.94488   -1.000
 4416.00    0.94821   0.93997   -1.000
 4417.00    0.95358   0.95114  611.150
 4418.00    0.97181   0.97239  622.449
 4419.00    0.99428   0.99276  636.488
 4420.00    1.00479   1.00313  639.306
 4421.00    1.00310   1.00292  635.480
 4422.00    0.99265   0.99908   -1.000
 4423.00    0.98700   0.99711   -1.000
 4424.00    0.99432   0.99638  637.228
 4425.00    0.99118   0.99473  633.603
 4426.00    0.97837   0.99318   -1.000
 4427.00    0.97860   0.99398   -1.000
 4428.00    0.98733   0.99698   -1.000
 4429.00    0.98969   1.00005   -1.000
 4430.00    0.99233   1.00158   -1.000
 4431.00    0.99165   1.00073   -1.000
 4432.00    0.99027   0.99608   -1.000
 4433.00    0.98246   0.98704   -1.000
 4434.00    0.96170   0.97798   -1.000
 4435.00    0.95361   0.97752   -1.000
 4436.00    0.97211   0.99032   -1.000
 4437.00    0.99643   1.01055   -1.000
 4438.00    1.01032   1.02582   -1.000
 4439.00    1.01289   1.02635   -1.000
 4440.00    1.00538   1.01081   -1.000
 4441.00    0.99118   0.98682  656.256
 4442.00    0.96761   0.96703  628.875
 4443.00    0.95016   0.96245   -1.000
 4444.00    0.95511   0.97502   -1.000
 4445.00    0.97512   0.99581   -1.000
 4446.00    0.99198   1.01255   -1.000
 4447.00    0.99583   1.01982   -1.000
 4448.00    0.99637   1.01991   -1.000
 4449.00    0.99625   1.01713   -1.000
 4450.00    0.99239   1.01447   -1.000
 4451.00    0.99337   1.01211   -1.000
 4452.00    0.99460   1.00658   -1.000
 4453.00    0.98387   0.99498   -1.000
 4454.00    0.96476   0.98105   -1.000
 4455.00    0.95298   0.97326   -1.000
 4456.00    0.95841   0.97516   -1.000
 4457.00    0.96769   0.98161   -1.000
 4458.00    0.97347   0.98579   -1.000
 4459.00    0.97456   0.98595   -1.000
 4460.00    0.97071   0.98488   -1.000
 4461.00    0.96655   0.98624   -1.000
 4462.00    0.96754   0.99138   -1.000
 4463.00    0.97904   0.99801   -1.000
 4464.00    0.99245   1.00237   -1.000
 4465.00    0.99381   1.00182   -1.000
 4466.00    0.99033   0.99543   -1.000
 4467.00    0.98278   0.98522  642.909
 4468.00    0.97089   0.97725   -1.000
 4469.00    0.96401   0.97817   -1.000
 4470.00    0.97106   0.98957   -1.000
 4471.00    0.98687   1.00684   -1.000
 4472.00    1.00303   1.02338   -1.000
 4473.00    1.01401   1.03487   -1.000
 4474.00    1.01485   1.04055   -1.000
 4475.00    1.01605   1.04236   -1.000
 4476.00    1.01441   1.04231   -1.000
 4477.00    1.01511   1.03949   -1.000
 4478.00    1.02121   1.03005   -1.000
 4479.00    1.01674   1.01266  636.550
 4480.00    1.00162   0.99377   -1.000
 4481.00    0.98406   0.98434  591.689
 4482.00    0.97380   0.99076   -1.000
 4483.00    0.98157   1.00946   -1.000
 4484.00    1.00432   1.03010   -1.000
 4485.00    1.01677   1.04298   -1.000
 4486.00    1.01719   1.04358   -1.000
 4487.00    1.01603   1.03344   -1.000
 4488.00    1.00540   1.01965   -1.000
 4489.00    0.99096   1.01115   -1.000
 4490.00    0.98921   1.01232   -1.000
 4491.00    1.00018   1.01963   -1.000
 4492.00    1.00667   1.02525   -1.000
 4493.00    1.00178   1.02475   -1.000
 4494.00    0.99318   1.02109   -1.000
 4495.00    0.99086   1.01989   -1.000
 4496.00    0.99629   1.02290   -1.000
 4497.00    1.00399   1.02744   -1.000
 4498.00    1.01215   1.02917   -1.000
 4499.00    1.01678   1.02555   -1.000
 4500.00    1.00449   1.01978   -1.000
 4501.00    0.99320   1.01967   -1.000
 4502.00    1.00158   1.02934   -1.000
 4503.00    1.01990   1.04431   -1.000
 4504.00    1.03343   1.05602   -1.000
 4505.00    1.03363   1.05924   -1.000
 4506.00    1.02653   1.05498   -1.000
 4507.00    1.02480   1.04852   -1.000
 4508.00    1.02476   1.04549   -1.000
 4509.00    1.02557   1.04736   -1.000
 4510.00    1.02893   1.05048   -1.000
 4511.00    1.02924   1.05048   -1.000
 4512.00    1.02756   1.04635   -1.000
 4513.00    1.02680   1.03976   -1.000
 4514.00    1.01992   1.03310   -1.000
 4515.00    1.01181   1.02856   -1.000
 4516.00    1.01181   1.02636   -1.000
 4517.00    1.01122   1.02435   -1.000
 4518.00    1.00536   1.02127   -1.000
 4519.00    1.00375   1.01869   -1.000
 4520.00    1.01351   1.01760  594.476
 4521.00    1.01614   1.01590  602.152
 4522.00    1.00255   1.01182   -1.000
 4523.00    0.99179   1.00704   -1.000
 4524.00    0.99196   1.00355   -1.000
 4525.00    0.99539   0.99976  656.078
 4526.00    0.98843   0.99264  655.752
 4527.00    0.97584   0.98250   -1.000
 4528.00    0.96921   0.97386  634.560
 4529.00    0.96522   0.97141   -1.000
 4530.00    0.96566   0.97461   -1.000
 4531.00    0.97110   0.97707   -1.000
 4532.00    0.97479   0.97265  662.160
 4533.00    0.96797   0.96342   -1.000
 4534.00    0.95276   0.95918   -1.000
 4535.00    0.95007   0.96783   -1.000
 4536.00    0.96614   0.98798   -1.000
 4537.00    1.02841   1.01071   -1.000
 4538.00    0.85905   1.02648   -1.000
 4539.00    0.27821   1.03123   -1.000
 4540.00   -0.04040   1.02817    0.000
 4541.00    0.17558   1.02380   -1.000
 4542.00    0.58067   1.02183   -2.000
 4543.00    0.44555   1.02111   -2.000
 4544.00    0.70232   1.01911   -2.000
 4545.00    1.00582   1.01566   -1.000
 4546.00    0.99734   1.01054   -1.000
 4547.00    0.99653   1.00093  414.038
 4548.00    0.97972   0.98661   -1.000
 4549.00    0.96260   0.97501   -1.000
 4550.00    0.96163   0.97452   -1.000
 4551.00    0.97677   0.98286   -1.000
 4552.00    0.98714   0.98856  618.165
 4553.00    0.98351   0.98531  599.883
 4554.00    0.97561   0.97898  576.158
 4555.00    0.97329   0.97958   -1.000
 4556.00    0.98288   0.99070   -1.000
 4557.00    0.99642   1.00718   -1.000
 4558.00    1.01060   1.02179   -1.000
 4559.00    1.01839   1.03177   -1.000
 4560.00    1.02530   1.03699   -1.000
 4561.00    1.02878   1.03564   -1.000
 4562.00    1.01797   1.02671   -1.000
 4563.00    1.00224   1.01493   -1.000
 4564.00    0.99445   1.00851   -1.000
 4565.00    1.00087   1.01166   -1.000
 4566.00    1.01348   1.02134   -1.000
 4567.00    1.02914   1.03068  571.683
 4568.00    1.02888   1.03397  586.787
 4569.00    1.02129   1.02903   -1.000
 4570.00    1.01274   1.01784  575.854
 4571.00    0.99791   1.00702   -1.000
 4572.00    0.99104   1.00483   -1.000
 4573.00    1.00664   1.01284   -1.000
 4574.00    1.01965   1.02324  566.776
 4575.00    1.02578   1.02818  574.251
 4576.00    1.02764   1.02719  589.048
 4577.00    1.02157   1.02293  603.380
 4578.00    1.01378   1.01594  606.496
 4579.00    1.01028   1.00616  599.981
 4580.00    1.00350   0.99559   -1.000
 4581.00    0.99742   0.98664   -1.000
 4582.00    0.99659   0.98041   -1.000
 4583.00    0.99266   0.97831   -1.000
 4584.00    0.99192   0.98199   -1.000
 4585.00    0.99563   0.99003   -1.000
 4586.00    1.00369   0.99857   -1.000
 4587.00    1.00823   1.00486  566.702
 4588.00    1.00880   1.00814  576.714
 4589.00    1.00879   1.00878  587.129
 4590.00    1.00782   1.00769  591.011
 4591.00    1.00977   1.00596  587.658
 4592.00    1.00508   1.00508  582.784
 4593.00    0.99860   1.00659   -1.000
 4594.00    1.00446   1.01055   -1.000
 4595.00    1.01096   1.01561  577.674
 4596.00    1.01481   1.02014   -1.000
 4597.00    1.02066   1.02250  585.941
 4598.00    1.01738   1.02161  588.808
 4599.00    1.01124   1.01775   -1.000
 4600.00    1.01249   1.01254  578.486
 4601.00    1.01200   1.00841  576.938
 4602.00    1.00724   1.00715  576.775
 4603.00    1.00743   1.00876  572.207
 4604.00    1.01355   1.01195  562.430
 4605.00    1.02259   1.01563   -1.000
 4606.00    1.02833   1.01981   -1.000
 4607.00    1.02465   1.02481  541.900
 4608.00    1.02858   1.02985  547.890
 4609.00    1.03480   1.03308  554.586
 4610.00    1.02782   1.03300  558.997
 4611.00    1.02440   1.03013   -1.000
 4612.00    1.02507   1.02689  553.877
 4613.00    1.02902   1.02498  550.723
 4614.00    1.02732   1.02385  552.543
 4615.00    1.02153   1.02190  556.649
 4616.00    1.01816   1.01853  557.648
 4617.00    1.01648   1.01468  553.763
 4618.00    1.01662   1.01203  545.960
 4619.00    1.01896   1.01257   -1.000
 4620.00    1.02094   1.01731  544.017
 4621.00    1.02590   1.02454  545.213
 4622.00    1.03067   1.03040  548.960
 4623.00    1.02629   1.03216   -1.000
 4624.00    1.02435   1.03036   -1.000
 4625.00    1.02125   1.02726   -1.000
 4626.00    1.02176   1.02407  556.091
 4627.00    1.02423   1.02061  554.509
 4628.00    1.01896   1.01718  549.141
 4629.00    1.01376   1.01597  548.717
 4630.00    1.01216   1.01862   -1.000
 4631.00    1.02236   1.02293  562.076
 4632.00    1.02648   1.02467  563.634
 4633.00    1.02227   1.02246  566.469
 4634.00    1.02371   1.01900  573.196
 4635.00    1.02378   1.01724   -1.000
 4636.00    1.02119   1.01719  577.338
 4637.00    1.01889   1.01759  570.235
 4638.00    1.01743   1.01874  557.357
 4639.00    1.02268   1.02189  547.766
 4640.00    1.03013   1.02711  547.084
 4641.00    1.03491   1.03258  555.007
 4642.00    1.03392   1.03566  569.215
 4643.00    1.03093   1.03456  585.228
 4644.00    1.02853   1.02909  591.956
 4645.00    1.02127   1.02044  585.126
 4646.00    1.00916   1.01128  572.167
 4647.00    1.00519   1.00589  562.564
 4648.00    1.01226   1.00729  559.639
 4649.00    1.01866   1.01393  558.664
 4650.00    1.02247   1.02124  562.928
 4651.00    1.02173   1.02552  574.246
 4652.00    1.01629   1.02533   -1.000
 4653.00    1.00889   1.02118   -1.000
 4654.00    1.00241   1.01514   -1.000
 4655.00    1.00314   1.01031   -1.000
 4656.00    1.00451   1.00994  530.797
 4657.00    1.00919   1.01630   -1.000
 4658.00    1.02278   1.02834  531.661
 4659.00    1.03447   1.04048   -1.000
 4660.00    1.04300   1.04641  554.622
 4661.00    1.04119   1.04436  558.726
 4662.00    1.03163   1.03722   -1.000
 4663.00    1.03218   1.02844  585.371
 4664.00    1.03118   1.01873   -1.000
 4665.00    1.02714   1.00671   -1.000
 4666.00    1.01310   0.99273   -1.000
 4667.00    0.98842   0.98137   -1.000
 4668.00    0.97988   0.97813  562.366
 4669.00    0.99030   0.98412   -1.000
 4670.00    1.00819   0.99555   -1.000
 4671.00    1.01623   1.00732   -1.000
 4672.00    1.02320   1.01600   -1.000
 4673.00    1.03253   1.02137   -1.000
 4674.00    1.02602   1.02536  541.164
 4675.00    1.02258   1.02881   -1.000
 4676.00    1.03119   1.02980  561.957
 4677.00    1.03485   1.02597   -1.000
 4678.00    1.02768   1.01801   -1.000
 4679.00    1.01735   1.00933   -1.000
 4680.00    1.01173   1.00301   -1.000
 4681.00    1.00601   1.00063   -1.000
 4682.00    1.00678   1.00244  551.974
 4683.00    1.02427   1.00700   -1.000
 4684.00    1.03474   1.01170   -1.000
 4685.00    1.02835   1.01458   -1.000
 4686.00    1.02499   1.01552   -1.000
 4687.00    1.02990   1.01553   -1.000
 4688.00    1.03347   1.01524   -1.000
 4689.00    1.02600   1.01442   -1.000
 4690.00    1.02302   1.01281   -1.000
 4691.00    1.02922   1.01146   -1.000
 4692.00    1.03172   1.01198   -1.000
 4693.00    1.02926   1.01436   -1.000
 4694.00    1.03655   1.01702   -1.000
 4695.00    1.04668   1.01830   -1.000
 4696.00    1.04192   1.01652   -1.000
 4697.00    1.03067   1.01077   -1.000
 4698.00    1.02392   1.00265   -1.000
 4699.00    1.02203   0.99511   -1.000
 4700.00    1.02255   0.98911   -1.000
 4701.00    1.01877   0.98376   -1.000
 4702.00    1.00680   0.97943   -1.000
 4703.00    1.00159   0.97851   -1.000
 4704.00    1.00526   0.98192   -1.000
 4705.00    1.00781   0.98617   -1.000
 4706.00    1.00600   0.98649   -1.000
 4707.00    1.00538   0.98246   -1.000
 4708.00    1.00215   0.97875   -1.000
 4709.00    1.00133   0.98011   -1.000
 4710.00    1.00919   0.98670   -1.000
 4711.00    1.02396   0.99429   -1.000
 4712.00    1.03331   0.99829   -1.000
 4713.00    1.03374   0.99765   -1.000
 4714.00    1.02929   0.99575   -1.000
 4715.00    1.01917   0.99703   -1.000
 4716.00    1.01913   1.00246   -1.000
 4717.00    1.02592   1.00909   -1.000
 4718.00    1.03352   1.01383   -1.000
 4719.00    1.03839   1.01604   -1.000
 4720.00    1.03483   1.01643   -1.000
 4721.00    1.03457   1.01591   -1.000
 4722.00    1.03895   1.01586   -1.000
 4723.00    1.03910   1.01729   -1.000
 4724.00    1.03251   1.01911   -1.000
 4725.00    1.02901   1.01852   -1.000
 4726.00    1.03031   1.01370   -1.000
 4727.00    1.02501   1.00562   -1.000
 4728.00    1.02184   0.99720   -1.000
 4729.00    1.02189   0.99094   -1.000
 4730.00    1.02235   0.98759   -1.000
 4731.00    1.01698   0.98762   -1.000
 4732.00    1.01418   0.99115   -1.000
 4733.00    1.01663   0.99598   -1.000
 4734.00    1.01808   0.99882   -1.000
 4735.00    1.02125   0.99856   -1.000
 4736.00    1.01915   0.99696   -1.000
 4737.00    1.01888   0.99647   -1.000
 4738.00    1.02678   0.99775   -1.000
 4739.00    1.03099   0.99962   -1.000
 4740.00    1.02796   1.00112   -1.000
 4741.00    1.01953   1.00273   -1.000
 4742.00    1.02373   1.00525   -1.000
 4743.00    1.03708   1.00844   -1.000
 4744.00    1.03294   1.01127   -1.000
 4745.00    1.02920   1.01350   -1.000
 4746.00    1.03037   1.01595   -1.000
 4747.00    1.02922   1.01924   -1.000
 4748.00    1.03093   1.02284   -1.000
 4749.00    1.03102   1.02585  542.336
 4750.00    1.02693   1.02772  547.323
 4751.00    1.02584   1.02773  551.254
 4752.00    1.02777   1.02508  551.412
 4753.00    1.02738   1.02053   -1.000
 4754.00    1.02658   1.01623   -1.000
 4755.00    1.02391   1.01410   -1.000
 4756.00    1.02167   1.01464   -1.000
 4757.00    1.02573   1.01690   -1.000
 4758.00    1.02741   1.01915   -1.000
 4759.00    1.02280   1.01961  571.848
 4760.00    1.02594   1.01638   -1.000
 4761.00    1.02535   1.00836   -1.000
 4762.00    1.00939   0.99732   -1.000
 4763.00    0.99728   0.98773   -1.000
 4764.00    0.99918   0.98361   -1.000
 4765.00    1.00790   0.98586   -1.000
 4766.00    1.01460   0.99286   -1.000
 4767.00    1.01610   1.00235   -1.000
 4768.00    1.01996   1.01209   -1.000
 4769.00    1.02563   1.01935   -1.000
 4770.00    1.02688   1.02182  554.961
 4771.00    1.02429   1.02018  544.117
 4772.00    1.02172   1.01813  538.488
 4773.00    1.02424   1.01913  538.095
 4774.00    1.02350   1.02310  539.475
 4775.00    1.02544   1.02715  542.580
 4776.00    1.03216   1.02881  548.147
 4777.00    1.03389   1.02738   -1.000
 4778.00    1.02936   1.02323   -1.000
 4779.00    1.02211   1.01813  556.253
 4780.00    1.01667   1.01503  560.379
 4781.00    1.01750   1.01486  561.244
 4782.00    1.02189   1.01527   -1.000
 4783.00    1.02470   1.01401   -1.000
 4784.00    1.02222   1.01120   -1.000
 4785.00    1.01993   1.00776   -1.000
 4786.00    1.01290   1.00449   -1.000
 4787.00    1.00613   1.00267  565.764
 4788.00    1.00571   1.00305  560.373
 4789.00    1.00944   1.00532  551.853
 4790.00    1.00943   1.00926  540.175
 4791.00    1.01913   1.01510  530.249
 4792.00    1.01964   1.02246  526.777
 4793.00    1.02470   1.03003  530.601
 4794.00    1.03300   1.03575  540.272
 4795.00    1.03322   1.03738  550.660
 4796.00    1.03008   1.03410  558.032
 4797.00    1.02271   1.02752  555.563
 4798.00    1.01838   1.02095  545.486
 4799.00    1.01268   1.01782  536.868
 4800.00    1.01848   1.01961  535.882
 4801.00    1.02761   1.02446  541.818
 4802.00    1.02312   1.02791  548.926
 4803.00    1.01824   1.02610   -1.000
 4804.00    1.01684   1.01958  555.287
 4805.00    1.01575   1.01313  554.084
 4806.00    1.01820   1.01085   -1.000
 4807.00    1.02010   1.01278   -1.000
 4808.00    1.02211   1.01649   -1.000
 4809.00    1.02557   1.01961   -1.000
 4810.00    1.02438   1.02114  539.140
 4811.00    1.02202   1.02187  538.015
 4812.00    1.02241   1.02355  536.196
 4813.00    1.02578   1.02687  533.099
 4814.00    1.03283   1.03075  529.761
 4815.00    1.03312   1.03381  527.376
 4816.00    1.02929   1.03571   -1.000
 4817.00    1.03223   1.03656  526.803
 4818.00    1.03461   1.03627  530.505
 4819.00    1.03212   1.03481  542.687
 4820.00    1.03069   1.03163  554.025
 4821.00    1.02484   1.02519  555.286
 4822.00    1.01739   1.01494  547.051
 4823.00    1.01347   1.00404   -1.000
 4824.00    1.00891   0.99802   -1.000
 4825.00    1.01451   0.99948   -1.000
 4826.00    1.02178   1.00518   -1.000
 4827.00    1.02502   1.00966   -1.000
 4828.00    1.02250   1.01040   -1.000
 4829.00    1.01651   1.00855   -1.000
 4830.00    1.01836   1.00598   -1.000
 4831.00    1.01621   1.00352   -1.000
 4832.00    1.01835   1.00178   -1.000
 4833.00    1.01794   1.00148   -1.000
 4834.00    1.02783   1.00232   -1.000
 4835.00    1.02969   1.00301   -1.000
 4836.00    1.02226   1.00273   -1.000
 4837.00    1.01777   1.00135   -1.000
 4838.00    1.01424   0.99864   -1.000
 4839.00    1.00985   0.99480   -1.000
 4840.00    1.00319   0.99129   -1.000
 4841.00    1.00336   0.98946   -1.000
 4842.00    1.00492   0.98899   -1.000
 4843.00    1.00636   0.98892   -1.000
 4844.00    1.00725   0.98902   -1.000
 4845.00    1.00969   0.98898   -1.000
 4846.00    1.01111   0.98707   -1.000
 4847.00    1.00759   0.98200   -1.000
 4848.00    0.99141   0.97576   -1.000
 4849.00    0.98819   0.97189   -1.000
 4850.00    0.99012   0.97074   -1.000
 4851.00    0.98372   0.96903   -1.000
 4852.00    0.98165   0.96293   -1.000
 4853.00    0.97415   0.95016   -1.000
 4854.00    0.96325   0.93152   -1.000
 4855.00    0.94529   0.91130   -1.000
 4856.00    0.93398   0.89271   -1.000
 4857.00    0.92601   0.87134   -1.000
 4858.00    0.89356   0.83592   -1.000
 4859.00    0.83192   0.78013   -1.000
 4860.00    0.74646   0.71679   -1.000
 4861.00    0.68917   0.67602   -1.000
 4862.00    0.70774   0.68190   -1.000
 4863.00    0.77794   0.72955   -1.000
 4864.00    0.84546   0.79130   -1.000
 4865.00    0.88805   0.84347   -1.000
 4866.00    0.91865   0.88029   -1.000
 4867.00    0.93708   0.90523   -1.000
 4868.00    0.94997   0.92059   -1.000
 4869.00    0.96075   0.92586   -1.000
 4870.00    0.95258   0.92224   -1.000
 4871.00    0.93967   0.91616   -1.000
 4872.00    0.93702   0.91622   -1.000
 4873.00    0.94986   0.92553   -1.000
 4874.00    0.97285   0.93911   -1.000
 4875.00    0.97671   0.94997   -1.000
 4876.00    0.97699   0.95599   -1.000
 4877.00    0.97951   0.96028   -1.000
 4878.00    0.98157   0.96675   -1.000
 4879.00    0.99268   0.97580   -1.000
 4880.00    0.99723   0.98366   -1.000
 4881.00    1.00229   0.98597   -1.000
 4882.00    1.00468   0.98253   -1.000
 4883.00    1.00058   0.97730   -1.000
 4884.00    0.99652   0.97382   -1.000
 4885.00    0.99351   0.97281   -1.000
 4886.00    0.99033   0.97317   -1.000
 4887.00    0.99102   0.97297   -1.000
 4888.00    0.99169   0.96986   -1.000
 4889.00    0.99143   0.96284   -1.000
 4890.00    0.97429   0.95500   -1.000
 4891.00    0.95830   0.95360  525.220
 4892.00    0.97670   0.96412   -1.000
 4893.00    1.00303   0.98377   -1.000
 4894.00    1.02226   1.00387   -1.000
 4895.00    1.02842   1.01787   -1.000
 4896.00    1.03076   1.02447   -1.000
 4897.00    1.03539   1.02487   -1.000
 4898.00    1.03216   1.02052   -1.000
 4899.00    1.01854   1.01362  539.000
 4900.00    1.01537   1.00741   -1.000
 4901.00    1.01234   1.00383   -1.000
 4902.00    1.00508   1.00199  530.157
 4903.00    1.00705   1.00130   -1.000
 4904.00    1.00623   1.00372  528.179
 4905.00    1.00802   1.00994  539.728
 4906.00    1.01905   1.01582  555.052
 4907.00    1.03008   1.01625   -1.000
 4908.00    1.02690   1.01013   -1.000
 4909.00    1.01421   1.00027   -1.000
 4910.00    1.00429   0.99123   -1.000
 4911.00    1.00546   0.98751   -1.000
 4912.00    1.00640   0.99082   -1.000
 4913.00    1.01132   0.99877   -1.000
 4914.00    1.01871   1.00695   -1.000
 4915.00    1.01716   1.01100   -1.000
 4916.00    1.01599   1.00692   -1.000
 4917.00    1.01185   0.99251   -1.000
 4918.00    0.99000   0.97037   -1.000
 4919.00    0.96601   0.94819   -1.000
 4920.00    0.96070   0.93454   -1.000
 4921.00    0.96128   0.93268   -1.000
 4922.00    0.96933   0.93834   -1.000
 4923.00    0.97792   0.94538   -1.000
 4924.00    0.98194   0.95318   -1.000
 4925.00    0.98874   0.96494   -1.000
 4926.00    1.00120   0.98040   -1.000
 4927.00    1.02008   0.99526   -1.000
 4928.00    1.02128   1.00627   -1.000
 4929.00    1.02506   1.01257   -1.000
 4930.00    1.02357   1.01332   -1.000
 4931.00    1.02417   1.00707   -1.000
 4932.00    1.01306   0.99415   -1.000
 4933.00    0.99684   0.97949   -1.000
 4934.00    0.98551   0.97072   -1.000
 4935.00    0.99110   0.97062   -1.000
 4936.00    1.00169   0.97324   -1.000
 4937.00    0.99790   0.97145   -1.000
 4938.00    0.98545   0.96629   -1.000
 4939.00    0.97705   0.96531   -1.000
 4940.00    0.98492   0.97341   -1.000
 4941.00    1.00393   0.98814   -1.000
 4942.00    1.01381   1.00277   -1.000
 4943.00    1.01724   1.01195   -1.000
 4944.00    1.01836   1.01464  526.078
 4945.00    1.01912   1.01318   -1.000
 4946.00    1.01764   1.01120   -1.000
 4947.00    1.01745   1.01158   -1.000
 4948.00    1.01190   1.01456  517.656
 4949.00    1.02042   1.01785  521.125
 4950.00    1.01714   1.01917  526.827
 4951.00    1.01958   1.01814  533.359
 4952.00    1.02420   1.01577   -1.000
 4953.00    1.01880   1.01232   -1.000
 4954.00    1.01919   1.00552   -1.000
 4955.00    1.00741   0.99154   -1.000
 4956.00    0.98345   0.97098   -1.000
 4957.00    0.96778   0.95361   -1.000
 4958.00    0.96264   0.95164   -1.000
 4959.00    0.98003   0.96669   -1.000
 4960.00    1.00665   0.98818   -1.000
 4961.00    1.01433   1.00472   -1.000
 4962.00    1.01365   1.01243  554.445
 4963.00    1.01705   1.01284  562.342
 4964.00    1.01758   1.00820   -1.000
 4965.00    1.00980   1.00078   -1.000
 4966.00    1.00084   0.99376   -1.000
 4967.00    0.99981   0.98960   -1.000
 4968.00    1.00255   0.98868   -1.000
 4969.00    1.00486   0.99046   -1.000
 4970.00    1.00780   0.99446   -1.000
 4971.00    1.00207   0.99962  532.180
 4972.00    1.00612   1.00454  535.120
 4973.00    1.01701   1.00819   -1.000
 4974.00    1.01669   1.00986   -1.000
 4975.00    1.01232   1.00916  556.474
 4976.00    1.01324   1.00614   -1.000
 4977.00    1.01674   1.00137   -1.000
 4978.00    1.01512   0.99577   -1.000
 4979.00    1.00667   0.98899   -1.000
 4980.00    0.99424   0.97874   -1.000
 4981.00    0.97545   0.96410   -1.000
 4982.00    0.95820   0.94865   -1.000
 4983.00    0.95229   0.93900   -1.000
 4984.00    0.96006   0.93976   -1.000
 4985.00    0.96727   0.95012   -1.000
 4986.00    0.98401   0.96530   -1.000
 4987.00    1.00149   0.97944   -1.000
 4988.00    1.00260   0.98740   -1.000
 4989.00    0.99908   0.98712   -1.000
 4990.00    0.98999   0.98143   -1.000
 4991.00    0.98448   0.97590   -1.000
 4992.00    0.98671   0.97426   -1.000
 4993.00    0.99130   0.97656   -1.000
 4994.00    0.99323   0.98116   -1.000
 4995.00    0.99219   0.98635   -1.000
 4996.00    1.00036   0.98971   -1.000
 4997.00    1.00795   0.98804   -1.000
 4998.00    0.99897   0.97951   -1.000
 4999.00    0.98619   0.96651   -1.000
 5000.00    0.98360   0.95581   -1.000
 5001.00    0.98589   0.95268   -1.000
 5002.00    0.98459   0.95543   -1.000
 5003.00    0.98541   0.95780   -1.000
 5004.00    0.98723   0.95483   -1.000
 5005.00    0.97914   0.94719   -1.000
 5006.00    0.96417   0.94139   -1.000
 5007.00    0.96208   0.94384   -1.000
 5008.00    0.97867   0.95354   -1.000
 5009.00    0.99404   0.96272   -1.000
 5010.00    0.99438   0.96430   -1.000
 5011.00    0.98572   0.95699   -1.000
 5012.00    0.97337   0.94509   -1.000
 5013.00    0.95826   0.93510   -1.000
 5014.00    0.95020   0.93144   -1.000
 5015.00    0.95218   0.93312   -1.000
 5016.00    0.95927   0.93481   -1.000
 5017.00    0.96538   0.93295   -1.000
 5018.00    0.95824   0.93063   -1.000
 5019.00    0.95578   0.93386   -1.000
 5020.00    0.98047   0.94306   -1.000
 5021.00    0.98360   0.95285   -1.000
 5022.00    0.98071   0.95982   -1.000
 5023.00    0.98357   0.96538   -1.000
 5024.00    0.98518   0.97116   -1.000
 5025.00    0.98679   0.97567   -1.000
 5026.00    0.99141   0.97686   -1.000
 5027.00    0.99666   0.97564   -1.000
 5028.00    0.99365   0.97472   -1.000
 5029.00    0.99315   0.97561   -1.000
 5030.00    0.99831   0.97842   -1.000
 5031.00    1.00023   0.98302   -1.000
 5032.00    0.99210   0.98796  571.892
 5033.00    0.99784   0.98962   -1.000
 5034.00    0.99123   0.98516   -1.000
 5035.00    0.98611   0.97627   -1.000
 5036.00    0.97761   0.96766   -1.000
 5037.00    0.97455   0.96124   -1.000
 5038.00    0.97862   0.95348   -1.000
 5039.00    0.98574   0.94072   -1.000
 5040.00    0.37645   0.92635   -1.000
 5041.00    0.03027   0.91991   -1.000
 5042.00   -0.01610   0.92791    0.000
 5043.00    0.47589   0.94738   -1.000
 5044.00    0.93685   0.96931   -1.000
 5045.00    1.00165   0.98591  165.142
 5046.00    1.00665   0.99357   -1.000
 5047.00    1.01144   0.99166   -1.000
 5048.00    1.00082   0.98193   -1.000
 5049.00    0.98756   0.96857   -1.000
 5050.00    0.97666   0.95669   -1.000
 5051.00    0.96977   0.95078   -1.000
 5052.00    0.97714   0.95409   -1.000
 5053.00    0.99150   0.96591   -1.000
 5054.00    1.00356   0.98021   -1.000
 5055.00    1.01309   0.99072   -1.000
 5056.00    1.01435   0.99616   -1.000
 5057.00    1.01366   0.99886   -1.000
 5058.00    1.00905   1.00083   -1.000
 5059.00    1.00266   1.00256  537.414
 5060.00    1.00742   1.00360  552.489
 5061.00    1.00997   1.00290   -1.000
 5062.00    1.01085   0.99874   -1.000
 5063.00    1.01112   0.99011   -1.000
 5064.00    0.99587   0.97920   -1.000
 5065.00    0.98683   0.97070   -1.000
 5066.00    0.98786   0.96743   -1.000
 5067.00    0.98844   0.96798   -1.000
 5068.00    0.99002   0.96956   -1.000
 5069.00    0.99224   0.97103   -1.000
 5070.00    1.00087   0.97207   -1.000
 5071.00    1.00018   0.97174   -1.000
 5072.00    0.99858   0.96985   -1.000
 5073.00    0.99795   0.96794   -1.000
 5074.00    1.00650   0.96745   -1.000
 5075.00    1.00400   0.96783   -1.000
 5076.00    0.99669   0.96668   -1.000
 5077.00    0.99569   0.96115   -1.000
 5078.00    0.98175   0.95083   -1.000
 5079.00    0.96503   0.94005   -1.000
 5080.00    0.95379   0.93494   -1.000
 5081.00    0.95753   0.93714   -1.000
 5082.00    0.97071   0.94334   -1.000
 5083.00    0.97194   0.95056   -1.000
 5084.00    0.97877   0.95842   -1.000
 5085.00    0.99275   0.96643   -1.000
 5086.00    1.00729   0.97284   -1.000
 5087.00    1.02439   0.97676   -1.000
 5088.00    1.01360   0.97923   -1.000
 5089.00    1.00806   0.98168   -1.000
 5090.00    1.01334   0.98452   -1.000
 5091.00    1.01109   0.98762   -1.000
 5092.00    1.01242   0.99083   -1.000
 5093.00    1.01259   0.99319   -1.000
 5094.00    1.01209   0.99269   -1.000
 5095.00    1.01367   0.98747   -1.000
 5096.00    1.00447   0.97761   -1.000
 5097.00    0.99345   0.96566   -1.000
 5098.00    0.98163   0.95599   -1.000
 5099.00    0.97753   0.95284   -1.000
 5100.00    0.99595   0.95751   -1.000
 5101.00    1.00168   0.96668   -1.000
 5102.00    0.99630   0.97493   -1.000
 5103.00    1.00550   0.97874   -1.000
 5104.00    1.01102   0.97746   -1.000
 5105.00    1.00294   0.97173   -1.000
 5106.00    0.99330   0.96293   -1.000
 5107.00    0.97528   0.95410   -1.000
 5108.00    0.96956   0.94885   -1.000
 5109.00    0.96830   0.94882   -1.000
 5110.00    0.97447   0.95360   -1.000
 5111.00    0.98491   0.96192   -1.000
 5112.00    1.00190   0.97157   -1.000
 5113.00    1.00452   0.97981   -1.000
 5114.00    1.01271   0.98536   -1.000
 5115.00    1.01834   0.98899   -1.000
 5116.00    1.01253   0.99196   -1.000
 5117.00    1.01560   0.99417   -1.000
 5118.00    1.01963   0.99425   -1.000
 5119.00    1.02015   0.99109   -1.000
 5120.00    1.01331   0.98474   -1.000
 5121.00    1.00257   0.97603   -1.000
 5122.00    0.99892   0.96616   -1.000
 5123.00    0.98453   0.95705   -1.000
 5124.00    0.97617   0.95104   -1.000
 5125.00    0.97772   0.94887   -1.000
 5126.00    0.98353   0.94861   -1.000
 5127.00    0.98580   0.94800   -1.000
 5128.00    0.97515   0.94708   -1.000
 5129.00    0.98111   0.94775   -1.000
 5130.00    0.98430   0.95120   -1.000
 5131.00    0.99183   0.95643   -1.000
 5132.00    0.99014   0.96156   -1.000
 5133.00    0.99148   0.96567   -1.000
 5134.00    0.99671   0.96840   -1.000
 5135.00    0.99937   0.96857   -1.000
 5136.00    0.99823   0.96468   -1.000
 5137.00    0.98393   0.95706   -1.000
 5138.00    0.97095   0.94865   -1.000
 5139.00    0.96311   0.94320   -1.000
 5140.00    0.96834   0.94213   -1.000
 5141.00    0.97718   0.94372   -1.000
 5142.00    0.96971   0.94596   -1.000
 5143.00    0.97128   0.94899   -1.000
 5144.00    0.98049   0.95305   -1.000
 5145.00    0.98907   0.95628   -1.000
 5146.00    0.99881   0.95701   -1.000
 5147.00    0.99827   0.95618   -1.000
 5148.00    0.99461   0.95536   -1.000
 5149.00    0.98931   0.95398   -1.000
 5150.00    0.97993   0.95054   -1.000
 5151.00    0.97481   0.94559   -1.000
 5152.00    0.97136   0.94183   -1.000
 5153.00    0.97651   0.94164   -1.000
 5154.00    0.98867   0.94586   -1.000
 5155.00    0.99812   0.95402   -1.000
 5156.00    1.00405   0.96411   -1.000
 5157.00    1.00840   0.97307   -1.000
 5158.00    1.01588   0.97875   -1.000
 5159.00    1.01372   0.98078   -1.000
 5160.00    1.00983   0.97968   -1.000
 5161.00    1.00199   0.97609   -1.000
 5162.00    1.00478   0.97034   -1.000
 5163.00    1.00622   0.96099   -1.000
 5164.00    0.99494   0.94365   -1.000
 5165.00    0.96799   0.91430   -1.000
 5166.00    0.93164   0.87669   -1.000
 5167.00    0.89304   0.84462   -1.000
 5168.00    0.88315   0.83191   -1.000
 5169.00    0.89845   0.83810   -1.000
 5170.00    0.92400   0.84813   -1.000
 5171.00    0.92512   0.84945   -1.000
 5172.00    0.90451   0.84708   -1.000
 5173.00    0.89570   0.85659   -1.000
 5174.00    0.92595   0.88411   -1.000
 5175.00    0.97029   0.91916   -1.000
 5176.00    1.00464   0.94719   -1.000
 5177.00    1.01845   0.96274   -1.000
 5178.00    1.01891   0.96798   -1.000
 5179.00    1.01063   0.96472   -1.000
 5180.00    1.00607   0.95083   -1.000
 5181.00    0.99944   0.92391   -1.000
 5182.00    0.96544   0.88888   -1.000
 5183.00    0.92396   0.86070   -1.000
 5184.00    0.90617   0.85514   -1.000
 5185.00    0.92939   0.87405   -1.000
 5186.00    0.96780   0.90288   -1.000
 5187.00    0.98558   0.92511   -1.000
 5188.00    0.98384   0.93547   -1.000
 5189.00    0.97670   0.93745   -1.000
 5190.00    0.98037   0.93437   -1.000
 5191.00    0.96926   0.92792   -1.000
 5192.00    0.96092   0.92166   -1.000
 5193.00    0.96522   0.91974   -1.000
 5194.00    0.97269   0.92251   -1.000
 5195.00    0.97487   0.92724   -1.000
 5196.00    0.97427   0.93240   -1.000
 5197.00    0.98834   0.93862   -1.000
 5198.00    0.98520   0.94625   -1.000
 5199.00    0.98934   0.95374   -1.000
 5200.00    0.99111   0.95823   -1.000
 5201.00    0.99113   0.95718   -1.000
 5202.00    0.98968   0.94945   -1.000
 5203.00    0.97499   0.93602   -1.000
 5204.00    0.95267   0.92037   -1.000
 5205.00    0.94361   0.90756   -1.000
 5206.00    0.94418   0.90090   -1.000
 5207.00    0.95386   0.89983   -1.000
 5208.00    0.95725   0.90243   -1.000
 5209.00    0.95280   0.90916   -1.000
 5210.00    0.95774   0.92151   -1.000
 5211.00    0.98530   0.93766   -1.000
 5212.00    1.00214   0.95216   -1.000
 5213.00    1.00994   0.95948   -1.000
 5214.00    0.99804   0.95771   -1.000
 5215.00    0.98558   0.95032   -1.000
 5216.00    0.97995   0.94442   -1.000
 5217.00    0.98160   0.94571   -1.000
 5218.00    0.99068   0.95430   -1.000
 5219.00    1.00263   0.96562   -1.000
 5220.00    1.01286   0.97463   -1.000
 5221.00    1.01382   0.97860   -1.000
 5222.00    1.00768   0.97623   -1.000
 5223.00    1.01042   0.96611   -1.000
 5224.00    0.99797   0.94737   -1.000
 5225.00    0.96663   0.92312   -1.000
 5226.00    0.93947   0.90277   -1.000
 5227.00    0.92523   0.89721   -1.000
 5228.00    0.94013   0.90883   -1.000
 5229.00    0.97307   0.92835   -1.000
 5230.00    0.99489   0.94297   -1.000
 5231.00    0.99828   0.94634   -1.000
 5232.00    0.99940   0.94084   -1.000
 5233.00    0.98657   0.93396   -1.000
 5234.00    0.98086   0.93300   -1.000
 5235.00    0.98688   0.94021   -1.000
 5236.00    0.99547   0.95205   -1.000
 5237.00    1.00579   0.96307   -1.000
 5238.00    1.00469   0.97009   -1.000
 5239.00    1.00985   0.97320   -1.000
 5240.00    1.00745   0.97402   -1.000
 5241.00    1.01417   0.97395   -1.000
 5242.00    1.01222   0.97391   -1.000
 5243.00    1.01190   0.97438   -1.000
 5244.00    1.01207   0.97453   -1.000
 5245.00    1.01034   0.97215   -1.000
 5246.00    1.00198   0.96615   -1.000
 5247.00    0.99321   0.95837   -1.000
 5248.00    0.98647   0.95178   -1.000
 5249.00    0.98147   0.94765   -1.000
 5250.00    0.97472   0.94599   -1.000
 5251.00    0.97790   0.94673   -1.000
 5252.00    0.99496   0.94898   -1.000
 5253.00    0.99154   0.95095   -1.000
 5254.00    0.97907   0.95233   -1.000
 5255.00    0.98570   0.95531   -1.000
 5256.00    0.99275   0.96173   -1.000
 5257.00    1.00759   0.96987   -1.000
 5258.00    1.01240   0.97516   -1.000
 5259.00    1.01149   0.97344   -1.000
 5260.00    1.00799   0.96320   -1.000
 5261.00    0.98974   0.94602   -1.000
 5262.00    0.96817   0.92584   -1.000
 5263.00    0.95224   0.90729   -1.000
 5264.00    0.93800   0.89418   -1.000
 5265.00    0.93262   0.88840   -1.000
 5266.00    0.94168   0.88828   -1.000
 5267.00    0.95034   0.88809   -1.000
 5268.00    0.94261   0.88284   -1.000
 5269.00    0.92399   0.87524   -1.000
 5270.00    0.91011   0.87487   -1.000
 5271.00    0.92769   0.88701   -1.000
 5272.00    0.95799   0.90540   -1.000
 5273.00    0.96891   0.91955   -1.000
 5274.00    0.97821   0.92617   -1.000
 5275.00    0.97408   0.93020   -1.000
 5276.00    0.98116   0.93758   -1.000
 5277.00    0.99455   0.94899   -1.000
 5278.00    1.00399   0.95944   -1.000
 5279.00    1.00261   0.96319   -1.000
 5280.00    1.00759   0.95870   -1.000
 5281.00    0.98785   0.94913   -1.000
 5282.00    0.97697   0.93968   -1.000
 5283.00    0.97833   0.93549   -1.000
 5284.00    0.97727   0.93989   -1.000
 5285.00    0.98926   0.95202   -1.000
 5286.00    0.99878   0.96649   -1.000
 5287.00    1.00729   0.97744   -1.000
 5288.00    1.01079   0.98308   -1.000
 5289.00    1.00859   0.98517   -1.000
 5290.00    1.00833   0.98546   -1.000
 5291.00    1.01233   0.98451   -1.000
 5292.00    1.00905   0.98263   -1.000
 5293.00    1.01084   0.97986   -1.000
 5294.00    1.00657   0.97502   -1.000
 5295.00    0.99992   0.96663   -1.000
 5296.00    0.99137   0.95525   -1.000
 5297.00    0.98028   0.94473   -1.000
 5298.00    0.96843   0.93981   -1.000
 5299.00    0.97759   0.94175   -1.000
 5300.00    0.98689   0.94747   -1.000
 5301.00    0.98841   0.95347   -1.000
 5302.00    0.99332   0.95909   -1.000
 5303.00    0.99631   0.96513   -1.000
 5304.00    1.00123   0.97079   -1.000
 5305.00    1.00245   0.97391   -1.000
 5306.00    0.99548   0.97397   -1.000
 5307.00    0.99490   0.97309   -1.000
 5308.00    0.99963   0.97383   -1.000
 5309.00    1.00133   0.97666   -1.000
 5310.00    1.00651   0.97973   -1.000
 5311.00    1.01322   0.98095   -1.000
 5312.00    1.01040   0.97938   -1.000
 5313.00    1.00829   0.97488   -1.000
 5314.00    1.00818   0.96759   -1.000
 5315.00    0.99692   0.95886   -1.000
 5316.00    0.98679   0.95219   -1.000
 5317.00    0.98174   0.95129   -1.000
 5318.00    0.98433   0.95644   -1.000
 5319.00    0.99564   0.96357   -1.000
 5320.00    1.00208   0.96755   -1.000
 5321.00    0.99957   0.96571   -1.000
 5322.00    0.98658   0.95851   -1.000
 5323.00    0.97956   0.94865   -1.000
 5324.00    0.97603   0.93893   -1.000
 5325.00    0.97206   0.92902   -1.000
 5326.00    0.97184   0.91600   -1.000
 5327.00    0.94930   0.90069   -1.000
 5328.00    0.91654   0.89139   -1.000
 5329.00    0.92229   0.89670   -1.000
 5330.00    0.95535   0.91491   -1.000
 5331.00    0.98190   0.93518   -1.000
 5332.00    0.98206   0.94871   -1.000
 5333.00    0.98368   0.95479   -1.000
 5334.00    0.99128   0.95668   -1.000
 5335.00    0.98886   0.95639   -1.000
 5336.00    0.99065   0.95440   -1.000
 5337.00    0.99314   0.95083   -1.000
 5338.00    0.99362   0.94552   -1.000
 5339.00    0.98384   0.93906   -1.000
 5340.00    0.96713   0.93433   -1.000
 5341.00    0.97030   0.93512   -1.000
 5342.00    0.97669   0.94175   -1.000
 5343.00    0.97669   0.94973   -1.000
 5344.00    0.97669   0.95405   -1.000
 5345.00    0.97702   0.95347   -1.000
 5346.00    0.98299   0.95008   -1.000
 5347.00    0.98299   0.94655   -1.000
 5348.00    0.98299   0.94464   -1.000
 5349.00    0.98305   0.94555   -1.000
 5350.00    0.98443   0.94976   -1.000
 5351.00    0.98995   0.95604   -1.000
 5352.00    1.00103   0.96214   -1.000
 5353.00    1.00071   0.96699   -1.000
 5354.00    0.99931   0.97121   -1.000
 5355.00    1.00759   0.97536   -1.000
 5356.00    1.01065   0.97881   -1.000
 5357.00    1.01087   0.98059   -1.000
 5358.00    1.00743   0.98040   -1.000
 5359.00    1.00690   0.97818   -1.000
 5360.00    1.01100   0.97369   -1.000
 5361.00    1.00515   0.96704   -1.000
 5362.00    0.99806   0.95934   -1.000
 5363.00    0.99806   0.95237   -1.000
 5364.00    0.99806   0.94758   -1.000
 5365.00    0.99806   0.94540   -1.000
 5366.00    0.99473   0.94480   -1.000
 5367.00    0.94638   0.94325  509.906
 5368.00    0.94638   0.93809   -1.000
 5369.00    0.94638   0.92879   -1.000
 5370.00    0.94638   0.91881   -1.000
 5371.00    0.94687   0.91466   -1.000
 5372.00    0.95556   0.92093   -1.000
 5373.00    0.98357   0.93561   -1.000
 5374.00    0.99714   0.95157   -1.000
 5375.00    0.99546   0.96269   -1.000
 5376.00    1.00196   0.96766   -1.000
 5377.00    1.00744   0.96833   -1.000
 5378.00    1.00284   0.96641   -1.000
 5379.00    0.99272   0.96254   -1.000
 5380.00    0.99267   0.95744   -1.000
 5381.00    0.99430   0.95263   -1.000
 5382.00    0.98895   0.94979   -1.000
 5383.00    0.97862   0.95001   -1.000
 5384.00    0.98279   0.95336   -1.000
 5385.00    0.98944   0.95858   -1.000
 5386.00    0.99774   0.96323   -1.000
 5387.00    0.99734   0.96497   -1.000
 5388.00    0.99928   0.96299   -1.000
 5389.00    0.99916   0.95817   -1.000
 5390.00    0.99543   0.95226   -1.000
 5391.00    0.99361   0.94672   -1.000
 5392.00    0.98791   0.94229   -1.000
 5393.00    0.98174   0.93885   -1.000
 5394.00    0.97880   0.93502   -1.000
 5395.00    0.97690   0.92903   -1.000
 5396.00    0.96609   0.92185   -1.000
 5397.00    0.95605   0.91802   -1.000
 5398.00    0.96448   0.92129   -1.000
 5399.00    0.97635   0.93001   -1.000
 5400.00    0.98231   0.93858   -1.000
 5401.00    0.98594   0.94211   -1.000
 5402.00    0.98467   0.93838   -1.000
 5403.00    0.97452   0.92794   -1.000
 5404.00    0.96318   0.91487   -1.000
 5405.00    0.95572   0.90584   -1.000
 5406.00    0.95816   0.90533   -1.000
 5407.00    0.96114   0.91135   -1.000
 5408.00    0.96946   0.91774   -1.000
 5409.00    0.97069   0.92112   -1.000
 5410.00    0.96460   0.92376   -1.000
 5411.00    0.97292   0.92890   -1.000
 5412.00    0.97383   0.93560   -1.000
 5413.00    0.98040   0.94048   -1.000
 5414.00    0.98856   0.94259   -1.000
 5415.00    0.98160   0.94413   -1.000
 5416.00    0.98203   0.94693   -1.000
 5417.00    0.98811   0.95022   -1.000
 5418.00    0.98752   0.95227   -1.000
 5419.00    0.98325   0.95260   -1.000
 5420.00    0.98218   0.95167   -1.000
 5421.00    0.98692   0.94953   -1.000
 5422.00    0.98453   0.94587   -1.000
 5423.00    0.97918   0.94158   -1.000
 5424.00    0.97611   0.93927   -1.000
 5425.00    0.97380   0.94096   -1.000
 5426.00    0.98288   0.94468   -1.000
 5427.00    0.98821   0.94502   -1.000
 5428.00    0.97905   0.93923   -1.000
 5429.00    0.96380   0.93110   -1.000
 5430.00    0.96041   0.92669   -1.000
 5431.00    0.96657   0.92700   -1.000
 5432.00    0.97085   0.92759   -1.000
 5433.00    0.96436   0.92521   -1.000
 5434.00    0.95400   0.92241   -1.000
 5435.00    0.94782   0.92431   -1.000
 5436.00    0.96135   0.93272   -1.000
 5437.00    0.97837   0.94463   -1.000
 5438.00    0.98157   0.95553   -1.000
 5439.00    0.98157   0.96279   -1.000
 5440.00    0.98282   0.96641   -1.000
 5441.00    0.99324   0.96733   -1.000
 5442.00    0.99324   0.96535   -1.000
 5443.00    0.99211   0.95895   -1.000
 5444.00    0.98107   0.94710   -1.000
 5445.00    0.96482   0.93206   -1.000
 5446.00    0.94786   0.92005   -1.000
 5447.00    0.94560   0.91744   -1.000
 5448.00    0.95563   0.92536   -1.000
 5449.00    0.97579   0.93848   -1.000
 5450.00    0.98876   0.94966   -1.000
 5451.00    0.99259   0.95453   -1.000
 5452.00    0.99061   0.95201   -1.000
 5453.00    0.98219   0.94305   -1.000
 5454.00    0.96576   0.93117   -1.000
 5455.00    0.94861   0.92278   -1.000
 5456.00    0.94235   0.92375   -1.000
 5457.00    0.96503   0.93394   -1.000
 5458.00    0.98125   0.94685   -1.000
 5459.00    0.98553   0.95533   -1.000
 5460.00    0.98000   0.95655   -1.000
 5461.00    0.97716   0.95202   -1.000
 5462.00    0.98088   0.94548   -1.000
 5463.00    0.97524   0.94107   -1.000
 5464.00    0.97216   0.94112   -1.000
 5465.00    0.98176   0.94473   -1.000
 5466.00    0.98305   0.94920   -1.000
 5467.00    0.98558   0.95274   -1.000
 5468.00    0.98754   0.95508   -1.000
 5469.00    0.98804   0.95620   -1.000
 5470.00    0.98388   0.95565   -1.000
 5471.00    0.98045   0.95319   -1.000
 5472.00    0.98094   0.94909   -1.000
 5473.00    0.97675   0.94325   -1.000
 5474.00    0.97022   0.93515   -1.000
 5475.00    0.96617   0.92551   -1.000
 5476.00    0.95625   0.91791   -1.000
 5477.00    0.94544   0.91688   -1.000
 5478.00    0.94955   0.92307   -1.000
 5479.00    0.96667   0.93174   -1.000
 5480.00    0.97780   0.93764   -1.000
 5481.00    0.97787   0.94002   -1.000
 5482.00    0.97469   0.94180   -1.000
 5483.00    0.97289   0.94530   -1.000
 5484.00    0.97257   0.94981   -1.000
 5485.00    0.97372   0.95281   -1.000
 5486.00    0.98011   0.95260   -1.000
 5487.00    0.98095   0.94996   -1.000
 5488.00    0.97349   0.94724   -1.000
 5489.00    0.97265   0.94630   -1.000
 5490.00    0.97652   0.94728   -1.000
 5491.00    0.97871   0.94908   -1.000
 5492.00    0.98052   0.95048   -1.000
 5493.00    0.98159   0.95069   -1.000
 5494.00    0.98601   0.94936   -1.000
 5495.00    0.97887   0.94633   -1.000
 5496.00    0.96960   0.94227   -1.000
 5497.00    0.96311   0.93913   -1.000
 5498.00    0.96021   0.93832   -1.000
 5499.00    0.96636   0.93857   -1.000
 5500.00    0.96676   0.93731   -1.000
 5501.00    0.96026   0.93446   -1.000
 5502.00    0.96103   0.93269   -1.000
 5503.00    0.96682   0.93324   -1.000
 5504.00    0.97165   0.93375   -1.000
 5505.00    0.97219   0.93176   -1.000
 5506.00    0.96271   0.92851   -1.000
 5507.00    0.95342   0.92766   -1.000
 5508.00    0.96004   0.93059   -1.000
 5509.00    0.96855   0.93465   -1.000
 5510.00    0.97914   0.93624   -1.000
 5511.00    0.97644   0.93442   -1.000
 5512.00    0.96545   0.93118   -1.000
 5513.00    0.95735   0.92932   -1.000
 5514.00    0.96167   0.93050   -1.000
 5515.00    0.96970   0.93458   -1.000
 5516.00    0.97558   0.94026   -1.000
 5517.00    0.97875   0.94605   -1.000
 5518.00    0.98091   0.95066   -1.000
 5519.00    0.98476   0.95324   -1.000
 5520.00    0.98378   0.95384   -1.000
 5521.00    0.98117   0.95334   -1.000
 5522.00    0.98243   0.95245   -1.000
 5523.00    0.98188   0.95052   -1.000
 5524.00    0.97706   0.94578   -1.000
 5525.00    0.97115   0.93697   -1.000
 5526.00    0.95976   0.92541   -1.000
 5527.00    0.94527   0.91553   -1.000
 5528.00    0.93936   0.91232   -1.000
 5529.00    0.94504   0.91745   -1.000
 5530.00    0.95675   0.92742   -1.000
 5531.00    0.96631   0.93607   -1.000
 5532.00    0.97216   0.93930   -1.000
 5533.00    0.97193   0.93756   -1.000
 5534.00    0.96712   0.93454   -1.000
 5535.00    0.96045   0.93397   -1.000
 5536.00    0.96586   0.93689   -1.000
 5537.00    0.97280   0.94153   -1.000
 5538.00    0.96926   0.94576   -1.000
 5539.00    0.97376   0.94870   -1.000
 5540.00    0.97460   0.95027   -1.000
 5541.00    0.97345   0.95019   -1.000
 5542.00    0.97835   0.94837   -1.000
 5543.00    0.97497   0.94578   -1.000
 5544.00    0.97507   0.94402   -1.000
 5545.00    0.97521   0.94404   -1.000
 5546.00    0.97418   0.94572   -1.000
 5547.00    0.97355   0.94858   -1.000
 5548.00    0.97645   0.95198   -1.000
 5549.00    0.98365   0.95478   -1.000
 5550.00    0.98005   0.95582   -1.000
 5551.00    0.97681   0.95492   -1.000
 5552.00    0.97524   0.95283   -1.000
 5553.00    0.96872   0.95057   -1.000
 5554.00    0.96647   0.94904   -1.000
 5555.00    0.96629   0.94869   -1.000
 5556.00    0.97252   0.94928   -1.000
 5557.00    0.97365   0.95012   -1.000
 5558.00    0.97406   0.95074   -1.000
 5559.00    0.96858   0.95088   -1.000
 5560.00    0.97113   0.95002   -1.000
 5561.00    0.97322   0.94782   -1.000
 5562.00    0.96630   0.94487   -1.000
 5563.00    0.96358   0.94227   -1.000
 5564.00    0.96464   0.94058   -1.000
 5565.00    0.96345   0.93932   -1.000
 5566.00    0.95749   0.93787   -1.000
 5567.00    0.95770   0.93607   -1.000
 5568.00    0.96053   0.93417   -1.000
 5569.00    0.96852   0.93253   -1.000
 5570.00    1.00587   0.93101   -1.000
 5571.00    1.11103   0.92920   -1.000
 5572.00    1.23385   0.92765   -1.000
 5573.00    1.11130   0.92776   -1.000
 5574.00    0.77733   0.92996   -1.000
 5575.00    0.62059   0.93315   -1.000
 5576.00    0.73425   0.93616   -1.000
 5577.00    0.90773   0.93880   -1.000
 5578.00    0.94914   0.94106   -1.000
 5579.00    0.96353   0.94244   -1.000
 5580.00    0.96404   0.94251   -1.000
 5581.00    0.95757   0.94172   -1.000
 5582.00    0.96052   0.94084   -1.000
 5583.00    0.96307   0.93930   -1.000
 5584.00    0.96261   0.93499   -1.000
 5585.00    0.96347   0.92642   -1.000
 5586.00    0.94775   0.91508   -1.000
 5587.00    0.93357   0.90510   -1.000
 5588.00    0.92667   0.90040   -1.000
 5589.00    0.92522   0.90219   -1.000
 5590.00    0.93211   0.90858   -1.000
 5591.00    0.94442   0.91577   -1.000
 5592.00    0.94938   0.92057   -1.000
 5593.00    0.95090   0.92259   -1.000
 5594.00    0.94584   0.92393   -1.000
 5595.00    0.94522   0.92599   -1.000
 5596.00    0.95348   0.92748   -1.000
 5597.00    0.95565   0.92643   -1.000
 5598.00    0.94992   0.92313   -1.000
 5599.00    0.94244   0.91917   -1.000
 5600.00    0.94027   0.91537   -1.000
 5601.00    0.94244   0.91268   -1.000
 5602.00    0.93511   0.91348   -1.000
 5603.00    0.93625   0.91953   -1.000
 5604.00    0.94929   0.92960   -1.000
 5605.00    0.96567   0.94012   -1.000
 5606.00    0.96822   0.94798   -1.000
 5607.00    0.96523   0.95237   -1.000
 5608.00    0.96569   0.95433   -1.000
 5609.00    0.96671   0.95524   -1.000
 5610.00    0.96910   0.95558   -1.000
 5611.00    0.96992   0.95430   -1.000
 5612.00    0.97002   0.94935   -1.000
 5613.00    0.96853   0.93965   -1.000
 5614.00    0.95361   0.92768   -1.000
 5615.00    0.93622   0.91918   -1.000
 5616.00    0.93516   0.91862   -1.000
 5617.00    0.94510   0.92494   -1.000
 5618.00    0.95641   0.93306   -1.000
 5619.00    0.96869   0.93905   -1.000
 5620.00    0.97396   0.94214   -1.000
 5621.00    0.96757   0.94272   -1.000
 5622.00    0.96464   0.94078   -1.000
 5623.00    0.96058   0.93686   -1.000
 5624.00    0.95081   0.93314   -1.000
 5625.00    0.95203   0.93221   -1.000
 5626.00    0.95633   0.93474   -1.000
 5627.00    0.95777   0.93916   -1.000
 5628.00    0.96240   0.94347   -1.000
 5629.00    0.96930   0.94665   -1.000
 5630.00    0.97259   0.94847   -1.000
 5631.00    0.96702   0.94899   -1.000
 5632.00    0.96741   0.94828   -1.000
 5633.00    0.97179   0.94663   -1.000
 5634.00    0.96445   0.94439   -1.000
 5635.00    0.96377   0.94180   -1.000
 5636.00    0.96030   0.93919   -1.000
 5637.00    0.95579   0.93704   -1.000
 5638.00    0.96221   0.93554   -1.000
 5639.00    0.96282   0.93435   -1.000
 5640.00    0.95479   0.93321   -1.000
 5641.00    0.95180   0.93262   -1.000
 5642.00    0.95585   0.93327   -1.000
 5643.00    0.95980   0.93502   -1.000
 5644.00    0.95904   0.93708   -1.000
 5645.00    0.96258   0.93882   -1.000
 5646.00    0.96777   0.93993   -1.000
 5647.00    0.96419   0.94033   -1.000
 5648.00    0.96559   0.94012   -1.000
 5649.00    0.96437   0.93965   -1.000
 5650.00    0.96165   0.93945   -1.000
 5651.00    0.96136   0.93959   -1.000
 5652.00    0.96473   0.93944   -1.000
 5653.00    0.96296   0.93818   -1.000
 5654.00    0.95942   0.93503   -1.000
 5655.00    0.95546   0.92918   -1.000
 5656.00    0.94815   0.92060   -1.000
 5657.00    0.94244   0.91168   -1.000
 5658.00    0.93554   0.90663   -1.000
 5659.00    0.93552   0.90767   -1.000
 5660.00    0.94325   0.91263   -1.000
 5661.00    0.95106   0.91782   -1.000
 5662.00    0.95141   0.92208   -1.000
 5663.00    0.94644   0.92642   -1.000
 5664.00    0.95267   0.93066   -1.000
 5665.00    0.95964   0.93280   -1.000
 5666.00    0.95767   0.93181   -1.000
 5667.00    0.95695   0.92925   -1.000
 5668.00    0.95390   0.92775   -1.000
 5669.00    0.95281   0.92866   -1.000
 5670.00    0.95826   0.93153   -1.000
 5671.00    0.95939   0.93511   -1.000
 5672.00    0.96237   0.93821   -1.000
 5673.00    0.97034   0.94022   -1.000
 5674.00    0.96961   0.94114   -1.000
 5675.00    0.96082   0.94152   -1.000
 5676.00    0.96083   0.94179   -1.000
 5677.00    0.96075   0.94174   -1.000
 5678.00    0.96037   0.94073   -1.000
 5679.00    0.95584   0.93831   -1.000
 5680.00    0.95377   0.93435   -1.000
 5681.00    0.95415   0.92919   -1.000
 5682.00    0.94596   0.92404   -1.000
 5683.00    0.93982   0.92062   -1.000
 5684.00    0.94325   0.91987   -1.000
 5685.00    0.93762   0.92095   -1.000
 5686.00    0.93400   0.92207   -1.000
 5687.00    0.92867   0.92229   -1.000
 5688.00    0.93557   0.92238   -1.000
 5689.00    0.94263   0.92368   -1.000
 5690.00    0.94423   0.92668   -1.000
 5691.00    0.95514   0.93060   -1.000
 5692.00    0.95841   0.93411   -1.000
 5693.00    0.95565   0.93644   -1.000
 5694.00    0.95468   0.93760   -1.000
 5695.00    0.95509   0.93788   -1.000
 5696.00    0.95860   0.93731   -1.000
 5697.00    0.95619   0.93559   -1.000
 5698.00    0.95445   0.93257   -1.000
 5699.00    0.95295   0.92873   -1.000
 5700.00    0.95229   0.92519   -1.000
 5701.00    0.94712   0.92321   -1.000
 5702.00    0.94369   0.92332   -1.000
 5703.00    0.94750   0.92469   -1.000
 5704.00    0.94855   0.92540   -1.000
 5705.00    0.94964   0.92383   -1.000
 5706.00    0.94983   0.91965   -1.000
 5707.00    0.94129   0.91362   -1.000
 5708.00    0.93143   0.90721   -1.000
 5709.00    0.92668   0.90253   -1.000
 5710.00    0.92108   0.90153   -1.000
 5711.00    0.92335   0.90491   -1.000
 5712.00    0.93433   0.91149   -1.000
 5713.00    0.94127   0.91891   -1.000
 5714.00    0.94936   0.92502   -1.000
 5715.00    0.95120   0.92907   -1.000
 5716.00    0.94844   0.93159   -1.000
 5717.00    0.94920   0.93347   -1.000
 5718.00    0.94837   0.93532   -1.000
 5719.00    0.95429   0.93727   -1.000
 5720.00    0.95821   0.93911   -1.000
 5721.00    0.96048   0.94050   -1.000
 5722.00    0.96121   0.94132   -1.000
 5723.00    0.96223   0.94144   -1.000
 5724.00    0.95411   0.94052   -1.000
 5725.00    0.95446   0.93837   -1.000
 5726.00    0.95834   0.93558   -1.000
 5727.00    0.95692   0.93331   -1.000
 5728.00    0.95626   0.93229   -1.000
 5729.00    0.95512   0.93233   -1.000
 5730.00    0.95108   0.93273   -1.000
 5731.00    0.95335   0.93322   -1.000
 5732.00    0.95275   0.93421   -1.000
 5733.00    0.95600   0.93595   -1.000
 5734.00    0.95422   0.93781   -1.000
 5735.00    0.95616   0.93892   -1.000
 5736.00    0.95404   0.93910   -1.000
 5737.00    0.95411   0.93885   -1.000
 5738.00    0.95334   0.93861   -1.000
 5739.00    0.95213   0.93847   -1.000
 5740.00    0.95243   0.93820   -1.000
 5741.00    0.95359   0.93767   -1.000
 5742.00    0.95253   0.93721   -1.000
 5743.00    0.95278   0.93723   -1.000
 5744.00    0.95379   0.93758   -1.000
 5745.00    0.95195   0.93750   -1.000
 5746.00    0.95060   0.93659   -1.000
 5747.00    0.94965   0.93549   -1.000
 5748.00    0.94831   0.93512   -1.000
 5749.00    0.94722   0.93529   -1.000
 5750.00    0.94747   0.93459   -1.000
 5751.00    0.95209   0.93186   -1.000
 5752.00    0.95225   0.92784   -1.000
 5753.00    0.94631   0.92488   -1.000
 5754.00    0.94315   0.92508   -1.000
 5755.00    0.94657   0.92854   -1.000
 5756.00    0.94666   0.93346   -1.000
 5757.00    0.94637   0.93762   -1.000
 5758.00    0.94955   0.93940   -1.000
 5759.00    0.95285   0.93826   -1.000
 5760.00    0.95528   0.93480   -1.000
 5761.00    0.95509   0.93079   -1.000
 5762.00    0.94724   0.92861   -1.000
 5763.00    0.93931   0.92982   -1.000
 5764.00    0.94219   0.93383   -1.000
 5765.00    0.94687   0.93823   -1.000
 5766.00    0.94914   0.94101   -1.000
 5767.00    0.95326   0.94175   -1.000
 5768.00    0.95721   0.94114   -1.000
 5769.00    0.95607   0.93992   -1.000
 5770.00    0.95814   0.93848   -1.000
 5771.00    0.96214   0.93690   -1.000
 5772.00    0.96087   0.93520   -1.000
 5773.00    0.95245   0.93345   -1.000
 5774.00    0.94785   0.93198   -1.000
 5775.00    0.94789   0.93121   -1.000
 5776.00    0.95019   0.93094   -1.000
 5777.00    0.95345   0.93005   -1.000
 5778.00    0.95015   0.92755   -1.000
 5779.00    0.94834   0.92351   -1.000
 5780.00    0.95044   0.91907   -1.000
 5781.00    0.94859   0.91564   -1.000
 5782.00    0.94670   0.91406   -1.000
 5783.00    0.94521   0.91416   -1.000
 5784.00    0.94871   0.91530   -1.000
 5785.00    0.95344   0.91704   -1.000
 5786.00    0.95112   0.91933   -1.000
 5787.00    0.94955   0.92188   -1.000
 5788.00    0.94869   0.92399   -1.000
 5789.00    0.94861   0.92500   -1.000
 5790.00    0.95037   0.92512   -1.000
 5791.00    0.95393   0.92547   -1.000
 5792.00    0.94759   0.92706   -1.000
 5793.00    0.94511   0.92980   -1.000
 5794.00    0.94957   0.93252   -1.000
 5795.00    0.95894   0.93391   -1.000
 5796.00    0.96110   0.93357   -1.000
 5797.00    0.95631   0.93256   -1.000
 5798.00    0.95596   0.93243   -1.000
 5799.00    0.95588   0.93375   -1.000
 5800.00    0.95877   0.93571   -1.000
 5801.00    0.96090   0.93707   -1.000
 5802.00    0.96120   0.93708   -1.000
 5803.00    0.96156   0.93583   -1.000
 5804.00    0.96136   0.93421   -1.000
 5805.00    0.95854   0.93329   -1.000
 5806.00    0.95356   0.93357   -1.000
 5807.00    0.95004   0.93467   -1.000
 5808.00    0.95537   0.93593   -1.000
 5809.00    0.96260   0.93701   -1.000
 5810.00    0.96249   0.93791   -1.000
 5811.00    0.95950   0.93849   -1.000
 5812.00    0.96017   0.93830   -1.000
 5813.00    0.96014   0.93706   -1.000
 5814.00    0.95568   0.93508   -1.000
 5815.00    0.95472   0.93344   -1.000
 5816.00    0.95984   0.93328   -1.000
 5817.00    0.96131   0.93485   -1.000
 5818.00    0.95735   0.93719   -1.000
 5819.00    0.95854   0.93912   -1.000
 5820.00    0.96484   0.94016   -1.000
 5821.00    0.96670   0.94057   -1.000
 5822.00    0.96226   0.94073   -1.000
 5823.00    0.95855   0.94075   -1.000
 5824.00    0.95748   0.94067   -1.000
 5825.00    0.96254   0.94067   -1.000
 5826.00    0.96020   0.94092   -1.000
 5827.00    0.96173   0.94146   -1.000
 5828.00    0.96799   0.94205   -1.000
 5829.00    0.96724   0.94233   -1.000
 5830.00    0.96670   0.94212   -1.000
 5831.00    0.96602   0.94140   -1.000
 5832.00    0.96315   0.94026   -1.000
 5833.00    0.96385   0.93893   -1.000
 5834.00    0.96509   0.93789   -1.000
 5835.00    0.96248   0.93763   -1.000
 5836.00    0.96317   0.93823   -1.000
 5837.00    0.95801   0.93939   -1.000
 5838.00    0.95983   0.94065   -1.000
 5839.00    0.96272   0.94166   -1.000
 5840.00    0.96437   0.94213   -1.000
 5841.00    0.96183   0.94184   -1.000
 5842.00    0.95469   0.94075   -1.000
 5843.00    0.96083   0.93904   -1.000
 5844.00    0.96318   0.93704   -1.000
 5845.00    0.96217   0.93508   -1.000
 5846.00    0.96117   0.93352   -1.000
 5847.00    0.96186   0.93261   -1.000
 5848.00    0.96188   0.93213   -1.000
 5849.00    0.96068   0.93131   -1.000
 5850.00    0.95932   0.92920   -1.000
 5851.00    0.96134   0.92549   -1.000
 5852.00    0.95395   0.92108   -1.000
 5853.00    0.94373   0.91736   -1.000
 5854.00    0.94164   0.91465   -1.000
 5855.00    0.94612   0.91175   -1.000
 5856.00    0.94929   0.90805   -1.000
 5857.00    0.94301   0.90506   -1.000
 5858.00    0.94046   0.90500   -1.000
 5859.00    0.94684   0.90822   -1.000
 5860.00    0.95185   0.91296   -1.000
 5861.00    0.95455   0.91726   -1.000
 5862.00    0.95395   0.92039   -1.000
 5863.00    0.95242   0.92229   -1.000
 5864.00    0.94789   0.92278   -1.000
 5865.00    0.94648   0.92196   -1.000
 5866.00    0.94748   0.92088   -1.000
 5867.00    0.94659   0.92093   -1.000
 5868.00    0.94594   0.92259   -1.000
 5869.00    0.94701   0.92513   -1.000
 5870.00    0.95204   0.92726   -1.000
 5871.00    0.95867   0.92807   -1.000
 5872.00    0.95927   0.92749   -1.000
 5873.00    0.95341   0.92601   -1.000
 5874.00    0.95127   0.92422   -1.000
 5875.00    0.95191   0.92257   -1.000
 5876.00    0.95161   0.92114   -1.000
 5877.00    0.94906   0.91959   -1.000
 5878.00    0.94481   0.91762   -1.000
 5879.00    0.94309   0.91538   -1.000
 5880.00    0.94985   0.91318   -1.000
 5881.00    0.95115   0.91089   -1.000
 5882.00    0.95102   0.90818   -1.000
 5883.00    0.95707   0.90503   -1.000
 5884.00    0.95633   0.90149   -1.000
 5885.00    0.92732   0.89618   -1.000
 5886.00    0.87662   0.88541   -1.000
 5887.00    0.83315   0.86602   -1.000
 5888.00    0.83312   0.84089   -1.000
 5889.00    0.85847   0.82017   -1.000
 5890.00    0.87334   0.81358   -1.000
 5891.00    0.86781   0.82107   -1.000
 5892.00    0.85225   0.83263   -1.000
 5893.00    0.84753   0.83741   -1.000
 5894.00    0.85716   0.83300   -1.000
 5895.00    0.86834   0.82668   -1.000
 5896.00    0.87228   0.82766   -1.000
 5897.00    0.88475   0.83851   -1.000
 5898.00    0.90107   0.85465   -1.000
 5899.00    0.92153   0.87031   -1.000
 5900.00    0.93608   0.88276   -1.000
 5901.00    0.94113   0.89185   -1.000
 5902.00    0.94180   0.89812   -1.000
 5903.00    0.93976   0.90211   -1.000
 5904.00    0.93772   0.90446   -1.000
 5905.00    0.93551   0.90594   -1.000
 5906.00    0.93240   0.90709   -1.000
 5907.00    0.93657   0.90817   -1.000
 5908.00    0.93717   0.90921   -1.000
 5909.00    0.93740   0.90995   -1.000
 5910.00    0.94239   0.90989   -1.000
 5911.00    0.94288   0.90845   -1.000
 5912.00    0.93288   0.90540   -1.000
 5913.00    0.92590   0.90135   -1.000
 5914.00    0.92319   0.89776   -1.000
 5915.00    0.92024   0.89594   -1.000
 5916.00    0.92046   0.89625   -1.000
 5917.00    0.92313   0.89821   -1.000
 5918.00    0.92882   0.90089   -1.000
 5919.00    0.93187   0.90329   -1.000
 5920.00    0.93176   0.90482   -1.000
 5921.00    0.93098   0.90550   -1.000
 5922.00    0.93085   0.90584   -1.000
 5923.00    0.93564   0.90651   -1.000
 5924.00    0.94184   0.90780   -1.000
 5925.00    0.94117   0.90926   -1.000
 5926.00    0.93508   0.90997   -1.000
 5927.00    0.93450   0.90915   -1.000
 5928.00    0.93705   0.90699   -1.000
 5929.00    0.93585   0.90484   -1.000
 5930.00    0.93172   0.90411   -1.000
 5931.00    0.92845   0.90487   -1.000
 5932.00    0.93083   0.90597   -1.000
 5933.00    0.93206   0.90636   -1.000
 5934.00    0.92789   0.90620   -1.000
 5935.00    0.91975   0.90640   -1.000
 5936.00    0.91638   0.90722   -1.000
 5937.00    0.91862   0.90788   -1.000
 5938.00    0.91977   0.90736   -1.000
 5939.00    0.92216   0.90554   -1.000
 5940.00    0.92325   0.90326   -1.000
 5941.00    0.92210   0.90152   -1.000
 5942.00    0.91729   0.90097   -1.000
 5943.00    0.92034   0.90164   -1.000
 5944.00    0.92335   0.90287   -1.000
 5945.00    0.92241   0.90357   -1.000
 5946.00    0.92582   0.90303   -1.000
 5947.00    0.92996   0.90172   -1.000
 5948.00    0.93186   0.90095   -1.000
 5949.00    0.92778   0.90140   -1.000
 5950.00    0.92083   0.90250   -1.000
 5951.00    0.92343   0.90326   -1.000
 5952.00    0.92543   0.90338   -1.000
 5953.00    0.92221   0.90312   -1.000
 5954.00    0.92465   0.90254   -1.000
 5955.00    0.92552   0.90159   -1.000
 5956.00    0.92485   0.90080   -1.000
 5957.00    0.92549   0.90105   -1.000
 5958.00    0.92956   0.90269   -1.000
 5959.00    0.92821   0.90523   -1.000
 5960.00    0.92838   0.90777   -1.000
 5961.00    0.92800   0.90956   -1.000
 5962.00    0.92492   0.91014   -1.000
 5963.00    0.92110   0.90944   -1.000
 5964.00    0.92103   0.90784   -1.000
 5965.00    0.92287   0.90618   -1.000
 5966.00    0.92343   0.90527   -1.000
 5967.00    0.92900   0.90538   -1.000
 5968.00    0.93079   0.90626   -1.000
 5969.00    0.93358   0.90753   -1.000
 5970.00    0.93603   0.90880   -1.000
 5971.00    0.93028   0.90963   -1.000
 5972.00    0.92565   0.90966   -1.000
 5973.00    0.92358   0.90863   -1.000
 5974.00    0.92153   0.90646   -1.000
 5975.00    0.92186   0.90364   -1.000
 5976.00    0.92340   0.90126   -1.000
 5977.00    0.92315   0.90034   -1.000
 5978.00    0.92331   0.90120   -1.000
 5979.00    0.92449   0.90309   -1.000
 5980.00    0.92455   0.90453   -1.000
 5981.00    0.92415   0.90427   -1.000
 5982.00    0.92186   0.90213   -1.000
 5983.00    0.92203   0.89928   -1.000
 5984.00    0.92246   0.89738   -1.000
 5985.00    0.91987   0.89732   -1.000
 5986.00    0.91836   0.89877   -1.000
 5987.00    0.91778   0.90071   -1.000
 5988.00    0.91834   0.90217   -1.000
 5989.00    0.92273   0.90271   -1.000
 5990.00    0.92555   0.90275   -1.000
 5991.00    0.92494   0.90328   -1.000
 5992.00    0.92445   0.90490   -1.000
 5993.00    0.92227   0.90704   -1.000
 5994.00    0.91885   0.90835   -1.000
 5995.00    0.92046   0.90805   -1.000
 5996.00    0.92351   0.90658   -1.000
 5997.00    0.91836   0.90510   -1.000
 5998.00    0.91503   0.90440   -1.000
 5999.00    0.92000   0.90425   -1.000
 6000.00    0.92154   0.90391   -1.000
 6001.00    0.91676   0.90300   -1.000
 6002.00    0.91509   0.90179   -1.000
 6003.00    0.91505   0.90079   -1.000
 6004.00    0.91215   0.89984   -1.000
 6005.00    0.91433   0.89827   -1.000
 6006.00    0.91554   0.89595   -1.000
 6007.00    0.91384   0.89399   -1.000
 6008.00    0.91403   0.89391   -1.000
 6009.00    0.91548   0.89589   -1.000
 6010.00    0.91443   0.89839   -1.000
 6011.00    0.91155   0.89976   -1.000
 6012.00    0.91286   0.89977   -1.000
 6013.00    0.91541   0.89938   -1.000
 6014.00    0.91469   0.89921   -1.000
 6015.00    0.91261   0.89907   -1.000
 6016.00    0.91098   0.89856   -1.000
 6017.00    0.91019   0.89748   -1.000
 6018.00    0.91324   0.89590   -1.000
 6019.00    0.91413   0.89419   -1.000
 6020.00    0.91042   0.89289   -1.000
 6021.00    0.90736   0.89237   -1.000
 6022.00    0.91039   0.89269   -1.000
 6023.00    0.91024   0.89381   -1.000
 6024.00    0.90685   0.89574   -1.000
 6025.00    0.90820   0.89817   -1.000
 6026.00    0.91084   0.90054   -1.000
 6027.00    0.90879   0.90254   -1.000
 6028.00    0.91267   0.90411   -1.000
 6029.00    0.91671   0.90530   -1.000
 6030.00    0.91785   0.90619   -1.000
 6031.00    0.92128   0.90684   -1.000
 6032.00    0.92049   0.90739   -1.000
 6033.00    0.91839   0.90805   -1.000
 6034.00    0.91260   0.90879  526.781
 6035.00    0.91340   0.90920  528.961
 6036.00    0.91744   0.90879   -1.000
 6037.00    0.91801   0.90744   -1.000
 6038.00    0.91352   0.90545   -1.000
 6039.00    0.90930   0.90318   -1.000
 6040.00    0.90990   0.90082   -1.000
 6041.00    0.90740   0.89825   -1.000
 6042.00    0.90776   0.89627   -1.000
 6043.00    0.91124   0.89669   -1.000
 6044.00    0.91205   0.89969   -1.000
 6045.00    0.90649   0.90348  523.239
 6046.00    0.90415   0.90628  524.815
 6047.00    0.91041   0.90757  525.548
 6048.00    0.91293   0.90761   -1.000
 6049.00    0.91224   0.90697   -1.000
 6050.00    0.91354   0.90615   -1.000
 6051.00    0.91169   0.90530   -1.000
 6052.00    0.91058   0.90428   -1.000
 6053.00    0.90774   0.90289   -1.000
 6054.00    0.91227   0.90121   -1.000
 6055.00    0.92074   0.89974   -1.000
 6056.00    0.93569   0.89902   -1.000
 6057.00    0.73121   0.89922   -1.000
 6058.00    0.34394   0.90003   -1.000
 6059.00    0.43066   0.90091   -1.000
 6060.00    0.80813   0.90103   -1.000
 6061.00    0.92471   0.89960   -1.000
 6062.00    0.94282   0.89634   -1.000
 6063.00    0.73852   0.89198   -1.000
 6064.00    0.40680   0.88832   -1.000
 6065.00    0.62012   0.88742   -1.000
 6066.00    0.91538   0.88994   -1.000
 6067.00    0.88949   0.89441  511.573
 6068.00    0.89790   0.89875  514.939
 6069.00    0.90328   0.90181  523.297
 6070.00    0.90486   0.90362  524.483
 6071.00    0.89737   0.90472   -1.000
 6072.00    0.89649   0.90545   -1.000
 6073.00    0.90076   0.90566  530.939
 6074.00    0.89884   0.90505  534.588
 6075.00    0.89593   0.90351   -1.000
 6076.00    0.89680   0.90133  539.933
 6077.00    0.90044   0.89908  540.131
 6078.00    0.89898   0.89734  541.254
 6079.00    0.89770   0.89628  542.012
 6080.00    0.89761   0.89549  541.649
 6081.00    0.89435   0.89447  541.149
 6082.00    0.89520   0.89332  540.014
 6083.00    0.89694   0.89253  538.034
 6084.00    0.89520   0.89245  537.598
 6085.00    0.89337   0.89309  540.111
 6086.00    0.89234   0.89423  542.977
 6087.00    0.89155   0.89530  543.772
 6088.00    0.89363   0.89566  541.545
 6089.00    0.89701   0.89507  538.295
 6090.00    0.89726   0.89392  535.489
 6091.00    0.89613   0.89314  532.809
 6092.00    0.89472   0.89337  531.937
 6093.00    0.89317   0.89459  532.928
 6094.00    0.89244   0.89634  533.769
 6095.00    0.89046   0.89810   -1.000
 6096.00    0.88980   0.89960   -1.000
 6097.00    0.89060   0.90037   -1.000
 6098.00    0.88751   0.89958   -1.000
 6099.00    0.88616   0.89619   -1.000
 6100.00    0.88743   0.88991  552.111
 6101.00    0.88231   0.88231  542.478
 6102.00    0.87407   0.87681  538.001
 6103.00    0.87169   0.87615  538.715
 6104.00    0.87285   0.88009   -1.000
 6105.00    0.87910   0.88592   -1.000
 6106.00    0.88524   0.89119  540.107
 6107.00    0.88617   0.89502   -1.000
 6108.00    0.88611   0.89758   -1.000
 6109.00    0.88293   0.89898   -1.000
 6110.00    0.88171   0.89921   -1.000
 6111.00    0.88030   0.89864   -1.000
 6112.00    0.88530   0.89802   -1.000
 6113.00    0.89144   0.89778  539.238
 6114.00    0.88736   0.89785   -1.000
 6115.00    0.88296   0.89787   -1.000
 6116.00    0.88410   0.89743   -1.000
 6117.00    0.88477   0.89573   -1.000
 6118.00    0.88072   0.89164   -1.000
 6119.00    0.87640   0.88507   -1.000
 6120.00    0.87346   0.87721  548.991
 6121.00    0.87147   0.87087  546.037
 6122.00    0.86624   0.86932  548.194
 6123.00    0.86470   0.87293   -1.000
 6124.00    0.87205   0.87907   -1.000
 6125.00    0.87623   0.88448   -1.000
 6126.00    0.87807   0.88733   -1.000
 6127.00    0.87884   0.88778   -1.000
 6128.00    0.87933   0.88784   -1.000
 6129.00    0.87877   0.88948   -1.000
 6130.00    0.87730   0.89255   -1.000
 6131.00    0.88055   0.89536   -1.000
 6132.00    0.88265   0.89584   -1.000
 6133.00    0.87853   0.89209   -1.000
 6134.00    0.87004   0.88342   -1.000
 6135.00    0.86150   0.87177   -1.000
 6136.00    0.85208   0.86199   -1.000
 6137.00    0.84194   0.85821   -1.000
 6138.00    0.84284   0.86004   -1.000
 6139.00    0.85054   0.86354   -1.000
 6140.00    0.85183   0.86627   -1.000
 6141.00    0.85061   0.86918   -1.000
 6142.00    0.85380   0.87381   -1.000
 6143.00    0.86088   0.87957   -1.000
 6144.00    0.86770   0.88422   -1.000
 6145.00    0.87265   0.88617   -1.000
 6146.00    0.87265   0.88550   -1.000
 6147.00    0.86825   0.88344   -1.000
 6148.00    0.86468   0.88152   -1.000
 6149.00    0.86478   0.88081   -1.000
 6150.00    0.86735   0.88149   -1.000
 6151.00    0.86984   0.88293   -1.000
 6152.00    0.87104   0.88408   -1.000
 6153.00    0.87192   0.88400   -1.000
 6154.00    0.87079   0.88268   -1.000
 6155.00    0.86893   0.88086   -1.000
 6156.00    0.86491   0.87904   -1.000
 6157.00    0.86170   0.87690   -1.000
 6158.00    0.86277   0.87302   -1.000
 6159.00    0.85941   0.86573   -1.000
 6160.00    0.85411   0.85529  593.948
 6161.00    0.84719   0.84531  581.565
 6162.00    0.84231   0.84031  576.985
 6163.00    0.84154   0.84189  577.210
 6164.00    0.84417   0.84769  582.540
 6165.00    0.85319   0.85387  589.493
 6166.00    0.85965   0.85761  589.077
 6167.00    0.85823   0.85804  579.805
 6168.00    0.85429   0.85629  570.120
 6169.00    0.85125   0.85515  567.537
 6170.00    0.84952   0.85678   -1.000
 6171.00    0.85092   0.86098   -1.000
 6172.00    0.85016   0.86603   -1.000
 6173.00    0.85345   0.87047   -1.000
 6174.00    0.85982   0.87375   -1.000
 6175.00    0.86310   0.87578   -1.000
 6176.00    0.86273   0.87690   -1.000
 6177.00    0.85984   0.87750   -1.000
 6178.00    0.86234   0.87782   -1.000
 6179.00    0.86395   0.87815   -1.000
 6180.00    0.86181   0.87881   -1.000
 6181.00    0.86289   0.87977   -1.000
 6182.00    0.86456   0.88060   -1.000
 6183.00    0.86894   0.88087   -1.000
 6184.00    0.86677   0.88036   -1.000
 6185.00    0.86490   0.87892   -1.000
 6186.00    0.86465   0.87656   -1.000
 6187.00    0.85979   0.87322   -1.000
 6188.00    0.85566   0.86859   -1.000
 6189.00    0.85066   0.86290   -1.000
 6190.00    0.84462   0.85792   -1.000
 6191.00    0.83675   0.85637   -1.000
 6192.00    0.83628   0.85938   -1.000
 6193.00    0.84437   0.86527   -1.000
 6194.00    0.85462   0.87135   -1.000
 6195.00    0.86004   0.87573   -1.000
 6196.00    0.86062   0.87772   -1.000
 6197.00    0.86164   0.87738   -1.000
 6198.00    0.85993   0.87555   -1.000
 6199.00    0.85475   0.87398   -1.000
 6200.00    0.85027   0.87415   -1.000
 6201.00    0.84973   0.87614   -1.000
 6202.00    0.85133   0.87897   -1.000
 6203.00    0.85487   0.88152   -1.000
 6204.00    0.85721   0.88324   -1.000
 6205.00    0.85523   0.88415   -1.000
 6206.00    0.85366   0.88447   -1.000
 6207.00    0.85476   0.88432   -1.000
 6208.00    0.85524   0.88359   -1.000
 6209.00    0.85443   0.88198   -1.000
 6210.00    0.85281   0.87922   -1.000
 6211.00    0.85021   0.87519   -1.000
 6212.00    0.84741   0.87042   -1.000
 6213.00    0.84287   0.86612   -1.000
 6214.00    0.83999   0.86338   -1.000
 6215.00    0.84182   0.86224   -1.000
 6216.00    0.84633   0.86186   -1.000
 6217.00    0.84806   0.86121   -1.000
 6218.00    0.84586   0.86029   -1.000
 6219.00    0.83873   0.85993   -1.000
 6220.00    0.83563   0.86093   -1.000
 6221.00    0.83881   0.86310   -1.000
 6222.00    0.84378   0.86535   -1.000
 6223.00    0.84636   0.86700   -1.000
 6224.00    0.84655   0.86792   -1.000
 6225.00    0.84773   0.86804   -1.000
 6226.00    0.84748   0.86684   -1.000
 6227.00    0.84334   0.86351   -1.000
 6228.00    0.83833   0.85792   -1.000
 6229.00    0.83327   0.85160   -1.000
 6230.00    0.82634   0.84722   -1.000
 6231.00    0.82405   0.84692   -1.000
 6232.00    0.82141   0.85065   -1.000
 6233.00    0.82105   0.85635   -1.000
 6234.00    0.82983   0.86124   -1.000
 6235.00    0.83777   0.86341   -1.000
 6236.00    0.83882   0.86264   -1.000
 6237.00    0.83564   0.86010   -1.000
 6238.00    0.83350   0.85738   -1.000
 6239.00    0.83446   0.85557   -1.000
 6240.00    0.83109   0.85460   -1.000
 6241.00    0.82849   0.85347   -1.000
 6242.00    0.82909   0.85124   -1.000
 6243.00    0.82609   0.84794   -1.000
 6244.00    0.82006   0.84459   -1.000
 6245.00    0.81815   0.84294   -1.000
 6246.00    0.81923   0.84427   -1.000
 6247.00    0.82098   0.84829   -1.000
 6248.00    0.82549   0.85296   -1.000
 6249.00    0.82947   0.85564   -1.000
 6250.00    0.82763   0.85472   -1.000
 6251.00    0.82325   0.85078   -1.000
 6252.00    0.81812   0.84607   -1.000
 6253.00    0.81138   0.84272   -1.000
 6254.00    0.80836   0.84138   -1.000
 6255.00    0.81019   0.84142   -1.000
 6256.00    0.81170   0.84196   -1.000
 6257.00    0.81045   0.84293   -1.000
 6258.00    0.81019   0.84482   -1.000
 6259.00    0.81221   0.84790   -1.000
 6260.00    0.81716   0.85174   -1.000
 6261.00    0.81846   0.85559   -1.000
 6262.00    0.81505   0.85856   -1.000
 6263.00    0.81685   0.86016   -1.000
 6264.00    0.81647   0.86069   -1.000
 6265.00    0.81489   0.86104   -1.000
 6266.00    0.82144   0.86164   -1.000
 6267.00    0.82517   0.86188   -1.000
 6268.00    0.82473   0.86116   -1.000
 6269.00    0.82313   0.85968   -1.000
 6270.00    0.81383   0.85813   -1.000
 6271.00    0.79946   0.85674   -1.000
 6272.00    0.78472   0.85479   -1.000
 6273.00    0.77311   0.85124   -1.000
 6274.00    0.77049   0.84574   -1.000
 6275.00    0.77663   0.83916   -1.000
 6276.00    0.78291   0.83290   -1.000
 6277.00    0.78741   0.82837   -1.000
 6278.00    0.79610   0.82619   -1.000
 6279.00    0.80231   0.82663   -1.000
 6280.00    0.80136   0.82970   -1.000
 6281.00    0.80374   0.83493   -1.000
 6282.00    0.80995   0.84130   -1.000
 6283.00    0.81201   0.84750   -1.000
 6284.00    0.80618   0.85241   -1.000
 6285.00    0.80381   0.85567   -1.000
 6286.00    0.80744   0.85741   -1.000
 6287.00    0.80910   0.85772   -1.000
 6288.00    0.80827   0.85656   -1.000
 6289.00    0.81100   0.85445   -1.000
 6290.00    0.82298   0.85225   -1.000
 6291.00    0.84954   0.85071  596.451
 6292.00    0.90088   0.84981   -1.000
 6293.00    0.97147   0.84900   -1.000
 6294.00    1.08098   0.84753   -1.000
 6295.00    1.17307   0.84524   -1.000
 6296.00    1.05817   0.84265   -1.000
 6297.00    0.81572   0.84050   -1.000
 6298.00    0.69456   0.83914   -1.000
 6299.00    0.73254   0.83819   -1.000
 6300.00    0.78840   0.83759   -1.000
 6301.00    0.79927   0.83817   -1.000
 6302.00    0.79609   0.84067   -1.000
 6303.00    0.79341   0.84465   -1.000
 6304.00    0.79367   0.84877   -1.000
 6305.00    0.79926   0.85196   -1.000
 6306.00    0.80474   0.85409   -1.000
 6307.00    0.81072   0.85532   -1.000
 6308.00    0.81394   0.85598   -1.000
 6309.00    0.81293   0.85615   -1.000
 6310.00    0.81063   0.85568   -1.000
 6311.00    0.81025   0.85457   -1.000
 6312.00    0.81113   0.85278   -1.000
 6313.00    0.80717   0.85048   -1.000
 6314.00    0.80431   0.84804   -1.000
 6315.00    0.80370   0.84575   -1.000
 6316.00    0.80491   0.84387   -1.000
 6317.00    0.80642   0.84302   -1.000
 6318.00    0.80810   0.84408   -1.000
 6319.00    0.80724   0.84691   -1.000
 6320.00    0.80582   0.85044   -1.000
 6321.00    0.80796   0.85374   -1.000
 6322.00    0.81029   0.85668   -1.000
 6323.00    0.80994   0.85931   -1.000
 6324.00    0.81270   0.86126   -1.000
 6325.00    0.81694   0.86217   -1.000
 6326.00    0.81956   0.86217   -1.000
 6327.00    0.82250   0.86166   -1.000
 6328.00    0.81689   0.86113   -1.000
 6329.00    0.81347   0.86087   -1.000
 6330.00    0.81673   0.86084   -1.000
 6331.00    0.81542   0.86047   -1.000
 6332.00    0.81512   0.85877   -1.000
 6333.00    0.81730   0.85523   -1.000
 6334.00    0.81469   0.85060   -1.000
 6335.00    0.81251   0.84706   -1.000
 6336.00    0.80526   0.84629   -1.000
 6337.00    0.80301   0.84824   -1.000
 6338.00    0.80752   0.85158   -1.000
 6339.00    0.81520   0.85484   -1.000
 6340.00    0.82031   0.85706   -1.000
 6341.00    0.81418   0.85785   -1.000
 6342.00    0.81650   0.85722   -1.000
 6343.00    0.81846   0.85567   -1.000
 6344.00    0.81830   0.85399   -1.000
 6345.00    0.81858   0.85303   -1.000
 6346.00    0.81905   0.85355   -1.000
 6347.00    0.81948   0.85574   -1.000
 6348.00    0.81999   0.85895   -1.000
 6349.00    0.82256   0.86201   -1.000
 6350.00    0.82366   0.86385   -1.000
 6351.00    0.82343   0.86395   -1.000
 6352.00    0.82037   0.86255   -1.000
 6353.00    0.81980   0.86041   -1.000
 6354.00    0.82687   0.85836   -1.000
 6355.00    0.84201   0.85671   -1.000
 6356.00    0.85984   0.85524   -1.000
 6357.00    0.88028   0.85358   -1.000
 6358.00    0.91202   0.85187   -1.000
 6359.00    0.90347   0.85032   -1.000
 6360.00    0.83934   0.84895   -1.000
 6361.00    0.77838   0.84793   -1.000
 6362.00    0.77119   0.84768   -1.000
 6363.00    0.79109   0.84861   -1.000
 6364.00    0.80434   0.85043   -1.000
 6365.00    0.80634   0.85249   -1.000
 6366.00    0.81062   0.85418   -1.000
 6367.00    0.81115   0.85497   -1.000
 6368.00    0.80691   0.85463   -1.000
 6369.00    0.80014   0.85365   -1.000
 6370.00    0.80321   0.85294   -1.000
 6371.00    0.80444   0.85329   -1.000
 6372.00    0.79990   0.85472   -1.000
 6373.00    0.80059   0.85639   -1.000
 6374.00    0.79622   0.85734   -1.000
 6375.00    0.79340   0.85727   -1.000
 6376.00    0.78706   0.85636   -1.000
 6377.00    0.78756   0.85509   -1.000
 6378.00    0.79258   0.85374   -1.000
 6379.00    0.78984   0.85252   -1.000
 6380.00    0.78314   0.85156   -1.000
 6381.00    0.77888   0.85099   -1.000
 6382.00    0.77572   0.85089   -1.000
 6383.00    0.76955   0.85133   -1.000
 6384.00    0.76692   0.85224   -1.000
 6385.00    0.76910   0.85348   -1.000
 6386.00    0.76590   0.85467   -1.000
 6387.00    0.76259   0.85529   -1.000
 6388.00    0.75749   0.85497   -1.000
 6389.00    0.75353   0.85338   -1.000
 6390.00    0.74694   0.85025   -1.000
 6391.00    0.74210   0.84605   -1.000
 6392.00    0.73662   0.84238   -1.000
 6393.00    0.72970   0.84113   -1.000
 6394.00    0.72315   0.84271   -1.000
 6395.00    0.71877   0.84550   -1.000
 6396.00    0.72087   0.84705   -1.000
 6397.00    0.72385   0.84587   -1.000
 6398.00    0.71802   0.84277   -1.000
 6399.00    0.70539   0.84029   -1.000
 6400.00    0.69798   0.84065   -1.000
 6401.00    0.69720   0.84390   -1.000
 6402.00    0.69660   0.84826   -1.000
 6403.00    0.69566   0.85147   -1.000
 6404.00    0.69431   0.85216   -1.000
 6405.00    0.69036   0.85014   -1.000
 6406.00    0.68423   0.84655   -1.000
 6407.00    0.68051   0.84297   -1.000
 6408.00    0.67516   0.84118   -1.000
 6409.00    0.66885   0.84145   -1.000
 6410.00    0.66659   0.84245   -1.000
 6411.00    0.65706   0.84354   -1.000
 6412.00    0.64942   0.84455   -1.000
 6413.00    0.65110   0.84544   -1.000
 6414.00    0.64629   0.84612   -1.000
 6415.00    0.63905   0.84676   -1.000
 6416.00    0.63311   0.84711   -1.000
 6417.00    0.63022   0.84650   -1.000
 6418.00    0.62633   0.84463   -1.000
 6419.00    0.61452   0.84227   -1.000
 6420.00    0.60258   0.84109   -1.000
 6421.00    0.59220   0.84242   -1.000
 6422.00    0.58569   0.84601   -1.000
 6423.00    0.58510   0.85038   -1.000
 6424.00    0.58435   0.85415   -1.000
 6425.00    0.58081   0.85654   -1.000
 6426.00    0.57383   0.85706   -1.000
 6427.00    0.18851   0.85523   -1.000
 6428.00    0.00000   0.85109   -2.000
