###################################################################
## OUTPUT of StarlightChains_v04.for    [Cid@UFSC - 01/Apr/2007] ##
###################################################################

## Some input info
NGC104_a_1.cxt                           [arq_obs]
Base.BC03.S                              [arq_base]
NGC104_a_1.msk                           [arq_masks]
StCv04.C99.config                        [arq_config]
  150                                    [N_base]
    0                                    [N_YAV_components = # of components with extra extinction!]
    0                                    [i_FitPowerLaw (1/0 = Yes/No)]
-9.99                                    [alpha_PowerLaw]
CCM                                      [red_law_option]
 1.458241                                [q_norm = A(l_norm)/A(V)]

## (Re)Sampling Parameters
 3359.00                                 [l_ini (A)]
 6428.00                                 [l_fin (A)]
    1.00                                 [dl    (A)]     (OBS: dl_cushion =    50.00 A)

## Normalization info
 4020.00                                 [l_norm (A) - for base]
 4010.00                                 [llow_norm (A) - window for f_obs]
 4060.00                                 [lupp_norm (A) - window for f_obs]
2.050577E-13                             [fobs_norm (in input units)]

## S/N
 4730.00                                 [llow_SN (A) - window for S/N]
 4780.00                                 [lupp_SN (A) - window for S/N]
  43.784                                 [S/N in S/N window]
  33.933                                 [S/N in norm. window]
1000.000                                 [S/N_err in S/N window]
 775.022                                 [S/N_err in norm. window]
  1.0000                                 [fscale_chi2]

## etc...
 -2147483648                             [idum_orig]
  3067                                   [NOl_eff]
   225                                   [Nl_eff]
  2842    NSIGMA                         [Ntot_cliped & clip_method]
 15642270                                [Nglobal_steps]
   7                                     [N_chains]
  15                                     [NEX0s_base = N_base in EX0s-fits]
 0   0   1      254   2.0   1.654E+03    [Clip-Bug, RC-Crash & Burn-In warning-flags, n_censored_weights, wei_nsig_threshold & wei_limit]
   634    634.484    634.439      0.046  [idt_all, wdt_TotTime, wdt_UsrTime & wdt_SysTime (sec)]

## Synthesis Results - Best model ##

 2.64944E+00                             [chi2/Nl_eff]
     0.37922                             [adev (%)]

    99.84527                             [sum-of-x (%)]
 1.78405E-13                             [Flux_tot (units of input spectrum!)]
 8.67489E-09                             [Mini_tot (???)]
 4.36285E-09                             [Mcor_tot (???)]

 -27.97                                  [v0_min  (km/s)]
  42.70                                  [vd_min  (km/s)]
-0.1025                                  [AV_min  (mag)]
 0.0000                                  [YAV_min (mag)]

# j     x_j(%)      Mini_j(%)     Mcor_j(%)     age_j(yr)     Z_j      (L/M)_j    YAV?  Mstars   component_j        a/Fe...       SSP_chi2r SSP_adev(%)   SSP_AV   SSP_x(%)
  1      0.0000     0.0000E+00    0.0000E+00    1.000000E+06  0.00010  8.160E-03    0   1.0000   age020_m22            0.0000     1.8606E+04    24.4143   4.0000    78.8075
  2      1.8898     8.1795E-04    1.6264E-03    3.160000E+06  0.00010  4.759E-02    0   1.0000   age045_m22            0.0000     6.3936E+03    14.2384   2.0984    97.4377
  3      0.0000     0.0000E+00    0.0000E+00    5.010000E+06  0.00010  1.932E-02    0   0.9582   age055_m22            0.0000     1.8348E+04    22.5177   2.4095    82.5820
  4      0.0000     0.0000E+00    0.0000E+00    6.610000E+06  0.00010  9.973E-03    0   0.9297   age061_m22            0.0000     1.9716E+04    24.3580   4.0000    80.6042
  5      0.0000     0.0000E+00    0.0000E+00    8.710000E+06  0.00010  7.690E-03    0   0.9030   age067_m22            0.0000     1.8919E+04    23.9895   4.0000    80.9161
  6      0.0000     0.0000E+00    0.0000E+00    1.000000E+07  0.00010  6.375E-03    0   0.8902   age070_m22            0.0000     1.8401E+04    23.7973   4.0000    81.4841
  7      0.0000     0.0000E+00    0.0000E+00    1.445000E+07  0.00010  4.874E-03    0   0.8589   age078_m22            0.0000     1.4838E+04    21.7157   3.9032    82.5849
  8      0.0000     0.0000E+00    0.0000E+00    2.512000E+07  0.00010  4.103E-03    0   0.8174   age090_m22            0.0000     9.9444E+03    18.6594   3.4893    89.7097
  9      0.0000     0.0000E+00    0.0000E+00    4.000000E+07  0.00010  3.654E-03    0   0.7830   age104_m22            0.0000     8.0484E+03    16.0331   3.1811    95.3068
 10      0.0000     0.0000E+00    0.0000E+00    5.500000E+07  0.00010  3.093E-03    0   0.7597   age110_m22            0.0000     7.7824E+03    15.1038   3.0788    97.1371
 11      0.0000     0.0000E+00    0.0000E+00    1.015200E+08  0.00010  2.431E-03    0   0.7138   age116_m22            0.0000     8.3464E+03    14.1164   2.7251   100.5916
 12      0.0000     0.0000E+00    0.0000E+00    1.609000E+08  0.00010  1.319E-03    0   0.6775   age120_m22            0.0000     8.1323E+03    13.0918   2.2491   102.8862
 13      0.0000     0.0000E+00    0.0000E+00    2.861200E+08  0.00010  1.075E-03    0   0.6412   age125_m22            0.0000     1.2360E+04    13.3676   2.3186   107.3598
 14      0.0000     0.0000E+00    0.0000E+00    5.088000E+08  0.00010  7.183E-04    0   0.6083   age130_m22            0.0000     1.3895E+04    13.7080   2.0879   109.5280
 15      0.0000     0.0000E+00    0.0000E+00    9.047900E+08  0.00010  4.524E-04    0   0.5785   age135_m22            0.0000     1.3868E+04    13.5784   1.8818   111.0240
 16      0.0000     0.0000E+00    0.0000E+00    1.278050E+09  0.00010  3.018E-04    0   0.5588   age138_m22            0.0000     8.3692E+03    10.8448   1.3424   108.8884
 17      0.0000     0.0000E+00    0.0000E+00    1.434000E+09  0.00010  2.691E-04    0   0.5532   age139_m22            0.0000     7.4089E+03    10.3809   1.1839   108.2687
 18      0.0000     0.0000E+00    0.0000E+00    2.500000E+09  0.00010  1.582E-04    0   0.5296   age150_m22            0.0000     7.1790E+03    10.5083   1.0566   109.2894
 19      0.0000     0.0000E+00    0.0000E+00    4.250000E+09  0.00010  1.007E-04    0   0.5110   age158_m22            0.0000     5.4836E+03     9.8218   0.9076   107.0825
 20      0.0000     0.0000E+00    0.0000E+00    6.250000E+09  0.00010  6.869E-05    0   0.4985   age166_m22            0.0000     4.3621E+03     9.6331   0.8540   103.7213
 21      0.0000     0.0000E+00    0.0000E+00    7.500000E+09  0.00010  5.873E-05    0   0.4931   age171_m22            0.0000     4.4486E+03     9.9342   0.8409   103.1206
 22      0.0000     0.0000E+00    0.0000E+00    1.000000E+10  0.00010  4.481E-05    0   0.4854   age181_m22            0.0000     4.3578E+03     9.8375   0.8048   102.6909
 23      0.0000     0.0000E+00    0.0000E+00    1.300000E+10  0.00010  3.489E-05    0   0.4791   age193_m22            0.0000     4.1362E+03     9.6321   0.7503   102.0529
 24      0.0000     0.0000E+00    0.0000E+00    1.500000E+10  0.00010  3.035E-05    0   0.4766   age201_m22            0.0000     4.0264E+03     9.5614   0.7116   101.8259
 25      0.0000     0.0000E+00    0.0000E+00    1.800000E+10  0.00010  2.510E-05    0   0.4735   age213_m22            0.0000     3.8179E+03     9.4715   0.6436   101.1238
 26      0.0000     0.0000E+00    0.0000E+00    1.000000E+06  0.00040  8.458E-03    0   1.0000   age020_m32            0.0000     1.9019E+04    24.5103   4.0000    79.7754
 27      0.0000     0.0000E+00    0.0000E+00    3.160000E+06  0.00040  3.973E-02    0   1.0000   age045_m32            0.0000     1.0316E+04    18.9218   3.3843    89.7481
 28      0.0000     0.0000E+00    0.0000E+00    5.010000E+06  0.00040  1.935E-02    0   0.9532   age055_m32            0.0000     1.6609E+04    22.6160   3.6135    83.0891
 29      0.0000     0.0000E+00    0.0000E+00    6.610000E+06  0.00040  1.204E-02    0   0.9243   age061_m32            0.0000     1.7246E+04    22.8841   3.9342    80.9810
 30      0.0000     0.0000E+00    0.0000E+00    8.710000E+06  0.00040  9.433E-03    0   0.9001   age067_m32            0.0000     1.6066E+04    22.3635   3.9054    81.9985
 31      0.0000     0.0000E+00    0.0000E+00    1.000000E+07  0.00040  8.053E-03    0   0.8877   age070_m32            0.0000     1.5623E+04    22.1502   3.8699    82.4754
 32      0.0000     0.0000E+00    0.0000E+00    1.445000E+07  0.00040  7.027E-03    0   0.8578   age078_m32            0.0000     1.2209E+04    20.3369   3.3340    88.3297
 33      0.0000     0.0000E+00    0.0000E+00    2.512000E+07  0.00040  4.707E-03    0   0.8166   age090_m32            0.0000     9.7278E+03    18.3169   3.0327    92.7875
 34      0.0000     0.0000E+00    0.0000E+00    4.000000E+07  0.00040  3.714E-03    0   0.7827   age104_m32            0.0000     8.1796E+03    16.1293   2.8256    96.7838
 35      0.0000     0.0000E+00    0.0000E+00    5.500000E+07  0.00040  2.982E-03    0   0.7593   age110_m32            0.0000     7.9697E+03    15.3436   2.7643    98.1724
 36      0.0000     0.0000E+00    0.0000E+00    1.015200E+08  0.00040  2.188E-03    0   0.7143   age116_m32            0.0000     9.0708E+03    13.3152   2.5018   103.2194
 37      0.0000     0.0000E+00    0.0000E+00    1.609000E+08  0.00040  1.690E-03    0   0.6856   age120_m32            0.0000     1.1042E+04    13.4414   2.2838   106.6338
 38      0.0000     0.0000E+00    0.0000E+00    2.861200E+08  0.00040  1.152E-03    0   0.6509   age125_m32            0.0000     1.2523E+04    13.1855   2.0687   108.8012
 39      0.0000     0.0000E+00    0.0000E+00    5.088000E+08  0.00040  7.331E-04    0   0.6182   age130_m32            0.0000     1.2923E+04    13.1628   1.9075   109.6836
 40      0.0000     0.0000E+00    0.0000E+00    9.047900E+08  0.00040  3.960E-04    0   0.5890   age135_m32            0.0000     8.4352E+03    10.7221   1.4406   108.0635
 41      0.0000     0.0000E+00    0.0000E+00    1.278050E+09  0.00040  2.854E-04    0   0.5687   age138_m32            0.0000     7.7968E+03    10.4197   1.1264   110.3195
 42      0.0000     0.0000E+00    0.0000E+00    1.434000E+09  0.00040  2.531E-04    0   0.5632   age139_m32            0.0000     7.6146E+03    10.4122   1.0642   110.2965
 43      0.0000     0.0000E+00    0.0000E+00    2.500000E+09  0.00040  1.488E-04    0   0.5386   age150_m32            0.0000     6.0097E+03     9.6616   0.8172   107.9576
 44      0.0000     0.0000E+00    0.0000E+00    4.250000E+09  0.00040  9.082E-05    0   0.5199   age158_m32            0.0000     3.9035E+03     8.7401   0.7216   103.9043
 45      0.0122     3.9413E-03    3.9779E-03    6.250000E+09  0.00040  6.362E-05    0   0.5076   age166_m32            0.0000     3.4427E+03     9.1422   0.6755   100.0803
 46      3.3211     1.2934E+00    1.2928E+00    7.500000E+09  0.00040  5.289E-05    0   0.5027   age171_m32            0.0000     3.2591E+03     9.1038   0.6425    98.6408
 47     16.3455     8.4763E+00    8.3393E+00    1.000000E+10  0.00040  3.972E-05    0   0.4948   age181_m32            0.0000     2.9674E+03     8.9049   0.5857    97.1090
 48      0.0000     0.0000E+00    0.0000E+00    1.300000E+10  0.00040  3.283E-05    0   0.4870   age193_m32            0.0000     2.9640E+03     8.4259   0.5372   100.2449
 49      0.0000     0.0000E+00    0.0000E+00    1.500000E+10  0.00040  2.925E-05    0   0.4854   age201_m32            0.0000     3.1284E+03     8.2596   0.5164   102.0790
 50      0.0000     0.0000E+00    0.0000E+00    1.800000E+10  0.00040  2.469E-05    0   0.4819   age213_m32            0.0000     3.1835E+03     8.1544   0.4747   102.7123
 51      0.0000     0.0000E+00    0.0000E+00    1.000000E+06  0.00400  1.114E-02    0   1.0000   age020_m42            0.0000     1.7647E+04    23.6029   4.0000    78.6580
 52      0.0000     0.0000E+00    0.0000E+00    3.160000E+06  0.00400  4.073E-02    0   0.9999   age045_m42            0.0000     7.9049E+03    16.5364   3.0912    92.6748
 53      0.0000     0.0000E+00    0.0000E+00    5.010000E+06  0.00400  2.534E-02    0   0.9488   age055_m42            0.0000     1.1988E+04    20.2551   3.4952    85.6268
 54      0.0000     0.0000E+00    0.0000E+00    6.610000E+06  0.00400  2.583E-02    0   0.9220   age061_m42            0.0000     7.3894E+03    16.1219   2.8928    94.0025
 55      0.0000     0.0000E+00    0.0000E+00    8.710000E+06  0.00400  1.706E-02    0   0.8983   age067_m42            0.0000     9.5220E+03    18.5053   2.7073    91.7823
 56      0.0000     0.0000E+00    0.0000E+00    1.000000E+07  0.00400  1.271E-02    0   0.8862   age070_m42            0.0000     1.1972E+04    20.4541   2.6881    90.0258
 57      0.0000     0.0000E+00    0.0000E+00    1.445000E+07  0.00400  7.666E-03    0   0.8571   age078_m42            0.0000     1.3609E+04    21.4609   3.0989    86.3251
 58      0.0000     0.0000E+00    0.0000E+00    2.512000E+07  0.00400  5.070E-03    0   0.8174   age090_m42            0.0000     1.1019E+04    19.6838   2.5565    91.6862
 59      0.0000     0.0000E+00    0.0000E+00    4.000000E+07  0.00400  3.505E-03    0   0.7851   age104_m42            0.0000     8.2519E+03    17.2103   2.2446    94.8831
 60      0.0000     0.0000E+00    0.0000E+00    5.500000E+07  0.00400  3.059E-03    0   0.7629   age110_m42            0.0000     6.4234E+03    13.7184   2.3008   100.5305
 61      0.0000     0.0000E+00    0.0000E+00    1.015200E+08  0.00400  2.268E-03    0   0.7207   age116_m42            0.0000     9.3453E+03    12.2721   2.2107   106.8774
 62      0.0000     0.0000E+00    0.0000E+00    1.609000E+08  0.00400  1.720E-03    0   0.6930   age120_m42            0.0000     9.5896E+03    11.9254   2.0696   108.7981
 63      0.0000     0.0000E+00    0.0000E+00    2.861200E+08  0.00400  1.079E-03    0   0.6613   age125_m42            0.0000     9.4002E+03    11.1241   1.7161   109.3417
 64      0.0000     0.0000E+00    0.0000E+00    5.088000E+08  0.00400  6.261E-04    0   0.6313   age130_m42            0.0000     1.0301E+04    11.4706   1.5027   113.0820
 65      0.0000     0.0000E+00    0.0000E+00    9.047900E+08  0.00400  3.535E-04    0   0.6024   age135_m42            0.0000     6.5162E+03     9.0002   1.0998   112.9855
 66      0.0000     0.0000E+00    0.0000E+00    1.278050E+09  0.00400  2.677E-04    0   0.5837   age138_m42            0.0000     2.0322E+03     4.9972   0.4553   108.5149
 67      0.0000     0.0000E+00    0.0000E+00    1.434000E+09  0.00400  1.910E-04    0   0.5716   age139_m42            0.0000     2.9077E+03     5.7073   0.6125   109.9062
 68      0.0000     0.0000E+00    0.0000E+00    2.500000E+09  0.00400  9.818E-05    0   0.5463   age150_m42            0.0000     7.5220E+02     3.0435   0.3658   103.6483
 69      0.0000     0.0000E+00    0.0000E+00    4.250000E+09  0.00400  5.491E-05    0   0.5269   age158_m42            0.0000     4.2187E+02     2.7314   0.2476   100.3336
 70      0.0000     0.0000E+00    0.0000E+00    6.250000E+09  0.00400  3.857E-05    0   0.5151   age166_m42            0.0000     2.4837E+02     2.0291   0.1308    98.6224
 71      0.0000     0.0000E+00    0.0000E+00    7.500000E+09  0.00400  3.243E-05    0   0.5110   age171_m42            0.0000     1.9895E+02     1.6940   0.0576    97.9092
 72      0.0000     0.0000E+00    0.0000E+00    1.000000E+10  0.00400  2.424E-05    0   0.5028   age181_m42            0.0000     1.9576E+02     1.5941  -0.0152    97.0733
 73      0.0000     0.0000E+00    0.0000E+00    1.300000E+10  0.00400  1.883E-05    0   0.4927   age193_m42            0.0000     2.7119E+02     2.0529  -0.0502    96.5859
 74      0.0000     0.0000E+00    0.0000E+00    1.500000E+10  0.00400  1.685E-05    0   0.4919   age201_m42            0.0000     2.8322E+02     1.9814  -0.0482    96.6633
 75      0.4631     6.5700E-01    6.3671E-01    1.800000E+10  0.00400  1.452E-05    0   0.4874   age213_m42            0.0000     3.1523E+02     1.9089  -0.0370    97.0189
 76      0.0000     0.0000E+00    0.0000E+00    1.000000E+06  0.00800  1.286E-02    0   1.0000   age020_m52            0.0000     1.6369E+04    22.7646   4.0000    80.0221
 77      0.0000     0.0000E+00    0.0000E+00    3.160000E+06  0.00800  3.147E-02    0   0.9966   age045_m52            0.0000     1.6151E+04    22.4003   3.9521    80.5184
 78      0.0000     0.0000E+00    0.0000E+00    5.010000E+06  0.00800  2.664E-02    0   0.9443   age055_m52            0.0000     1.3170E+04    20.9608   3.6186    84.3155
 79      0.0000     0.0000E+00    0.0000E+00    6.610000E+06  0.00800  2.151E-02    0   0.9177   age061_m52            0.0000     9.4870E+03    18.0473   2.3030    91.2029
 80      0.0000     0.0000E+00    0.0000E+00    8.710000E+06  0.00800  1.628E-02    0   0.8948   age067_m52            0.0000     1.0364E+04    19.1668   2.6644    91.8505
 81      0.0000     0.0000E+00    0.0000E+00    1.000000E+07  0.00800  1.215E-02    0   0.8827   age070_m52            0.0000     1.1875E+04    20.4380   3.0042    89.7825
 82      0.0000     0.0000E+00    0.0000E+00    1.445000E+07  0.00800  8.739E-03    0   0.8552   age078_m52            0.0000     1.0548E+04    19.5004   3.0422    91.4070
 83      0.0000     0.0000E+00    0.0000E+00    2.512000E+07  0.00800  5.676E-03    0   0.8162   age090_m52            0.0000     8.9716E+03    17.4904   2.6246    97.1912
 84      0.0000     0.0000E+00    0.0000E+00    4.000000E+07  0.00800  3.939E-03    0   0.7841   age104_m52            0.0000     7.8431E+03    15.4026   2.4716    99.9762
 85      0.0000     0.0000E+00    0.0000E+00    5.500000E+07  0.00800  3.155E-03    0   0.7627   age110_m52            0.0000     7.4950E+03    13.8778   2.4479   101.9380
 86      0.0000     0.0000E+00    0.0000E+00    1.015200E+08  0.00800  2.206E-03    0   0.7226   age116_m52            0.0000     7.9630E+03    11.8362   2.2660   106.4028
 87      0.0000     0.0000E+00    0.0000E+00    1.609000E+08  0.00800  1.596E-03    0   0.6963   age120_m52            0.0000     8.4851E+03    11.3716   2.0481   108.5286
 88      0.0000     0.0000E+00    0.0000E+00    2.861200E+08  0.00800  1.002E-03    0   0.6665   age125_m52            0.0000     1.0316E+04    11.3728   1.7604   111.8845
 89      0.0000     0.0000E+00    0.0000E+00    5.088000E+08  0.00800  5.759E-04    0   0.6377   age130_m52            0.0000     9.9357E+03    10.6065   1.4045   116.5797
 90      0.0000     0.0000E+00    0.0000E+00    9.047900E+08  0.00800  2.972E-04    0   0.6086   age135_m52            0.0000     5.1903E+03     7.2578   0.8920   114.1405
 91      0.0000     0.0000E+00    0.0000E+00    1.278050E+09  0.00800  2.242E-04    0   0.5907   age138_m52            0.0000     1.3850E+03     3.7582   0.2930   111.2030
 92      0.0000     0.0000E+00    0.0000E+00    1.434000E+09  0.00800  1.645E-04    0   0.5787   age139_m52            0.0000     1.3266E+03     3.5971   0.4403   110.4825
 93      0.0419     1.1182E-02    1.2271E-02    2.500000E+09  0.00800  7.723E-05    0   0.5519   age150_m52            0.0000     2.6175E+02     1.6252   0.1206   105.5275
 94      0.1889     9.3725E-02    9.9142E-02    4.250000E+09  0.00800  4.151E-05    0   0.5320   age158_m52            0.0000     1.0853E+02     1.0001   0.0535   102.6814
 95     12.9591     8.8679E+00    9.1636E+00    6.250000E+09  0.00800  3.010E-05    0   0.5197   age166_m52            0.0000     5.6602E+01     1.3550  -0.1288   100.8837
 96     12.3261     1.0291E+01    1.0516E+01    7.500000E+09  0.00800  2.467E-05    0   0.5139   age171_m52            0.0000     8.0719E+01     1.7128  -0.1670   100.3952
 97     20.1657     2.2307E+01    2.2417E+01    1.000000E+10  0.00800  1.862E-05    0   0.5054   age181_m52            0.0000     2.5611E+02     2.9345  -0.2880    99.7858
 98     18.4175     2.6473E+01    2.6255E+01    1.300000E+10  0.00800  1.433E-05    0   0.4988   age193_m52            0.0000     5.6582E+02     4.1905  -0.3753   100.1837
 99      8.1473     1.3490E+01    1.3240E+01    1.500000E+10  0.00800  1.244E-05    0   0.4936   age201_m52            0.0000     7.2242E+02     4.6312  -0.4016   100.5718
100      2.7385     5.2717E+00    5.1236E+00    1.800000E+10  0.00800  1.070E-05    0   0.4888   age213_m52            0.0000     8.4924E+02     4.9937  -0.4343   100.3664
101      0.0000     0.0000E+00    0.0000E+00    1.000000E+06  0.02000  1.989E-02    0   1.0000   age020_m62            0.0000     1.7572E+04    23.0498   4.0000    78.3863
102      0.0000     0.0000E+00    0.0000E+00    3.160000E+06  0.02000  3.772E-02    0   0.9858   age045_m62            0.0000     1.6644E+04    22.7373   3.8717    80.3025
103      0.0000     0.0000E+00    0.0000E+00    5.010000E+06  0.02000  3.227E-02    0   0.9342   age055_m62            0.0000     9.8769E+03    19.0240   3.3363    89.1179
104      0.0000     0.0000E+00    0.0000E+00    6.610000E+06  0.02000  2.387E-02    0   0.9090   age061_m62            0.0000     1.3375E+04    21.4764   3.0663    88.4217
105      0.0000     0.0000E+00    0.0000E+00    8.710000E+06  0.02000  1.102E-02    0   0.8861   age067_m62            0.0000     2.9303E+04    28.3439   2.6607    82.6884
106      0.0000     0.0000E+00    0.0000E+00    1.000000E+07  0.02000  1.011E-02    0   0.8751   age070_m62            0.0000     2.1967E+04    25.3829   2.6895    85.6028
107      0.0000     0.0000E+00    0.0000E+00    1.445000E+07  0.02000  7.331E-03    0   0.8472   age078_m62            0.0000     1.6654E+04    22.8428   2.7178    87.3096
108      0.0000     0.0000E+00    0.0000E+00    2.512000E+07  0.02000  4.206E-03    0   0.8099   age090_m62            0.0000     1.7074E+04    23.0138   2.6305    86.5319
109      0.0000     0.0000E+00    0.0000E+00    4.000000E+07  0.02000  3.373E-03    0   0.7799   age104_m62            0.0000     8.9507E+03    17.2292   2.4332    96.8773
110      0.0000     0.0000E+00    0.0000E+00    5.500000E+07  0.02000  2.747E-03    0   0.7595   age110_m62            0.0000     7.8580E+03    14.7565   2.3674   101.1484
111      0.0000     0.0000E+00    0.0000E+00    1.015200E+08  0.02000  1.878E-03    0   0.7221   age116_m62            0.0000     9.0888E+03    12.4682   2.2299   107.1349
112      0.0000     0.0000E+00    0.0000E+00    1.609000E+08  0.02000  1.378E-03    0   0.6978   age120_m62            0.0000     1.0655E+04    12.1580   2.0746   110.4285
113      0.0000     0.0000E+00    0.0000E+00    2.861200E+08  0.02000  8.869E-04    0   0.6700   age125_m62            0.0000     1.3453E+04    12.7579   1.6960   115.9026
114      0.0000     0.0000E+00    0.0000E+00    5.088000E+08  0.02000  4.834E-04    0   0.6430   age130_m62            0.0000     1.0834E+04    10.8647   1.2675   118.3398
115      0.0000     0.0000E+00    0.0000E+00    9.047900E+08  0.02000  2.312E-04    0   0.6152   age135_m62            0.0000     4.8343E+03     6.6833   0.6882   115.8351
116      0.0000     0.0000E+00    0.0000E+00    1.278050E+09  0.02000  1.387E-04    0   0.5927   age138_m62            0.0000     1.6161E+03     3.5906   0.3208   110.0374
117      0.0000     0.0000E+00    0.0000E+00    1.434000E+09  0.02000  1.168E-04    0   0.5865   age139_m62            0.0000     1.1791E+03     3.0798   0.3018   108.0578
118      0.0106     3.9673E-03    4.4254E-03    2.500000E+09  0.02000  5.505E-05    0   0.5610   age150_m62            0.0000     3.5473E+02     1.6848  -0.0521   104.0518
119      0.0000     0.0000E+00    0.0000E+00    4.250000E+09  0.02000  3.070E-05    0   0.5407   age158_m62            0.0000     7.1527E+02     3.8908  -0.3274   103.4465
120      2.8180     2.7587E+00    2.8946E+00    6.250000E+09  0.02000  2.104E-05    0   0.5277   age166_m62            0.0000     1.1287E+03     5.2262  -0.4511   103.6338
121      0.0000     0.0000E+00    0.0000E+00    7.500000E+09  0.02000  1.770E-05    0   0.5223   age171_m62            0.0000     1.4363E+03     5.9129  -0.5353   103.9054
122      0.0000     0.0000E+00    0.0000E+00    1.000000E+10  0.02000  1.297E-05    0   0.5121   age181_m62            0.0000     2.1515E+03     7.2611  -0.6862   104.2026
123      0.0000     0.0000E+00    0.0000E+00    1.300000E+10  0.02000  9.691E-06    0   0.5047   age193_m62            0.0000     2.6650E+03     8.0443  -0.7651   104.4771
124      0.0000     0.0000E+00    0.0000E+00    1.500000E+10  0.02000  8.360E-06    0   0.4999   age201_m62            0.0000     3.1829E+03     8.7665  -0.8316   104.6393
125      0.0000     0.0000E+00    0.0000E+00    1.800000E+10  0.02000  6.911E-06    0   0.4946   age213_m62            0.0000     3.9051E+03     9.6849  -0.9012   104.8471
126      0.0000     0.0000E+00    0.0000E+00    1.000000E+06  0.05000  2.651E-02    0   0.9998   age020_m72            0.0000     1.6152E+04    22.3252   4.0000    79.3916
127      0.0000     0.0000E+00    0.0000E+00    3.160000E+06  0.05000  4.817E-02    0   0.9577   age045_m72            0.0000     1.3138E+04    21.0062   3.7250    83.9685
128      0.0000     0.0000E+00    0.0000E+00    5.010000E+06  0.05000  3.101E-02    0   0.9147   age055_m72            0.0000     1.3028E+04    21.0829   3.3436    87.0312
129      0.0000     0.0000E+00    0.0000E+00    6.610000E+06  0.05000  1.472E-02    0   0.8877   age061_m72            0.0000     2.3833E+04    26.0854   2.8552    84.5850
130      0.0000     0.0000E+00    0.0000E+00    8.710000E+06  0.05000  1.050E-02    0   0.8638   age067_m72            0.0000     1.6810E+04    22.9063   3.2801    85.2987
131      0.0000     0.0000E+00    0.0000E+00    1.000000E+07  0.05000  8.954E-03    0   0.8524   age070_m72            0.0000     1.2511E+04    20.4091   3.5921    85.3242
132      0.0000     0.0000E+00    0.0000E+00    1.445000E+07  0.05000  6.392E-03    0   0.8262   age078_m72            0.0000     1.1246E+04    19.5791   3.5418    86.4710
133      0.0000     0.0000E+00    0.0000E+00    2.512000E+07  0.05000  4.207E-03    0   0.7902   age090_m72            0.0000     8.9703E+03    17.8546   3.1391    91.8321
134      0.0000     0.0000E+00    0.0000E+00    4.000000E+07  0.05000  3.198E-03    0   0.7618   age104_m72            0.0000     7.3202E+03    13.3655   2.6068   101.8594
135      0.0000     0.0000E+00    0.0000E+00    5.500000E+07  0.05000  2.593E-03    0   0.7432   age110_m72            0.0000     8.1801E+03    12.9724   2.5040   104.3327
136      0.0000     0.0000E+00    0.0000E+00    1.015200E+08  0.05000  1.716E-03    0   0.7092   age116_m72            0.0000     1.0037E+04    12.6303   2.2980   107.8718
137      0.0000     0.0000E+00    0.0000E+00    1.609000E+08  0.05000  1.218E-03    0   0.6876   age120_m72            0.0000     1.1614E+04    12.1723   2.0377   111.2121
138      0.0000     0.0000E+00    0.0000E+00    2.861200E+08  0.05000  7.047E-04    0   0.6618   age125_m72            0.0000     1.2528E+04    11.8055   1.4900   116.1044
139      0.0000     0.0000E+00    0.0000E+00    5.088000E+08  0.05000  3.590E-04    0   0.6356   age130_m72            0.0000     9.1265E+03     9.4186   0.9336   118.2056
140      0.0000     0.0000E+00    0.0000E+00    9.047900E+08  0.05000  1.484E-04    0   0.6088   age135_m72            0.0000     2.1505E+03     4.2760   0.2419   109.0848
141      0.0000     0.0000E+00    0.0000E+00    1.278050E+09  0.05000  9.435E-05    0   0.5924   age138_m72            0.0000     1.2710E+03     3.8151  -0.1394   105.0119
142      0.0000     0.0000E+00    0.0000E+00    1.434000E+09  0.05000  7.827E-05    0   0.5847   age139_m72            0.0000     9.6924E+02     3.5603  -0.1295   104.3456
143      0.0000     0.0000E+00    0.0000E+00    2.500000E+09  0.05000  3.759E-05    0   0.5583   age150_m72            0.0000     1.2698E+03     5.3658  -0.4413   102.8882
144      0.0000     0.0000E+00    0.0000E+00    4.250000E+09  0.05000  1.842E-05    0   0.5374   age158_m72            0.0000     2.2292E+03     6.9527  -0.7673   102.5816
145      0.0000     0.0000E+00    0.0000E+00    6.250000E+09  0.05000  1.207E-05    0   0.5242   age166_m72            0.0000     3.5080E+03     8.5124  -0.9981   102.1941
146      0.0000     0.0000E+00    0.0000E+00    7.500000E+09  0.05000  9.993E-06    0   0.5183   age171_m72            0.0000     3.8036E+03     8.8707  -1.0000   100.9059
147      0.0000     0.0000E+00    0.0000E+00    1.000000E+10  0.05000  7.291E-06    0   0.5081   age181_m72            0.0000     5.6028E+03    10.8139  -1.0000    97.2754
148      0.0000     0.0000E+00    0.0000E+00    1.300000E+10  0.05000  5.316E-06    0   0.5018   age193_m72            0.0000     9.8582E+03    13.9443  -1.0000    91.8042
149      0.0000     0.0000E+00    0.0000E+00    1.500000E+10  0.05000  4.497E-06    0   0.4972   age201_m72            0.0000     1.2213E+04    15.2816  -1.0000    89.9281
150      0.0000     0.0000E+00    0.0000E+00    1.800000E+10  0.05000  3.739E-06    0   0.4924   age213_m72            0.0000     1.5797E+04    17.0235  -1.0000    87.0143


## Synthesis Results - Average & Chains ##

# j      x_j: min, <> & last-chain-values for 1 ...  7 chains
  1      0.0000      0.0045      0.0000      0.0000      0.0000      0.0039      0.0127      0.0000      0.0026
  2      1.8898      1.7196      1.7065      1.6697      1.7205      1.6911      1.7810      1.7803      1.6850
  3      0.0000      0.0102      0.0000      0.0000      0.0000      0.0000      0.0000      0.0000      0.0000
  4      0.0000      0.0049      0.0000      0.0000      0.0000      0.0000      0.0000      0.0644      0.0000
  5      0.0000      0.0037      0.0000      0.0000      0.0000      0.0515      0.0000      0.0010      0.0208
  6      0.0000      0.0051      0.0341      0.0000      0.0000      0.0000      0.0000      0.0000      0.0000
  7      0.0000      0.0032      0.0000      0.0144      0.0000      0.0000      0.0000      0.0000      0.0000
  8      0.0000      0.0045      0.0030      0.0000      0.0000      0.0080      0.0000      0.0000      0.0000
  9      0.0000      0.0052      0.0000      0.0000      0.0473      0.0000      0.0000      0.0000      0.0000
 10      0.0000      0.0025      0.0000      0.0000      0.0000      0.0372      0.0000      0.0060      0.0000
 11      0.0000      0.0025      0.0000      0.0000      0.0000      0.0003      0.0141      0.0000      0.0000
 12      0.0000      0.0046      0.0000      0.0000      0.0000      0.0000      0.0000      0.0000      0.0000
 13      0.0000      0.0024      0.0000      0.0000      0.0000      0.0000      0.0000      0.0000      0.0000
 14      0.0000      0.0035      0.0000      0.0000      0.0000      0.0000      0.0000      0.0000      0.0000
 15      0.0000      0.0041      0.0000      0.0000      0.0000      0.0096      0.0000      0.0000      0.0000
 16      0.0000      0.0075      0.0000      0.0000      0.0000      0.0000      0.0066      0.0000      0.0000
 17      0.0000      0.0077      0.0000      0.0000      0.0000      0.0102      0.0000      0.0000      0.0000
 18      0.0000      0.0085      0.0286      0.0000      0.0000      0.0000      0.0000      0.0301      0.0000
 19      0.0000      0.0121      0.0000      0.0038      0.0000      0.0034      0.0000      0.0232      0.0000
 20      0.0000      0.0248      0.0000      0.0000      0.1134      0.0158      0.0000      0.0378      0.0105
 21      0.0000      0.0157      0.0000      0.0671      0.0000      0.0000      0.0112      0.0050      0.0000
 22      0.0000      0.0251      0.0000      0.0385      0.0172      0.0000      0.0000      0.0063      0.0000
 23      0.0000      0.0291      0.0000      0.0048      0.0000      0.0885      0.0411      0.0000      0.0000
 24      0.0000      0.0212      0.0000      0.0137      0.0000      0.1277      0.0000      0.0000      0.1370
 25      0.0000      0.0390      0.1500      0.0000      0.0000      0.0093      0.0000      0.0861      0.0168
 26      0.0000      0.0082      0.0000      0.0093      0.0000      0.0000      0.0311      0.0000      0.0000
 27      0.0000      0.0041      0.0000      0.0000      0.0000      0.0043      0.0000      0.0000      0.0000
 28      0.0000      0.0041      0.0000      0.0015      0.0170      0.0000      0.0000      0.0000      0.0000
 29      0.0000      0.0027      0.0000      0.0000      0.0122      0.0000      0.0000      0.0000      0.0000
 30      0.0000      0.0038      0.0000      0.0000      0.0000      0.0000      0.0000      0.0000      0.0000
 31      0.0000      0.0038      0.0097      0.0000      0.0000      0.0000      0.0000      0.0000      0.0395
 32      0.0000      0.0079      0.0137      0.0000      0.0177      0.0000      0.0000      0.0000      0.0000
 33      0.0000      0.0050      0.0000      0.0000      0.0000      0.0000      0.0371      0.0000      0.0000
 34      0.0000      0.0041      0.0077      0.0000      0.0017      0.0000      0.0000      0.0000      0.0000
 35      0.0000      0.0030      0.0000      0.0000      0.0000      0.0000      0.0000      0.0000      0.0000
 36      0.0000      0.0027      0.0000      0.0046      0.0000      0.0000      0.0000      0.0000      0.0000
 37      0.0000      0.0047      0.0000      0.0571      0.0000      0.0000      0.0000      0.0000      0.0000
 38      0.0000      0.0032      0.0000      0.0000      0.0000      0.0000      0.0000      0.0031      0.0000
 39      0.0000      0.0043      0.0000      0.0000      0.0000      0.0400      0.0000      0.0000      0.0000
 40      0.0000      0.0056      0.0000      0.0000      0.0000      0.0000      0.0000      0.0000      0.0712
 41      0.0000      0.0077      0.0000      0.0000      0.0000      0.0000      0.0000      0.0000      0.0252
 42      0.0000      0.0081      0.0360      0.0000      0.0000      0.0000      0.0000      0.0000      0.0347
 43      0.0000      0.0102      0.0000      0.0000      0.0411      0.0000      0.0000      0.0000      0.0000
 44      0.0000      0.0222      0.0177      0.0000      0.0000      0.0076      0.0000      0.0307      0.0083
 45      0.0122      0.3664      0.2993      0.4045      0.4700      0.3854      0.5345      0.3614      0.4620
 46      3.3211      3.4103      3.4023      3.4976      3.5647      3.4202      3.2492      3.3074      3.6529
 47     16.3455     14.9604     15.3056     15.1805     15.3059     15.1373     15.2909     15.3882     14.9221
 48      0.0000      0.0475      0.0000      0.0000      0.0000      0.0622      0.0733      0.0000      0.0000
 49      0.0000      0.0427      0.0000      0.0000      0.0000      0.0000      0.0005      0.0984      0.0000
 50      0.0000      0.0269      0.0000      0.0588      0.0000      0.0103      0.0046      0.0000      0.0000
 51      0.0000      0.0044      0.0000      0.0000      0.0000      0.0000      0.0109      0.0000      0.0000
 52      0.0000      0.0044      0.0000      0.0141      0.0154      0.0000      0.0000      0.0000      0.0000
 53      0.0000      0.0041      0.0000      0.0031      0.0000      0.0000      0.0000      0.0000      0.0000
 54      0.0000      0.0059      0.0000      0.0000      0.0024      0.0000      0.0000      0.0000      0.0000
 55      0.0000      0.0058      0.0000      0.0008      0.0000      0.0000      0.0000      0.0000      0.0000
 56      0.0000      0.0046      0.0025      0.0000      0.0000      0.0000      0.0000      0.0000      0.0299
 57      0.0000      0.0052      0.0000      0.0000      0.0000      0.0000      0.0000      0.0000      0.0033
 58      0.0000      0.0060      0.0042      0.0000      0.0000      0.0000      0.0143      0.0000      0.0000
 59      0.0000      0.0043      0.0000      0.0000      0.0000      0.0000      0.0000      0.0000      0.0000
 60      0.0000      0.0029      0.0000      0.0000      0.0000      0.0000      0.0000      0.0000      0.0000
 61      0.0000      0.0025      0.0000      0.0000      0.0000      0.0000      0.0000      0.0000      0.0000
 62      0.0000      0.0033      0.0000      0.0026      0.0000      0.0000      0.0000      0.0000      0.0085
 63      0.0000      0.0050      0.0000      0.0000      0.0000      0.0000      0.0401      0.0000      0.0000
 64      0.0000      0.0059      0.0929      0.0000      0.0079      0.0000      0.0000      0.0000      0.0000
 65      0.0000      0.0055      0.0000      0.0000      0.0000      0.0000      0.0000      0.0000      0.0000
 66      0.0000      0.0135      0.0578      0.0000      0.0000      0.0000      0.0000      0.0000      0.0000
 67      0.0000      0.0141      0.0000      0.0000      0.0000      0.0000      0.0000      0.0000      0.0111
 68      0.0000      0.0462      0.0153      0.0000      0.0407      0.0000      0.0000      0.0784      0.0000
 69      0.0000      0.0522      0.0000      0.0000      0.0000      0.0000      0.0477      0.0000      0.0000
 70      0.0000      0.0858      0.0347      0.1856      0.0000      0.1103      0.2716      0.0058      0.0101
 71      0.0000      0.0919      0.0000      0.0000      0.0000      0.0000      0.0480      0.0105      0.0200
 72      0.0000      0.0991      0.1731      0.0750      0.2576      0.0942      0.0000      0.1194      0.0000
 73      0.0000      0.0959      0.0000      0.0740      0.0000      0.4648      0.0000      0.0000      0.2555
 74      0.0000      0.0961      0.0000      0.1378      0.2819      0.1441      0.0281      0.0643      0.1674
 75      0.4631      0.0823      0.0000      0.0000      0.0000      0.0000      0.0000      0.1495      0.0816
 76      0.0000      0.0062      0.0000      0.0681      0.0000      0.0000      0.0000      0.0000      0.0000
 77      0.0000      0.0059      0.0000      0.0000      0.0000      0.0000      0.0000      0.0199      0.0000
 78      0.0000      0.0036      0.0000      0.0000      0.0000      0.0000      0.0000      0.0000      0.0000
 79      0.0000      0.0050      0.0000      0.0000      0.0000      0.0000      0.0000      0.0000      0.0053
 80      0.0000      0.0047      0.0000      0.0000      0.0000      0.0000      0.0000      0.0000      0.0000
 81      0.0000      0.0036      0.0000      0.0000      0.0169      0.0000      0.0000      0.0000      0.0000
 82      0.0000      0.0022      0.0000      0.0000      0.0000      0.0000      0.0000      0.0000      0.0000
 83      0.0000      0.0030      0.0000      0.0000      0.0000      0.0000      0.0000      0.0040      0.0195
 84      0.0000      0.0049      0.0000      0.0000      0.0000      0.0000      0.0000      0.0000      0.0138
 85      0.0000      0.0032      0.0132      0.0000      0.0000      0.0000      0.0000      0.0000      0.0000
 86      0.0000      0.0044      0.0000      0.0000      0.0000      0.0000      0.0000      0.0000      0.0034
 87      0.0000      0.0034      0.0000      0.0000      0.0000      0.0000      0.0000      0.0000      0.0032
 88      0.0000      0.0060      0.0043      0.0000      0.0000      0.0000      0.0000      0.0000      0.0000
 89      0.0000      0.0063      0.0000      0.0001      0.0000      0.0000      0.0000      0.0000      0.0000
 90      0.0000      0.0131      0.0000      0.0000      0.0000      0.0000      0.0489      0.0000      0.0003
 91      0.0000      0.0297      0.0000      0.0000      0.0000      0.0000      0.0669      0.0047      0.0000
 92      0.0000      0.0235      0.0403      0.0000      0.0000      0.0000      0.0140      0.0336      0.1158
 93      0.0419      0.0566      0.0661      0.0000      0.0614      0.0000      0.3115      0.1511      0.0000
 94      0.1889      0.6008      0.5752      0.7077      0.5113      0.7261      0.5187      0.5432      0.2754
 95     12.9591     12.5250     12.7878     12.4481     12.3181     12.4646     12.4178     12.0857     13.3056
 96     12.3261     12.2906     12.4551     12.5885     12.2450     12.1953     12.0563     12.5878     12.5570
 97     20.1657     19.7854     20.1251     19.6689     19.8656     19.8980     20.2157     20.2198     19.7798
 98     18.4175     17.9221     18.0471     18.1814     18.3544     18.0342     17.9134     18.4938     18.0621
 99      8.1473      7.7290      7.6421      7.7611      7.7111      7.6087      7.6379      7.7120      7.5449
100      2.7385      3.4998      3.4213      3.4757      3.7469      3.5255      3.5189      3.3210      3.3117
101      0.0000      0.0025      0.0027      0.0000      0.0000      0.0000      0.0000      0.0000      0.0003
102      0.0000      0.0036      0.0144      0.0000      0.0000      0.0000      0.0000      0.0000      0.0000
103      0.0000      0.0042      0.0000      0.0000      0.0000      0.0000      0.0000      0.0000      0.0000
104      0.0000      0.0035      0.0132      0.0000      0.0185      0.0000      0.0000      0.0012      0.0000
105      0.0000      0.0100      0.0634      0.0715      0.0000      0.0000      0.0000      0.0184      0.0176
106      0.0000      0.0044      0.0000      0.0033      0.0000      0.0000      0.0000      0.0000      0.0358
107      0.0000      0.0075      0.0369      0.0000      0.0212      0.0000      0.0000      0.0060      0.0000
108      0.0000      0.0055      0.0000      0.0000      0.0000      0.0566      0.0022      0.0000      0.0204
109      0.0000      0.0032      0.0000      0.0000      0.0000      0.0000      0.0000      0.0000      0.0000
110      0.0000      0.0036      0.0000      0.0000      0.0000      0.0000      0.0000      0.0021      0.0000
111      0.0000      0.0024      0.0000      0.0000      0.0000      0.0000      0.0000      0.0000      0.0000
112      0.0000      0.0026      0.0000      0.0000      0.0000      0.0000      0.0000      0.0044      0.0000
113      0.0000      0.0025      0.0000      0.0000      0.0000      0.0000      0.0000      0.0000      0.0000
114      0.0000      0.0062      0.0000      0.0000      0.0000      0.0000      0.0000      0.0000      0.0000
115      0.0000      0.0144      0.0000      0.0877      0.0000      0.0000      0.0000      0.0000      0.0000
116      0.0000      0.0278      0.0612      0.0000      0.1239      0.0000      0.0000      0.0000      0.0931
117      0.0000      0.0398      0.0000      0.0483      0.0000      0.0188      0.0199      0.0000      0.0331
118      0.0106      0.0866      0.0263      0.0000      0.1068      0.2314      0.0659      0.1768      0.0000
119      0.0000      0.1099      0.0566      0.1543      0.2005      0.0000      0.3663      0.0797      0.0000
120      2.8180      2.4540      2.4699      2.1191      1.9950      2.4789      2.6035      2.5636      2.4095
121      0.0000      0.3041      0.2622      0.3572      0.4147      0.4049      0.2205      0.1178      0.5505
122      0.0000      0.0853      0.0370      0.0674      0.0000      0.1394      0.0536      0.0000      0.0181
123      0.0000      0.0563      0.0371      0.0446      0.0000      0.0638      0.0000      0.0000      0.0000
124      0.0000      0.0361      0.0000      0.0000      0.0000      0.0000      0.0000      0.0116      0.0107
125      0.0000      0.0432      0.0319      0.0851      0.0000      0.0000      0.0143      0.0000      0.0000
126      0.0000      0.0050      0.0000      0.0000      0.0000      0.0412      0.0000      0.0000      0.0000
127      0.0000      0.0070      0.0000      0.0000      0.0000      0.0000      0.0039      0.0000      0.0000
128      0.0000      0.0028      0.0000      0.0000      0.0000      0.0000      0.0383      0.0000      0.0000
129      0.0000      0.0040      0.0000      0.0000      0.0009      0.0000      0.0000      0.0000      0.0000
130      0.0000      0.0025      0.0071      0.0000      0.0000      0.0000      0.0000      0.0000      0.0000
131      0.0000      0.0039      0.0000      0.0000      0.0000      0.0000      0.0326      0.0000      0.0000
132      0.0000      0.0051      0.0032      0.0000      0.0000      0.0000      0.0219      0.0084      0.0000
133      0.0000      0.0069      0.0000      0.0000      0.0000      0.0000      0.0000      0.0000      0.0000
134      0.0000      0.0033      0.0000      0.0250      0.0000      0.0000      0.0000      0.0000      0.0000
135      0.0000      0.0031      0.0000      0.0000      0.0000      0.0000      0.0000      0.0000      0.0000
136      0.0000      0.0030      0.0000      0.0000      0.0000      0.0000      0.0000      0.0000      0.0000
137      0.0000      0.0030      0.0000      0.0000      0.0000      0.0000      0.0000      0.0000      0.0000
138      0.0000      0.0029      0.0000      0.0000      0.0000      0.0000      0.0000      0.0211      0.0000
139      0.0000      0.0071      0.0000      0.0000      0.0000      0.0000      0.0000      0.0000      0.0000
140      0.0000      0.0280      0.1098      0.0509      0.0000      0.0000      0.0000      0.0165      0.0000
141      0.0000      0.0560      0.0000      0.2022      0.0472      0.0487      0.0425      0.0000      0.0202
142      0.0000      0.0665      0.0803      0.1655      0.0183      0.0000      0.1179      0.0000      0.0000
143      0.0000      0.0669      0.0000      0.0000      0.1523      0.0000      0.0000      0.0023      0.0000
144      0.0000      0.0338      0.0000      0.0000      0.0000      0.0000      0.0000      0.0000      0.0000
145      0.0000      0.0151      0.0000      0.0087      0.0000      0.0000      0.0000      0.0000      0.0000
146      0.0000      0.0211      0.0173      0.0000      0.0000      0.0093      0.0042      0.0144      0.0177
147      0.0000      0.0171      0.0000      0.0000      0.0000      0.0000      0.0306      0.0000      0.0000
148      0.0000      0.0106      0.0206      0.0000      0.0277      0.0000      0.0000      0.0000      0.0000
149      0.0000      0.0083      0.0000      0.0000      0.0000      0.0000      0.0000      0.0000      0.0082
150      0.0000      0.0053      0.0000      0.0000      0.0000      0.0000      0.0048      0.0000      0.0000

# j      m_j: min, <> & last-chain-values for 1 ...  7 chains
  1  0.0000E+00  2.2653E-05  0.0000E+00  0.0000E+00  0.0000E+00  1.9704E-05  6.4288E-05  0.0000E+00  1.3156E-05
  2  1.6264E-03  1.4800E-03  1.4721E-03  1.4386E-03  1.4780E-03  1.4538E-03  1.5398E-03  1.5319E-03  1.4546E-03
  3  0.0000E+00  2.0684E-05  0.0000E+00  0.0000E+00  0.0000E+00  0.0000E+00  0.0000E+00  0.0000E+00  0.0000E+00
  4  0.0000E+00  1.8844E-05  0.0000E+00  0.0000E+00  0.0000E+00  0.0000E+00  0.0000E+00  2.4578E-04  0.0000E+00
  5  0.0000E+00  1.7710E-05  0.0000E+00  0.0000E+00  0.0000E+00  2.4717E-04  0.0000E+00  4.9659E-06  1.0035E-04
  6  0.0000E+00  2.8900E-05  1.9567E-04  0.0000E+00  0.0000E+00  0.0000E+00  0.0000E+00  0.0000E+00  0.0000E+00
  7  0.0000E+00  2.3217E-05  0.0000E+00  1.0423E-04  0.0000E+00  0.0000E+00  0.0000E+00  0.0000E+00  0.0000E+00
  8  0.0000E+00  3.6799E-05  2.4332E-05  0.0000E+00  0.0000E+00  6.5595E-05  0.0000E+00  0.0000E+00  0.0000E+00
  9  0.0000E+00  4.5565E-05  0.0000E+00  0.0000E+00  4.1395E-04  0.0000E+00  0.0000E+00  0.0000E+00  0.0000E+00
 10  0.0000E+00  2.5311E-05  0.0000E+00  0.0000E+00  0.0000E+00  3.7337E-04  0.0000E+00  6.0632E-05  0.0000E+00
 11  0.0000E+00  3.0358E-05  0.0000E+00  0.0000E+00  0.0000E+00  3.2224E-06  1.6977E-04  0.0000E+00  0.0000E+00
 12  0.0000E+00  9.7487E-05  0.0000E+00  0.0000E+00  0.0000E+00  0.0000E+00  0.0000E+00  0.0000E+00  0.0000E+00
 13  0.0000E+00  5.9733E-05  0.0000E+00  0.0000E+00  0.0000E+00  0.0000E+00  0.0000E+00  0.0000E+00  0.0000E+00
 14  0.0000E+00  1.2203E-04  0.0000E+00  0.0000E+00  0.0000E+00  0.0000E+00  0.0000E+00  0.0000E+00  0.0000E+00
 15  0.0000E+00  2.1707E-04  0.0000E+00  0.0000E+00  0.0000E+00  5.0396E-04  0.0000E+00  0.0000E+00  0.0000E+00
 16  0.0000E+00  5.6870E-04  0.0000E+00  0.0000E+00  0.0000E+00  0.0000E+00  5.0204E-04  0.0000E+00  0.0000E+00
 17  0.0000E+00  6.4427E-04  0.0000E+00  0.0000E+00  0.0000E+00  8.5534E-04  0.0000E+00  0.0000E+00  0.0000E+00
 18  0.0000E+00  1.1723E-03  3.9333E-03  0.0000E+00  0.0000E+00  0.0000E+00  0.0000E+00  4.1200E-03  0.0000E+00
 19  0.0000E+00  2.5209E-03  0.0000E+00  7.9148E-04  0.0000E+00  7.0944E-04  0.0000E+00  4.8147E-03  0.0000E+00
 20  0.0000E+00  7.3650E-03  0.0000E+00  0.0000E+00  3.3640E-02  4.6859E-03  0.0000E+00  1.1222E-02  3.1203E-03
 21  0.0000E+00  5.4120E-03  0.0000E+00  2.3090E-02  0.0000E+00  0.0000E+00  3.8649E-03  1.7106E-03  0.0000E+00
 22  0.0000E+00  1.1142E-02  0.0000E+00  1.7103E-02  7.6303E-03  0.0000E+00  0.0000E+00  2.8092E-03  0.0000E+00
 23  0.0000E+00  1.6378E-02  0.0000E+00  2.7041E-03  0.0000E+00  4.9693E-02  2.3214E-02  0.0000E+00  0.0000E+00
 24  0.0000E+00  1.3612E-02  0.0000E+00  8.8479E-03  0.0000E+00  8.2021E-02  0.0000E+00  0.0000E+00  8.8408E-02
 25  0.0000E+00  3.0168E-02  1.1614E-01  0.0000E+00  0.0000E+00  7.2065E-03  0.0000E+00  6.6501E-02  1.3017E-02
 26  0.0000E+00  3.9793E-05  0.0000E+00  4.5076E-05  0.0000E+00  0.0000E+00  1.5146E-04  0.0000E+00  0.0000E+00
 27  0.0000E+00  4.2118E-06  0.0000E+00  0.0000E+00  0.0000E+00  4.4655E-06  0.0000E+00  0.0000E+00  0.0000E+00
 28  0.0000E+00  8.3646E-06  0.0000E+00  3.0458E-06  3.4292E-05  0.0000E+00  0.0000E+00  0.0000E+00  0.0000E+00
 29  0.0000E+00  8.6206E-06  0.0000E+00  0.0000E+00  3.8348E-05  0.0000E+00  0.0000E+00  0.0000E+00  0.0000E+00
 30  0.0000E+00  1.4737E-05  0.0000E+00  0.0000E+00  0.0000E+00  0.0000E+00  0.0000E+00  0.0000E+00  0.0000E+00
 31  0.0000E+00  1.6970E-05  4.4100E-05  0.0000E+00  0.0000E+00  0.0000E+00  0.0000E+00  0.0000E+00  1.7908E-04
 32  0.0000E+00  3.9714E-05  6.8539E-05  0.0000E+00  8.8468E-05  0.0000E+00  0.0000E+00  0.0000E+00  0.0000E+00
 33  0.0000E+00  3.5360E-05  0.0000E+00  0.0000E+00  0.0000E+00  0.0000E+00  2.6509E-04  0.0000E+00  0.0000E+00
 34  0.0000E+00  3.5603E-05  6.6951E-05  0.0000E+00  1.4292E-05  0.0000E+00  0.0000E+00  0.0000E+00  0.0000E+00
 35  0.0000E+00  3.0825E-05  0.0000E+00  0.0000E+00  0.0000E+00  0.0000E+00  0.0000E+00  0.0000E+00  0.0000E+00
 36  0.0000E+00  3.6520E-05  0.0000E+00  6.0982E-05  0.0000E+00  0.0000E+00  0.0000E+00  0.0000E+00  0.0000E+00
 37  0.0000E+00  7.7502E-05  0.0000E+00  9.5032E-04  0.0000E+00  0.0000E+00  0.0000E+00  0.0000E+00  0.0000E+00
 38  0.0000E+00  7.4117E-05  0.0000E+00  0.0000E+00  0.0000E+00  0.0000E+00  0.0000E+00  7.1402E-05  0.0000E+00
 39  0.0000E+00  1.5017E-04  0.0000E+00  0.0000E+00  0.0000E+00  1.3804E-03  0.0000E+00  0.0000E+00  0.0000E+00
 40  0.0000E+00  3.4323E-04  0.0000E+00  0.0000E+00  0.0000E+00  0.0000E+00  0.0000E+00  0.0000E+00  4.3496E-03
 41  0.0000E+00  6.2799E-04  0.0000E+00  0.0000E+00  0.0000E+00  0.0000E+00  0.0000E+00  0.0000E+00  2.0602E-03
 42  0.0000E+00  7.3590E-04  3.2922E-03  0.0000E+00  0.0000E+00  0.0000E+00  0.0000E+00  0.0000E+00  3.1708E-03
 43  0.0000E+00  1.5196E-03  0.0000E+00  0.0000E+00  6.0822E-03  0.0000E+00  0.0000E+00  0.0000E+00  0.0000E+00
 44  0.0000E+00  5.2056E-03  4.1579E-03  0.0000E+00  0.0000E+00  1.7838E-03  0.0000E+00  7.1868E-03  1.9463E-03
 45  3.9779E-03  1.1975E-01  9.8031E-02  1.3234E-01  1.5331E-01  1.2579E-01  1.7546E-01  1.1808E-01  1.5145E-01
 46  1.2928E+00  1.3276E+00  1.3275E+00  1.3631E+00  1.3851E+00  1.3300E+00  1.2707E+00  1.2873E+00  1.4264E+00
 47  8.3393E+00  7.6334E+00  7.8274E+00  7.7541E+00  7.7951E+00  7.7146E+00  7.8377E+00  7.8498E+00  7.6371E+00
 48  0.0000E+00  2.8847E-02  0.0000E+00  0.0000E+00  0.0000E+00  3.7718E-02  4.4761E-02  0.0000E+00  0.0000E+00
 49  0.0000E+00  2.8996E-02  0.0000E+00  0.0000E+00  0.0000E+00  0.0000E+00  3.5589E-04  6.6882E-02  0.0000E+00
 50  0.0000E+00  2.1480E-02  0.0000E+00  4.7053E-02  0.0000E+00  8.1850E-03  3.6924E-03  0.0000E+00  0.0000E+00
 51  0.0000E+00  1.6039E-05  0.0000E+00  0.0000E+00  0.0000E+00  0.0000E+00  4.0177E-05  0.0000E+00  0.0000E+00
 52  0.0000E+00  4.4323E-06  0.0000E+00  1.4234E-05  1.5474E-05  0.0000E+00  0.0000E+00  0.0000E+00  0.0000E+00
 53  0.0000E+00  6.2740E-06  0.0000E+00  4.8179E-06  0.0000E+00  0.0000E+00  0.0000E+00  0.0000E+00  0.0000E+00
 54  0.0000E+00  8.6590E-06  0.0000E+00  0.0000E+00  3.5037E-06  0.0000E+00  0.0000E+00  0.0000E+00  0.0000E+00
 55  0.0000E+00  1.2464E-05  0.0000E+00  1.6339E-06  0.0000E+00  0.0000E+00  0.0000E+00  0.0000E+00  0.0000E+00
 56  0.0000E+00  1.3222E-05  7.2212E-06  0.0000E+00  0.0000E+00  0.0000E+00  0.0000E+00  0.0000E+00  8.5649E-05
 57  0.0000E+00  2.3964E-05  0.0000E+00  0.0000E+00  0.0000E+00  0.0000E+00  0.0000E+00  0.0000E+00  1.5310E-05
 58  0.0000E+00  3.9568E-05  2.7685E-05  0.0000E+00  0.0000E+00  0.0000E+00  9.4667E-05  0.0000E+00  0.0000E+00
 59  0.0000E+00  3.9670E-05  0.0000E+00  0.0000E+00  0.0000E+00  0.0000E+00  0.0000E+00  0.0000E+00  0.0000E+00
 60  0.0000E+00  2.9820E-05  0.0000E+00  0.0000E+00  0.0000E+00  0.0000E+00  0.0000E+00  0.0000E+00  0.0000E+00
 61  0.0000E+00  3.2664E-05  0.0000E+00  0.0000E+00  0.0000E+00  0.0000E+00  0.0000E+00  0.0000E+00  0.0000E+00
 62  0.0000E+00  5.4601E-05  0.0000E+00  4.3572E-05  0.0000E+00  0.0000E+00  0.0000E+00  0.0000E+00  1.4018E-04
 63  0.0000E+00  1.2555E-04  0.0000E+00  0.0000E+00  0.0000E+00  0.0000E+00  1.0116E-03  0.0000E+00  0.0000E+00
 64  0.0000E+00  2.4203E-04  3.8473E-03  0.0000E+00  3.2668E-04  0.0000E+00  0.0000E+00  0.0000E+00  0.0000E+00
 65  0.0000E+00  3.8558E-04  0.0000E+00  0.0000E+00  0.0000E+00  0.0000E+00  0.0000E+00  0.0000E+00  0.0000E+00
 66  0.0000E+00  1.2067E-03  5.1779E-03  0.0000E+00  0.0000E+00  0.0000E+00  0.0000E+00  0.0000E+00  0.0000E+00
 67  0.0000E+00  1.7270E-03  0.0000E+00  0.0000E+00  0.0000E+00  0.0000E+00  0.0000E+00  0.0000E+00  1.3620E-03
 68  0.0000E+00  1.0532E-02  3.4961E-03  0.0000E+00  9.2517E-03  0.0000E+00  0.0000E+00  1.7861E-02  0.0000E+00
 69  0.0000E+00  2.0535E-02  0.0000E+00  0.0000E+00  0.0000E+00  0.0000E+00  1.8842E-02  0.0000E+00  0.0000E+00
 70  0.0000E+00  4.6931E-02  1.8999E-02  1.0162E-01  0.0000E+00  6.0242E-02  1.4924E-01  3.1753E-03  5.5333E-03
 71  0.0000E+00  5.9333E-02  0.0000E+00  0.0000E+00  0.0000E+00  0.0000E+00  3.1151E-02  6.7511E-03  1.2925E-02
 72  0.0000E+00  8.4167E-02  1.4737E-01  6.3811E-02  2.1845E-01  7.9960E-02  0.0000E+00  1.0146E-01  0.0000E+00
 73  0.0000E+00  1.0281E-01  0.0000E+00  7.9363E-02  0.0000E+00  4.9756E-01  0.0000E+00  0.0000E+00  2.7466E-01
 74  0.0000E+00  1.1492E-01  0.0000E+00  1.6493E-01  3.3647E-01  1.7215E-01  3.3710E-02  7.6884E-02  2.0077E-01
 75  6.3671E-01  1.1310E-01  0.0000E+00  0.0000E+00  0.0000E+00  0.0000E+00  0.0000E+00  2.0550E-01  1.1260E-01
 76  0.0000E+00  1.9699E-05  0.0000E+00  2.1717E-04  0.0000E+00  0.0000E+00  0.0000E+00  0.0000E+00  0.0000E+00
 77  0.0000E+00  7.6001E-06  0.0000E+00  0.0000E+00  0.0000E+00  0.0000E+00  0.0000E+00  2.5781E-05  0.0000E+00
 78  0.0000E+00  5.2741E-06  0.0000E+00  0.0000E+00  0.0000E+00  0.0000E+00  0.0000E+00  0.0000E+00  0.0000E+00
 79  0.0000E+00  8.8075E-06  0.0000E+00  0.0000E+00  0.0000E+00  0.0000E+00  0.0000E+00  0.0000E+00  9.2453E-06
 80  0.0000E+00  1.0650E-05  0.0000E+00  0.0000E+00  0.0000E+00  0.0000E+00  0.0000E+00  0.0000E+00  0.0000E+00
 81  0.0000E+00  1.0809E-05  0.0000E+00  0.0000E+00  5.0241E-05  0.0000E+00  0.0000E+00  0.0000E+00  0.0000E+00
 82  0.0000E+00  8.7234E-06  0.0000E+00  0.0000E+00  0.0000E+00  0.0000E+00  0.0000E+00  0.0000E+00  0.0000E+00
 83  0.0000E+00  1.7858E-05  0.0000E+00  0.0000E+00  0.0000E+00  0.0000E+00  0.0000E+00  2.3659E-05  1.1536E-04
 84  0.0000E+00  4.0106E-05  0.0000E+00  0.0000E+00  0.0000E+00  0.0000E+00  0.0000E+00  0.0000E+00  1.1326E-04
 85  0.0000E+00  3.1761E-05  1.3103E-04  0.0000E+00  0.0000E+00  0.0000E+00  0.0000E+00  0.0000E+00  0.0000E+00
 86  0.0000E+00  5.9271E-05  0.0000E+00  0.0000E+00  0.0000E+00  0.0000E+00  0.0000E+00  0.0000E+00  4.5687E-05
 87  0.0000E+00  6.1497E-05  0.0000E+00  0.0000E+00  0.0000E+00  0.0000E+00  0.0000E+00  0.0000E+00  5.7091E-05
 88  0.0000E+00  1.6430E-04  1.1789E-04  0.0000E+00  0.0000E+00  0.0000E+00  0.0000E+00  0.0000E+00  0.0000E+00
 89  0.0000E+00  2.8476E-04  0.0000E+00  2.7426E-06  0.0000E+00  0.0000E+00  0.0000E+00  0.0000E+00  0.0000E+00
 90  0.0000E+00  1.0988E-03  0.0000E+00  0.0000E+00  0.0000E+00  0.0000E+00  4.1189E-03  0.0000E+00  2.1113E-05
 91  0.0000E+00  3.2060E-03  0.0000E+00  0.0000E+00  0.0000E+00  0.0000E+00  7.2557E-03  5.0937E-04  0.0000E+00
 92  0.0000E+00  3.3872E-03  5.8187E-03  0.0000E+00  0.0000E+00  0.0000E+00  2.0221E-03  4.8447E-03  1.6731E-02
 93  1.2271E-02  1.6557E-02  1.9404E-02  0.0000E+00  1.7930E-02  0.0000E+00  9.1587E-02  4.4223E-02  0.0000E+00
 94  9.9142E-02  3.1539E-01  3.0266E-01  3.7188E-01  2.6792E-01  3.8074E-01  2.7354E-01  2.8506E-01  1.4503E-01
 95  9.1636E+00  8.8576E+00  9.0641E+00  8.8128E+00  8.6950E+00  8.8046E+00  8.8219E+00  8.5450E+00  9.4384E+00
 96  1.0516E+01  1.0487E+01  1.0651E+01  1.0752E+01  1.0428E+01  1.0393E+01  1.0334E+01  1.0738E+01  1.0747E+01
 97  2.2417E+01  2.1996E+01  2.2425E+01  2.1891E+01  2.2044E+01  2.2096E+01  2.2578E+01  2.2474E+01  2.2057E+01
 98  2.6255E+01  2.5552E+01  2.5789E+01  2.5950E+01  2.6119E+01  2.5682E+01  2.5656E+01  2.6361E+01  2.5830E+01
 99  1.3240E+01  1.2561E+01  1.2448E+01  1.2627E+01  1.2509E+01  1.2351E+01  1.2470E+01  1.2531E+01  1.2299E+01
100  5.1236E+00  6.5484E+00  6.4162E+00  6.5105E+00  6.9977E+00  6.5889E+00  6.6143E+00  6.2125E+00  6.2155E+00
101  0.0000E+00  5.1860E-06  5.6743E-06  0.0000E+00  0.0000E+00  0.0000E+00  0.0000E+00  0.0000E+00  6.2675E-07
102  0.0000E+00  3.8874E-06  1.5430E-05  0.0000E+00  0.0000E+00  0.0000E+00  0.0000E+00  0.0000E+00  0.0000E+00
103  0.0000E+00  4.9460E-06  0.0000E+00  0.0000E+00  0.0000E+00  0.0000E+00  0.0000E+00  0.0000E+00  0.0000E+00
104  0.0000E+00  5.4476E-06  2.0713E-05  0.0000E+00  2.8761E-05  0.0000E+00  0.0000E+00  1.8506E-06  0.0000E+00
105  0.0000E+00  3.2929E-05  2.0926E-04  2.3582E-04  0.0000E+00  0.0000E+00  0.0000E+00  6.0647E-05  5.7977E-05
106  0.0000E+00  1.5561E-05  0.0000E+00  1.1857E-05  0.0000E+00  0.0000E+00  0.0000E+00  0.0000E+00  1.2731E-04
107  0.0000E+00  3.5612E-05  1.7526E-04  0.0000E+00  1.0010E-04  0.0000E+00  0.0000E+00  2.8500E-05  0.0000E+00
108  0.0000E+00  4.3756E-05  0.0000E+00  0.0000E+00  0.0000E+00  4.4604E-04  1.7575E-05  0.0000E+00  1.6160E-04
109  0.0000E+00  3.0250E-05  0.0000E+00  0.0000E+00  0.0000E+00  0.0000E+00  0.0000E+00  0.0000E+00  0.0000E+00
110  0.0000E+00  4.0540E-05  0.0000E+00  0.0000E+00  0.0000E+00  0.0000E+00  0.0000E+00  2.3439E-05  0.0000E+00
111  0.0000E+00  3.7643E-05  0.0000E+00  0.0000E+00  0.0000E+00  0.0000E+00  0.0000E+00  0.0000E+00  0.0000E+00
112  0.0000E+00  5.4175E-05  0.0000E+00  0.0000E+00  0.0000E+00  0.0000E+00  0.0000E+00  9.1805E-05  0.0000E+00
113  0.0000E+00  7.5920E-05  0.0000E+00  0.0000E+00  0.0000E+00  0.0000E+00  0.0000E+00  0.0000E+00  0.0000E+00
114  0.0000E+00  3.3509E-04  0.0000E+00  0.0000E+00  0.0000E+00  0.0000E+00  0.0000E+00  0.0000E+00  0.0000E+00
115  0.0000E+00  1.5659E-03  0.0000E+00  9.5641E-03  0.0000E+00  0.0000E+00  0.0000E+00  0.0000E+00  0.0000E+00
116  0.0000E+00  4.8618E-03  1.0737E-02  0.0000E+00  2.1653E-02  0.0000E+00  0.0000E+00  0.0000E+00  1.6351E-02
117  0.0000E+00  8.1876E-03  0.0000E+00  9.9445E-03  0.0000E+00  3.8565E-03  4.1022E-03  0.0000E+00  6.8337E-03
118  4.4254E-03  3.6151E-02  1.1014E-02  0.0000E+00  4.4510E-02  9.6474E-02  2.7648E-02  7.3761E-02  0.0000E+00
119  0.0000E+00  7.9291E-02  4.0956E-02  1.1144E-01  1.4434E-01  0.0000E+00  2.6548E-01  5.7474E-02  0.0000E+00
120  2.8946E+00  2.5209E+00  2.5432E+00  2.1793E+00  2.0456E+00  2.5436E+00  2.6868E+00  2.6330E+00  2.4828E+00
121  0.0000E+00  3.6752E-01  3.1758E-01  4.3225E-01  5.0034E-01  4.8886E-01  2.6771E-01  1.4237E-01  6.6745E-01
122  0.0000E+00  1.3793E-01  5.9957E-02  1.0905E-01  0.0000E+00  2.2514E-01  8.7159E-02  0.0000E+00  2.9366E-02
123  0.0000E+00  1.2002E-01  7.9266E-02  9.5145E-02  0.0000E+00  1.3599E-01  0.0000E+00  0.0000E+00  0.0000E+00
124  0.0000E+00  8.8303E-02  0.0000E+00  0.0000E+00  0.0000E+00  0.0000E+00  0.0000E+00  2.8328E-02  2.6302E-02
125  0.0000E+00  1.2654E-01  9.3703E-02  2.4965E-01  0.0000E+00  0.0000E+00  4.2195E-02  0.0000E+00  0.0000E+00
126  0.0000E+00  7.7584E-06  0.0000E+00  0.0000E+00  0.0000E+00  6.3548E-05  0.0000E+00  0.0000E+00  0.0000E+00
127  0.0000E+00  5.7197E-06  0.0000E+00  0.0000E+00  0.0000E+00  0.0000E+00  3.2055E-06  0.0000E+00  0.0000E+00
128  0.0000E+00  3.4206E-06  0.0000E+00  0.0000E+00  0.0000E+00  0.0000E+00  4.6535E-05  0.0000E+00  0.0000E+00
129  0.0000E+00  9.9129E-06  0.0000E+00  0.0000E+00  2.1839E-06  0.0000E+00  0.0000E+00  0.0000E+00  0.0000E+00
130  0.0000E+00  8.3957E-06  2.4038E-05  0.0000E+00  0.0000E+00  0.0000E+00  0.0000E+00  0.0000E+00  0.0000E+00
131  0.0000E+00  1.5394E-05  0.0000E+00  0.0000E+00  0.0000E+00  0.0000E+00  1.2767E-04  0.0000E+00  0.0000E+00
132  0.0000E+00  2.6774E-05  1.6865E-05  0.0000E+00  0.0000E+00  0.0000E+00  1.1633E-04  4.4708E-05  0.0000E+00
133  0.0000E+00  5.3294E-05  0.0000E+00  0.0000E+00  0.0000E+00  0.0000E+00  0.0000E+00  0.0000E+00  0.0000E+00
134  0.0000E+00  3.2441E-05  0.0000E+00  2.4434E-04  0.0000E+00  0.0000E+00  0.0000E+00  0.0000E+00  0.0000E+00
135  0.0000E+00  3.6928E-05  0.0000E+00  0.0000E+00  0.0000E+00  0.0000E+00  0.0000E+00  0.0000E+00  0.0000E+00
136  0.0000E+00  5.0849E-05  0.0000E+00  0.0000E+00  0.0000E+00  0.0000E+00  0.0000E+00  0.0000E+00  0.0000E+00
137  0.0000E+00  6.8339E-05  0.0000E+00  0.0000E+00  0.0000E+00  0.0000E+00  0.0000E+00  0.0000E+00  0.0000E+00
138  0.0000E+00  1.1169E-04  0.0000E+00  0.0000E+00  0.0000E+00  0.0000E+00  0.0000E+00  8.1294E-04  0.0000E+00
139  0.0000E+00  5.1245E-04  0.0000E+00  0.0000E+00  0.0000E+00  0.0000E+00  0.0000E+00  0.0000E+00  0.0000E+00
140  0.0000E+00  4.7004E-03  1.8496E-02  8.5674E-03  0.0000E+00  0.0000E+00  0.0000E+00  2.7766E-03  0.0000E+00
141  0.0000E+00  1.4414E-02  0.0000E+00  5.2058E-02  1.2114E-02  1.2512E-02  1.0983E-02  0.0000E+00  5.2100E-03
142  0.0000E+00  2.0339E-02  2.4630E-02  5.0686E-02  5.5924E-03  0.0000E+00  3.6239E-02  0.0000E+00  0.0000E+00
143  0.0000E+00  4.0696E-02  0.0000E+00  0.0000E+00  9.2459E-02  0.0000E+00  0.0000E+00  1.4002E-03  0.0000E+00
144  0.0000E+00  4.0435E-02  0.0000E+00  0.0000E+00  0.0000E+00  0.0000E+00  0.0000E+00  0.0000E+00  0.0000E+00
145  0.0000E+00  2.6868E-02  0.0000E+00  1.5485E-02  0.0000E+00  0.0000E+00  0.0000E+00  0.0000E+00  0.0000E+00
146  0.0000E+00  4.4722E-02  3.6742E-02  0.0000E+00  0.0000E+00  1.9726E-02  8.9192E-03  3.0684E-02  3.7701E-02
147  0.0000E+00  4.8805E-02  0.0000E+00  0.0000E+00  0.0000E+00  0.0000E+00  8.7612E-02  0.0000E+00  0.0000E+00
148  0.0000E+00  4.0957E-02  7.9916E-02  0.0000E+00  1.0675E-01  0.0000E+00  0.0000E+00  0.0000E+00  0.0000E+00
149  0.0000E+00  3.7523E-02  0.0000E+00  0.0000E+00  0.0000E+00  0.0000E+00  0.0000E+00  0.0000E+00  3.7046E-02
150  0.0000E+00  2.8848E-02  0.0000E+00  0.0000E+00  0.0000E+00  0.0000E+00  2.6172E-02  0.0000E+00  0.0000E+00

# AV, chi2 & Mass for <> & i_chain = 1 ...  7 solutions
AV      -0.1025     -0.1022     -0.1017     -0.1020     -0.1025     -0.1028     -0.1008     -0.1020     -0.1017
chi2 2.6494E+00  2.7530E+00  2.7072E+00  2.7011E+00  2.6923E+00  2.6981E+00  2.7053E+00  2.6793E+00  2.6968E+00
Mass 4.3628E-09  4.3645E-09  4.3570E-09  4.3609E-09  4.3705E-09  4.3657E-09  4.3526E-09  4.3667E-09  4.3541E-09
 -27.80                                  [v0_min (km/s) before EX0s...]
  43.04                                  [vd_min (km/s) before EX0s...]


## Synthetic spectrum (Best Model) ##l_obs f_obs f_syn wei
 3070    [Nl_obs]
 3359.00    0.00000   0.39039   -2.000
 3360.00    0.19989   0.35798   -1.000
 3361.00    0.20809   0.36971   -1.000
 3362.00    0.23330   0.41469   -1.000
 3363.00    0.26553   0.46845   -1.000
 3364.00    0.28286   0.50148   -1.000
 3365.00    0.28778   0.50180   -1.000
 3366.00    0.28261   0.47925   -1.000
 3367.00    0.27537   0.45085   -1.000
 3368.00    0.26525   0.42678   -1.000
 3369.00    0.24879   0.40865   -1.000
 3370.00    0.24187   0.39171   -1.000
 3371.00    0.24291   0.38331   -1.000
 3372.00    0.25292   0.39319   -1.000
 3373.00    0.26371   0.42400   -1.000
 3374.00    0.28543   0.46809   -1.000
 3375.00    0.30499   0.51062   -1.000
 3376.00    0.32796   0.53218   -1.000
 3377.00    0.34438   0.52128   -1.000
 3378.00    0.33305   0.48676   -1.000
 3379.00    0.31552   0.45531   -1.000
 3380.00    0.31590   0.44368   -1.000
 3381.00    0.31814   0.45429   -1.000
 3382.00    0.33073   0.47565   -1.000
 3383.00    0.33280   0.49452   -1.000
 3384.00    0.33883   0.51001   -1.000
 3385.00    0.35699   0.52077   -1.000
 3386.00    0.35483   0.51973   -1.000
 3387.00    0.35190   0.51376   -1.000
 3388.00    0.35981   0.51348   -1.000
 3389.00    0.36610   0.51838   -1.000
 3390.00    0.37435   0.51720   -1.000
 3391.00    0.36974   0.50072   -1.000
 3392.00    0.36615   0.47693   -1.000
 3393.00    0.36430   0.46857   -1.000
 3394.00    0.37632   0.48378   -1.000
 3395.00    0.39374   0.51448   -1.000
 3396.00    0.41725   0.54596   -1.000
 3397.00    0.42954   0.57250   -1.000
 3398.00    0.44329   0.59275   -1.000
 3399.00    0.46064   0.59966   -1.000
 3400.00    0.46659   0.59236   -1.000
 3401.00    0.46221   0.57441   -1.000
 3402.00    0.44237   0.55091   -1.000
 3403.00    0.43813   0.53287   -1.000
 3404.00    0.43049   0.52231   -1.000
 3405.00    0.42276   0.51600   -1.000
 3406.00    0.41601   0.50873   -1.000
 3407.00    0.41421   0.50088   -1.000
 3408.00    0.40754   0.49834   -1.000
 3409.00    0.40543   0.50586   -1.000
 3410.00    0.40807   0.51663   -1.000
 3411.00    0.42108   0.51381   -1.000
 3412.00    0.42419   0.49403   -1.000
 3413.00    0.40604   0.47002   -1.000
 3414.00    0.39893   0.46060   -1.000
 3415.00    0.40001   0.47345   -1.000
 3416.00    0.41043   0.49904   -1.000
 3417.00    0.42906   0.52954   -1.000
 3418.00    0.45042   0.55776   -1.000
 3419.00    0.47444   0.57904   -1.000
 3420.00    0.47594   0.58388   -1.000
 3421.00    0.47930   0.56704   -1.000
 3422.00    0.47624   0.53947   -1.000
 3423.00    0.46240   0.52372   -1.000
 3424.00    0.45223   0.52497   -1.000
 3425.00    0.46605   0.53227   -1.000
 3426.00    0.47864   0.53903   -1.000
 3427.00    0.48103   0.55247   -1.000
 3428.00    0.49194   0.57819   -1.000
 3429.00    0.50623   0.60310   -1.000
 3430.00    0.51523   0.60336   -1.000
 3431.00    0.50856   0.57738   -1.000
 3432.00    0.49125   0.54716   -1.000
 3433.00    0.47903   0.53676   -1.000
 3434.00    0.48240   0.55020   -1.000
 3435.00    0.49363   0.56331   -1.000
 3436.00    0.49641   0.55753   -1.000
 3437.00    0.48251   0.53475   -1.000
 3438.00    0.46066   0.49985   -1.000
 3439.00    0.43439   0.45643   -1.000
 3440.00    0.40216   0.41704   -1.000
 3441.00    0.38678   0.39356  258.546
 3442.00    0.38632   0.39210  258.856
 3443.00    0.38800   0.40744   -1.000
 3444.00    0.40424   0.42959   -1.000
 3445.00    0.42776   0.45484   -1.000
 3446.00    0.45284   0.48549   -1.000
 3447.00    0.46903   0.51801   -1.000
 3448.00    0.49759   0.54824   -1.000
 3449.00    0.51887   0.56910   -1.000
 3450.00    0.52163   0.56698   -1.000
 3451.00    0.51696   0.54503   -1.000
 3452.00    0.49678   0.52745   -1.000
 3453.00    0.48858   0.52736   -1.000
 3454.00    0.49506   0.53944   -1.000
 3455.00    0.50981   0.54663   -1.000
 3456.00    0.51816   0.53703   -1.000
 3457.00    0.51583   0.51485 1654.190
 3458.00    0.50209   0.49078   -1.000
 3459.00    0.48108   0.47282  207.867
 3460.00    0.47459   0.46333  210.710
 3461.00    0.47789   0.47082  209.254
 3462.00    0.49516   0.49613 1654.190
 3463.00    0.51304   0.52198   -1.000
 3464.00    0.52817   0.52812 1654.190
 3465.00    0.53288   0.52003   -1.000
 3466.00    0.52659   0.51880   -1.000
 3467.00    0.53277   0.53413 1654.190
 3468.00    0.55306   0.55983   -1.000
 3469.00    0.56537   0.57929   -1.000
 3470.00    0.56924   0.57962   -1.000
 3471.00    0.56381   0.56032   -1.000
 3472.00    0.54495   0.52771   -1.000
 3473.00    0.51829   0.48873   -1.000
 3474.00    0.50257   0.45463   -1.000
 3475.00    0.47710   0.43592   -1.000
 3476.00    0.45963   0.44431   -1.000
 3477.00    0.47028   0.47526  212.639
 3478.00    0.50743   0.51026   -1.000
 3479.00    0.54362   0.53627   -1.000
 3480.00    0.56107   0.54845   -1.000
 3481.00    0.56436   0.54504   -1.000
 3482.00    0.56299   0.53180   -1.000
 3483.00    0.55534   0.51995   -1.000
 3484.00    0.54899   0.52233   -1.000
 3485.00    0.56167   0.54361   -1.000
 3486.00    0.58037   0.56605   -1.000
 3487.00    0.59299   0.56774   -1.000
 3488.00    0.57972   0.54245   -1.000
 3489.00    0.54520   0.50612   -1.000
 3490.00    0.51586   0.48144   -1.000
 3491.00    0.49939   0.47883   -1.000
 3492.00    0.51026   0.49086   -1.000
 3493.00    0.51607   0.50339   -1.000
 3494.00    0.52383   0.50578   -1.000
 3495.00    0.52626   0.49519   -1.000
 3496.00    0.51542   0.48648   -1.000
 3497.00    0.51229   0.49837   -1.000
 3498.00    0.53081   0.52983 1654.190
 3499.00    0.57291   0.56159   -1.000
 3500.00    0.60195   0.57858   -1.000
 3501.00    0.60932   0.58885   -1.000
 3502.00    0.61668   0.59892   -1.000
 3503.00    0.62116   0.60071   -1.000
 3504.00    0.60354   0.58967   -1.000
 3505.00    0.59619   0.57186   -1.000
 3506.00    0.58416   0.55952   -1.000
 3507.00    0.59214   0.55798   -1.000
 3508.00    0.59880   0.55602   -1.000
 3509.00    0.59131   0.54597   -1.000
 3510.00    0.56903   0.53254   -1.000
 3511.00    0.55762   0.51783   -1.000
 3512.00    0.55210   0.50020   -1.000
 3513.00    0.53160   0.48521   -1.000
 3514.00    0.51921   0.48899   -1.000
 3515.00    0.53317   0.52242   -1.000
 3516.00    0.56306   0.57040   -1.000
 3517.00    0.59911   0.60361   -1.000
 3518.00    0.60821   0.60446   -1.000
 3519.00    0.58943   0.57729   -1.000
 3520.00    0.56850   0.54338   -1.000
 3521.00    0.54497   0.51399   -1.000
 3522.00    0.52389   0.48977   -1.000
 3523.00    0.49774   0.46427   -1.000
 3524.00    0.48128   0.44027   -1.000
 3525.00    0.46441   0.43421   -1.000
 3526.00    0.46769   0.45771  213.817
 3527.00    0.49932   0.50130   -1.000
 3528.00    0.54001   0.54668   -1.000
 3529.00    0.57071   0.57422   -1.000
 3530.00    0.57958   0.57897 1654.190
 3531.00    0.56721   0.56933   -1.000
 3532.00    0.56370   0.56312 1654.190
 3533.00    0.57016   0.56841 1654.190
 3534.00    0.57993   0.57982 1654.190
 3535.00    0.59259   0.58963   -1.000
 3536.00    0.60183   0.59834   -1.000
 3537.00    0.59819   0.61186   -1.000
 3538.00    0.60495   0.62753   -1.000
 3539.00    0.61286   0.63284   -1.000
 3540.00    0.60737   0.62374   -1.000
 3541.00    0.59588   0.61167   -1.000
 3542.00    0.59090   0.61117   -1.000
 3543.00    0.59483   0.62263   -1.000
 3544.00    0.60409   0.63267   -1.000
 3545.00    0.60582   0.63233   -1.000
 3546.00    0.59455   0.62282   -1.000
 3547.00    0.58112   0.61368   -1.000
 3548.00    0.57901   0.61264   -1.000
 3549.00    0.58031   0.61767   -1.000
 3550.00    0.58451   0.61909   -1.000
 3551.00    0.57636   0.60861   -1.000
 3552.00    0.55871   0.58774   -1.000
 3553.00    0.54298   0.56847   -1.000
 3554.00    0.53438   0.56361   -1.000
 3555.00    0.53955   0.57214   -1.000
 3556.00    0.55242   0.58106   -1.000
 3557.00    0.54965   0.58276   -1.000
 3558.00    0.54169   0.57856   -1.000
 3559.00    0.53485   0.57730   -1.000
 3560.00    0.54040   0.58554   -1.000
 3561.00    0.55103   0.60034   -1.000
 3562.00    0.55313   0.60447   -1.000
 3563.00    0.55184   0.57770   -1.000
 3564.00    0.51898   0.52582   -1.000
 3565.00    0.47642   0.47975  209.900
 3566.00    0.45757   0.46506  218.547
 3567.00    0.46319   0.46995  215.895
 3568.00    0.46574   0.46672  214.711
 3569.00    0.45009   0.45264  222.177
 3570.00    0.44204   0.44505  226.224
 3571.00    0.45663   0.45427  218.994
 3572.00    0.47813   0.47468  209.147
 3573.00    0.49638   0.49247   -1.000
 3574.00    0.50397   0.50434 1654.190
 3575.00    0.50455   0.51329   -1.000
 3576.00    0.50581   0.51680   -1.000
 3577.00    0.50393   0.50854   -1.000
 3578.00    0.48850   0.48574   -1.000
 3579.00    0.46095   0.45012  216.943
 3580.00    0.42671   0.41629  234.353
 3581.00    0.40463   0.39859  247.141
 3582.00    0.40225   0.40295  248.602
 3583.00    0.40061   0.41099  249.622
 3584.00    0.39060   0.40409   -1.000
 3585.00    0.37805   0.38891  264.512
 3586.00    0.37288   0.38130  268.183
 3587.00    0.39307   0.39257  254.405
 3588.00    0.41524   0.42415  240.825
 3589.00    0.43630   0.46875   -1.000
 3590.00    0.47950   0.51284   -1.000
 3591.00    0.51930   0.54150   -1.000
 3592.00    0.53937   0.54904   -1.000
 3593.00    0.54021   0.55061   -1.000
 3594.00    0.54944   0.56345   -1.000
 3595.00    0.56773   0.58947   -1.000
 3596.00    0.59695   0.61583   -1.000
 3597.00    0.61475   0.63159   -1.000
 3598.00    0.63128   0.64155   -1.000
 3599.00    0.64172   0.64731   -1.000
 3600.00    0.63380   0.63678   -1.000
 3601.00    0.60424   0.60572   -1.000
 3602.00    0.57179   0.56828   -1.000
 3603.00    0.54704   0.53905   -1.000
 3604.00    0.53793   0.52660   -1.000
 3605.00    0.53463   0.52528   -1.000
 3606.00    0.54048   0.52146   -1.000
 3607.00    0.53429   0.50542   -1.000
 3608.00    0.50726   0.48587   -1.000
 3609.00    0.49907   0.48141   -1.000
 3610.00    0.51035   0.49793   -1.000
 3611.00    0.52611   0.52381   -1.000
 3612.00    0.54562   0.54327   -1.000
 3613.00    0.55879   0.55966 1654.190
 3614.00    0.56905   0.58037   -1.000
 3615.00    0.59084   0.59235   -1.000
 3616.00    0.58915   0.57280   -1.000
 3617.00    0.54129   0.52371   -1.000
 3618.00    0.49298   0.47678   -1.000
 3619.00    0.48371   0.47040  206.737
 3620.00    0.51484   0.50616   -1.000
 3621.00    0.56506   0.55734   -1.000
 3622.00    0.59898   0.59585   -1.000
 3623.00    0.61338   0.61814   -1.000
 3624.00    0.62092   0.64242   -1.000
 3625.00    0.64514   0.67774   -1.000
 3626.00    0.67353   0.71105   -1.000
 3627.00    0.68328   0.72249   -1.000
 3628.00    0.67055   0.69584   -1.000
 3629.00    0.63110   0.63157 1584.533
 3630.00    0.56293   0.55715   -1.000
 3631.00    0.51971   0.51434   -1.000
 3632.00    0.51420   0.51345 1654.190
 3633.00    0.53102   0.53783   -1.000
 3634.00    0.55060   0.56439   -1.000
 3635.00    0.56347   0.58419   -1.000
 3636.00    0.58561   0.60222   -1.000
 3637.00    0.61475   0.62771   -1.000
 3638.00    0.64374   0.65750   -1.000
 3639.00    0.66596   0.67920   -1.000
 3640.00    0.66638   0.68278   -1.000
 3641.00    0.64965   0.66566   -1.000
 3642.00    0.62828   0.63628   -1.000
 3643.00    0.59554   0.60655   -1.000
 3644.00    0.57886   0.58177   -1.000
 3645.00    0.56924   0.56200   -1.000
 3646.00    0.56070   0.54488   -1.000
 3647.00    0.55051   0.53422   -1.000
 3648.00    0.55023   0.53783   -1.000
 3649.00    0.56594   0.55666   -1.000
 3650.00    0.58996   0.58908 1654.190
 3651.00    0.62017   0.62769   -1.000
 3652.00    0.64728   0.66152   -1.000
 3653.00    0.66339   0.68186   -1.000
 3654.00    0.67262   0.69407   -1.000
 3655.00    0.67476   0.70538   -1.000
 3656.00    0.68280   0.72083   -1.000
 3657.00    0.68991   0.73626   -1.000
 3658.00    0.70205   0.74456   -1.000
 3659.00    0.70101   0.74646   -1.000
 3660.00    0.70111   0.74030   -1.000
 3661.00    0.69321   0.72382   -1.000
 3662.00    0.68587   0.70286   -1.000
 3663.00    0.67416   0.68986   -1.000
 3664.00    0.66918   0.68906   -1.000
 3665.00    0.67773   0.69347   -1.000
 3666.00    0.67711   0.69157   -1.000
 3667.00    0.66274   0.67785   -1.000
 3668.00    0.65569   0.65856   -1.000
 3669.00    0.63956   0.64996   -1.000
 3670.00    0.64413   0.66346   -1.000
 3671.00    0.66983   0.68860   -1.000
 3672.00    0.68331   0.70712   -1.000
 3673.00    0.68549   0.71363   -1.000
 3674.00    0.68561   0.70980   -1.000
 3675.00    0.68399   0.69373   -1.000
 3676.00    0.66292   0.66580   -1.000
 3677.00    0.64288   0.63417   -1.000
 3678.00    0.62396   0.60805   -1.000
 3679.00    0.60852   0.59637   -1.000
 3680.00    0.61055   0.60318   -1.000
 3681.00    0.62732   0.62188   -1.000
 3682.00    0.64607   0.64023   -1.000
 3683.00    0.65185   0.64596   -1.000
 3684.00    0.63584   0.63070   -1.000
 3685.00    0.61043   0.59958   -1.000
 3686.00    0.58628   0.57241   -1.000
 3687.00    0.57621   0.57002   -1.000
 3688.00    0.59348   0.59725   -1.000
 3689.00    0.63620   0.64397   -1.000
 3690.00    0.68139   0.68806   -1.000
 3691.00    0.70214   0.71004   -1.000
 3692.00    0.69626   0.70326   -1.000
 3693.00    0.67705   0.68364   -1.000
 3694.00    0.66812   0.67104   -1.000
 3695.00    0.67134   0.66997 1489.562
 3696.00    0.67745   0.67822 1476.125
 3697.00    0.68590   0.69723   -1.000
 3698.00    0.70959   0.72479   -1.000
 3699.00    0.72794   0.74649   -1.000
 3700.00    0.73761   0.75021   -1.000
 3701.00    0.72319   0.72657   -1.000
 3702.00    0.69087   0.67383   -1.000
 3703.00    0.62995   0.60704   -1.000
 3704.00    0.57475   0.55154   -1.000
 3705.00    0.54592   0.52175   -1.000
 3706.00    0.55192   0.51844   -1.000
 3707.00    0.56712   0.52795   -1.000
 3708.00    0.57287   0.54311   -1.000
 3709.00    0.59233   0.56667   -1.000
 3710.00    0.62040   0.59957   -1.000
 3711.00    0.65004   0.63965   -1.000
 3712.00    0.68945   0.68333   -1.000
 3713.00    0.72406   0.71975   -1.000
 3714.00    0.74200   0.73645   -1.000
 3715.00    0.74402   0.73012   -1.000
 3716.00    0.72428   0.70501   -1.000
 3717.00    0.69266   0.65762   -1.000
 3718.00    0.63142   0.58629   -1.000
 3719.00    0.54926   0.50535   -1.000
 3720.00    0.48967   0.44572   -1.000
 3721.00    0.47408   0.43635   -1.000
 3722.00    0.50850   0.47670   -1.000
 3723.00    0.57460   0.54428   -1.000
 3724.00    0.64006   0.60862   -1.000
 3725.00    0.66717   0.63876   -1.000
 3726.00    0.66141   0.63352   -1.000
 3727.00    0.63993   0.62076   -1.000
 3728.00    0.63497   0.62055   -1.000
 3729.00    0.64606   0.62438   -1.000
 3730.00    0.63904   0.61253   -1.000
 3731.00    0.61053   0.56896   -1.000
 3732.00    0.54973   0.49977   -1.000
 3733.00    0.48293   0.43167   -1.000
 3734.00    0.43052   0.38519   -1.000
 3735.00    0.41528   0.37526   -1.000
 3736.00    0.43755   0.40550   -1.000
 3737.00    0.48334   0.46614   -1.000
 3738.00    0.54712   0.53888   -1.000
 3739.00    0.60816   0.60336   -1.000
 3740.00    0.64521   0.63755   -1.000
 3741.00    0.64829   0.63276   -1.000
 3742.00    0.62309   0.59807   -1.000
 3743.00    0.58546   0.55429   -1.000
 3744.00    0.55248   0.51553   -1.000
 3745.00    0.52226   0.48968   -1.000
 3746.00    0.49793   0.46658   -1.000
 3747.00    0.47617   0.43617   -1.000
 3748.00    0.44697   0.41117   -1.000
 3749.00    0.44244   0.41426   -1.000
 3750.00    0.48997   0.45615   -1.000
 3751.00    0.56067   0.52433   -1.000
 3752.00    0.62406   0.59574   -1.000
 3753.00    0.67462   0.65939   -1.000
 3754.00    0.71185   0.69972   -1.000
 3755.00    0.72565   0.69707   -1.000
 3756.00    0.68555   0.65027   -1.000
 3757.00    0.60406   0.58486   -1.000
 3758.00    0.54256   0.54027   -1.000
 3759.00    0.54586   0.53763   -1.000
 3760.00    0.58392   0.55970   -1.000
 3761.00    0.61179   0.58047   -1.000
 3762.00    0.62445   0.58733   -1.000
 3763.00    0.62938   0.58804   -1.000
 3764.00    0.63565   0.58872   -1.000
 3765.00    0.62621   0.58372   -1.000
 3766.00    0.61101   0.57414   -1.000
 3767.00    0.60447   0.56905   -1.000
 3768.00    0.61464   0.56913   -1.000
 3769.00    0.61611   0.57025   -1.000
 3770.00    0.60820   0.57861   -1.000
 3771.00    0.63252   0.60435   -1.000
 3772.00    0.67427   0.63884   -1.000
 3773.00    0.69443   0.66549   -1.000
 3774.00    0.69656   0.67729   -1.000
 3775.00    0.69718   0.68058   -1.000
 3776.00    0.69901   0.68540   -1.000
 3777.00    0.70095   0.69720   -1.000
 3778.00    0.71108   0.71606   -1.000
 3779.00    0.73626   0.73757 1358.217
 3780.00    0.75365   0.75512 1326.871
 3781.00    0.75848   0.76396   -1.000
 3782.00    0.76312   0.76741   -1.000
 3783.00    0.76256   0.76351 1311.371
 3784.00    0.74488   0.73955   -1.000
 3785.00    0.70650   0.69563   -1.000
 3786.00    0.65645   0.64904   -1.000
 3787.00    0.62557   0.61325   -1.000
 3788.00    0.61461   0.59641   -1.000
 3789.00    0.61530   0.59968   -1.000
 3790.00    0.62678   0.61214   -1.000
 3791.00    0.63316   0.61884   -1.000
 3792.00    0.62314   0.60906   -1.000
 3793.00    0.60002   0.58442   -1.000
 3794.00    0.58011   0.55757   -1.000
 3795.00    0.56306   0.53237   -1.000
 3796.00    0.53460   0.50400   -1.000
 3797.00    0.50639   0.47703   -1.000
 3798.00    0.50815   0.47389   -1.000
 3799.00    0.53472   0.50907   -1.000
 3800.00    0.58744   0.56939   -1.000
 3801.00    0.63862   0.63072   -1.000
 3802.00    0.66734   0.67679   -1.000
 3803.00    0.68212   0.70087   -1.000
 3804.00    0.68576   0.70157   -1.000
 3805.00    0.67499   0.68169   -1.000
 3806.00    0.64971   0.66056   -1.000
 3807.00    0.63755   0.65779   -1.000
 3808.00    0.65543   0.67678   -1.000
 3809.00    0.68230   0.70238   -1.000
 3810.00    0.68953   0.71302   -1.000
 3811.00    0.67572   0.69504   -1.000
 3812.00    0.64031   0.65270   -1.000
 3813.00    0.60262   0.60323 1654.190
 3814.00    0.56852   0.56410   -1.000
 3815.00    0.54392   0.55123   -1.000
 3816.00    0.55441   0.56213   -1.000
 3817.00    0.57676   0.57418   -1.000
 3818.00    0.56632   0.56166   -1.000
 3819.00    0.52815   0.52868 1654.190
 3820.00    0.50223   0.51002   -1.000
 3821.00    0.51511   0.51874   -1.000
 3822.00    0.53984   0.53385   -1.000
 3823.00    0.53375   0.52581   -1.000
 3824.00    0.48977   0.49416   -1.000
 3825.00    0.46055   0.46434  217.131
 3826.00    0.45098   0.45035  221.738
 3827.00    0.45522   0.45078  219.674
 3828.00    0.46280   0.45962  216.078
 3829.00    0.47055   0.46783  212.519
 3830.00    0.46440   0.46202  215.329
 3831.00    0.44368   0.43903  225.388
 3832.00    0.41021   0.40784  243.778
 3833.00    0.39850   0.38432   -1.000
 3834.00    0.40702   0.38025   -1.000
 3835.00    0.42448   0.38946   -1.000
 3836.00    0.43377   0.40145   -1.000
 3837.00    0.42421   0.40633   -1.000
 3838.00    0.41412   0.40771  241.477
 3839.00    0.42208   0.41948  236.921
 3840.00    0.44820   0.45387  223.113
 3841.00    0.49443   0.50747   -1.000
 3842.00    0.54715   0.56223   -1.000
 3843.00    0.58379   0.60194   -1.000
 3844.00    0.59422   0.61989   -1.000
 3845.00    0.59398   0.62683   -1.000
 3846.00    0.59434   0.63382   -1.000
 3847.00    0.59317   0.63584   -1.000
 3848.00    0.57867   0.62573   -1.000
 3849.00    0.55643   0.61283   -1.000
 3850.00    0.54821   0.61171   -1.000
 3851.00    0.56186   0.62541   -1.000
 3852.00    0.57732   0.63912   -1.000
 3853.00    0.57286   0.63865   -1.000
 3854.00    0.55819   0.62370   -1.000
 3855.00    0.54204   0.60392   -1.000
 3856.00    0.53440   0.58416   -1.000
 3857.00    0.51741   0.55881   -1.000
 3858.00    0.48638   0.53127   -1.000
 3859.00    0.45711   0.52055   -1.000
 3860.00    0.46845   0.54156   -1.000
 3861.00    0.52312   0.58796   -1.000
 3862.00    0.58266   0.63273   -1.000
 3863.00    0.60945   0.65103   -1.000
 3864.00    0.60458   0.64554   -1.000
 3865.00    0.59249   0.63548   -1.000
 3866.00    0.58378   0.63105   -1.000
 3867.00    0.57248   0.62790   -1.000
 3868.00    0.55009   0.61834   -1.000
 3869.00    0.52270   0.59759   -1.000
 3870.00    0.48997   0.56960   -1.000
 3871.00    0.48018   0.54814   -1.000
 3872.00    0.49549   0.54701   -1.000
 3873.00    0.54751   0.57464   -1.000
 3874.00    0.60190   0.61338   -1.000
 3875.00    0.62469   0.63147   -1.000
 3876.00    0.60455   0.61288   -1.000
 3877.00    0.55658   0.57933   -1.000
 3878.00    0.52162   0.56275   -1.000
 3879.00    0.51859   0.56507   -1.000
 3880.00    0.51880   0.57220   -1.000
 3881.00    0.50568   0.57657   -1.000
 3882.00    0.51965   0.58069   -1.000
 3883.00    0.57103   0.58664   -1.000
 3884.00    0.60693   0.57665   -1.000
 3885.00    0.59462   0.54388   -1.000
 3886.00    0.56352   0.50535   -1.000
 3887.00    0.55694   0.47974   -1.000
 3888.00    0.55913   0.48129   -1.000
 3889.00    0.57936   0.51287   -1.000
 3890.00    0.63232   0.56632   -1.000
 3891.00    0.69149   0.62264   -1.000
 3892.00    0.71577   0.65597   -1.000
 3893.00    0.71214   0.66039   -1.000
 3894.00    0.69984   0.65600   -1.000
 3895.00    0.70106   0.66161   -1.000
 3896.00    0.72175   0.67500   -1.000
 3897.00    0.74206   0.68355   -1.000
 3898.00    0.72777   0.68338   -1.000
 3899.00    0.71750   0.68191   -1.000
 3900.00    0.72852   0.68607   -1.000
 3901.00    0.73519   0.68982   -1.000
 3902.00    0.72778   0.68391   -1.000
 3903.00    0.69690   0.66691   -1.000
 3904.00    0.68079   0.64561   -1.000
 3905.00    0.66053   0.63639   -1.000
 3906.00    0.66679   0.65284   -1.000
 3907.00    0.70944   0.68983   -1.000
 3908.00    0.76107   0.72766   -1.000
 3909.00    0.77871   0.75287   -1.000
 3910.00    0.78548   0.76735   -1.000
 3911.00    0.79308   0.77638   -1.000
 3912.00    0.79772   0.77813   -1.000
 3913.00    0.78797   0.77029   -1.000
 3914.00    0.77168   0.75600   -1.000
 3915.00    0.75382   0.74294   -1.000
 3916.00    0.74461   0.73151   -1.000
 3917.00    0.73476   0.71672   -1.000
 3918.00    0.71347   0.69284   -1.000
 3919.00    0.68281   0.66154   -1.000
 3920.00    0.65145   0.63575   -1.000
 3921.00    0.63882   0.62718   -1.000
 3922.00    0.64517   0.63580   -1.000
 3923.00    0.65754   0.64599   -1.000
 3924.00    0.65189   0.64214   -1.000
 3925.00    0.61997   0.61691   -1.000
 3926.00    0.56447   0.57027   -1.000
 3927.00    0.50277   0.51098   -1.000
 3928.00    0.43502   0.44829   -1.000
 3929.00    0.37095   0.38812   -1.000
 3930.00    0.31711   0.32835   -1.000
 3931.00    0.26785   0.26902  373.349
 3932.00    0.22903   0.22127   -1.000
 3933.00    0.20989   0.20006   -1.000
 3934.00    0.21949   0.21385  455.592
 3935.00    0.25332   0.26003  394.758
 3936.00    0.30659   0.32515   -1.000
 3937.00    0.37344   0.39825   -1.000
 3938.00    0.44413   0.46859   -1.000
 3939.00    0.50226   0.52440   -1.000
 3940.00    0.54141   0.56237   -1.000
 3941.00    0.56236   0.57906   -1.000
 3942.00    0.56722   0.58188   -1.000
 3943.00    0.56739   0.59005   -1.000
 3944.00    0.59821   0.61532   -1.000
 3945.00    0.65933   0.65074   -1.000
 3946.00    0.69938   0.67772   -1.000
 3947.00    0.70633   0.69081   -1.000
 3948.00    0.71143   0.70190   -1.000
 3949.00    0.73919   0.71940   -1.000
 3950.00    0.76414   0.73292   -1.000
 3951.00    0.75996   0.73352   -1.000
 3952.00    0.74867   0.73436   -1.000
 3953.00    0.76278   0.74336   -1.000
 3954.00    0.78260   0.74775   -1.000
 3955.00    0.77345   0.74016   -1.000
 3956.00    0.74545   0.72801   -1.000
 3957.00    0.73387   0.72247   -1.000
 3958.00    0.74778   0.72105   -1.000
 3959.00    0.72997   0.69651   -1.000
 3960.00    0.65785   0.63896   -1.000
 3961.00    0.58171   0.57601   -1.000
 3962.00    0.52595   0.52831   -1.000
 3963.00    0.50180   0.49418   -1.000
 3964.00    0.46241   0.45281  216.256
 3965.00    0.39364   0.38907  254.039
 3966.00    0.31866   0.31332  313.812
 3967.00    0.26051   0.25041   -1.000
 3968.00    0.23621   0.22440   -1.000
 3969.00    0.25506   0.24204   -1.000
 3970.00    0.30996   0.29465   -1.000
 3971.00    0.37733   0.36552   -1.000
 3972.00    0.45095   0.43908  221.753
 3973.00    0.52249   0.50889   -1.000
 3974.00    0.59158   0.57222   -1.000
 3975.00    0.65644   0.62718   -1.000
 3976.00    0.71203   0.67806   -1.000
 3977.00    0.75626   0.72665   -1.000
 3978.00    0.79801   0.77134   -1.000
 3979.00    0.84356   0.80317   -1.000
 3980.00    0.85286   0.81344   -1.000
 3981.00    0.84651   0.80802   -1.000
 3982.00    0.83004   0.79949   -1.000
 3983.00    0.83669   0.80199   -1.000
 3984.00    0.85488   0.81773   -1.000
 3985.00    0.87207   0.83698   -1.000
 3986.00    0.88630   0.85683   -1.000
 3987.00    0.90377   0.87393   -1.000
 3988.00    0.91230   0.88137   -1.000
 3989.00    0.90856   0.88257   -1.000
 3990.00    0.91464   0.88747   -1.000
 3991.00    0.93692   0.89965   -1.000
 3992.00    0.96034   0.91252   -1.000
 3993.00    0.94784   0.91567   -1.000
 3994.00    0.92504   0.90315   -1.000
 3995.00    0.90423   0.87966   -1.000
 3996.00    0.88730   0.86152   -1.000
 3997.00    0.88018   0.86319   -1.000
 3998.00    0.90135   0.88602   -1.000
 3999.00    0.94568   0.91754   -1.000
 4000.00    0.97849   0.94335   -1.000
 4001.00    0.99384   0.95823   -1.000
 4002.00    1.00822   0.95476   -1.000
 4003.00    0.98761   0.92434   -1.000
 4004.00    0.92282   0.87629   -1.000
 4005.00    0.87779   0.84621   -1.000
 4006.00    0.88620   0.85745   -1.000
 4007.00    0.94241   0.89761   -1.000
 4008.00    0.98068   0.93689   -1.000
 4009.00    0.99296   0.95933   -1.000
 4010.00    1.00375   0.96896   -1.000
 4011.00    1.00688   0.97069   -1.000
 4012.00    0.99932   0.97139   -1.000
 4013.00    0.99396   0.97625   -1.000
 4014.00    1.00188   0.98167   -1.000
 4015.00    1.01664   0.98161   -1.000
 4016.00    1.00714   0.97669   -1.000
 4017.00    0.99464   0.97592   -1.000
 4018.00    1.00000   0.98360   -1.000
 4019.00    1.01620   0.99277   -1.000
 4020.00    1.01317   0.99588   -1.000
 4021.00    0.99801   0.99138   -1.000
 4022.00    0.99248   0.98301   -1.000
 4023.00    0.98598   0.97385   -1.000
 4024.00    0.97826   0.97100   -1.000
 4025.00    1.00426   0.98445   -1.000
 4026.00    1.04196   1.01194   -1.000
 4027.00    1.06297   1.03137   -1.000
 4028.00    1.05243   1.01783   -1.000
 4029.00    1.00943   0.96861   -1.000
 4030.00    0.94341   0.90937   -1.000
 4031.00    0.90597   0.86820   -1.000
 4032.00    0.89603   0.85481   -1.000
 4033.00    0.90828   0.86849   -1.000
 4034.00    0.93968   0.90575   -1.000
 4035.00    0.98931   0.95874   -1.000
 4036.00    1.04070   1.01197   -1.000
 4037.00    1.07819   1.04700   -1.000
 4038.00    1.08122   1.05174   -1.000
 4039.00    1.05772   1.03521   -1.000
 4040.00    1.03285   1.01702   -1.000
 4041.00    1.02214   1.00545   -1.000
 4042.00    1.01744   0.97890   -1.000
 4043.00    0.96896   0.91532   -1.000
 4044.00    0.88064   0.83709   -1.000
 4045.00    0.81766   0.80007   -1.000
 4046.00    0.85574   0.83452   -1.000
 4047.00    0.95008   0.91074   -1.000
 4048.00    1.01035   0.98016   -1.000
 4049.00    1.03907   1.01926   -1.000
 4050.00    1.05067   1.02765   -1.000
 4051.00    1.04284   1.01775   -1.000
 4052.00    1.01407   0.99651   -1.000
 4053.00    0.98846   0.97241   -1.000
 4054.00    0.97365   0.95299   -1.000
 4055.00    0.96619   0.93745   -1.000
 4056.00    0.95974   0.92403   -1.000
 4057.00    0.94961   0.92138   -1.000
 4058.00    0.96167   0.94039   -1.000
 4059.00    0.99891   0.97029   -1.000
 4060.00    1.01858   0.98074   -1.000
 4061.00    1.00010   0.94575   -1.000
 4062.00    0.92956   0.88349   -1.000
 4063.00    0.86916   0.84574   -1.000
 4064.00    0.88527   0.84873   -1.000
 4065.00    0.93252   0.87305   -1.000
 4066.00    0.95499   0.90222   -1.000
 4067.00    0.98168   0.93122   -1.000
 4068.00    1.01474   0.95259   -1.000
 4069.00    1.02720   0.94950   -1.000
 4070.00    0.98622   0.91892   -1.000
 4071.00    0.94254   0.89405   -1.000
 4072.00    0.95098   0.90266   -1.000
 4073.00    0.98857   0.92606   -1.000
 4074.00    0.99288   0.92666   -1.000
 4075.00    0.94499   0.88962   -1.000
 4076.00    0.86904   0.84394   -1.000
 4077.00    0.84495   0.82869   -1.000
 4078.00    0.87565   0.85829   -1.000
 4079.00    0.94165   0.91894   -1.000
 4080.00    1.01150   0.97350   -1.000
 4081.00    1.04187   0.99509   -1.000
 4082.00    1.02288   0.98131   -1.000
 4083.00    0.98814   0.95476   -1.000
 4084.00    0.97383   0.94293   -1.000
 4085.00    0.98958   0.95924   -1.000
 4086.00    1.02502   0.99686   -1.000
 4087.00    1.06629   1.03464   -1.000
 4088.00    1.10158   1.05527   -1.000
 4089.00    1.09522   1.05236   -1.000
 4090.00    1.07226   1.03470   -1.000
 4091.00    1.05263   1.01850   -1.000
 4092.00    1.04113   1.00919   -1.000
 4093.00    1.04059   0.99669   -1.000
 4094.00    1.02108   0.97218   -1.000
 4095.00    0.97495   0.93837   -1.000
 4096.00    0.94372   0.90864   -1.000
 4097.00    0.93778   0.88804   -1.000
 4098.00    0.92242   0.85873   -1.000
 4099.00    0.87244   0.80578   -1.000
 4100.00    0.79704   0.74730   -1.000
 4101.00    0.74558   0.71743   -1.000
 4102.00    0.76357   0.73739   -1.000
 4103.00    0.83599   0.79970   -1.000
 4104.00    0.90656   0.86925   -1.000
 4105.00    0.95735   0.92086   -1.000
 4106.00    0.98678   0.94984   -1.000
 4107.00    0.99079   0.95867   -1.000
 4108.00    0.98088   0.95333   -1.000
 4109.00    0.96161   0.94494   -1.000
 4110.00    0.94771   0.94324   -1.000
 4111.00    0.96060   0.95326   -1.000
 4112.00    0.98329   0.97272   -1.000
 4113.00    1.00028   0.99531   -1.000
 4114.00    1.01585   1.01353  984.398
 4115.00    1.02567   1.02081   -1.000
 4116.00    1.02007   1.01090   -1.000
 4117.00    0.99807   0.98739   -1.000
 4118.00    0.96475   0.96430 1036.534
 4119.00    0.95434   0.95533 1047.849
 4120.00    0.96731   0.96115   -1.000
 4121.00    0.97737   0.96995   -1.000
 4122.00    0.97594   0.97749 1024.653
 4123.00    0.98699   0.98641 1013.177
 4124.00    1.00519   0.99480   -1.000
 4125.00    1.00806   0.99607   -1.000
 4126.00    0.99398   0.98604   -1.000
 4127.00    0.97254   0.97157 1028.235
 4128.00    0.96503   0.96263 1036.241
 4129.00    0.96030   0.95480   -1.000
 4130.00    0.94804   0.93567   -1.000
 4131.00    0.91823   0.90843   -1.000
 4132.00    0.89002   0.89122 1123.568
 4133.00    0.88858   0.90079   -1.000
 4134.00    0.92010   0.93504   -1.000
 4135.00    0.96994   0.97632   -1.000
 4136.00    1.00194   1.01029   -1.000
 4137.00    1.01777   1.03413   -1.000
 4138.00    1.03394   1.04804   -1.000
 4139.00    1.03760   1.04618   -1.000
 4140.00    1.01575   1.01726  984.496
 4141.00    0.96349   0.95949   -1.000
 4142.00    0.88686   0.89867   -1.000
 4143.00    0.84317   0.87483   -1.000
 4144.00    0.87803   0.89922   -1.000
 4145.00    0.93534   0.94818   -1.000
 4146.00    0.97080   0.98625   -1.000
 4147.00    0.98005   0.99589   -1.000
 4148.00    0.96060   0.98660   -1.000
 4149.00    0.93395   0.97511   -1.000
 4150.00    0.92299   0.97009   -1.000
 4151.00    0.93047   0.96788   -1.000
 4152.00    0.93580   0.96125   -1.000
 4153.00    0.92655   0.94974   -1.000
 4154.00    0.91118   0.94095   -1.000
 4155.00    0.93617   0.94251   -1.000
 4156.00    0.94352   0.95621   -1.000
 4157.00    0.93057   0.97790   -1.000
 4158.00    0.97516   1.00150   -1.000
 4159.00    0.96392   1.02114   -1.000
 4160.00    0.97053   1.03532   -1.000
 4161.00    1.00237   1.04567   -1.000
 4162.00    1.01280   1.05284   -1.000
 4163.00    1.00613   1.05344   -1.000
 4164.00    0.98928   1.04384   -1.000
 4165.00    0.97481   1.02426   -1.000
 4166.00    0.95290   1.00350   -1.000
 4167.00    0.93876   0.99590   -1.000
 4168.00    0.94679   1.00092   -1.000
 4169.00    0.96403   1.00084   -1.000
 4170.00    0.95298   0.97587   -1.000
 4171.00    0.89724   0.93071   -1.000
 4172.00    0.84544   0.89645   -1.000
 4173.00    0.84483   0.89387   -1.000
 4174.00    0.87782   0.91620   -1.000
 4175.00    0.91081   0.93874   -1.000
 4176.00    0.91033   0.94895   -1.000
 4177.00    0.90468   0.95595   -1.000
 4178.00    0.90900   0.96729   -1.000
 4179.00    0.92399   0.97811   -1.000
 4180.00    0.93275   0.97959   -1.000
 4181.00    0.93160   0.97322   -1.000
 4182.00    0.94219   0.97589   -1.000
 4183.00    0.96198   0.99277   -1.000
 4184.00    0.97923   1.00484   -1.000
 4185.00    0.97702   0.99673   -1.000
 4186.00    0.94355   0.97347   -1.000
 4187.00    0.91741   0.95964   -1.000
 4188.00    0.92702   0.96640   -1.000
 4189.00    0.94922   0.97954   -1.000
 4190.00    0.95431   0.99097   -1.000
 4191.00    0.96754   1.00459   -1.000
 4192.00    0.98945   1.01843   -1.000
 4193.00    1.00239   1.02099   -1.000
 4194.00    0.97205   0.99883   -1.000
 4195.00    0.92215   0.95840   -1.000
 4196.00    0.89336   0.92179   -1.000
 4197.00    0.87845   0.90179   -1.000
 4198.00    0.87712   0.89758   -1.000
 4199.00    0.88737   0.90041   -1.000
 4200.00    0.90213   0.90587   -1.000
 4201.00    0.90401   0.91197   -1.000
 4202.00    0.91006   0.92333   -1.000
 4203.00    0.92510   0.94620   -1.000
 4204.00    0.93137   0.97481   -1.000
 4205.00    0.95048   1.00058   -1.000
 4206.00    0.97519   1.02285   -1.000
 4207.00    0.99430   1.03788   -1.000
 4208.00    0.99859   1.03999   -1.000
 4209.00    0.99401   1.03489   -1.000
 4210.00    0.99643   1.03347   -1.000
 4211.00    1.00378   1.03862   -1.000
 4212.00    0.99733   1.03510   -1.000
 4213.00    0.96427   1.00756   -1.000
 4214.00    0.92120   0.97182   -1.000
 4215.00    0.89714   0.95592   -1.000
 4216.00    0.93126   0.97657   -1.000
 4217.00    0.99629   1.02282   -1.000
 4218.00    1.04154   1.06461   -1.000
 4219.00    1.07059   1.08873   -1.000
 4220.00    1.08143   1.09137   -1.000
 4221.00    1.07075   1.06937  933.929
 4222.00    1.02661   1.01914   -1.000
 4223.00    0.95771   0.94159   -1.000
 4224.00    0.86997   0.84784   -1.000
 4225.00    0.76513   0.77033   -1.000
 4226.00    0.70906   0.75137   -1.000
 4227.00    0.76107   0.81008   -1.000
 4228.00    0.88300   0.91555   -1.000
 4229.00    0.98217   1.00926   -1.000
 4230.00    1.03393   1.04992   -1.000
 4231.00    1.04000   1.04612   -1.000
 4232.00    1.01553   1.02329   -1.000
 4233.00    0.98924   0.99581   -1.000
 4234.00    0.98037   0.97273   -1.000
 4235.00    0.95706   0.95889 1044.867
 4236.00    0.94024   0.95375   -1.000
 4237.00    0.94847   0.96076   -1.000
 4238.00    0.97209   0.97930   -1.000
 4239.00    0.98556   1.00273   -1.000
 4240.00    1.00530   1.02544   -1.000
 4241.00    1.01871   1.04476   -1.000
 4242.00    1.02269   1.06078   -1.000
 4243.00    1.04136   1.07600   -1.000
 4244.00    1.06409   1.08444   -1.000
 4245.00    1.05133   1.06913   -1.000
 4246.00    1.00277   1.02892   -1.000
 4247.00    0.96637   0.98313   -1.000
 4248.00    0.94289   0.95002   -1.000
 4249.00    0.93512   0.94004   -1.000
 4250.00    0.93665   0.95425   -1.000
 4251.00    0.96594   0.97866   -1.000
 4252.00    0.99397   0.98852   -1.000
 4253.00    0.98658   0.98077   -1.000
 4254.00    0.95906   0.97589   -1.000
 4255.00    0.97369   0.99274   -1.000
 4256.00    1.01497   1.01851   -1.000
 4257.00    1.02164   1.01560   -1.000
 4258.00    0.98129   0.97610   -1.000
 4259.00    0.92873   0.93296   -1.000
 4260.00    0.90627   0.92631   -1.000
 4261.00    0.94466   0.96723   -1.000
 4262.00    1.00917   1.02992   -1.000
 4263.00    1.05849   1.08117   -1.000
 4264.00    1.08252   1.10171   -1.000
 4265.00    1.08403   1.09643   -1.000
 4266.00    1.06547   1.07679   -1.000
 4267.00    1.03011   1.04411   -1.000
 4268.00    0.99990   0.99726 1000.101
 4269.00    0.96231   0.93893   -1.000
 4270.00    0.90111   0.88132   -1.000
 4271.00    0.84876   0.84564   -1.000
 4272.00    0.84210   0.84213 1187.504
 4273.00    0.86293   0.86558   -1.000
 4274.00    0.88528   0.90473   -1.000
 4275.00    0.92788   0.95622   -1.000
 4276.00    0.99367   1.01247   -1.000
 4277.00    1.04113   1.04743   -1.000
 4278.00    1.03931   1.04333   -1.000
 4279.00    0.99215   1.01390   -1.000
 4280.00    0.95926   0.98901   -1.000
 4281.00    0.95835   0.98970   -1.000
 4282.00    0.97302   1.00112   -1.000
 4283.00    0.98165   1.00051   -1.000
 4284.00    0.96795   0.98493   -1.000
 4285.00    0.93920   0.96352   -1.000
 4286.00    0.91633   0.94459   -1.000
 4287.00    0.90402   0.92133   -1.000
 4288.00    0.86921   0.88691   -1.000
 4289.00    0.82704   0.85949   -1.000
 4290.00    0.82743   0.86419   -1.000
 4291.00    0.87378   0.90052   -1.000
 4292.00    0.93415   0.94004   -1.000
 4293.00    0.94994   0.95432   -1.000
 4294.00    0.93982   0.94345   -1.000
 4295.00    0.92416   0.92039   -1.000
 4296.00    0.90315   0.88381   -1.000
 4297.00    0.85815   0.83033   -1.000
 4298.00    0.78769   0.77316   -1.000
 4299.00    0.73344   0.73267 1363.446
 4300.00    0.72666   0.72022   -1.000
 4301.00    0.75068   0.72905   -1.000
 4302.00    0.76160   0.74494   -1.000
 4303.00    0.77338   0.75790   -1.000
 4304.00    0.78272   0.76149   -1.000
 4305.00    0.77867   0.74866   -1.000
 4306.00    0.75115   0.72099   -1.000
 4307.00    0.71170   0.69332   -1.000
 4308.00    0.69548   0.68573   -1.000
 4309.00    0.71135   0.70666   -1.000
 4310.00    0.75343   0.74809   -1.000
 4311.00    0.80674   0.79736   -1.000
 4312.00    0.84899   0.84900 1177.873
 4313.00    0.88400   0.91314   -1.000
 4314.00    0.93935   0.99511   -1.000
 4315.00    1.03127   1.08332   -1.000
 4316.00    1.11449   1.15520   -1.000
 4317.00    1.15262   1.18837   -1.000
 4318.00    1.15048   1.18448   -1.000
 4319.00    1.13170   1.16049   -1.000
 4320.00    1.10609   1.12440   -1.000
 4321.00    1.06898   1.07111  935.469
 4322.00    1.01770   0.99693   -1.000
 4323.00    0.94604   0.91245   -1.000
 4324.00    0.86675   0.85301   -1.000
 4325.00    0.83543   0.85768   -1.000
 4326.00    0.89821   0.92866   -1.000
 4327.00    1.00763   1.02504   -1.000
 4328.00    1.08332   1.09672   -1.000
 4329.00    1.10115   1.12286   -1.000
 4330.00    1.09495   1.12317   -1.000
 4331.00    1.10181   1.12351   -1.000
 4332.00    1.12240   1.13409   -1.000
 4333.00    1.13342   1.14466   -1.000
 4334.00    1.13533   1.13863   -1.000
 4335.00    1.11476   1.10001   -1.000
 4336.00    1.04397   1.02441   -1.000
 4337.00    0.94919   0.92559   -1.000
 4338.00    0.86869   0.83527   -1.000
 4339.00    0.80269   0.78878   -1.000
 4340.00    0.78631   0.79998   -1.000
 4341.00    0.85396   0.86161   -1.000
 4342.00    0.94917   0.94374   -1.000
 4343.00    1.00899   1.01308   -1.000
 4344.00    1.03999   1.05817   -1.000
 4345.00    1.06887   1.08696   -1.000
 4346.00    1.08659   1.10988   -1.000
 4347.00    1.09771   1.13183   -1.000
 4348.00    1.11661   1.13956   -1.000
 4349.00    1.11207   1.11068  899.223
 4350.00    1.04977   1.05042  952.593
 4351.00    0.97487   0.99639   -1.000
 4352.00    0.96515   0.98765   -1.000
 4353.00    1.00983   1.02542   -1.000
 4354.00    1.05812   1.07434   -1.000
 4355.00    1.09068   1.10834   -1.000
 4356.00    1.11319   1.12214   -1.000
 4357.00    1.11116   1.11769   -1.000
 4358.00    1.08577   1.10434   -1.000
 4359.00    1.07331   1.10354   -1.000
 4360.00    1.09670   1.12341   -1.000
 4361.00    1.13220   1.15096   -1.000
 4362.00    1.14330   1.17371   -1.000
 4363.00    1.14749   1.18834   -1.000
 4364.00    1.16124   1.19297   -1.000
 4365.00    1.16138   1.17907   -1.000
 4366.00    1.12393   1.14500   -1.000
 4367.00    1.08372   1.11108   -1.000
 4368.00    1.07369   1.09600   -1.000
 4369.00    1.08587   1.09462   -1.000
 4370.00    1.09228   1.09268  915.518
 4371.00    1.09286   1.07901   -1.000
 4372.00    1.08122   1.04932   -1.000
 4373.00    1.03634   1.01019   -1.000
 4374.00    0.99675   0.98639   -1.000
 4375.00    0.99873   0.99998 1001.272
 4376.00    1.04475   1.04495  957.166
 4377.00    1.10074   1.09078   -1.000
 4378.00    1.11805   1.10915   -1.000
 4379.00    1.10973   1.09524   -1.000
 4380.00    1.08934   1.04913   -1.000
 4381.00    1.03791   0.96744   -1.000
 4382.00    0.92987   0.87283   -1.000
 4383.00    0.83485   0.81831   -1.000
 4384.00    0.83173   0.83588   -1.000
 4385.00    0.92241   0.90950   -1.000
 4386.00    1.01873   0.98393   -1.000
 4387.00    1.04859   1.01870   -1.000
 4388.00    1.04576   1.02034   -1.000
 4389.00    1.03376   1.01496   -1.000
 4390.00    1.03107   1.02061   -1.000
 4391.00    1.05313   1.03588   -1.000
 4392.00    1.07764   1.04882   -1.000
 4393.00    1.06814   1.05024   -1.000
 4394.00    1.04370   1.05078   -1.000
 4395.00    1.04957   1.07027   -1.000
 4396.00    1.10338   1.10199  906.310
 4397.00    1.13492   1.11808   -1.000
 4398.00    1.11584   1.10198   -1.000
 4399.00    1.07413   1.07053  930.985
 4400.00    1.04370   1.05410   -1.000
 4401.00    1.05915   1.05059   -1.000
 4402.00    1.07908   1.03568   -1.000
 4403.00    1.03831   0.99896   -1.000
 4404.00    0.97900   0.96317   -1.000
 4405.00    0.97457   0.96116   -1.000
 4406.00    1.01141   0.98781   -1.000
 4407.00    1.02479   1.01713   -1.000
 4408.00    1.03366   1.04858   -1.000
 4409.00    1.07725   1.09297   -1.000
 4410.00    1.12586   1.14309   -1.000
 4411.00    1.16465   1.17185   -1.000
 4412.00    1.17672   1.15817   -1.000
 4413.00    1.14249   1.11165   -1.000
 4414.00    1.07751   1.05967   -1.000
 4415.00    1.04163   1.03730   -1.000
 4416.00    1.05063   1.06100   -1.000
 4417.00    1.09100   1.11029   -1.000
 4418.00    1.13886   1.15517   -1.000
 4419.00    1.17077   1.17488   -1.000
 4420.00    1.16116   1.16435   -1.000
 4421.00    1.12945   1.13724   -1.000
 4422.00    1.11015   1.11894   -1.000
 4423.00    1.11830   1.11821  894.216
 4424.00    1.12369   1.12559  889.927
 4425.00    1.11873   1.13094   -1.000
 4426.00    1.11346   1.13447   -1.000
 4427.00    1.12218   1.13832   -1.000
 4428.00    1.12649   1.13833   -1.000
 4429.00    1.11402   1.13357   -1.000
 4430.00    1.11089   1.13065   -1.000
 4431.00    1.12539   1.13233   -1.000
 4432.00    1.13392   1.12232   -1.000
 4433.00    1.09404   1.09224  914.041
 4434.00    1.04158   1.06355   -1.000
 4435.00    1.03296   1.06746   -1.000
 4436.00    1.07983   1.11398   -1.000
 4437.00    1.15266   1.17461   -1.000
 4438.00    1.20149   1.21123   -1.000
 4439.00    1.20158   1.20438   -1.000
 4440.00    1.16168   1.16263  860.825
 4441.00    1.10691   1.11624   -1.000
 4442.00    1.06245   1.09441   -1.000
 4443.00    1.06174   1.11028   -1.000
 4444.00    1.10630   1.15199   -1.000
 4445.00    1.15591   1.19424   -1.000
 4446.00    1.17630   1.21536   -1.000
 4447.00    1.17422   1.21712   -1.000
 4448.00    1.17195   1.21405   -1.000
 4449.00    1.15821   1.21041   -1.000
 4450.00    1.14701   1.20306   -1.000
 4451.00    1.15727   1.19025   -1.000
 4452.00    1.14818   1.16606   -1.000
 4453.00    1.10472   1.12549   -1.000
 4454.00    1.05511   1.08199   -1.000
 4455.00    1.03562   1.06112   -1.000
 4456.00    1.05621   1.06541   -1.000
 4457.00    1.07533   1.07599  929.946
 4458.00    1.07321   1.07825   -1.000
 4459.00    1.06738   1.07210   -1.000
 4460.00    1.05585   1.06793   -1.000
 4461.00    1.04665   1.07696   -1.000
 4462.00    1.07000   1.10433   -1.000
 4463.00    1.11555   1.13879   -1.000
 4464.00    1.14107   1.16173   -1.000
 4465.00    1.14098   1.16705   -1.000
 4466.00    1.14011   1.16054   -1.000
 4467.00    1.12633   1.14933   -1.000
 4468.00    1.10426   1.14024   -1.000
 4469.00    1.09873   1.14227   -1.000
 4470.00    1.11587   1.16360   -1.000
 4471.00    1.15364   1.19924   -1.000
 4472.00    1.19523   1.23377   -1.000
 4473.00    1.22795   1.25729   -1.000
 4474.00    1.23683   1.26904   -1.000
 4475.00    1.23366   1.27889   -1.000
 4476.00    1.24561   1.29076   -1.000
 4477.00    1.25262   1.28833   -1.000
 4478.00    1.24008   1.25548   -1.000
 4479.00    1.19320   1.20026   -1.000
 4480.00    1.14052   1.15354   -1.000
 4481.00    1.11053   1.14217   -1.000
 4482.00    1.12615   1.17151   -1.000
 4483.00    1.17852   1.22531   -1.000
 4484.00    1.22431   1.27390   -1.000
 4485.00    1.24965   1.29612   -1.000
 4486.00    1.24582   1.28616   -1.000
 4487.00    1.21617   1.25104   -1.000
 4488.00    1.16968   1.21081   -1.000
 4489.00    1.14463   1.19120   -1.000
 4490.00    1.15990   1.20252   -1.000
 4491.00    1.19322   1.22654   -1.000
 4492.00    1.21151   1.23213   -1.000
 4493.00    1.19101   1.20940   -1.000
 4494.00    1.15414   1.18130   -1.000
 4495.00    1.13055   1.17453   -1.000
 4496.00    1.14556   1.19554   -1.000
 4497.00    1.18855   1.22880   -1.000
 4498.00    1.22238   1.25251   -1.000
 4499.00    1.23335   1.25695   -1.000
 4500.00    1.21703   1.25169   -1.000
 4501.00    1.21108   1.25774   -1.000
 4502.00    1.24598   1.28232   -1.000
 4503.00    1.29124   1.31345   -1.000
 4504.00    1.31284   1.33524   -1.000
 4505.00    1.30183   1.33848   -1.000
 4506.00    1.27436   1.32730   -1.000
 4507.00    1.26299   1.31496   -1.000
 4508.00    1.26273   1.31076   -1.000
 4509.00    1.27326   1.31322   -1.000
 4510.00    1.28211   1.31358   -1.000
 4511.00    1.26990   1.30244   -1.000
 4512.00    1.24416   1.28097   -1.000
 4513.00    1.22252   1.26098   -1.000
 4514.00    1.21593   1.24948   -1.000
 4515.00    1.22291   1.24582   -1.000
 4516.00    1.22340   1.24395   -1.000
 4517.00    1.20749   1.24063   -1.000
 4518.00    1.20105   1.24448   -1.000
 4519.00    1.22374   1.25926   -1.000
 4520.00    1.24863   1.27256   -1.000
 4521.00    1.24286   1.27140   -1.000
 4522.00    1.21227   1.25472   -1.000
 4523.00    1.18849   1.23185   -1.000
 4524.00    1.17934   1.20833   -1.000
 4525.00    1.15912   1.18032   -1.000
 4526.00    1.12347   1.14576   -1.000
 4527.00    1.09280   1.11164   -1.000
 4528.00    1.08103   1.09314   -1.000
 4529.00    1.09034   1.09826   -1.000
 4530.00    1.11064   1.11934   -1.000
 4531.00    1.13135   1.14034   -1.000
 4532.00    1.13589   1.14417   -1.000
 4533.00    1.10235   1.12951   -1.000
 4534.00    1.06564   1.11571   -1.000
 4535.00    1.08318   1.13012   -1.000
 4536.00    1.15207   1.17822   -1.000
 4537.00    1.22447   1.23032   -1.000
 4538.00    1.25565   1.25666  796.401
 4539.00    1.24066   1.25329   -1.000
 4540.00    1.21018   1.23981   -1.000
 4541.00    1.21351   1.23496   -1.000
 4542.00    1.22289   1.23810   -1.000
 4543.00    1.22717   1.23811   -1.000
 4544.00    0.83015   1.22935   -1.000
 4545.00 **********   1.21778   -2.000
 4546.00 **********   1.20924   -2.000
 4547.00    0.26422   1.19875   -1.000
 4548.00    0.73905   1.18431   -1.000
 4549.00    0.27131   1.17603   -1.000
 4550.00    1.04862   1.18173   -1.000
 4551.00    1.17722   1.19397   -1.000
 4552.00    1.16980   1.19614   -1.000
 4553.00    1.15106   1.18678   -1.000
 4554.00    1.14101   1.18106   -1.000
 4555.00    1.16025   1.19305   -1.000
 4556.00    1.20595   1.22525   -1.000
 4557.00    1.25691   1.26225   -1.000
 4558.00    1.27750   1.28731   -1.000
 4559.00    1.26863   1.29870   -1.000
 4560.00    1.26999   1.30001   -1.000
 4561.00    1.26937   1.29096   -1.000
 4562.00    1.23860   1.26959   -1.000
 4563.00    1.20830   1.24052   -1.000
 4564.00    1.18855   1.22028   -1.000
 4565.00    1.20387   1.22330   -1.000
 4566.00    1.23637   1.24822   -1.000
 4567.00    1.27007   1.27798   -1.000
 4568.00    1.28162   1.29187   -1.000
 4569.00    1.26600   1.28275   -1.000
 4570.00    1.23346   1.26043   -1.000
 4571.00    1.20173   1.24311   -1.000
 4572.00    1.21305   1.24554   -1.000
 4573.00    1.25270   1.26543   -1.000
 4574.00    1.26950   1.28488   -1.000
 4575.00    1.26764   1.29161   -1.000
 4576.00    1.26153   1.28624   -1.000
 4577.00    1.25416   1.27052   -1.000
 4578.00    1.23212   1.24444   -1.000
 4579.00    1.19517   1.21345   -1.000
 4580.00    1.17168   1.18995   -1.000
 4581.00    1.17660   1.18420   -1.000
 4582.00    1.19428   1.19265  837.325
 4583.00    1.20264   1.20129  831.506
 4584.00    1.19831   1.20323   -1.000
 4585.00    1.19056   1.20472   -1.000
 4586.00    1.20877   1.21785   -1.000
 4587.00    1.24236   1.24519  804.921
 4588.00    1.26892   1.27154  788.071
 4589.00    1.26930   1.28125   -1.000
 4590.00    1.24974   1.27166   -1.000
 4591.00    1.22652   1.24961   -1.000
 4592.00    1.20544   1.22762   -1.000
 4593.00    1.20550   1.21677   -1.000
 4594.00    1.21654   1.21472  822.003
 4595.00    1.22612   1.21437   -1.000
 4596.00    1.22900   1.21777   -1.000
 4597.00    1.23157   1.22493   -1.000
 4598.00    1.23436   1.23000   -1.000
 4599.00    1.22272   1.22969   -1.000
 4600.00    1.21182   1.22653   -1.000
 4601.00    1.20889   1.22578   -1.000
 4602.00    1.22285   1.22914   -1.000
 4603.00    1.23679   1.23244   -1.000
 4604.00    1.23375   1.23443  810.534
 4605.00    1.23611   1.24112   -1.000
 4606.00    1.25042   1.25900   -1.000
 4607.00    1.27637   1.28651   -1.000
 4608.00    1.30446   1.31278   -1.000
 4609.00    1.31924   1.32572   -1.000
 4610.00    1.31209   1.32034   -1.000
 4611.00    1.29349   1.30405   -1.000
 4612.00    1.27951   1.28899   -1.000
 4613.00    1.27161   1.28334   -1.000
 4614.00    1.27882   1.28935   -1.000
 4615.00    1.29063   1.29929   -1.000
 4616.00    1.29542   1.30408   -1.000
 4617.00    1.28594   1.30233   -1.000
 4618.00    1.27641   1.29798   -1.000
 4619.00    1.27828   1.29758   -1.000
 4620.00    1.29131   1.30422   -1.000
 4621.00    1.31274   1.31326  761.768
 4622.00    1.31184   1.31679   -1.000
 4623.00    1.30835   1.31248   -1.000
 4624.00    1.30583   1.30591  765.795
 4625.00    1.29329   1.30176   -1.000
 4626.00    1.29071   1.30068   -1.000
 4627.00    1.29160   1.30199   -1.000
 4628.00    1.28270   1.30371   -1.000
 4629.00    1.28033   1.30547   -1.000
 4630.00    1.28735   1.30773   -1.000
 4631.00    1.30298   1.30760   -1.000
 4632.00    1.29585   1.30140   -1.000
 4633.00    1.27632   1.29025   -1.000
 4634.00    1.26269   1.27942   -1.000
 4635.00    1.26477   1.27008   -1.000
 4636.00    1.25383   1.25857   -1.000
 4637.00    1.23697   1.24626   -1.000
 4638.00    1.23264   1.23802   -1.000
 4639.00    1.23478   1.23892   -1.000
 4640.00    1.25736   1.25213   -1.000
 4641.00    1.28961   1.27165   -1.000
 4642.00    1.30664   1.28369   -1.000
 4643.00    1.29991   1.27789   -1.000
 4644.00    1.27492   1.25509   -1.000
 4645.00    1.23913   1.22205   -1.000
 4646.00    1.20576   1.19228   -1.000
 4647.00    1.20238   1.18319   -1.000
 4648.00    1.22572   1.19843   -1.000
 4649.00    1.25555   1.22872   -1.000
 4650.00    1.27221   1.25974   -1.000
 4651.00    1.27350   1.27724   -1.000
 4652.00    1.27622   1.27601  783.566
 4653.00    1.26004   1.26007  793.623
 4654.00    1.23048   1.23985   -1.000
 4655.00    1.21741   1.23100   -1.000
 4656.00    1.22946   1.24441   -1.000
 4657.00    1.27181   1.27856   -1.000
 4658.00    1.32314   1.31833   -1.000
 4659.00    1.35214   1.34378   -1.000
 4660.00    1.35174   1.34319   -1.000
 4661.00    1.33400   1.32209   -1.000
 4662.00    1.30092   1.29454   -1.000
 4663.00    1.27617   1.26996   -1.000
 4664.00    1.27460   1.24447   -1.000
 4665.00    1.25276   1.20807   -1.000
 4666.00    1.19889   1.16687   -1.000
 4667.00    1.15104   1.14079   -1.000
 4668.00    1.15277   1.14864   -1.000
 4669.00    1.19163   1.18618   -1.000
 4670.00    1.24470   1.22737   -1.000
 4671.00    1.27806   1.25304   -1.000
 4672.00    1.28400   1.26134   -1.000
 4673.00    1.28251   1.26321   -1.000
 4674.00    1.28403   1.27038   -1.000
 4675.00    1.30200   1.28339   -1.000
 4676.00    1.32210   1.29007   -1.000
 4677.00    1.31375   1.27926   -1.000
 4678.00    1.28437   1.25523   -1.000
 4679.00    1.25964   1.22927   -1.000
 4680.00    1.23940   1.21232   -1.000
 4681.00    1.22805   1.21161   -1.000
 4682.00    1.24530   1.22593   -1.000
 4683.00    1.27867   1.24572   -1.000
 4684.00    1.29460   1.25948   -1.000
 4685.00    1.28885   1.26346   -1.000
 4686.00    1.28866   1.26030   -1.000
 4687.00    1.28084   1.25474   -1.000
 4688.00    1.28127   1.24996   -1.000
 4689.00    1.28112   1.24664   -1.000
 4690.00    1.27132   1.24420   -1.000
 4691.00    1.26913   1.24391   -1.000
 4692.00    1.28555   1.25043   -1.000
 4693.00    1.30523   1.26479   -1.000
 4694.00    1.33571   1.28080   -1.000
 4695.00    1.35211   1.28927   -1.000
 4696.00    1.34394   1.28225   -1.000
 4697.00    1.30413   1.25887   -1.000
 4698.00    1.26574   1.23021   -1.000
 4699.00    1.25265   1.21070   -1.000
 4700.00    1.26438   1.20024   -1.000
 4701.00    1.25363   1.19008   -1.000
 4702.00    1.23095   1.18360   -1.000
 4703.00    1.22560   1.18868   -1.000
 4704.00    1.25126   1.20286   -1.000
 4705.00    1.26960   1.21402   -1.000
 4706.00    1.24978   1.21222   -1.000
 4707.00    1.22467   1.20115   -1.000
 4708.00    1.21379   1.19374   -1.000
 4709.00    1.22133   1.20079   -1.000
 4710.00    1.26042   1.22093   -1.000
 4711.00    1.29575   1.24143   -1.000
 4712.00    1.30724   1.24763   -1.000
 4713.00    1.29322   1.23823   -1.000
 4714.00    1.26836   1.23168   -1.000
 4715.00    1.26990   1.24215   -1.000
 4716.00    1.29730   1.26634   -1.000
 4717.00    1.32265   1.29334   -1.000
 4718.00    1.32975   1.31417   -1.000
 4719.00    1.33429   1.32511   -1.000
 4720.00    1.33888   1.32585   -1.000
 4721.00    1.32649   1.31859   -1.000
 4722.00    1.31727   1.31138   -1.000
 4723.00    1.32615   1.31314   -1.000
 4724.00    1.34113   1.31699   -1.000
 4725.00    1.33797   1.30685   -1.000
 4726.00    1.30425   1.27573   -1.000
 4727.00    1.25518   1.23325   -1.000
 4728.00    1.22892   1.20164   -1.000
 4729.00    1.23549   1.19436   -1.000
 4730.00    1.24874   1.20640   -1.000
 4731.00    1.25842   1.22588   -1.000
 4732.00    1.27417   1.24534   -1.000
 4733.00    1.28502   1.26103   -1.000
 4734.00    1.29213   1.26800   -1.000
 4735.00    1.29937   1.26533   -1.000
 4736.00    1.28412   1.26049   -1.000
 4737.00    1.28332   1.26264   -1.000
 4738.00    1.30139   1.27279   -1.000
 4739.00    1.29964   1.28151   -1.000
 4740.00    1.29167   1.28165   -1.000
 4741.00    1.29037   1.28017   -1.000
 4742.00    1.30159   1.28369   -1.000
 4743.00    1.31622   1.28808   -1.000
 4744.00    1.31244   1.29239   -1.000
 4745.00    1.31142   1.29994   -1.000
 4746.00    1.32202   1.30982   -1.000
 4747.00    1.33579   1.31935   -1.000
 4748.00    1.33790   1.32626   -1.000
 4749.00    1.33556   1.32997   -1.000
 4750.00    1.33476   1.33036  749.198
 4751.00    1.32452   1.32497  754.992
 4752.00    1.30927   1.31253  763.783
 4753.00    1.29864   1.29714  770.037
 4754.00    1.28992   1.28461   -1.000
 4755.00    1.29291   1.27902   -1.000
 4756.00    1.28738   1.28182   -1.000
 4757.00    1.27759   1.29064   -1.000
 4758.00    1.27672   1.30175   -1.000
 4759.00    1.28820   1.31003   -1.000
 4760.00    1.28997   1.30699   -1.000
 4761.00    1.26868   1.28902   -1.000
 4762.00    1.23687   1.26287   -1.000
 4763.00    1.22210   1.24011   -1.000
 4764.00    1.22112   1.22626   -1.000
 4765.00    1.22391   1.21993   -1.000
 4766.00    1.23297   1.22388   -1.000
 4767.00    1.25083   1.24313   -1.000
 4768.00    1.28069   1.27431   -1.000
 4769.00    1.29796   1.30335   -1.000
 4770.00    1.29454   1.31552   -1.000
 4771.00    1.28310   1.31189   -1.000
 4772.00    1.27181   1.30911   -1.000
 4773.00    1.28836   1.31929   -1.000
 4774.00    1.31739   1.33813   -1.000
 4775.00    1.32521   1.35231   -1.000
 4776.00    1.32358   1.35706   -1.000
 4777.00    1.31953   1.35714   -1.000
 4778.00    1.31065   1.35391   -1.000
 4779.00    1.29564   1.34575   -1.000
 4780.00    1.28848   1.33466   -1.000
 4781.00    1.28552   1.32321   -1.000
 4782.00    1.27905   1.31230   -1.000
 4783.00    1.26853   1.30307   -1.000
 4784.00    1.26974   1.29663   -1.000
 4785.00    1.26514   1.29017   -1.000
 4786.00    1.25211   1.28042   -1.000
 4787.00    1.24527   1.27293   -1.000
 4788.00    1.24703   1.27226   -1.000
 4789.00    1.25350   1.27583   -1.000
 4790.00    1.26137   1.28398   -1.000
 4791.00    1.27503   1.29988   -1.000
 4792.00    1.29680   1.32428   -1.000
 4793.00    1.32691   1.35367   -1.000
 4794.00    1.34963   1.37833   -1.000
 4795.00    1.35349   1.38827   -1.000
 4796.00    1.33887   1.37994   -1.000
 4797.00    1.31150   1.35501   -1.000
 4798.00    1.28751   1.32384   -1.000
 4799.00    1.27290   1.30493   -1.000
 4800.00    1.28575   1.30922   -1.000
 4801.00    1.31326   1.33154   -1.000
 4802.00    1.33189   1.35583   -1.000
 4803.00    1.32865   1.36363   -1.000
 4804.00    1.31014   1.35138   -1.000
 4805.00    1.29364   1.33119   -1.000
 4806.00    1.28226   1.31537   -1.000
 4807.00    1.28330   1.30833   -1.000
 4808.00    1.28669   1.30976   -1.000
 4809.00    1.29266   1.31825   -1.000
 4810.00    1.30488   1.32921   -1.000
 4811.00    1.31412   1.33767   -1.000
 4812.00    1.32073   1.34144   -1.000
 4813.00    1.32171   1.34266   -1.000
 4814.00    1.32508   1.34631   -1.000
 4815.00    1.32995   1.35565   -1.000
 4816.00    1.33862   1.36892   -1.000
 4817.00    1.34695   1.38172   -1.000
 4818.00    1.35227   1.38976   -1.000
 4819.00    1.35247   1.39213   -1.000
 4820.00    1.35239   1.38793   -1.000
 4821.00    1.33985   1.37069   -1.000
 4822.00    1.30386   1.34078   -1.000
 4823.00    1.28005   1.31346   -1.000
 4824.00    1.28402   1.30443   -1.000
 4825.00    1.30837   1.31595   -1.000
 4826.00    1.32871   1.33304   -1.000
 4827.00    1.32168   1.33878   -1.000
 4828.00    1.30562   1.33218   -1.000
 4829.00    1.29799   1.32114   -1.000
 4830.00    1.29881   1.30974   -1.000
 4831.00    1.28610   1.29946   -1.000
 4832.00    1.28452   1.29570   -1.000
 4833.00    1.30681   1.30325  765.222
 4834.00    1.32415   1.31920   -1.000
 4835.00    1.32833   1.33267   -1.000
 4836.00    1.32576   1.33605   -1.000
 4837.00    1.31921   1.33016   -1.000
 4838.00    1.30069   1.31672   -1.000
 4839.00    1.27744   1.29997   -1.000
 4840.00    1.27795   1.28856   -1.000
 4841.00    1.28083   1.28563   -1.000
 4842.00    1.28751   1.28671  776.692
 4843.00    1.29738   1.29182   -1.000
 4844.00    1.31068   1.30551   -1.000
 4845.00    1.33208   1.32291   -1.000
 4846.00    1.33816   1.33027   -1.000
 4847.00    1.30958   1.32016   -1.000
 4848.00    1.29073   1.30373   -1.000
 4849.00    1.29190   1.29884   -1.000
 4850.00    1.31133   1.30564   -1.000
 4851.00    1.31352   1.31223  761.313
 4852.00    1.30549   1.30899   -1.000
 4853.00    1.29427   1.28946   -1.000
 4854.00    1.25510   1.25534  796.747
 4855.00    1.22055   1.22336  819.300
 4856.00    1.22528   1.20835   -1.000
 4857.00    1.23838   1.20070   -1.000
 4858.00    1.20288   1.17095   -1.000
 4859.00    1.10374   1.09600   -1.000
 4860.00    0.98531   1.00236   -1.000
 4861.00    0.94311   0.94655   -1.000
 4862.00    1.00996   0.96254   -1.000
 4863.00    1.11030   1.03684   -1.000
 4864.00    1.17818   1.11955   -1.000
 4865.00    1.22000   1.17946   -1.000
 4866.00    1.24554   1.21703   -1.000
 4867.00    1.25627   1.23866   -1.000
 4868.00    1.26141   1.24542   -1.000
 4869.00    1.24972   1.23251   -1.000
 4870.00    1.21409   1.20072   -1.000
 4871.00    1.18524   1.16832   -1.000
 4872.00    1.19735   1.16199   -1.000
 4873.00    1.23382   1.18868   -1.000
 4874.00    1.25489   1.22424   -1.000
 4875.00    1.26412   1.24798   -1.000
 4876.00    1.27094   1.26150   -1.000
 4877.00    1.27507   1.27627  784.273
 4878.00    1.29471   1.29677  772.376
 4879.00    1.30839   1.31329   -1.000
 4880.00    1.29564   1.31516   -1.000
 4881.00    1.27400   1.30299   -1.000
 4882.00    1.26708   1.28830   -1.000
 4883.00    1.27196   1.27809   -1.000
 4884.00    1.26460   1.26504  790.767
 4885.00    1.24466   1.24561  803.435
 4886.00    1.23862   1.23195   -1.000
 4887.00    1.24590   1.23001   -1.000
 4888.00    1.24737   1.22798   -1.000
 4889.00    1.22822   1.21372   -1.000
 4890.00    1.20099   1.19255   -1.000
 4891.00    1.21056   1.19075   -1.000
 4892.00    1.26313   1.22759   -1.000
 4893.00    1.32536   1.29061   -1.000
 4894.00    1.36463   1.35168   -1.000
 4895.00    1.39013   1.39078  719.357
 4896.00    1.39603   1.40408   -1.000
 4897.00    1.39262   1.39822   -1.000
 4898.00    1.36178   1.38087   -1.000
 4899.00    1.33007   1.35947   -1.000
 4900.00    1.31621   1.34281   -1.000
 4901.00    1.32358   1.33260   -1.000
 4902.00    1.32135   1.32350  756.801
 4903.00    1.30450   1.31738   -1.000
 4904.00    1.32016   1.32404   -1.000
 4905.00    1.34982   1.34488   -1.000
 4906.00    1.35962   1.36100  735.501
 4907.00    1.34620   1.35323   -1.000
 4908.00    1.31351   1.32339   -1.000
 4909.00    1.27613   1.28679   -1.000
 4910.00    1.26090   1.26276  793.082
 4911.00    1.27907   1.26242   -1.000
 4912.00    1.30300   1.28176   -1.000
 4913.00    1.32087   1.30826   -1.000
 4914.00    1.33828   1.33137   -1.000
 4915.00    1.35002   1.34321   -1.000
 4916.00    1.34291   1.33151   -1.000
 4917.00    1.29580   1.28615   -1.000
 4918.00    1.22715   1.21710   -1.000
 4919.00    1.17143   1.15309   -1.000
 4920.00    1.15961   1.12605   -1.000
 4921.00    1.20063   1.14556   -1.000
 4922.00    1.24618   1.18700   -1.000
 4923.00    1.26393   1.22057   -1.000
 4924.00    1.26448   1.23922   -1.000
 4925.00    1.28140   1.25815   -1.000
 4926.00    1.31664   1.28783   -1.000
 4927.00    1.34018   1.31890   -1.000
 4928.00    1.35248   1.34349   -1.000
 4929.00    1.36168   1.36163  734.384
 4930.00    1.36993   1.36799  729.965
 4931.00    1.35572   1.35539  737.614
 4932.00    1.31875   1.32432   -1.000
 4933.00    1.27175   1.28954   -1.000
 4934.00    1.27012   1.27248  787.328
 4935.00    1.29445   1.27265   -1.000
 4936.00    1.29448   1.26633   -1.000
 4937.00    1.25583   1.24127   -1.000
 4938.00    1.22207   1.21440   -1.000
 4939.00    1.23435   1.21529   -1.000
 4940.00    1.27925   1.25141   -1.000
 4941.00    1.32162   1.30275   -1.000
 4942.00    1.34585   1.34261  743.024
 4943.00    1.35785   1.35890  736.460
 4944.00    1.35639   1.35648  737.253
 4945.00    1.34641   1.34689  742.717
 4946.00    1.34374   1.34320  744.193
 4947.00    1.35654   1.35085   -1.000
 4948.00    1.37301   1.36546   -1.000
 4949.00    1.37672   1.37755  726.366
 4950.00    1.38264   1.38147  723.256
 4951.00    1.37496   1.37764  727.293
 4952.00    1.36549   1.36913  732.340
 4953.00    1.34958   1.35854   -1.000
 4954.00    1.33290   1.33949   -1.000
 4955.00    1.29745   1.29901  770.742
 4956.00    1.23234   1.23720   -1.000
 4957.00    1.18485   1.18745  843.991
 4958.00    1.21162   1.19156   -1.000
 4959.00    1.28723   1.24554   -1.000
 4960.00    1.33215   1.30919   -1.000
 4961.00    1.34133   1.34829   -1.000
 4962.00    1.33453   1.35591   -1.000
 4963.00    1.32379   1.34407   -1.000
 4964.00    1.30809   1.32132   -1.000
 4965.00    1.28035   1.29438   -1.000
 4966.00    1.26427   1.27553   -1.000
 4967.00    1.26450   1.27025   -1.000
 4968.00    1.26833   1.27217   -1.000
 4969.00    1.27799   1.27827  782.482
 4970.00    1.29198   1.29036  774.008
 4971.00    1.30599   1.30843  765.703
 4972.00    1.32188   1.32917   -1.000
 4973.00    1.33436   1.34538   -1.000
 4974.00    1.33959   1.35135   -1.000
 4975.00    1.32981   1.34689   -1.000
 4976.00    1.31576   1.33264   -1.000
 4977.00    1.29795   1.31107   -1.000
 4978.00    1.27695   1.28959   -1.000
 4979.00    1.26156   1.27109   -1.000
 4980.00    1.24386   1.24884   -1.000
 4981.00    1.20329   1.21539   -1.000
 4982.00    1.16537   1.17544   -1.000
 4983.00    1.16653   1.15130   -1.000
 4984.00    1.18963   1.15900   -1.000
 4985.00    1.22443   1.19287   -1.000
 4986.00    1.26480   1.23685   -1.000
 4987.00    1.29671   1.27470   -1.000
 4988.00    1.29453   1.29239  772.482
 4989.00    1.27507   1.28739   -1.000
 4990.00    1.26224   1.27500   -1.000
 4991.00    1.26207   1.27015   -1.000
 4992.00    1.27385   1.27485  785.020
 4993.00    1.27906   1.28228  781.824
 4994.00    1.27950   1.28844   -1.000
 4995.00    1.28635   1.29547   -1.000
 4996.00    1.29278   1.30100   -1.000
 4997.00    1.28451   1.29615   -1.000
 4998.00    1.26719   1.27714   -1.000
 4999.00    1.24172   1.24953   -1.000
 5000.00    1.22663   1.22558  815.245
 5001.00    1.22621   1.21464   -1.000
 5002.00    1.23838   1.21396   -1.000
 5003.00    1.24650   1.21150   -1.000
 5004.00    1.22802   1.19706   -1.000
 5005.00    1.19689   1.17569   -1.000
 5006.00    1.19093   1.16643   -1.000
 5007.00    1.22204   1.18531   -1.000
 5008.00    1.26083   1.22279   -1.000
 5009.00    1.27364   1.24998   -1.000
 5010.00    1.25621   1.24764   -1.000
 5011.00    1.21879   1.21753  820.486
 5012.00    1.17427   1.17816   -1.000
 5013.00    1.14798   1.14949  871.097
 5014.00    1.15454   1.14370   -1.000
 5015.00    1.18139   1.15719   -1.000
 5016.00    1.20664   1.17349   -1.000
 5017.00    1.21111   1.18202   -1.000
 5018.00    1.21066   1.18634   -1.000
 5019.00    1.22510   1.19519   -1.000
 5020.00    1.23508   1.20558   -1.000
 5021.00    1.22911   1.21040   -1.000
 5022.00    1.22648   1.21393   -1.000
 5023.00    1.23387   1.22490   -1.000
 5024.00    1.24730   1.24066   -1.000
 5025.00    1.25558   1.24911   -1.000
 5026.00    1.24912   1.24456   -1.000
 5027.00    1.24315   1.23743   -1.000
 5028.00    1.25521   1.24217   -1.000
 5029.00    1.27979   1.25972   -1.000
 5030.00    1.29811   1.28301   -1.000
 5031.00    1.31968   1.30588   -1.000
 5032.00    1.33487   1.32277   -1.000
 5033.00    1.33210   1.32451   -1.000
 5034.00    1.28925   1.30327   -1.000
 5035.00    1.23946   1.26642   -1.000
 5036.00    1.22016   1.23693   -1.000
 5037.00    1.21640   1.22197   -1.000
 5038.00    1.20115   1.20246  832.536
 5039.00    1.15448   1.16475   -1.000
 5040.00    1.10909   1.12186   -1.000
 5041.00    1.11007   1.10890  900.847
 5042.00    1.16851   1.14489   -1.000
 5043.00    1.24632   1.21183   -1.000
 5044.00    1.29835   1.27790   -1.000
 5045.00    1.32535   1.32107  754.520
 5046.00    1.37921   1.33255   -1.000
 5047.00    1.33441   1.31289   -1.000
 5048.00    0.47191   1.27433   -1.000
 5049.00    0.67170   1.23781   -1.000
 5050.00    1.25996   1.21929   -1.000
 5051.00    1.23603   1.22148   -1.000
 5052.00    1.26533   1.24010   -1.000
 5053.00    1.29830   1.26998   -1.000
 5054.00    1.32206   1.30148   -1.000
 5055.00    1.33435   1.32283   -1.000
 5056.00    1.33836   1.33172   -1.000
 5057.00    1.33566   1.33406  748.696
 5058.00    1.33318   1.33638  750.087
 5059.00    1.33382   1.34294   -1.000
 5060.00    1.34333   1.35344   -1.000
 5061.00    1.34219   1.35921   -1.000
 5062.00    1.32364   1.34716   -1.000
 5063.00    1.28526   1.31312   -1.000
 5064.00    1.24055   1.26991   -1.000
 5065.00    1.22753   1.24210   -1.000
 5066.00    1.24376   1.23833   -1.000
 5067.00    1.26308   1.24583   -1.000
 5068.00    1.26650   1.25523   -1.000
 5069.00    1.27264   1.26529   -1.000
 5070.00    1.28121   1.27211   -1.000
 5071.00    1.27014   1.27000  787.315
 5072.00    1.26016   1.26244  793.549
 5073.00    1.27696   1.25951   -1.000
 5074.00    1.28678   1.26407   -1.000
 5075.00    1.28816   1.27056   -1.000
 5076.00    1.28916   1.27131   -1.000
 5077.00    1.27616   1.25740   -1.000
 5078.00    1.23172   1.22286   -1.000
 5079.00    1.17485   1.17886   -1.000
 5080.00    1.16312   1.15563   -1.000
 5081.00    1.18977   1.16578   -1.000
 5082.00    1.21576   1.19029   -1.000
 5083.00    1.23190   1.21421   -1.000
 5084.00    1.25598   1.23779   -1.000
 5085.00    1.27779   1.26025   -1.000
 5086.00    1.28644   1.27632   -1.000
 5087.00    1.28790   1.28396  776.458
 5088.00    1.29465   1.28802   -1.000
 5089.00    1.30422   1.29380   -1.000
 5090.00    1.31135   1.30219   -1.000
 5091.00    1.31816   1.31313   -1.000
 5092.00    1.33397   1.32559   -1.000
 5093.00    1.34591   1.33436   -1.000
 5094.00    1.33265   1.33059  750.386
 5095.00    1.30463   1.30864   -1.000
 5096.00    1.27698   1.27174   -1.000
 5097.00    1.24655   1.23175   -1.000
 5098.00    1.22111   1.20314   -1.000
 5099.00    1.21818   1.20080   -1.000
 5100.00    1.25042   1.22721   -1.000
 5101.00    1.28806   1.26339   -1.000
 5102.00    1.29827   1.28537   -1.000
 5103.00    1.28984   1.28552   -1.000
 5104.00    1.27259   1.27398  785.797
 5105.00    1.25672   1.25876  795.721
 5106.00    1.24154   1.24113  805.450
 5107.00    1.22611   1.22433  815.591
 5108.00    1.22877   1.21271   -1.000
 5109.00    1.23697   1.21078   -1.000
 5110.00    1.24596   1.22221   -1.000
 5111.00    1.26460   1.24537   -1.000
 5112.00    1.28015   1.27111   -1.000
 5113.00    1.29595   1.28977   -1.000
 5114.00    1.30756   1.30130   -1.000
 5115.00    1.31437   1.31130  760.818
 5116.00    1.32877   1.32243   -1.000
 5117.00    1.33984   1.33218   -1.000
 5118.00    1.33516   1.33411  748.975
 5119.00    1.31724   1.32337   -1.000
 5120.00    1.29756   1.30127   -1.000
 5121.00    1.27636   1.27203   -1.000
 5122.00    1.24370   1.23913   -1.000
 5123.00    1.20693   1.20973  828.546
 5124.00    1.19993   1.19357   -1.000
 5125.00    1.21161   1.19262   -1.000
 5126.00    1.21729   1.19896   -1.000
 5127.00    1.22469   1.20370   -1.000
 5128.00    1.22247   1.20620   -1.000
 5129.00    1.22372   1.21106   -1.000
 5130.00    1.24067   1.22202   -1.000
 5131.00    1.26248   1.23793   -1.000
 5132.00    1.27225   1.25395   -1.000
 5133.00    1.28461   1.26747   -1.000
 5134.00    1.29598   1.27739   -1.000
 5135.00    1.29893   1.27968   -1.000
 5136.00    1.27458   1.26702   -1.000
 5137.00    1.24382   1.23916   -1.000
 5138.00    1.22479   1.21268   -1.000
 5139.00    1.22400   1.20290   -1.000
 5140.00    1.23575   1.20552   -1.000
 5141.00    1.22556   1.20663   -1.000
 5142.00    1.20530   1.20286  829.669
 5143.00    1.21376   1.20504   -1.000
 5144.00    1.23530   1.21554   -1.000
 5145.00    1.23871   1.21938   -1.000
 5146.00    1.22638   1.21139   -1.000
 5147.00    1.22382   1.20523   -1.000
 5148.00    1.24003   1.20946   -1.000
 5149.00    1.24658   1.21689   -1.000
 5150.00    1.23013   1.21538   -1.000
 5151.00    1.20764   1.20488  828.062
 5152.00    1.20048   1.19666   -1.000
 5153.00    1.20733   1.19814   -1.000
 5154.00    1.23180   1.21106   -1.000
 5155.00    1.26437   1.23481   -1.000
 5156.00    1.29736   1.26367   -1.000
 5157.00    1.32164   1.28779   -1.000
 5158.00    1.33067   1.30126   -1.000
 5159.00    1.33039   1.30422   -1.000
 5160.00    1.32571   1.29794   -1.000
 5161.00    1.31795   1.28386   -1.000
 5162.00    1.30284   1.26416   -1.000
 5163.00    1.28261   1.23538   -1.000
 5164.00    1.23383   1.18700   -1.000
 5165.00    1.13671   1.11135   -1.000
 5166.00    1.02759   1.02056   -1.000
 5167.00    0.96465   0.95885   -1.000
 5168.00    0.98911   0.95950   -1.000
 5169.00    1.05181   1.00143   -1.000
 5170.00    1.06346   1.02346   -1.000
 5171.00    0.99468   0.99034   -1.000
 5172.00    0.93085   0.94819   -1.000
 5173.00    0.97664   0.96319   -1.000
 5174.00    1.09982   1.04410   -1.000
 5175.00    1.19692   1.14346   -1.000
 5176.00    1.24054   1.21134   -1.000
 5177.00    1.25317   1.24095   -1.000
 5178.00    1.25513   1.24827   -1.000
 5179.00    1.24195   1.23857  805.184
 5180.00    1.19819   1.20026  834.595
 5181.00    1.11480   1.12073   -1.000
 5182.00    0.99584   1.01866   -1.000
 5183.00    0.92531   0.94510   -1.000
 5184.00    0.97712   0.95226   -1.000
 5185.00    1.10483   1.03994   -1.000
 5186.00    1.20717   1.14381   -1.000
 5187.00    1.24254   1.21075   -1.000
 5188.00    1.25205   1.23817   -1.000
 5189.00    1.25698   1.24101   -1.000
 5190.00    1.24248   1.22310   -1.000
 5191.00    1.20258   1.18740   -1.000
 5192.00    1.17052   1.15596   -1.000
 5193.00    1.18194   1.15210   -1.000
 5194.00    1.20331   1.16834   -1.000
 5195.00    1.22116   1.18642   -1.000
 5196.00    1.23924   1.20503   -1.000
 5197.00    1.26518   1.22820   -1.000
 5198.00    1.28678   1.25281   -1.000
 5199.00    1.29672   1.27161   -1.000
 5200.00    1.29745   1.27960   -1.000
 5201.00    1.28634   1.27400   -1.000
 5202.00    1.26260   1.25348   -1.000
 5203.00    1.23396   1.21890   -1.000
 5204.00    1.19558   1.17686   -1.000
 5205.00    1.15991   1.13982   -1.000
 5206.00    1.15766   1.11750   -1.000
 5207.00    1.15131   1.10967   -1.000
 5208.00    1.14432   1.11212   -1.000
 5209.00    1.16280   1.12977   -1.000
 5210.00    1.20341   1.16945   -1.000
 5211.00    1.25450   1.22093   -1.000
 5212.00    1.30548   1.26380   -1.000
 5213.00    1.33156   1.28115   -1.000
 5214.00    1.31431   1.26962   -1.000
 5215.00    1.28287   1.24419   -1.000
 5216.00    1.26839   1.22822   -1.000
 5217.00    1.28066   1.23637   -1.000
 5218.00    1.31009   1.26228   -1.000
 5219.00    1.32966   1.29052   -1.000
 5220.00    1.33933   1.30944   -1.000
 5221.00    1.34444   1.31237   -1.000
 5222.00    1.32576   1.29641   -1.000
 5223.00    1.28493   1.26081   -1.000
 5224.00    1.23304   1.20727   -1.000
 5225.00    1.17731   1.14897   -1.000
 5226.00    1.14698   1.11257   -1.000
 5227.00    1.17558   1.11960   -1.000
 5228.00    1.24783   1.16729   -1.000
 5229.00    1.29963   1.22895   -1.000
 5230.00    1.32122   1.26910   -1.000
 5231.00    1.32193   1.27072   -1.000
 5232.00    1.29377   1.24535   -1.000
 5233.00    1.27135   1.22067   -1.000
 5234.00    1.27586   1.22154   -1.000
 5235.00    1.30763   1.24817   -1.000
 5236.00    1.33967   1.28466   -1.000
 5237.00    1.35374   1.31318   -1.000
 5238.00    1.35406   1.32535   -1.000
 5239.00    1.34942   1.32669   -1.000
 5240.00    1.35231   1.32430   -1.000
 5241.00    1.36074   1.32123   -1.000
 5242.00    1.35792   1.32038   -1.000
 5243.00    1.36111   1.32370   -1.000
 5244.00    1.36321   1.32497   -1.000
 5245.00    1.33429   1.31183   -1.000
 5246.00    1.29266   1.28207   -1.000
 5247.00    1.26400   1.25270   -1.000
 5248.00    1.26257   1.23680   -1.000
 5249.00    1.26020   1.22943   -1.000
 5250.00    1.25172   1.22689   -1.000
 5251.00    1.25872   1.23354   -1.000
 5252.00    1.27725   1.24561   -1.000
 5253.00    1.28961   1.25223   -1.000
 5254.00    1.28850   1.25331   -1.000
 5255.00    1.29857   1.26246   -1.000
 5256.00    1.33122   1.29097   -1.000
 5257.00    1.36853   1.32720   -1.000
 5258.00    1.37890   1.34771   -1.000
 5259.00    1.36441   1.34061   -1.000
 5260.00    1.32625   1.30602   -1.000
 5261.00    1.27087   1.25196   -1.000
 5262.00    1.21262   1.19147   -1.000
 5263.00    1.17311   1.13660   -1.000
 5264.00    1.15048   1.09903   -1.000
 5265.00    1.14874   1.08736   -1.000
 5266.00    1.17077   1.09764   -1.000
 5267.00    1.19199   1.10643   -1.000
 5268.00    1.16320   1.08976   -1.000
 5269.00    1.11661   1.06354   -1.000
 5270.00    1.14008   1.06799   -1.000
 5271.00    1.21652   1.11705   -1.000
 5272.00    1.26924   1.18038   -1.000
 5273.00    1.27940   1.21538   -1.000
 5274.00    1.27789   1.22062   -1.000
 5275.00    1.28120   1.22728   -1.000
 5276.00    1.30794   1.25541   -1.000
 5277.00    1.35578   1.29752   -1.000
 5278.00    1.37986   1.32635   -1.000
 5279.00    1.36915   1.32428   -1.000
 5280.00    1.33519   1.29750   -1.000
 5281.00    1.30113   1.26365   -1.000
 5282.00    1.27849   1.23772   -1.000
 5283.00    1.27341   1.23196   -1.000
 5284.00    1.30209   1.25479   -1.000
 5285.00    1.34418   1.29937   -1.000
 5286.00    1.38796   1.34136   -1.000
 5287.00    1.39604   1.36266   -1.000
 5288.00    1.38746   1.36937   -1.000
 5289.00    1.38830   1.37342   -1.000
 5290.00    1.39706   1.37652   -1.000
 5291.00    1.39961   1.37420   -1.000
 5292.00    1.39060   1.36537   -1.000
 5293.00    1.37721   1.35363   -1.000
 5294.00    1.35876   1.33608   -1.000
 5295.00    1.32141   1.30283   -1.000
 5296.00    1.27135   1.25645   -1.000
 5297.00    1.23923   1.21832   -1.000
 5298.00    1.25004   1.21102   -1.000
 5299.00    1.28435   1.23327   -1.000
 5300.00    1.30794   1.26015   -1.000
 5301.00    1.31516   1.27866   -1.000
 5302.00    1.33224   1.29860   -1.000
 5303.00    1.37073   1.32758   -1.000
 5304.00    1.39539   1.35759   -1.000
 5305.00    1.39739   1.37186   -1.000
 5306.00    1.38263   1.36725   -1.000
 5307.00    1.37089   1.35893   -1.000
 5308.00    1.38150   1.36034   -1.000
 5309.00    1.39654   1.37151   -1.000
 5310.00    1.40504   1.38092   -1.000
 5311.00    1.40289   1.38019   -1.000
 5312.00    1.39454   1.37218   -1.000
 5313.00    1.38872   1.36144   -1.000
 5314.00    1.37835   1.34874   -1.000
 5315.00    1.36455   1.33437   -1.000
 5316.00    1.35266   1.32233   -1.000
 5317.00    1.35313   1.31964   -1.000
 5318.00    1.36402   1.32598   -1.000
 5319.00    1.36947   1.33205   -1.000
 5320.00    1.36363   1.33131   -1.000
 5321.00    1.35376   1.32173   -1.000
 5322.00    1.33750   1.30272   -1.000
 5323.00    1.31384   1.27988   -1.000
 5324.00    1.30265   1.26221   -1.000
 5325.00    1.30411   1.24339   -1.000
 5326.00    1.26631   1.20495   -1.000
 5327.00    1.18600   1.15045   -1.000
 5328.00    1.15228   1.11617   -1.000
 5329.00    1.20513   1.13924   -1.000
 5330.00    1.28378   1.20653   -1.000
 5331.00    1.32342   1.26657   -1.000
 5332.00    1.33543   1.29682   -1.000
 5333.00    1.34836   1.31184   -1.000
 5334.00    1.36448   1.32634   -1.000
 5335.00    1.36957   1.33918   -1.000
 5336.00    1.35968   1.34179   -1.000
 5337.00    1.35100   1.33054   -1.000
 5338.00    1.33584   1.30590   -1.000
 5339.00    1.30132   1.27256   -1.000
 5340.00    1.27973   1.24730   -1.000
 5341.00    1.29300   1.25011   -1.000
 5342.00    1.33089   1.27720   -1.000
 5343.00    1.35406   1.30278   -1.000
 5344.00    1.35227   1.31128   -1.000
 5345.00    1.34287   1.30597   -1.000
 5346.00    1.33432   1.29588   -1.000
 5347.00    1.32798   1.28503   -1.000
 5348.00    1.31559   1.27540   -1.000
 5349.00    1.31320   1.27606   -1.000
 5350.00    1.33578   1.29378   -1.000
 5351.00    1.36838   1.31923   -1.000
 5352.00    1.38434   1.34050   -1.000
 5353.00    1.38781   1.35577   -1.000
 5354.00    1.39945   1.36997   -1.000
 5355.00    1.41816   1.38540   -1.000
 5356.00    1.42822   1.39621   -1.000
 5357.00    1.42599   1.39870   -1.000
 5358.00    1.42379   1.39523   -1.000
 5359.00    1.41834   1.38649   -1.000
 5360.00    1.40091   1.37133   -1.000
 5361.00    1.37721   1.35264   -1.000
 5362.00    1.35758   1.33491   -1.000
 5363.00    1.34895   1.31998   -1.000
 5364.00    1.34124   1.30832   -1.000
 5365.00    1.33318   1.30041   -1.000
 5366.00    1.33835   1.29717   -1.000
 5367.00    1.33798   1.29349   -1.000
 5368.00    1.32334   1.27630   -1.000
 5369.00    1.28950   1.24162   -1.000
 5370.00    1.25087   1.20703   -1.000
 5371.00    1.24996   1.20050   -1.000
 5372.00    1.30177   1.23484   -1.000
 5373.00    1.36569   1.29083   -1.000
 5374.00    1.39722   1.33828   -1.000
 5375.00    1.40579   1.36136   -1.000
 5376.00    1.40046   1.36338   -1.000
 5377.00    1.40032   1.35831   -1.000
 5378.00    1.39733   1.35402   -1.000
 5379.00    1.38881   1.34936   -1.000
 5380.00    1.37469   1.34015   -1.000
 5381.00    1.36131   1.32691   -1.000
 5382.00    1.35527   1.31664   -1.000
 5383.00    1.35680   1.31599   -1.000
 5384.00    1.36372   1.32500   -1.000
 5385.00    1.37929   1.33631   -1.000
 5386.00    1.38084   1.34115   -1.000
 5387.00    1.37391   1.33564   -1.000
 5388.00    1.36010   1.32094   -1.000
 5389.00    1.33888   1.30142   -1.000
 5390.00    1.32458   1.28405   -1.000
 5391.00    1.31946   1.27318   -1.000
 5392.00    1.31925   1.26793   -1.000
 5393.00    1.31486   1.26547   -1.000
 5394.00    1.30465   1.25960   -1.000
 5395.00    1.28694   1.24385   -1.000
 5396.00    1.26051   1.22325   -1.000
 5397.00    1.26199   1.21668   -1.000
 5398.00    1.30421   1.23408   -1.000
 5399.00    1.34244   1.26364   -1.000
 5400.00    1.34769   1.28844   -1.000
 5401.00    1.34442   1.29868   -1.000
 5402.00    1.33309   1.28795   -1.000
 5403.00    1.29093   1.25378   -1.000
 5404.00    1.25009   1.20802   -1.000
 5405.00    1.23355   1.17785   -1.000
 5406.00    1.24989   1.18287   -1.000
 5407.00    1.27806   1.20866   -1.000
 5408.00    1.28753   1.22755   -1.000
 5409.00    1.27433   1.23209   -1.000
 5410.00    1.28230   1.23904   -1.000
 5411.00    1.31991   1.26467   -1.000
 5412.00    1.35068   1.29664   -1.000
 5413.00    1.36330   1.31472   -1.000
 5414.00    1.36116   1.31957   -1.000
 5415.00    1.36065   1.32524   -1.000
 5416.00    1.37203   1.33811   -1.000
 5417.00    1.38054   1.34811   -1.000
 5418.00    1.37349   1.34449   -1.000
 5419.00    1.35926   1.33217   -1.000
 5420.00    1.35176   1.32225   -1.000
 5421.00    1.35854   1.31827   -1.000
 5422.00    1.36387   1.31334   -1.000
 5423.00    1.34259   1.30283   -1.000
 5424.00    1.33126   1.29976   -1.000
 5425.00    1.34816   1.31602   -1.000
 5426.00    1.37210   1.33723   -1.000
 5427.00    1.36495   1.33545   -1.000
 5428.00    1.32511   1.30203   -1.000
 5429.00    1.28348   1.26403   -1.000
 5430.00    1.28505   1.25166   -1.000
 5431.00    1.31086   1.26077   -1.000
 5432.00    1.30897   1.26621   -1.000
 5433.00    1.28875   1.25456   -1.000
 5434.00    1.27453   1.23881   -1.000
 5435.00    1.28114   1.24041   -1.000
 5436.00    1.30916   1.26612   -1.000
 5437.00    1.34726   1.30712   -1.000
 5438.00    1.37504   1.34642   -1.000
 5439.00    1.39366   1.37235   -1.000
 5440.00    1.40459   1.38392   -1.000
 5441.00    1.40610   1.38615   -1.000
 5442.00    1.40602   1.38183   -1.000
 5443.00    1.38978   1.36442   -1.000
 5444.00    1.35147   1.32731   -1.000
 5445.00    1.29592   1.27774   -1.000
 5446.00    1.25563   1.24084   -1.000
 5447.00    1.26989   1.23985   -1.000
 5448.00    1.31523   1.27233   -1.000
 5449.00    1.35218   1.31503   -1.000
 5450.00    1.36270   1.34242   -1.000
 5451.00    1.36137   1.34571   -1.000
 5452.00    1.34871   1.32993   -1.000
 5453.00    1.31598   1.29844   -1.000
 5454.00    1.27850   1.25964   -1.000
 5455.00    1.25227   1.23637   -1.000
 5456.00    1.27528   1.24895   -1.000
 5457.00    1.32364   1.29166   -1.000
 5458.00    1.35950   1.33282   -1.000
 5459.00    1.36427   1.34626   -1.000
 5460.00    1.34619   1.33221   -1.000
 5461.00    1.32042   1.30416   -1.000
 5462.00    1.30358   1.27983   -1.000
 5463.00    1.29748   1.27369   -1.000
 5464.00    1.31624   1.28674   -1.000
 5465.00    1.33143   1.30571   -1.000
 5466.00    1.33680   1.31908   -1.000
 5467.00    1.35292   1.32646   -1.000
 5468.00    1.35748   1.32838   -1.000
 5469.00    1.34295   1.32349   -1.000
 5470.00    1.32907   1.31400   -1.000
 5471.00    1.32535   1.30409   -1.000
 5472.00    1.31825   1.29471   -1.000
 5473.00    1.30419   1.28298   -1.000
 5474.00    1.28538   1.26409   -1.000
 5475.00    1.25746   1.23764   -1.000
 5476.00    1.23894   1.21561   -1.000
 5477.00    1.25356   1.21949   -1.000
 5478.00    1.29595   1.24980   -1.000
 5479.00    1.31916   1.27569   -1.000
 5480.00    1.30559   1.27640   -1.000
 5481.00    1.28917   1.26347   -1.000
 5482.00    1.29367   1.26299   -1.000
 5483.00    1.31878   1.28541   -1.000
 5484.00    1.34666   1.31402   -1.000
 5485.00    1.35671   1.32699   -1.000
 5486.00    1.34112   1.31793   -1.000
 5487.00    1.32158   1.29980   -1.000
 5488.00    1.31521   1.29007   -1.000
 5489.00    1.31564   1.29416   -1.000
 5490.00    1.32600   1.30565   -1.000
 5491.00    1.33569   1.31444   -1.000
 5492.00    1.34011   1.31604   -1.000
 5493.00    1.33631   1.31340   -1.000
 5494.00    1.33615   1.31195   -1.000
 5495.00    1.33640   1.31110   -1.000
 5496.00    1.32555   1.30658   -1.000
 5497.00    1.31642   1.30388   -1.000
 5498.00    1.32537   1.31083   -1.000
 5499.00    1.34133   1.31810   -1.000
 5500.00    1.32773   1.31152   -1.000
 5501.00    1.30565   1.29399   -1.000
 5502.00    1.30560   1.28060   -1.000
 5503.00    1.31775   1.27915   -1.000
 5504.00    1.31946   1.27960   -1.000
 5505.00    1.29956   1.27220   -1.000
 5506.00    1.28753   1.26458   -1.000
 5507.00    1.30212   1.26851   -1.000
 5508.00    1.32430   1.28344   -1.000
 5509.00    1.32817   1.29427   -1.000
 5510.00    1.31800   1.28760   -1.000
 5511.00    1.29075   1.26659   -1.000
 5512.00    1.27037   1.24493   -1.000
 5513.00    1.26018   1.23689   -1.000
 5514.00    1.27818   1.24622   -1.000
 5515.00    1.30160   1.26537   -1.000
 5516.00    1.32121   1.28705   -1.000
 5517.00    1.34713   1.30843   -1.000
 5518.00    1.36949   1.32749   -1.000
 5519.00    1.37077   1.33964   -1.000
 5520.00    1.36825   1.34161   -1.000
 5521.00    1.36549   1.33767   -1.000
 5522.00    1.36051   1.33449   -1.000
 5523.00    1.35849   1.33226   -1.000
 5524.00    1.34966   1.32516   -1.000
 5525.00    1.33046   1.30672   -1.000
 5526.00    1.29905   1.27800   -1.000
 5527.00    1.26596   1.25067   -1.000
 5528.00    1.26167   1.24234   -1.000
 5529.00    1.29324   1.26009   -1.000
 5530.00    1.32894   1.29005   -1.000
 5531.00    1.34433   1.31120   -1.000
 5532.00    1.33951   1.31436   -1.000
 5533.00    1.32607   1.30611   -1.000
 5534.00    1.32038   1.29692   -1.000
 5535.00    1.32607   1.29266   -1.000
 5536.00    1.33772   1.29469   -1.000
 5537.00    1.34007   1.30116   -1.000
 5538.00    1.34634   1.31063   -1.000
 5539.00    1.36044   1.32366   -1.000
 5540.00    1.37097   1.33582   -1.000
 5541.00    1.36905   1.33826   -1.000
 5542.00    1.35360   1.32923   -1.000
 5543.00    1.34017   1.31698   -1.000
 5544.00    1.33784   1.31051   -1.000
 5545.00    1.34232   1.31122   -1.000
 5546.00    1.34520   1.31713   -1.000
 5547.00    1.35439   1.32883   -1.000
 5548.00    1.36851   1.34443   -1.000
 5549.00    1.37976   1.35668   -1.000
 5550.00    1.38203   1.36069   -1.000
 5551.00    1.37356   1.35621   -1.000
 5552.00    1.36120   1.34461   -1.000
 5553.00    1.34531   1.33082   -1.000
 5554.00    1.33992   1.32294   -1.000
 5555.00    1.34278   1.32342   -1.000
 5556.00    1.34724   1.32733   -1.000
 5557.00    1.34928   1.32958   -1.000
 5558.00    1.35094   1.32980   -1.000
 5559.00    1.35237   1.33043   -1.000
 5560.00    1.34897   1.32955   -1.000
 5561.00    1.34163   1.32302   -1.000
 5562.00    1.32729   1.31222   -1.000
 5563.00    1.31864   1.30240   -1.000
 5564.00    1.31548   1.29697   -1.000
 5565.00    1.31287   1.29482   -1.000
 5566.00    1.31167   1.29310   -1.000
 5567.00    1.31489   1.29177   -1.000
 5568.00    1.31764   1.29223   -1.000
 5569.00    1.31302   1.29459   -1.000
 5570.00    1.31463   1.29635   -1.000
 5571.00    1.31430   1.29503   -1.000
 5572.00    1.31000   1.29267   -1.000
 5573.00    1.31681   1.29482   -1.000
 5574.00    1.33199   1.30405   -1.000
 5575.00    1.34283   1.31548   -1.000
 5576.00    1.36386   1.32237   -1.000
 5577.00    1.38717   1.32578   -1.000
 5578.00    1.35843   1.33003   -1.000
 5579.00    1.31036   1.33397   -1.000
 5580.00    1.30001   1.33491   -1.000
 5581.00    1.31835   1.33163   -1.000
 5582.00    1.33270   1.32540   -1.000
 5583.00    1.33425   1.31852   -1.000
 5584.00    1.32545   1.30593   -1.000
 5585.00    1.29402   1.27969   -1.000
 5586.00    1.26169   1.24361   -1.000
 5587.00    1.23444   1.21284   -1.000
 5588.00    1.22719   1.20230   -1.000
 5589.00    1.24450   1.21425   -1.000
 5590.00    1.26818   1.23795   -1.000
 5591.00    1.28555   1.25829   -1.000
 5592.00    1.28785   1.26701   -1.000
 5593.00    1.28170   1.26979   -1.000
 5594.00    1.29108   1.27863   -1.000
 5595.00    1.31124   1.29707   -1.000
 5596.00    1.32113   1.31065   -1.000
 5597.00    1.30604   1.30523  765.675
 5598.00    1.28244   1.28637  779.761
 5599.00    1.27010   1.26676  787.341
 5600.00    1.27252   1.25093   -1.000
 5601.00    1.26419   1.24012   -1.000
 5602.00    1.25834   1.24131   -1.000
 5603.00    1.28259   1.26329   -1.000
 5604.00    1.32034   1.30257   -1.000
 5605.00    1.35036   1.34063   -1.000
 5606.00    1.36494   1.36290  732.631
 5607.00    1.36644   1.36966  731.828
 5608.00    1.36389   1.36842   -1.000
 5609.00    1.36104   1.36685   -1.000
 5610.00    1.36293   1.36896   -1.000
 5611.00    1.36755   1.37065  731.234
 5612.00    1.35972   1.35974  735.443
 5613.00    1.32962   1.32679  752.095
 5614.00    1.28264   1.27885   -1.000
 5615.00    1.25547   1.24443   -1.000
 5616.00    1.27043   1.24505   -1.000
 5617.00    1.30394   1.27105   -1.000
 5618.00    1.32028   1.29700   -1.000
 5619.00    1.32169   1.31046   -1.000
 5620.00    1.32825   1.31865   -1.000
 5621.00    1.33496   1.32456   -1.000
 5622.00    1.32770   1.31809   -1.000
 5623.00    1.29939   1.29646  769.593
 5624.00    1.27614   1.27348  783.613
 5625.00    1.28521   1.26783   -1.000
 5626.00    1.30915   1.28431   -1.000
 5627.00    1.32775   1.30872   -1.000
 5628.00    1.34290   1.32928   -1.000
 5629.00    1.35221   1.34503   -1.000
 5630.00    1.35530   1.35495  737.847
 5631.00    1.36109   1.35647   -1.000
 5632.00    1.35875   1.35025   -1.000
 5633.00    1.34703   1.33927   -1.000
 5634.00    1.33765   1.32603   -1.000
 5635.00    1.32941   1.31201   -1.000
 5636.00    1.31946   1.29921   -1.000
 5637.00    1.31068   1.29244   -1.000
 5638.00    1.31166   1.29352   -1.000
 5639.00    1.31317   1.29614   -1.000
 5640.00    1.30792   1.29431   -1.000
 5641.00    1.30777   1.29030   -1.000
 5642.00    1.31377   1.29089   -1.000
 5643.00    1.31995   1.29794   -1.000
 5644.00    1.32150   1.30626   -1.000
 5645.00    1.33185   1.31245   -1.000
 5646.00    1.33475   1.31658   -1.000
 5647.00    1.33829   1.31706   -1.000
 5648.00    1.34008   1.31281   -1.000
 5649.00    1.33611   1.30845   -1.000
 5650.00    1.33671   1.31011   -1.000
 5651.00    1.34882   1.31735   -1.000
 5652.00    1.35134   1.32223   -1.000
 5653.00    1.34510   1.31800   -1.000
 5654.00    1.33368   1.30736   -1.000
 5655.00    1.32077   1.29375   -1.000
 5656.00    1.29415   1.27359   -1.000
 5657.00    1.25348   1.24725   -1.000
 5658.00    1.23594   1.22768   -1.000
 5659.00    1.25879   1.22953   -1.000
 5660.00    1.28787   1.24860   -1.000
 5661.00    1.28967   1.26371   -1.000
 5662.00    1.28692   1.27001   -1.000
 5663.00    1.30378   1.28161   -1.000
 5664.00    1.32292   1.29915   -1.000
 5665.00    1.32637   1.30897   -1.000
 5666.00    1.31787   1.30481   -1.000
 5667.00    1.31003   1.29395   -1.000
 5668.00    1.30926   1.28805   -1.000
 5669.00    1.31320   1.29134   -1.000
 5670.00    1.32243   1.30118   -1.000
 5671.00    1.33439   1.31538   -1.000
 5672.00    1.34816   1.33114   -1.000
 5673.00    1.36118   1.34218   -1.000
 5674.00    1.35901   1.34564   -1.000
 5675.00    1.35410   1.34508   -1.000
 5676.00    1.35964   1.34405   -1.000
 5677.00    1.36137   1.34204   -1.000
 5678.00    1.35322   1.33630   -1.000
 5679.00    1.34807   1.32678   -1.000
 5680.00    1.33974   1.31536   -1.000
 5681.00    1.32318   1.30166   -1.000
 5682.00    1.30768   1.28707   -1.000
 5683.00    1.30649   1.27980   -1.000
 5684.00    1.31542   1.28272   -1.000
 5685.00    1.32092   1.28641   -1.000
 5686.00    1.31305   1.28377   -1.000
 5687.00    1.29651   1.27907   -1.000
 5688.00    1.29395   1.28114   -1.000
 5689.00    1.31107   1.29338   -1.000
 5690.00    1.33695   1.31013   -1.000
 5691.00    1.34784   1.32402   -1.000
 5692.00    1.35613   1.33183   -1.000
 5693.00    1.35775   1.33334   -1.000
 5694.00    1.35559   1.33113   -1.000
 5695.00    1.35469   1.32788   -1.000
 5696.00    1.35040   1.32263   -1.000
 5697.00    1.33585   1.31334   -1.000
 5698.00    1.32030   1.30138   -1.000
 5699.00    1.30932   1.29025   -1.000
 5700.00    1.29491   1.28051   -1.000
 5701.00    1.29022   1.27381   -1.000
 5702.00    1.30200   1.27585   -1.000
 5703.00    1.31614   1.28466   -1.000
 5704.00    1.31778   1.28895   -1.000
 5705.00    1.30742   1.28122   -1.000
 5706.00    1.28788   1.26294   -1.000
 5707.00    1.26352   1.24241   -1.000
 5708.00    1.24476   1.22659   -1.000
 5709.00    1.23925   1.21795   -1.000
 5710.00    1.24345   1.21892   -1.000
 5711.00    1.25767   1.23076   -1.000
 5712.00    1.28598   1.25418   -1.000
 5713.00    1.31928   1.28490   -1.000
 5714.00    1.33785   1.30962   -1.000
 5715.00    1.34062   1.32216   -1.000
 5716.00    1.34352   1.32851   -1.000
 5717.00    1.34795   1.33372   -1.000
 5718.00    1.35495   1.33953   -1.000
 5719.00    1.36407   1.34671   -1.000
 5720.00    1.37006   1.35451   -1.000
 5721.00    1.37295   1.36152   -1.000
 5722.00    1.37495   1.36687   -1.000
 5723.00    1.37655   1.36920   -1.000
 5724.00    1.37253   1.36519   -1.000
 5725.00    1.35987   1.35321   -1.000
 5726.00    1.34531   1.33870   -1.000
 5727.00    1.33525   1.33165   -1.000
 5728.00    1.34506   1.33536   -1.000
 5729.00    1.35299   1.34031   -1.000
 5730.00    1.34755   1.33799   -1.000
 5731.00    1.34042   1.33373   -1.000
 5732.00    1.34729   1.33709   -1.000
 5733.00    1.36161   1.34918   -1.000
 5734.00    1.36943   1.36036   -1.000
 5735.00    1.36684   1.36202   -1.000
 5736.00    1.36534   1.35656   -1.000
 5737.00    1.36079   1.35054   -1.000
 5738.00    1.36033   1.34780   -1.000
 5739.00    1.35697   1.34746   -1.000
 5740.00    1.35517   1.34632   -1.000
 5741.00    1.35190   1.34374   -1.000
 5742.00    1.35611   1.34272   -1.000
 5743.00    1.35695   1.34710   -1.000
 5744.00    1.36848   1.35544   -1.000
 5745.00    1.37527   1.35926   -1.000
 5746.00    1.36563   1.35248   -1.000
 5747.00    1.35144   1.34082   -1.000
 5748.00    1.34766   1.33756   -1.000
 5749.00    1.35746   1.34471   -1.000
 5750.00    1.36081   1.34877   -1.000
 5751.00    1.34804   1.33681   -1.000
 5752.00    1.33116   1.31138   -1.000
 5753.00    1.31848   1.29200   -1.000
 5754.00    1.32069   1.29498   -1.000
 5755.00    1.34007   1.31852   -1.000
 5756.00    1.36640   1.34636   -1.000
 5757.00    1.38120   1.36217   -1.000
 5758.00    1.37412   1.36067   -1.000
 5759.00    1.35753   1.34529   -1.000
 5760.00    1.33971   1.32406   -1.000
 5761.00    1.32151   1.30632   -1.000
 5762.00    1.31668   1.30116   -1.000
 5763.00    1.33392   1.31428   -1.000
 5764.00    1.35932   1.34073   -1.000
 5765.00    1.37482   1.36408   -1.000
 5766.00    1.37744   1.37444  725.984
 5767.00    1.37864   1.37577  725.350
 5768.00    1.38117   1.37310   -1.000
 5769.00    1.37755   1.36801   -1.000
 5770.00    1.37284   1.36166   -1.000
 5771.00    1.36477   1.35505   -1.000
 5772.00    1.35627   1.34842   -1.000
 5773.00    1.35365   1.34292   -1.000
 5774.00    1.35214   1.34048   -1.000
 5775.00    1.35562   1.34239   -1.000
 5776.00    1.36300   1.34673   -1.000
 5777.00    1.36339   1.34668   -1.000
 5778.00    1.35841   1.33490   -1.000
 5779.00    1.33671   1.31002   -1.000
 5780.00    1.30577   1.28078   -1.000
 5781.00    1.29095   1.25966   -1.000
 5782.00    1.29570   1.25275   -1.000
 5783.00    1.30085   1.25495   -1.000
 5784.00    1.30545   1.25803   -1.000
 5785.00    1.31028   1.26575   -1.000
 5786.00    1.32652   1.28529   -1.000
 5787.00    1.34463   1.30870   -1.000
 5788.00    1.35391   1.32311   -1.000
 5789.00    1.35089   1.32543   -1.000
 5790.00    1.34433   1.32140   -1.000
 5791.00    1.34755   1.32095   -1.000
 5792.00    1.35995   1.32993   -1.000
 5793.00    1.36888   1.34481   -1.000
 5794.00    1.37711   1.35657   -1.000
 5795.00    1.37704   1.35832   -1.000
 5796.00    1.36767   1.34953   -1.000
 5797.00    1.35902   1.33994   -1.000
 5798.00    1.36763   1.34204   -1.000
 5799.00    1.38662   1.35693   -1.000
 5800.00    1.40600   1.37413   -1.000
 5801.00    1.40706   1.38186   -1.000
 5802.00    1.39354   1.37566   -1.000
 5803.00    1.38311   1.35964   -1.000
 5804.00    1.37174   1.34400   -1.000
 5805.00    1.36639   1.33750   -1.000
 5806.00    1.37070   1.34039   -1.000
 5807.00    1.37603   1.34760   -1.000
 5808.00    1.37997   1.35487   -1.000
 5809.00    1.37951   1.36118   -1.000
 5810.00    1.38109   1.36659   -1.000
 5811.00    1.38685   1.36935   -1.000
 5812.00    1.39070   1.36708   -1.000
 5813.00    1.38703   1.35875   -1.000
 5814.00    1.37442   1.34629   -1.000
 5815.00    1.36898   1.33566   -1.000
 5816.00    1.37774   1.33562   -1.000
 5817.00    1.38744   1.34889   -1.000
 5818.00    1.39475   1.36654   -1.000
 5819.00    1.40162   1.37852   -1.000
 5820.00    1.40599   1.38183   -1.000
 5821.00    1.40280   1.37896   -1.000
 5822.00    1.39756   1.37426   -1.000
 5823.00    1.40117   1.37120   -1.000
 5824.00    1.40301   1.37082   -1.000
 5825.00    1.40577   1.37200   -1.000
 5826.00    1.40690   1.37359   -1.000
 5827.00    1.40631   1.37570   -1.000
 5828.00    1.40312   1.37871   -1.000
 5829.00    1.40680   1.38118   -1.000
 5830.00    1.40582   1.38095   -1.000
 5831.00    1.40822   1.37821   -1.000
 5832.00    1.40463   1.37405   -1.000
 5833.00    1.39439   1.36835   -1.000
 5834.00    1.39327   1.36297   -1.000
 5835.00    1.39874   1.36174   -1.000
 5836.00    1.40110   1.36359   -1.000
 5837.00    1.39558   1.36440   -1.000
 5838.00    1.39274   1.36574   -1.000
 5839.00    1.39824   1.37150   -1.000
 5840.00    1.40938   1.37973   -1.000
 5841.00    1.41621   1.38539   -1.000
 5842.00    1.41488   1.38571   -1.000
 5843.00    1.40967   1.38081   -1.000
 5844.00    1.40417   1.37179   -1.000
 5845.00    1.39422   1.36018   -1.000
 5846.00    1.38776   1.34898   -1.000
 5847.00    1.38084   1.34250   -1.000
 5848.00    1.38363   1.34282   -1.000
 5849.00    1.38065   1.34582   -1.000
 5850.00    1.37209   1.34306   -1.000
 5851.00    1.36353   1.33104   -1.000
 5852.00    1.34941   1.31626   -1.000
 5853.00    1.34411   1.30749   -1.000
 5854.00    1.34222   1.30533   -1.000
 5855.00    1.34087   1.30021   -1.000
 5856.00    1.32535   1.28588   -1.000
 5857.00    1.31366   1.27206   -1.000
 5858.00    1.32577   1.27287   -1.000
 5859.00    1.34339   1.28910   -1.000
 5860.00    1.35360   1.30810   -1.000
 5861.00    1.35723   1.31987   -1.000
 5862.00    1.36339   1.32522   -1.000
 5863.00    1.36461   1.32830   -1.000
 5864.00    1.36015   1.32910   -1.000
 5865.00    1.35536   1.32518   -1.000
 5866.00    1.34844   1.31963   -1.000
 5867.00    1.35102   1.32134   -1.000
 5868.00    1.36553   1.33285   -1.000
 5869.00    1.37666   1.34560   -1.000
 5870.00    1.38194   1.35178   -1.000
 5871.00    1.38146   1.35086   -1.000
 5872.00    1.37726   1.34734   -1.000
 5873.00    1.37767   1.34537   -1.000
 5874.00    1.37999   1.34531   -1.000
 5875.00    1.37501   1.34485   -1.000
 5876.00    1.36893   1.34085   -1.000
 5877.00    1.36755   1.33201   -1.000
 5878.00    1.35548   1.32019   -1.000
 5879.00    1.34729   1.30927   -1.000
 5880.00    1.34832   1.30323   -1.000
 5881.00    1.35268   1.30303   -1.000
 5882.00    1.35188   1.30414   -1.000
 5883.00    1.34535   1.30237   -1.000
 5884.00    1.34488   1.30051   -1.000
 5885.00    1.33960   1.29703   -1.000
 5886.00    1.32194   1.27518   -1.000
 5887.00    1.27186   1.21784   -1.000
 5888.00    1.18858   1.13163   -1.000
 5889.00    1.11872   1.05804   -1.000
 5890.00    1.10454   1.04125   -1.000
 5891.00    1.14146   1.08208   -1.000
 5892.00    1.19176   1.13551   -1.000
 5893.00    1.21097   1.15467   -1.000
 5894.00    1.19219   1.13236   -1.000
 5895.00    1.15637   1.09987   -1.000
 5896.00    1.16632   1.10147   -1.000
 5897.00    1.20458   1.14762   -1.000
 5898.00    1.25073   1.20424   -1.000
 5899.00    1.28541   1.24464   -1.000
 5900.00    1.31371   1.27028   -1.000
 5901.00    1.33705   1.28713   -1.000
 5902.00    1.34165   1.29634   -1.000
 5903.00    1.34261   1.29983   -1.000
 5904.00    1.34275   1.30027   -1.000
 5905.00    1.34026   1.30048   -1.000
 5906.00    1.34144   1.30368   -1.000
 5907.00    1.34421   1.31016   -1.000
 5908.00    1.34750   1.31594   -1.000
 5909.00    1.34156   1.31909   -1.000
 5910.00    1.34025   1.32023   -1.000
 5911.00    1.33884   1.31673   -1.000
 5912.00    1.33322   1.30516   -1.000
 5913.00    1.31186   1.28792   -1.000
 5914.00    1.30395   1.27399   -1.000
 5915.00    1.30811   1.27147   -1.000
 5916.00    1.31652   1.27964   -1.000
 5917.00    1.32061   1.29261   -1.000
 5918.00    1.32648   1.30463   -1.000
 5919.00    1.32913   1.31183   -1.000
 5920.00    1.33455   1.31355   -1.000
 5921.00    1.33308   1.31189   -1.000
 5922.00    1.33184   1.31122   -1.000
 5923.00    1.33836   1.31413   -1.000
 5924.00    1.34218   1.31919   -1.000
 5925.00    1.34440   1.32351   -1.000
 5926.00    1.34519   1.32401   -1.000
 5927.00    1.34208   1.31816   -1.000
 5928.00    1.33124   1.30715   -1.000
 5929.00    1.32094   1.29816   -1.000
 5930.00    1.32408   1.29939   -1.000
 5931.00    1.33899   1.30875   -1.000
 5932.00    1.34373   1.31365   -1.000
 5933.00    1.33140   1.30844   -1.000
 5934.00    1.32269   1.30109   -1.000
 5935.00    1.32178   1.30191   -1.000
 5936.00    1.33181   1.31192   -1.000
 5937.00    1.34348   1.32254   -1.000
 5938.00    1.34741   1.32610   -1.000
 5939.00    1.34101   1.32045   -1.000
 5940.00    1.32591   1.30868   -1.000
 5941.00    1.31999   1.29853   -1.000
 5942.00    1.32204   1.29753   -1.000
 5943.00    1.33088   1.30546   -1.000
 5944.00    1.33855   1.31536   -1.000
 5945.00    1.34341   1.32055   -1.000
 5946.00    1.33813   1.31673   -1.000
 5947.00    1.32502   1.30532   -1.000
 5948.00    1.31092   1.29524   -1.000
 5949.00    1.30995   1.29478   -1.000
 5950.00    1.31799   1.29968   -1.000
 5951.00    1.32237   1.29993   -1.000
 5952.00    1.31759   1.29638   -1.000
 5953.00    1.31973   1.29661   -1.000
 5954.00    1.32224   1.30012   -1.000
 5955.00    1.32148   1.30023   -1.000
 5956.00    1.31520   1.29611   -1.000
 5957.00    1.31411   1.29522   -1.000
 5958.00    1.32031   1.30307   -1.000
 5959.00    1.33735   1.31582   -1.000
 5960.00    1.34958   1.32702   -1.000
 5961.00    1.35371   1.33325   -1.000
 5962.00    1.35475   1.33401   -1.000
 5963.00    1.35086   1.33048   -1.000
 5964.00    1.34275   1.32441   -1.000
 5965.00    1.33891   1.31906   -1.000
 5966.00    1.33386   1.31890   -1.000
 5967.00    1.33840   1.32405   -1.000
 5968.00    1.34974   1.32987   -1.000
 5969.00    1.35159   1.33431   -1.000
 5970.00    1.35169   1.33800   -1.000
 5971.00    1.35519   1.33995   -1.000
 5972.00    1.35632   1.33824   -1.000
 5973.00    1.34746   1.33137   -1.000
 5974.00    1.33648   1.31867   -1.000
 5975.00    1.32648   1.30298   -1.000
 5976.00    1.31718   1.29163   -1.000
 5977.00    1.31188   1.29026   -1.000
 5978.00    1.31978   1.29848   -1.000
 5979.00    1.33178   1.31076   -1.000
 5980.00    1.33564   1.31877   -1.000
 5981.00    1.33120   1.31537   -1.000
 5982.00    1.31924   1.30039   -1.000
 5983.00    1.30779   1.28302   -1.000
 5984.00    1.30223   1.27519   -1.000
 5985.00    1.30869   1.28158   -1.000
 5986.00    1.32387   1.29512   -1.000
 5987.00    1.33057   1.30687   -1.000
 5988.00    1.33465   1.31421   -1.000
 5989.00    1.34165   1.31680   -1.000
 5990.00    1.33796   1.31513   -1.000
 5991.00    1.33496   1.31456   -1.000
 5992.00    1.34327   1.32095   -1.000
 5993.00    1.35515   1.33010   -1.000
 5994.00    1.35755   1.33264   -1.000
 5995.00    1.34611   1.32534   -1.000
 5996.00    1.33714   1.31312   -1.000
 5997.00    1.33183   1.30452   -1.000
 5998.00    1.32949   1.30438   -1.000
 5999.00    1.33270   1.30996   -1.000
 6000.00    1.33063   1.31374   -1.000
 6001.00    1.32169   1.31141   -1.000
 6002.00    1.31813   1.30560   -1.000
 6003.00    1.31929   1.30290   -1.000
 6004.00    1.32336   1.30379   -1.000
 6005.00    1.32159   1.29967   -1.000
 6006.00    1.31075   1.28695   -1.000
 6007.00    1.29719   1.27500   -1.000
 6008.00    1.29970   1.27659   -1.000
 6009.00    1.31700   1.29252   -1.000
 6010.00    1.33015   1.30705   -1.000
 6011.00    1.32718   1.30742   -1.000
 6012.00    1.31575   1.29892   -1.000
 6013.00    1.30964   1.29263   -1.000
 6014.00    1.31839   1.29227   -1.000
 6015.00    1.31706   1.29339   -1.000
 6016.00    1.31054   1.29253   -1.000
 6017.00    1.30865   1.29133   -1.000
 6018.00    1.31299   1.28867   -1.000
 6019.00    1.30751   1.28218   -1.000
 6020.00    1.29870   1.27665   -1.000
 6021.00    1.30608   1.27793   -1.000
 6022.00    1.31530   1.28455   -1.000
 6023.00    1.31703   1.29282   -1.000
 6024.00    1.31872   1.30185   -1.000
 6025.00    1.32780   1.31068   -1.000
 6026.00    1.33084   1.31709   -1.000
 6027.00    1.34031   1.32229   -1.000
 6028.00    1.34552   1.32857   -1.000
 6029.00    1.34681   1.33361   -1.000
 6030.00    1.34616   1.33612   -1.000
 6031.00    1.34257   1.33888   -1.000
 6032.00    1.34606   1.34282  742.910
 6033.00    1.35255   1.34594   -1.000
 6034.00    1.35545   1.34768   -1.000
 6035.00    1.35564   1.34865   -1.000
 6036.00    1.35861   1.34805   -1.000
 6037.00    1.35634   1.34498   -1.000
 6038.00    1.34764   1.33965   -1.000
 6039.00    1.34596   1.33403   -1.000
 6040.00    1.34122   1.33090   -1.000
 6041.00    1.34544   1.33119   -1.000
 6042.00    1.34682   1.33466   -1.000
 6043.00    1.35478   1.34111   -1.000
 6044.00    1.36618   1.34803   -1.000
 6045.00    1.36329   1.35237   -1.000
 6046.00    1.36341   1.35439   -1.000
 6047.00    1.36603   1.35577   -1.000
 6048.00    1.36400   1.35674   -1.000
 6049.00    1.35873   1.35690  735.983
 6050.00    1.35608   1.35541  737.420
 6051.00    1.35510   1.35091   -1.000
 6052.00    1.35223   1.34357   -1.000
 6053.00    1.34624   1.33522   -1.000
 6054.00    1.34246   1.32733   -1.000
 6055.00    1.33437   1.32130   -1.000
 6056.00    1.33104   1.31999   -1.000
 6057.00    1.33425   1.32461   -1.000
 6058.00    1.34205   1.33210   -1.000
 6059.00    1.34882   1.33803   -1.000
 6060.00    1.34582   1.33885   -1.000
 6061.00    1.34276   1.33232   -1.000
 6062.00    1.32103   1.31840  756.987
 6063.00    1.29489   1.30124   -1.000
 6064.00    1.35125   1.28993   -1.000
 6065.00    0.76919   1.29349   -1.000
 6066.00    0.45395   1.31204   -1.000
 6067.00    1.14962   1.33500   -1.000
 6068.00    1.34559   1.35099   -1.000
 6069.00    1.34329   1.35798   -1.000
 6070.00    1.38572   1.36037   -1.000
 6071.00    1.40070   1.35956   -1.000
 6072.00    1.36384   1.35444   -1.000
 6073.00    1.35874   1.35130   -1.000
 6074.00    1.35799   1.35238   -1.000
 6075.00    1.35280   1.34875   -1.000
 6076.00    1.34549   1.33752   -1.000
 6077.00    1.33776   1.32412   -1.000
 6078.00    1.32697   1.31508   -1.000
 6079.00    1.31934   1.31157   -1.000
 6080.00    1.31972   1.30850   -1.000
 6081.00    1.31826   1.30418   -1.000
 6082.00    1.31409   1.30225   -1.000
 6083.00    1.31487   1.30345   -1.000
 6084.00    1.31586   1.30537   -1.000
 6085.00    1.31732   1.30792   -1.000
 6086.00    1.32155   1.31197   -1.000
 6087.00    1.32709   1.31500   -1.000
 6088.00    1.32320   1.31254   -1.000
 6089.00    1.31453   1.30479   -1.000
 6090.00    1.30946   1.29804   -1.000
 6091.00    1.31102   1.29729   -1.000
 6092.00    1.32061   1.30241   -1.000
 6093.00    1.32675   1.31121   -1.000
 6094.00    1.33454   1.32013   -1.000
 6095.00    1.34003   1.32519   -1.000
 6096.00    1.33862   1.32670   -1.000
 6097.00    1.33496   1.32887   -1.000
 6098.00    1.33454   1.33137  749.322
 6099.00    1.33449   1.32573   -1.000
 6100.00    1.31627   1.30400   -1.000
 6101.00    1.28247   1.27171   -1.000
 6102.00    1.26414   1.25125   -1.000
 6103.00    1.27751   1.25809   -1.000
 6104.00    1.30420   1.28259   -1.000
 6105.00    1.32308   1.30470   -1.000
 6106.00    1.32551   1.31502   -1.000
 6107.00    1.31931   1.31835  757.974
 6108.00    1.31651   1.32167   -1.000
 6109.00    1.31756   1.32475   -1.000
 6110.00    1.32071   1.32488  757.166
 6111.00    1.32698   1.32458  753.592
 6112.00    1.32632   1.32776  753.965
 6113.00    1.33462   1.33248  749.278
 6114.00    1.33707   1.33321   -1.000
 6115.00    1.33075   1.32950  751.453
 6116.00    1.32158   1.32631   -1.000
 6117.00    1.32085   1.32310  757.088
 6118.00    1.31361   1.31290  761.263
 6119.00    1.29299   1.29347  773.399
 6120.00    1.27697   1.27129   -1.000
 6121.00    1.26548   1.25724   -1.000
 6122.00    1.26603   1.26071   -1.000
 6123.00    1.28999   1.27910   -1.000
 6124.00    1.30569   1.29661   -1.000
 6125.00    1.30382   1.30253  766.974
 6126.00    1.29536   1.29978   -1.000
 6127.00    1.29853   1.29653  770.103
 6128.00    1.30133   1.29925  768.447
 6129.00    1.31326   1.30923   -1.000
 6130.00    1.32587   1.32193   -1.000
 6131.00    1.32715   1.33056  753.492
 6132.00    1.32403   1.32936   -1.000
 6133.00    1.31016   1.31240  763.268
 6134.00    1.27875   1.27646  782.015
 6135.00    1.24084   1.23147   -1.000
 6136.00    1.21133   1.20291   -1.000
 6137.00    1.21161   1.20956  825.349
 6138.00    1.24741   1.24206   -1.000
 6139.00    1.28376   1.27201   -1.000
 6140.00    1.29481   1.28197   -1.000
 6141.00    1.29054   1.28235   -1.000
 6142.00    1.28874   1.29029  775.955
 6143.00    1.30416   1.30580  766.774
 6144.00    1.32006   1.31804  757.541
 6145.00    1.31997   1.32091  757.592
 6146.00    1.31299   1.31591  761.623
 6147.00    1.30445   1.30708  766.606
 6148.00    1.29492   1.29810  772.250
 6149.00    1.28770   1.29240   -1.000
 6150.00    1.28868   1.29260  775.991
 6151.00    1.29402   1.29744  772.788
 6152.00    1.30373   1.30111  767.032
 6153.00    1.30408   1.29839   -1.000
 6154.00    1.29132   1.29110  774.402
 6155.00    1.28564   1.28572  777.820
 6156.00    1.28546   1.28425  777.934
 6157.00    1.27932   1.28207  781.664
 6158.00    1.26470   1.27050   -1.000
 6159.00    1.23951   1.24180  806.768
 6160.00    1.20103   1.20034  832.621
 6161.00    1.16764   1.16587  856.428
 6162.00    1.15981   1.15836  862.213
 6163.00    1.18114   1.17869  846.636
 6164.00    1.21664   1.21057   -1.000
 6165.00    1.23290   1.23579  811.094
 6166.00    1.23653   1.24467   -1.000
 6167.00    1.23223   1.23633   -1.000
 6168.00    1.21448   1.21901   -1.000
 6169.00    1.20315   1.21009   -1.000
 6170.00    1.21523   1.22094   -1.000
 6171.00    1.24121   1.24378  805.664
 6172.00    1.25740   1.26198   -1.000
 6173.00    1.25346   1.26997   -1.000
 6174.00    1.25294   1.27233   -1.000
 6175.00    1.25661   1.27295   -1.000
 6176.00    1.25880   1.27453   -1.000
 6177.00    1.26242   1.27895   -1.000
 6178.00    1.26914   1.28449   -1.000
 6179.00    1.27340   1.28868   -1.000
 6180.00    1.27745   1.29311   -1.000
 6181.00    1.28376   1.29909   -1.000
 6182.00    1.28651   1.30328   -1.000
 6183.00    1.28306   1.30237   -1.000
 6184.00    1.27836   1.29572   -1.000
 6185.00    1.26730   1.28439   -1.000
 6186.00    1.25307   1.27187   -1.000
 6187.00    1.24046   1.26126   -1.000
 6188.00    1.22890   1.24995   -1.000
 6189.00    1.22053   1.23386   -1.000
 6190.00    1.20339   1.21886   -1.000
 6191.00    1.19733   1.21851   -1.000
 6192.00    1.21406   1.23700   -1.000
 6193.00    1.24745   1.26339   -1.000
 6194.00    1.26588   1.28408   -1.000
 6195.00    1.27197   1.29419   -1.000
 6196.00    1.27315   1.29423   -1.000
 6197.00    1.26328   1.28449   -1.000
 6198.00    1.24788   1.26933   -1.000
 6199.00    1.23868   1.26009   -1.000
 6200.00    1.24158   1.26492   -1.000
 6201.00    1.25599   1.27939   -1.000
 6202.00    1.27224   1.29339   -1.000
 6203.00    1.27364   1.30104   -1.000
 6204.00    1.27327   1.30326   -1.000
 6205.00    1.27589   1.30431   -1.000
 6206.00    1.27549   1.30626   -1.000
 6207.00    1.26975   1.30733   -1.000
 6208.00    1.27089   1.30496   -1.000
 6209.00    1.26412   1.29804   -1.000
 6210.00    1.25175   1.28601   -1.000
 6211.00    1.24252   1.26760   -1.000
 6212.00    1.22992   1.24462   -1.000
 6213.00    1.21032   1.22542   -1.000
 6214.00    1.19952   1.21796   -1.000
 6215.00    1.19766   1.22259   -1.000
 6216.00    1.21666   1.23170   -1.000
 6217.00    1.22025   1.23584   -1.000
 6218.00    1.20881   1.23211   -1.000
 6219.00    1.21606   1.22719   -1.000
 6220.00    1.22544   1.22961  816.032
 6221.00    1.21498   1.23889   -1.000
 6222.00    1.11763   1.24820   -1.000
 6223.00    1.17885   1.25377   -1.000
 6224.00    1.23550   1.25684   -1.000
 6225.00    1.22964   1.25864   -1.000
 6226.00    1.22974   1.25630   -1.000
 6227.00    1.22163   1.24461   -1.000
 6228.00    1.20371   1.22201   -1.000
 6229.00    1.18364   1.19656   -1.000
 6230.00    1.16954   1.18347   -1.000
 6231.00    1.17769   1.19093   -1.000
 6232.00    1.19638   1.21406   -1.000
 6233.00    1.22019   1.24137   -1.000
 6234.00    1.23968   1.26190   -1.000
 6235.00    1.24316   1.26859   -1.000
 6236.00    1.23294   1.26142   -1.000
 6237.00    1.22018   1.24691   -1.000
 6238.00    1.20797   1.23197   -1.000
 6239.00    1.19508   1.22120   -1.000
 6240.00    1.19144   1.21551   -1.000
 6241.00    1.19254   1.21061   -1.000
 6242.00    1.18223   1.20292   -1.000
 6243.00    1.17491   1.19567   -1.000
 6244.00    1.17695   1.19404   -1.000
 6245.00    1.18540   1.20064   -1.000
 6246.00    1.19783   1.21603   -1.000
 6247.00    1.21378   1.23531   -1.000
 6248.00    1.22602   1.24877   -1.000
 6249.00    1.22553   1.24879   -1.000
 6250.00    1.21254   1.23420   -1.000
 6251.00    1.18894   1.21198   -1.000
 6252.00    1.17586   1.19407   -1.000
 6253.00    1.16864   1.18643   -1.000
 6254.00    1.16602   1.18461   -1.000
 6255.00    1.16697   1.18106   -1.000
 6256.00    1.15464   1.17444   -1.000
 6257.00    1.14475   1.17158   -1.000
 6258.00    1.15192   1.17953   -1.000
 6259.00    1.17117   1.19802   -1.000
 6260.00    1.18878   1.22065   -1.000
 6261.00    1.20488   1.24061   -1.000
 6262.00    1.22430   1.25244   -1.000
 6263.00    1.22838   1.25363   -1.000
 6264.00    1.21660   1.24898   -1.000
 6265.00    1.20912   1.24730   -1.000
 6266.00    1.21650   1.25120   -1.000
 6267.00    1.22567   1.25448   -1.000
 6268.00    1.21933   1.25275   -1.000
 6269.00    1.21319   1.25003   -1.000
 6270.00    1.21593   1.25142   -1.000
 6271.00    1.22037   1.25639   -1.000
 6272.00    1.22302   1.26008   -1.000
 6273.00    1.21893   1.25848   -1.000
 6274.00    1.20940   1.25154   -1.000
 6275.00    1.19967   1.24119   -1.000
 6276.00    1.17931   1.22789   -1.000
 6277.00    1.14869   1.21247   -1.000
 6278.00    1.12967   1.19742   -1.000
 6279.00    1.12433   1.18790   -1.000
 6280.00    1.13006   1.18945   -1.000
 6281.00    1.14996   1.20218   -1.000
 6282.00    1.17017   1.22084   -1.000
 6283.00    1.18818   1.23880   -1.000
 6284.00    1.20212   1.25264   -1.000
 6285.00    1.21152   1.26328   -1.000
 6286.00    1.22294   1.27190   -1.000
 6287.00    1.23112   1.27695   -1.000
 6288.00    1.23274   1.27519   -1.000
 6289.00    1.22503   1.26666   -1.000
 6290.00    1.21428   1.25597   -1.000
 6291.00    1.20554   1.24836   -1.000
 6292.00    1.20410   1.24577   -1.000
 6293.00    1.20283   1.24501   -1.000
 6294.00    1.20056   1.24043   -1.000
 6295.00    1.19030   1.23030   -1.000
 6296.00    1.18284   1.22021   -1.000
 6297.00    1.18184   1.21630   -1.000
 6298.00    1.18400   1.21694   -1.000
 6299.00    1.18942   1.21527   -1.000
 6300.00    1.19474   1.20951   -1.000
 6301.00    1.18251   1.20683   -1.000
 6302.00    1.16892   1.21385   -1.000
 6303.00    1.18200   1.22802   -1.000
 6304.00    1.20190   1.24310   -1.000
 6305.00    1.21611   1.25641   -1.000
 6306.00    1.22605   1.26773   -1.000
 6307.00    1.23750   1.27447   -1.000
 6308.00    1.23820   1.27369   -1.000
 6309.00    1.23192   1.26699   -1.000
 6310.00    1.22327   1.25920   -1.000
 6311.00    1.21913   1.25309   -1.000
 6312.00    1.21400   1.24706   -1.000
 6313.00    1.21342   1.23821   -1.000
 6314.00    1.20082   1.22773   -1.000
 6315.00    1.19765   1.22016   -1.000
 6316.00    1.19900   1.21609   -1.000
 6317.00    1.20013   1.21487   -1.000
 6318.00    1.19806   1.22020   -1.000
 6319.00    1.20335   1.23289   -1.000
 6320.00    1.21938   1.24630   -1.000
 6321.00    1.23089   1.25626   -1.000
 6322.00    1.23473   1.26505   -1.000
 6323.00    1.23891   1.27395   -1.000
 6324.00    1.24602   1.28060   -1.000
 6325.00    1.24952   1.28297   -1.000
 6326.00    1.24982   1.28217   -1.000
 6327.00    1.25695   1.28119   -1.000
 6328.00    1.25465   1.28078   -1.000
 6329.00    1.25395   1.28055   -1.000
 6330.00    1.25305   1.28261   -1.000
 6331.00    1.25836   1.28645   -1.000
 6332.00    1.26002   1.28488   -1.000
 6333.00    1.25594   1.27184   -1.000
 6334.00    1.25291   1.25157  798.140
 6335.00    1.22084   1.23654   -1.000
 6336.00    1.22175   1.23557   -1.000
 6337.00    1.23336   1.24624   -1.000
 6338.00    1.24619   1.26109   -1.000
 6339.00    1.26022   1.27437   -1.000
 6340.00    1.26538   1.28126   -1.000
 6341.00    1.27176   1.27872   -1.000
 6342.00    1.26984   1.26989  787.500
 6343.00    1.25717   1.26341   -1.000
 6344.00    1.25674   1.26566   -1.000
 6345.00    1.26072   1.27526   -1.000
 6346.00    1.26797   1.28646   -1.000
 6347.00    1.27717   1.29582   -1.000
 6348.00    1.28149   1.30262   -1.000
 6349.00    1.28063   1.30634   -1.000
 6350.00    1.28390   1.30648   -1.000
 6351.00    1.28216   1.30200   -1.000
 6352.00    1.27616   1.29231   -1.000
 6353.00    1.27034   1.27970   -1.000
 6354.00    1.25474   1.26968   -1.000
 6355.00    1.24455   1.26431   -1.000
 6356.00    1.24517   1.25861   -1.000
 6357.00    1.24104   1.24891   -1.000
 6358.00    1.22574   1.23876   -1.000
 6359.00    1.22174   1.23201   -1.000
 6360.00    1.22776   1.22783  814.493
 6361.00    1.23147   1.22570   -1.000
 6362.00    1.23231   1.22776   -1.000
 6363.00    1.23701   1.23532  808.400
 6364.00    1.24568   1.24699  802.776
 6365.00    1.25360   1.26033   -1.000
 6366.00    1.26021   1.27277   -1.000
 6367.00    1.26847   1.28178   -1.000
 6368.00    1.27702   1.28597   -1.000
 6369.00    1.27970   1.28765   -1.000
 6370.00    1.27835   1.29090   -1.000
 6371.00    1.28335   1.29673   -1.000
 6372.00    1.28848   1.30275   -1.000
 6373.00    1.28408   1.30591   -1.000
 6374.00    1.28346   1.30528   -1.000
 6375.00    1.28044   1.30199   -1.000
 6376.00    1.27549   1.29676   -1.000
 6377.00    1.26884   1.29016   -1.000
 6378.00    1.25998   1.28422   -1.000
 6379.00    1.25565   1.28081   -1.000
 6380.00    1.25522   1.28058   -1.000
 6381.00    1.25257   1.28294   -1.000
 6382.00    1.25323   1.28565   -1.000
 6383.00    1.25694   1.28720   -1.000
 6384.00    1.24999   1.28890   -1.000
 6385.00    1.24759   1.29208   -1.000
 6386.00    1.24904   1.29552   -1.000
 6387.00    1.24465   1.29733   -1.000
 6388.00    1.24071   1.29679   -1.000
 6389.00    1.22977   1.29210   -1.000
 6390.00    1.22032   1.28016   -1.000
 6391.00    1.20599   1.26177   -1.000
 6392.00    1.18734   1.24625   -1.000
 6393.00    1.17824   1.24567   -1.000
 6394.00    1.18328   1.26180   -1.000
 6395.00    1.20271   1.28121   -1.000
 6396.00    1.20293   1.28868   -1.000
 6397.00    1.19466   1.27811   -1.000
 6398.00    1.17570   1.25635   -1.000
 6399.00    1.14831   1.24141   -1.000
 6400.00    1.14175   1.24767   -1.000
 6401.00    1.15567   1.27145   -1.000
 6402.00    1.17508   1.29544   -1.000
 6403.00    1.17953   1.30743   -1.000
 6404.00    1.17542   1.30571   -1.000
 6405.00    1.16878   1.29426   -1.000
 6406.00    1.15098   1.28049   -1.000
 6407.00    1.13332   1.27284   -1.000
 6408.00    1.12255   1.27282   -1.000
 6409.00    1.11832   1.27355   -1.000
 6410.00    1.11245   1.27139   -1.000
 6411.00    1.10305   1.27057   -1.000
 6412.00    1.09738   1.27371   -1.000
 6413.00    1.09616   1.27881   -1.000
 6414.00    1.09521   1.28352   -1.000
 6415.00    1.08878   1.28644   -1.000
 6416.00    1.08104   1.28550   -1.000
 6417.00    1.07191   1.27804   -1.000
 6418.00    1.05890   1.26419   -1.000
 6419.00    1.03678   1.25076   -1.000
 6420.00    1.01763   1.24797   -1.000
 6421.00    1.01393   1.26043   -1.000
 6422.00    1.01763   1.28068   -1.000
 6423.00    1.02375   1.29709   -1.000
 6424.00    1.02626   1.30617   -1.000
 6425.00    1.01834   1.31099   -1.000
 6426.00    1.00590   1.31190   -1.000
 6427.00    0.99736   1.30453   -1.000
 6428.00    0.98464   1.28676   -1.000
