###################################################################
## OUTPUT of StarlightChains_v04.for    [Cid@UFSC - 01/Apr/2007] ##
###################################################################

## Some input info
NGC1851_a_1.cxt                          [arq_obs]
Base.BC03.S                              [arq_base]
NGC1851_a_1.msk                          [arq_masks]
StCv04.C99.config                        [arq_config]
  150                                    [N_base]
    0                                    [N_YAV_components = # of components with extra extinction!]
    0                                    [i_FitPowerLaw (1/0 = Yes/No)]
-9.99                                    [alpha_PowerLaw]
CCM                                      [red_law_option]
 1.458241                                [q_norm = A(l_norm)/A(V)]

## (Re)Sampling Parameters
 3359.00                                 [l_ini (A)]
 6428.00                                 [l_fin (A)]
    1.00                                 [dl    (A)]     (OBS: dl_cushion =    50.00 A)

## Normalization info
 4020.00                                 [l_norm (A) - for base]
 4010.00                                 [llow_norm (A) - window for f_obs]
 4060.00                                 [lupp_norm (A) - window for f_obs]
8.317932E-14                             [fobs_norm (in input units)]

## S/N
 4730.00                                 [llow_SN (A) - window for S/N]
 4780.00                                 [lupp_SN (A) - window for S/N]
  72.129                                 [S/N in S/N window]
  63.854                                 [S/N in norm. window]
 355.079                                 [S/N_err in S/N window]
 314.342                                 [S/N_err in norm. window]
  1.0000                                 [fscale_chi2]

## etc...
  2147483647                             [idum_orig]
  3058                                   [NOl_eff]
   680                                   [Nl_eff]
  2378    NSIGMA                         [Ntot_cliped & clip_method]
  2866360                                [Nglobal_steps]
   7                                     [N_chains]
  16                                     [NEX0s_base = N_base in EX0s-fits]
 0   0   1      243   2.0   6.680E+02    [Clip-Bug, RC-Crash & Burn-In warning-flags, n_censored_weights, wei_nsig_threshold & wei_limit]
   115    115.326    115.313      0.012  [idt_all, wdt_TotTime, wdt_UsrTime & wdt_SysTime (sec)]

## Synthesis Results - Best model ##

 2.74753E+00                             [chi2/Nl_eff]
     0.62112                             [adev (%)]

   101.72859                             [sum-of-x (%)]
 9.42128E-14                             [Flux_tot (units of input spectrum!)]
 1.26848E-09                             [Mini_tot (???)]
 6.64737E-10                             [Mcor_tot (???)]

  -5.67                                  [v0_min  (km/s)]
  58.98                                  [vd_min  (km/s)]
 0.0800                                  [AV_min  (mag)]
 0.0000                                  [YAV_min (mag)]

# j     x_j(%)      Mini_j(%)     Mcor_j(%)     age_j(yr)     Z_j      (L/M)_j    YAV?  Mstars   component_j        a/Fe...       SSP_chi2r SSP_adev(%)   SSP_AV   SSP_x(%)
  1      0.0000     0.0000E+00    0.0000E+00    1.000000E+06  0.00010  8.160E-03    0   1.0000   age020_m22            0.0000     2.9348E+03    15.7913   3.7634    77.7674
  2      6.1525     9.4389E-03    1.8012E-02    3.160000E+06  0.00010  4.759E-02    0   1.0000   age045_m22            0.0000     5.1788E+02     7.0667   1.7192    97.9153
  3      0.0000     0.0000E+00    0.0000E+00    5.010000E+06  0.00010  1.932E-02    0   0.9582   age055_m22            0.0000     2.6176E+03    15.3818   2.0450    84.4778
  4      0.0000     0.0000E+00    0.0000E+00    6.610000E+06  0.00010  9.973E-03    0   0.9297   age061_m22            0.0000     2.8960E+03    15.9990   3.7214    80.7206
  5      0.0000     0.0000E+00    0.0000E+00    8.710000E+06  0.00010  7.690E-03    0   0.9030   age067_m22            0.0000     2.7538E+03    15.6320   3.7140    81.1240
  6      0.0000     0.0000E+00    0.0000E+00    1.000000E+07  0.00010  6.375E-03    0   0.8902   age070_m22            0.0000     2.6355E+03    15.3024   3.7296    81.2755
  7      0.0000     0.0000E+00    0.0000E+00    1.445000E+07  0.00010  4.874E-03    0   0.8589   age078_m22            0.0000     2.0227E+03    13.6137   3.5432    84.0633
  8      0.0000     0.0000E+00    0.0000E+00    2.512000E+07  0.00010  4.103E-03    0   0.8174   age090_m22            0.0000     1.0780E+03    10.2683   3.1273    90.2926
  9      0.0000     0.0000E+00    0.0000E+00    4.000000E+07  0.00010  3.654E-03    0   0.7830   age104_m22            0.0000     7.3939E+02     7.8305   2.8197    95.0215
 10      0.0000     0.0000E+00    0.0000E+00    5.500000E+07  0.00010  3.093E-03    0   0.7597   age110_m22            0.0000     6.8181E+02     7.1280   2.7178    96.4970
 11      0.0000     0.0000E+00    0.0000E+00    1.015200E+08  0.00010  2.431E-03    0   0.7138   age116_m22            0.0000     7.6689E+02     7.0689   2.3665    99.3336
 12      0.0000     0.0000E+00    0.0000E+00    1.609000E+08  0.00010  1.319E-03    0   0.6775   age120_m22            0.0000     7.2993E+02     6.6806   1.9010   101.0572
 13      0.0000     0.0000E+00    0.0000E+00    2.861200E+08  0.00010  1.075E-03    0   0.6412   age125_m22            0.0000     1.5209E+03     8.4439   1.9792   104.0513
 14      0.0000     0.0000E+00    0.0000E+00    5.088000E+08  0.00010  7.183E-04    0   0.6083   age130_m22            0.0000     1.8289E+03     9.0845   1.7531   105.4932
 15      0.0000     0.0000E+00    0.0000E+00    9.047900E+08  0.00010  4.524E-04    0   0.5785   age135_m22            0.0000     1.8532E+03     9.0911   1.5498   106.6887
 16      0.0000     0.0000E+00    0.0000E+00    1.278050E+09  0.00010  3.018E-04    0   0.5588   age138_m22            0.0000     8.8694E+02     6.4982   0.9925   105.6287
 17      0.0000     0.0000E+00    0.0000E+00    1.434000E+09  0.00010  2.691E-04    0   0.5532   age139_m22            0.0000     7.2011E+02     5.9054   0.8308   105.2105
 18      0.0000     0.0000E+00    0.0000E+00    2.500000E+09  0.00010  1.582E-04    0   0.5296   age150_m22            0.0000     6.5811E+02     5.8664   0.7153   106.0194
 19      0.0000     0.0000E+00    0.0000E+00    4.250000E+09  0.00010  1.007E-04    0   0.5110   age158_m22            0.0000     3.7051E+02     4.5763   0.5530   104.7242
 20      0.1434     1.5244E-01    1.4501E-01    6.250000E+09  0.00010  6.869E-05    0   0.4985   age166_m22            0.0000     1.9857E+02     3.5952   0.4881   102.3217
 21      0.0000     0.0000E+00    0.0000E+00    7.500000E+09  0.00010  5.873E-05    0   0.4931   age171_m22            0.0000     2.0840E+02     3.7544   0.4764   101.8130
 22      0.0000     0.0000E+00    0.0000E+00    1.000000E+10  0.00010  4.481E-05    0   0.4854   age181_m22            0.0000     1.9830E+02     3.6534   0.4381   101.4402
 23      0.0000     0.0000E+00    0.0000E+00    1.300000E+10  0.00010  3.489E-05    0   0.4791   age193_m22            0.0000     1.7243E+02     3.4225   0.3796   100.9167
 24      0.0000     0.0000E+00    0.0000E+00    1.500000E+10  0.00010  3.035E-05    0   0.4766   age201_m22            0.0000     1.6163E+02     3.3368   0.3391   100.7475
 25      0.0000     0.0000E+00    0.0000E+00    1.800000E+10  0.00010  2.510E-05    0   0.4735   age213_m22            0.0000     1.4244E+02     3.2203   0.2678   100.1908
 26      0.0000     0.0000E+00    0.0000E+00    1.000000E+06  0.00040  8.458E-03    0   1.0000   age020_m32            0.0000     2.8816E+03    15.7457   3.7789    78.4619
 27      0.0000     0.0000E+00    0.0000E+00    3.160000E+06  0.00040  3.973E-02    0   1.0000   age045_m32            0.0000     1.1611E+03    10.6524   3.0207    90.5325
 28      0.0000     0.0000E+00    0.0000E+00    5.010000E+06  0.00040  1.935E-02    0   0.9532   age055_m32            0.0000     2.2993E+03    14.6526   3.2572    84.6183
 29      0.0000     0.0000E+00    0.0000E+00    6.610000E+06  0.00040  1.204E-02    0   0.9243   age061_m32            0.0000     2.4691E+03    14.9309   3.5765    82.6735
 30      0.0000     0.0000E+00    0.0000E+00    8.710000E+06  0.00040  9.433E-03    0   0.9001   age067_m32            0.0000     2.2416E+03    14.2976   3.5492    83.5261
 31      0.0000     0.0000E+00    0.0000E+00    1.000000E+07  0.00040  8.053E-03    0   0.8877   age070_m32            0.0000     2.1544E+03    14.0501   3.5122    83.9708
 32      0.0000     0.0000E+00    0.0000E+00    1.445000E+07  0.00040  7.027E-03    0   0.8578   age078_m32            0.0000     1.4618E+03    11.9893   2.9763    89.1386
 33      0.0000     0.0000E+00    0.0000E+00    2.512000E+07  0.00040  4.707E-03    0   0.8166   age090_m32            0.0000     1.0040E+03     9.9149   2.6748    92.9327
 34      0.0000     0.0000E+00    0.0000E+00    4.000000E+07  0.00040  3.714E-03    0   0.7827   age104_m32            0.0000     7.4348E+02     7.9888   2.4679    96.2682
 35      0.0000     0.0000E+00    0.0000E+00    5.500000E+07  0.00040  2.982E-03    0   0.7593   age110_m32            0.0000     7.0470E+02     7.3974   2.4058    97.3889
 36      0.0000     0.0000E+00    0.0000E+00    1.015200E+08  0.00040  2.188E-03    0   0.7143   age116_m32            0.0000     9.1840E+02     7.1291   2.1441   101.3422
 37      0.0000     0.0000E+00    0.0000E+00    1.609000E+08  0.00040  1.690E-03    0   0.6856   age120_m32            0.0000     1.2743E+03     7.9503   1.9454   103.7596
 38      0.0000     0.0000E+00    0.0000E+00    2.861200E+08  0.00040  1.152E-03    0   0.6509   age125_m32            0.0000     1.5878E+03     8.5455   1.7334   105.1548
 39      0.0000     0.0000E+00    0.0000E+00    5.088000E+08  0.00040  7.331E-04    0   0.6182   age130_m32            0.0000     1.7025E+03     8.7290   1.5676   105.7928
 40      0.0000     0.0000E+00    0.0000E+00    9.047900E+08  0.00040  3.960E-04    0   0.5890   age135_m32            0.0000     8.9062E+02     6.4267   1.0852   104.8550
 41      0.0000     0.0000E+00    0.0000E+00    1.278050E+09  0.00040  2.854E-04    0   0.5687   age138_m32            0.0000     7.3380E+02     6.0500   0.7839   106.8986
 42      0.0000     0.0000E+00    0.0000E+00    1.434000E+09  0.00040  2.531E-04    0   0.5632   age139_m32            0.0000     7.2131E+02     6.0300   0.7212   106.9294
 43      1.4599     7.1632E-01    7.3622E-01    2.500000E+09  0.00040  1.488E-04    0   0.5386   age150_m32            0.0000     4.7851E+02     4.9855   0.4548   105.5964
 44     19.7151     1.5849E+01    1.5724E+01    4.250000E+09  0.00040  9.082E-05    0   0.5199   age158_m32            0.0000     1.4510E+02     3.0066   0.3412   102.7237
 45      1.1028     1.2655E+00    1.2258E+00    6.250000E+09  0.00040  6.362E-05    0   0.5076   age166_m32            0.0000     1.2354E+02     3.1843   0.2941    99.5103
 46      9.3449     1.2900E+01    1.2375E+01    7.500000E+09  0.00040  5.289E-05    0   0.5027   age171_m32            0.0000     1.2572E+02     3.2309   0.2562    98.2759
 47     14.2379     2.6171E+01    2.4711E+01    1.000000E+10  0.00040  3.972E-05    0   0.4948   age181_m32            0.0000     1.1922E+02     3.0988   0.1913    96.9481
 48      0.0950     2.1123E-01    1.9630E-01    1.300000E+10  0.00040  3.283E-05    0   0.4870   age193_m32            0.0000     7.1341E+01     2.3588   0.1504    99.5193
 49      0.0000     0.0000E+00    0.0000E+00    1.500000E+10  0.00040  2.925E-05    0   0.4854   age201_m32            0.0000     7.7781E+01     2.2694   0.1345   101.0024
 50      0.0000     0.0000E+00    0.0000E+00    1.800000E+10  0.00040  2.469E-05    0   0.4819   age213_m32            0.0000     8.2309E+01     2.2803   0.0951   101.4622
 51      0.0000     0.0000E+00    0.0000E+00    1.000000E+06  0.00400  1.114E-02    0   1.0000   age020_m42            0.0000     2.7598E+03    15.3715   3.7055    78.8791
 52      0.0000     0.0000E+00    0.0000E+00    3.160000E+06  0.00400  4.073E-02    0   0.9999   age045_m42            0.0000     7.7118E+02     8.6462   2.7178    93.4085
 53      0.0000     0.0000E+00    0.0000E+00    5.010000E+06  0.00400  2.534E-02    0   0.9488   age055_m42            0.0000     1.5699E+03    12.1599   3.1285    86.8890
 54      0.0000     0.0000E+00    0.0000E+00    6.610000E+06  0.00400  2.583E-02    0   0.9220   age061_m42            0.0000     6.8818E+02     8.0634   2.5218    94.2292
 55      0.0000     0.0000E+00    0.0000E+00    8.710000E+06  0.00400  1.706E-02    0   0.8983   age067_m42            0.0000     1.0645E+03    10.3747   2.3437    92.2259
 56      0.0000     0.0000E+00    0.0000E+00    1.000000E+07  0.00400  1.271E-02    0   0.8862   age070_m42            0.0000     1.4656E+03    12.2127   2.3327    90.5779
 57      0.0000     0.0000E+00    0.0000E+00    1.445000E+07  0.00400  7.666E-03    0   0.8571   age078_m42            0.0000     1.8162E+03    13.1789   2.7434    87.2145
 58      0.0000     0.0000E+00    0.0000E+00    2.512000E+07  0.00400  5.070E-03    0   0.8174   age090_m42            0.0000     1.2785E+03    11.4020   2.2017    92.0341
 59      0.0000     0.0000E+00    0.0000E+00    4.000000E+07  0.00400  3.505E-03    0   0.7851   age104_m42            0.0000     8.2657E+02     9.0916   1.8787    94.8762
 60      0.0000     0.0000E+00    0.0000E+00    5.500000E+07  0.00400  3.059E-03    0   0.7629   age110_m42            0.0000     5.1860E+02     6.0689   1.9335    99.3954
 61      0.0000     0.0000E+00    0.0000E+00    1.015200E+08  0.00400  2.268E-03    0   0.7207   age116_m42            0.0000     1.0569E+03     6.9970   1.8508   104.3362
 62      0.0000     0.0000E+00    0.0000E+00    1.609000E+08  0.00400  1.720E-03    0   0.6930   age120_m42            0.0000     1.1244E+03     7.0448   1.7147   105.9685
 63      0.0000     0.0000E+00    0.0000E+00    2.861200E+08  0.00400  1.079E-03    0   0.6613   age125_m42            0.0000     1.1390E+03     7.1129   1.3703   105.9683
 64      0.0000     0.0000E+00    0.0000E+00    5.088000E+08  0.00400  6.261E-04    0   0.6313   age130_m42            0.0000     1.3716E+03     7.6927   1.1757   108.6798
 65      0.0000     0.0000E+00    0.0000E+00    9.047900E+08  0.00400  3.535E-04    0   0.6024   age135_m42            0.0000     7.7123E+02     5.7543   0.7517   109.4089
 66      0.0000     0.0000E+00    0.0000E+00    1.278050E+09  0.00400  2.677E-04    0   0.5837   age138_m42            0.0000     2.1863E+02     3.8200   0.0347   107.0765
 67      0.0083     3.1706E-03    3.4583E-03    1.434000E+09  0.00400  1.910E-04    0   0.5716   age139_m42            0.0000     2.8174E+02     3.8500   0.2121   107.9277
 68     34.0464     2.5318E+01    2.6393E+01    2.500000E+09  0.00400  9.818E-05    0   0.5463   age150_m42            0.0000     6.6382E+01     2.5273  -0.0736   103.4921
 69      0.0000     0.0000E+00    0.0000E+00    4.250000E+09  0.00400  5.491E-05    0   0.5269   age158_m42            0.0000     1.0575E+02     2.8124  -0.2007   100.7804
 70      1.0718     2.0288E+00    1.9942E+00    6.250000E+09  0.00400  3.857E-05    0   0.5151   age166_m42            0.0000     2.0353E+02     3.7047  -0.3302    99.4107
 71      1.0719     2.4133E+00    2.3532E+00    7.500000E+09  0.00400  3.243E-05    0   0.5110   age171_m42            0.0000     2.7498E+02     4.2355  -0.4102    98.8217
 72      0.0000     0.0000E+00    0.0000E+00    1.000000E+10  0.00400  2.424E-05    0   0.5028   age181_m42            0.0000     3.8354E+02     4.9264  -0.4922    98.1886
 73      0.0000     0.0000E+00    0.0000E+00    1.300000E+10  0.00400  1.883E-05    0   0.4927   age193_m42            0.0000     4.7355E+02     5.4375  -0.5350    97.9190
 74      0.0000     0.0000E+00    0.0000E+00    1.500000E+10  0.00400  1.685E-05    0   0.4919   age201_m42            0.0000     4.4790E+02     5.2677  -0.5283    97.9178
 75      0.4408     2.2164E+00    2.0614E+00    1.800000E+10  0.00400  1.452E-05    0   0.4874   age213_m42            0.0000     4.0119E+02     4.9797  -0.5111    98.1669
 76      0.0000     0.0000E+00    0.0000E+00    1.000000E+06  0.00800  1.286E-02    0   1.0000   age020_m52            0.0000     2.4619E+03    14.6333   3.6872    80.5903
 77      0.0000     0.0000E+00    0.0000E+00    3.160000E+06  0.00800  3.147E-02    0   0.9966   age045_m52            0.0000     2.3723E+03    14.4916   3.5921    82.1909
 78      0.0000     0.0000E+00    0.0000E+00    5.010000E+06  0.00800  2.664E-02    0   0.9443   age055_m52            0.0000     1.8055E+03    12.7975   3.2536    85.6123
 79      0.0000     0.0000E+00    0.0000E+00    6.610000E+06  0.00800  2.151E-02    0   0.9177   age061_m52            0.0000     1.1526E+03    10.4575   1.9276    92.0433
 80      0.0000     0.0000E+00    0.0000E+00    8.710000E+06  0.00800  1.628E-02    0   0.8948   age067_m52            0.0000     1.2003E+03    10.9292   2.3081    92.2190
 81      0.0000     0.0000E+00    0.0000E+00    1.000000E+07  0.00800  1.215E-02    0   0.8827   age070_m52            0.0000     1.4472E+03    11.9157   2.6570    90.2467
 82      0.0000     0.0000E+00    0.0000E+00    1.445000E+07  0.00800  8.739E-03    0   0.8552   age078_m52            0.0000     1.2294E+03    10.9222   2.6954    91.6164
 83      0.0000     0.0000E+00    0.0000E+00    2.512000E+07  0.00800  5.676E-03    0   0.8162   age090_m52            0.0000     9.1788E+02     9.1151   2.2884    96.4244
 84      0.0000     0.0000E+00    0.0000E+00    4.000000E+07  0.00800  3.939E-03    0   0.7841   age104_m52            0.0000     7.5348E+02     7.5709   2.1286    98.7976
 85      0.0000     0.0000E+00    0.0000E+00    5.500000E+07  0.00800  3.155E-03    0   0.7627   age110_m52            0.0000     7.1579E+02     6.8021   2.0961   100.4280
 86      0.0000     0.0000E+00    0.0000E+00    1.015200E+08  0.00800  2.206E-03    0   0.7226   age116_m52            0.0000     8.2747E+02     6.3949   1.9038   104.2250
 87      0.0000     0.0000E+00    0.0000E+00    1.609000E+08  0.00800  1.596E-03    0   0.6963   age120_m52            0.0000     9.5828E+02     6.6194   1.6964   105.6252
 88      0.0000     0.0000E+00    0.0000E+00    2.861200E+08  0.00800  1.002E-03    0   0.6665   age125_m52            0.0000     1.3947E+03     7.6383   1.4118   107.8835
 89      0.0000     0.0000E+00    0.0000E+00    5.088000E+08  0.00800  5.759E-04    0   0.6377   age130_m52            0.0000     1.4534E+03     8.0545   1.0569   111.7272
 90      0.0000     0.0000E+00    0.0000E+00    9.047900E+08  0.00800  2.972E-04    0   0.6086   age135_m52            0.0000     6.8841E+02     6.3400   0.4946   111.0955
 91      0.0000     0.0000E+00    0.0000E+00    1.278050E+09  0.00800  2.242E-04    0   0.5907   age138_m52            0.0000     2.7749E+02     4.6969  -0.1478   110.0651
 92      0.0000     0.0000E+00    0.0000E+00    1.434000E+09  0.00800  1.645E-04    0   0.5787   age139_m52            0.0000     2.0992E+02     4.0096   0.0012   109.6094
 93      0.0000     0.0000E+00    0.0000E+00    2.500000E+09  0.00800  7.723E-05    0   0.5519   age150_m52            0.0000     2.2690E+02     4.3901  -0.3452   105.9108
 94      0.0000     0.0000E+00    0.0000E+00    4.250000E+09  0.00800  4.151E-05    0   0.5320   age158_m52            0.0000     2.6874E+02     4.4906  -0.4140   103.3719
 95      0.0000     0.0000E+00    0.0000E+00    6.250000E+09  0.00800  3.010E-05    0   0.5197   age166_m52            0.0000     4.5761E+02     5.6525  -0.6096   101.8690
 96      0.0000     0.0000E+00    0.0000E+00    7.500000E+09  0.00800  2.467E-05    0   0.5139   age171_m52            0.0000     5.1458E+02     5.9796  -0.6529   101.4661
 97      0.0000     0.0000E+00    0.0000E+00    1.000000E+10  0.00800  1.862E-05    0   0.5054   age181_m52            0.0000     6.9703E+02     6.9910  -0.7869   101.0186
 98      0.0000     0.0000E+00    0.0000E+00    1.300000E+10  0.00800  1.433E-05    0   0.4988   age193_m52            0.0000     9.1073E+02     8.0420  -0.8893   101.6584
 99      0.0000     0.0000E+00    0.0000E+00    1.500000E+10  0.00800  1.244E-05    0   0.4936   age201_m52            0.0000     9.9576E+02     8.4240  -0.9218   102.1464
100      0.0000     0.0000E+00    0.0000E+00    1.800000E+10  0.00800  1.070E-05    0   0.4888   age213_m52            0.0000     1.0619E+03     8.7107  -0.9591   102.0007
101      0.0000     0.0000E+00    0.0000E+00    1.000000E+06  0.02000  1.989E-02    0   1.0000   age020_m62            0.0000     2.7030E+03    15.1815   3.6594    79.7345
102      0.0000     0.0000E+00    0.0000E+00    3.160000E+06  0.02000  3.772E-02    0   0.9858   age045_m62            0.0000     2.4903E+03    14.7343   3.5108    81.9942
103      0.0000     0.0000E+00    0.0000E+00    5.010000E+06  0.02000  3.227E-02    0   0.9342   age055_m62            0.0000     1.1695E+03    10.6004   2.9727    89.8026
104      0.0000     0.0000E+00    0.0000E+00    6.610000E+06  0.02000  2.387E-02    0   0.9090   age061_m62            0.0000     1.6947E+03    12.9104   2.7214    89.1396
105      0.0000     0.0000E+00    0.0000E+00    8.710000E+06  0.02000  1.102E-02    0   0.8861   age067_m62            0.0000     3.9057E+03    19.1654   2.3688    84.0785
106      0.0000     0.0000E+00    0.0000E+00    1.000000E+07  0.02000  1.011E-02    0   0.8751   age070_m62            0.0000     2.8335E+03    16.4496   2.3857    86.6753
107      0.0000     0.0000E+00    0.0000E+00    1.445000E+07  0.02000  7.331E-03    0   0.8472   age078_m62            0.0000     2.0963E+03    14.1981   2.3976    88.2127
108      0.0000     0.0000E+00    0.0000E+00    2.512000E+07  0.02000  4.206E-03    0   0.8099   age090_m62            0.0000     2.1214E+03    14.0868   2.3112    87.4267
109      0.0000     0.0000E+00    0.0000E+00    4.000000E+07  0.02000  3.373E-03    0   0.7799   age104_m62            0.0000     8.1529E+02     8.6832   2.1034    96.1469
110      0.0000     0.0000E+00    0.0000E+00    5.500000E+07  0.02000  2.747E-03    0   0.7595   age110_m62            0.0000     6.8609E+02     6.9783   2.0340    99.5259
111      0.0000     0.0000E+00    0.0000E+00    1.015200E+08  0.02000  1.878E-03    0   0.7221   age116_m62            0.0000     1.0056E+03     7.2504   1.8942   104.1736
112      0.0000     0.0000E+00    0.0000E+00    1.609000E+08  0.02000  1.378E-03    0   0.6978   age120_m62            0.0000     1.3533E+03     7.8186   1.7435   106.6077
113      0.0000     0.0000E+00    0.0000E+00    2.861200E+08  0.02000  8.869E-04    0   0.6700   age125_m62            0.0000     2.0080E+03     8.9039   1.3785   110.4868
114      0.0000     0.0000E+00    0.0000E+00    5.088000E+08  0.02000  4.834E-04    0   0.6430   age130_m62            0.0000     1.6326E+03     8.4383   0.9245   113.1071
115      0.0000     0.0000E+00    0.0000E+00    9.047900E+08  0.02000  2.312E-04    0   0.6152   age135_m62            0.0000     6.2792E+02     5.9059   0.2778   113.4068
116      0.0000     0.0000E+00    0.0000E+00    1.278050E+09  0.02000  1.387E-04    0   0.5927   age138_m62            0.0000     2.2523E+02     4.2073  -0.1077   109.0611
117      0.0000     0.0000E+00    0.0000E+00    1.434000E+09  0.02000  1.168E-04    0   0.5865   age139_m62            0.0000     1.9084E+02     4.0195  -0.1347   107.4725
118      0.0000     0.0000E+00    0.0000E+00    2.500000E+09  0.02000  5.505E-05    0   0.5610   age150_m62            0.0000     3.7014E+02     5.4385  -0.5206   104.5495
119      0.0000     0.0000E+00    0.0000E+00    4.250000E+09  0.02000  3.070E-05    0   0.5407   age158_m62            0.0000     7.6133E+02     7.6832  -0.8262   104.3876
120      0.0000     0.0000E+00    0.0000E+00    6.250000E+09  0.02000  2.104E-05    0   0.5277   age166_m62            0.0000     1.0132E+03     8.8235  -0.9644   104.8355
121      0.0000     0.0000E+00    0.0000E+00    7.500000E+09  0.02000  1.770E-05    0   0.5223   age171_m62            0.0000     1.1644E+03     9.3499  -1.0000   103.9758
122      0.0000     0.0000E+00    0.0000E+00    1.000000E+10  0.02000  1.297E-05    0   0.5121   age181_m62            0.0000     1.6397E+03    10.5645  -1.0000   100.7248
123      0.0000     0.0000E+00    0.0000E+00    1.300000E+10  0.02000  9.691E-06    0   0.5047   age193_m62            0.0000     2.0225E+03    11.4923  -1.0000    99.0655
124      0.0000     0.0000E+00    0.0000E+00    1.500000E+10  0.02000  8.360E-06    0   0.4999   age201_m62            0.0000     2.3892E+03    12.4052  -1.0000    97.5447
125      0.0000     0.0000E+00    0.0000E+00    1.800000E+10  0.02000  6.911E-06    0   0.4946   age213_m62            0.0000     2.8487E+03    13.5185  -1.0000    95.9162
126      0.0000     0.0000E+00    0.0000E+00    1.000000E+06  0.05000  2.651E-02    0   0.9998   age020_m72            0.0000     2.5111E+03    14.4953   3.6594    80.5747
127      0.0000     0.0000E+00    0.0000E+00    3.160000E+06  0.05000  4.817E-02    0   0.9577   age045_m72            0.0000     1.8563E+03    12.7811   3.3591    85.2782
128      0.0000     0.0000E+00    0.0000E+00    5.010000E+06  0.05000  3.101E-02    0   0.9147   age055_m72            0.0000     1.7001E+03    12.4696   3.0133    87.9070
129      0.0000     0.0000E+00    0.0000E+00    6.610000E+06  0.05000  1.472E-02    0   0.8877   age061_m72            0.0000     3.0211E+03    16.4267   2.6127    85.5589
130      0.0000     0.0000E+00    0.0000E+00    8.710000E+06  0.05000  1.050E-02    0   0.8638   age067_m72            0.0000     2.2048E+03    13.9708   2.9896    86.1298
131      0.0000     0.0000E+00    0.0000E+00    1.000000E+07  0.05000  8.954E-03    0   0.8524   age070_m72            0.0000     1.6939E+03    12.0675   3.2586    86.2365
132      0.0000     0.0000E+00    0.0000E+00    1.445000E+07  0.05000  6.392E-03    0   0.8262   age078_m72            0.0000     1.4699E+03    11.2671   3.1994    87.2864
133      0.0000     0.0000E+00    0.0000E+00    2.512000E+07  0.05000  4.207E-03    0   0.7902   age090_m72            0.0000     9.2871E+02     9.1165   2.8151    91.7383
134      0.0000     0.0000E+00    0.0000E+00    4.000000E+07  0.05000  3.198E-03    0   0.7618   age104_m72            0.0000     6.6849E+02     6.1046   2.2852    99.7909
135      0.0000     0.0000E+00    0.0000E+00    5.500000E+07  0.05000  2.593E-03    0   0.7432   age110_m72            0.0000     8.1963E+02     6.5519   2.1861   101.7839
136      0.0000     0.0000E+00    0.0000E+00    1.015200E+08  0.05000  1.716E-03    0   0.7092   age116_m72            0.0000     1.1671E+03     7.4983   1.9956   104.3534
137      0.0000     0.0000E+00    0.0000E+00    1.609000E+08  0.05000  1.218E-03    0   0.6876   age120_m72            0.0000     1.5512E+03     8.0432   1.7178   107.0568
138      0.0000     0.0000E+00    0.0000E+00    2.861200E+08  0.05000  7.047E-04    0   0.6618   age125_m72            0.0000     1.8752E+03     8.8114   1.1633   111.1064
139      0.0000     0.0000E+00    0.0000E+00    5.088000E+08  0.05000  3.590E-04    0   0.6356   age130_m72            0.0000     1.3603E+03     8.1467   0.5487   114.5621
140      0.0000     0.0000E+00    0.0000E+00    9.047900E+08  0.05000  1.484E-04    0   0.6088   age135_m72            0.0000     4.1369E+02     5.8033  -0.2156   108.6594
141     10.9815     8.4977E+00    9.6062E+00    1.278050E+09  0.05000  9.435E-05    0   0.5924   age138_m72            0.0000     6.1707E+02     7.2247  -0.6362   105.6866
142      1.3451     1.2547E+00    1.4000E+00    1.434000E+09  0.05000  7.827E-05    0   0.5847   age139_m72            0.0000     6.0832E+02     7.1045  -0.6204   105.0958
143      0.5113     9.9300E-01    1.0579E+00    2.500000E+09  0.05000  3.759E-05    0   0.5583   age150_m72            0.0000     1.0081E+03     8.8606  -0.9555   104.2849
144      0.0000     0.0000E+00    0.0000E+00    4.250000E+09  0.05000  1.842E-05    0   0.5374   age158_m72            0.0000     1.7349E+03    10.9546  -1.0000    97.8411
145      0.0000     0.0000E+00    0.0000E+00    6.250000E+09  0.05000  1.207E-05    0   0.5242   age166_m72            0.0000     2.8529E+03    13.8484  -1.0000    91.7492
146      0.0000     0.0000E+00    0.0000E+00    7.500000E+09  0.05000  9.993E-06    0   0.5183   age171_m72            0.0000     3.0809E+03    14.3773  -1.0000    90.6407
147      0.0000     0.0000E+00    0.0000E+00    1.000000E+10  0.05000  7.291E-06    0   0.5081   age181_m72            0.0000     3.9277E+03    16.1184  -1.0000    87.4309
148      0.0000     0.0000E+00    0.0000E+00    1.300000E+10  0.05000  5.316E-06    0   0.5018   age193_m72            0.0000     5.3856E+03    18.6590  -1.0000    82.7385
149      0.0000     0.0000E+00    0.0000E+00    1.500000E+10  0.05000  4.497E-06    0   0.4972   age201_m72            0.0000     6.0707E+03    19.7157  -1.0000    81.0857
150      0.0000     0.0000E+00    0.0000E+00    1.800000E+10  0.05000  3.739E-06    0   0.4924   age213_m72            0.0000     7.0614E+03    21.1386  -1.0000    78.5573


## Synthesis Results - Average & Chains ##

# j      x_j: min, <> & last-chain-values for 1 ...  7 chains
  1      0.0000      0.0030      0.0000      0.0000      0.0000      0.0000      0.0000      0.0000      0.0000
  2      6.1525      4.7996      5.1314      5.0000      5.1761      5.0190      5.0493      4.8278      5.2470
  3      0.0000      0.0120      0.0000      0.0115      0.0000      0.0000      0.0000      0.0000      0.0000
  4      0.0000      0.0022      0.0000      0.0000      0.0090      0.0000      0.0000      0.0000      0.0000
  5      0.0000      0.0033      0.0000      0.0008      0.0000      0.0000      0.0000      0.0000      0.0000
  6      0.0000      0.0028      0.0000      0.0000      0.0000      0.0000      0.0000      0.0000      0.0000
  7      0.0000      0.0035      0.0000      0.0000      0.0000      0.0000      0.0000      0.0000      0.0000
  8      0.0000      0.0093      0.0000      0.0051      0.0000      0.0000      0.0000      0.0000      0.0000
  9      0.0000      0.0095      0.0000      0.0000      0.0000      0.0000      0.0000      0.0000      0.0000
 10      0.0000      0.0101      0.0000      0.0000      0.0000      0.0000      0.0000      0.0000      0.0000
 11      0.0000      0.0267      0.0000      0.0868      0.0314      0.0309      0.0000      0.0000      0.0000
 12      0.0000      0.0128      0.0000      0.0000      0.0000      0.0000      0.0000      0.0000      0.0000
 13      0.0000      0.0093      0.0000      0.0000      0.0230      0.0000      0.0000      0.0000      0.0000
 14      0.0000      0.0093      0.0666      0.0000      0.0000      0.0000      0.0000      0.0000      0.0000
 15      0.0000      0.0143      0.0000      0.0000      0.0490      0.0966      0.0000      0.1220      0.0000
 16      0.0000      0.0202      0.0000      0.0010      0.0000      0.0121      0.0208      0.0000      0.0000
 17      0.0000      0.0303      0.0000      0.0000      0.0000      0.0000      0.0000      0.2155      0.0324
 18      0.0000      0.0332      0.0888      0.0000      0.1090      0.0000      0.0000      0.0000      0.0000
 19      0.0000      0.0630      0.1543      0.2677      0.0312      0.1376      0.0000      0.0931      0.0845
 20      0.1434      0.1176      0.2208      0.6133      0.2602      0.3762      0.3055      0.0530      0.0000
 21      0.0000      0.1458      0.0000      0.4842      0.0000      0.1733      0.0000      0.3547      0.1985
 22      0.0000      0.1256      0.0000      0.0000      0.0159      0.0000      0.0400      0.0000      0.0000
 23      0.0000      0.1195      0.0000      0.0932      0.1905      0.0000      0.1198      0.2629      0.5596
 24      0.0000      0.1184      0.0000      0.0000      0.0000      0.1284      0.0000      0.0146      0.0740
 25      0.0000      0.1278      0.4072      0.0000      0.0870      0.1355      0.0000      0.0002      0.1507
 26      0.0000      0.0030      0.0000      0.0000      0.0000      0.0000      0.0000      0.0000      0.0000
 27      0.0000      0.0091      0.0000      0.0107      0.0000      0.0117      0.0054      0.0000      0.0000
 28      0.0000      0.0031      0.0000      0.0000      0.0000      0.0000      0.0000      0.0428      0.0099
 29      0.0000      0.0022      0.0000      0.0000      0.0000      0.0261      0.0049      0.0000      0.0000
 30      0.0000      0.0026      0.0000      0.0000      0.0096      0.0000      0.0044      0.0000      0.0000
 31      0.0000      0.0034      0.0000      0.0000      0.0000      0.0000      0.0000      0.0000      0.0000
 32      0.0000      0.0071      0.0462      0.0000      0.0000      0.0000      0.0000      0.0000      0.0000
 33      0.0000      0.0085      0.0000      0.0000      0.0085      0.0000      0.0000      0.0000      0.0000
 34      0.0000      0.0149      0.0000      0.0053      0.0000      0.0267      0.0000      0.0000      0.0000
 35      0.0000      0.0146      0.0093      0.0000      0.0000      0.0000      0.0000      0.0000      0.0000
 36      0.0000      0.0137      0.0000      0.0000      0.0000      0.0000      0.0000      0.0000      0.1178
 37      0.0000      0.0148      0.0000      0.0000      0.0539      0.0081      0.0000      0.0000      0.0000
 38      0.0000      0.0084      0.0000      0.0000      0.0000      0.0000      0.0000      0.0000      0.0000
 39      0.0000      0.0123      0.0000      0.0000      0.0000      0.0000      0.0000      0.0109      0.0000
 40      0.0000      0.0190      0.0000      0.0000      0.0000      0.0000      0.0901      0.0000      0.0232
 41      0.0000      0.0305      0.1589      0.1433      0.0000      0.0000      0.0000      0.0000      0.0000
 42      0.0000      0.0434      0.0000      0.0000      0.0000      0.0000      0.0000      0.0000      0.0000
 43      1.4599      1.4590      1.4252      1.3831      1.6819      1.9364      1.8380      1.5192      1.0757
 44     19.7151     16.5718     16.8585     16.7980     16.7865     16.7645     17.3989     17.1879     16.6894
 45      1.1028      0.4866      0.6495      0.8944      0.4427      0.4055      0.7037      0.7077      0.5079
 46      9.3449      7.6886      7.3338      7.8659      7.3805      7.6777      7.5305      7.7574      6.7143
 47     14.2379     18.8493     19.1937     18.0645     19.0217     18.7388     17.7040     19.0864     19.3774
 48      0.0950      0.2567      0.0000      0.0000      0.6507      0.2152      0.1601      0.1956      0.2907
 49      0.0000      0.2375      0.4406      0.2323      0.0241      0.3577      0.9351      0.1378      0.0000
 50      0.0000      0.2679      0.0000      0.1453      0.1684      0.0000      0.0655      0.0000      0.5689
 51      0.0000      0.0025      0.0000      0.0000      0.0000      0.0000      0.0000      0.0189      0.0000
 52      0.0000      0.0205      0.0000      0.0000      0.0000      0.1516      0.0000      0.0000      0.0000
 53      0.0000      0.0070      0.0000      0.0740      0.0000      0.0000      0.0000      0.0000      0.0000
 54      0.0000      0.0156      0.0033      0.0128      0.1500      0.0000      0.0151      0.0000      0.0982
 55      0.0000      0.0139      0.1101      0.0000      0.0000      0.0000      0.0000      0.0000      0.0000
 56      0.0000      0.0096      0.0685      0.0438      0.0000      0.0000      0.0000      0.1447      0.0000
 57      0.0000      0.0093      0.0000      0.0456      0.0000      0.0000      0.0000      0.0000      0.0000
 58      0.0000      0.0070      0.0049      0.0894      0.0000      0.0000      0.0000      0.0000      0.0021
 59      0.0000      0.0085      0.0044      0.0000      0.0696      0.0000      0.0000      0.0000      0.0000
 60      0.0000      0.0113      0.0000      0.0000      0.0124      0.0477      0.0000      0.0141      0.0090
 61      0.0000      0.0161      0.0000      0.0000      0.0000      0.0000      0.0000      0.0000      0.0000
 62      0.0000      0.0195      0.0000      0.0000      0.0000      0.0000      0.0000      0.0000      0.0000
 63      0.0000      0.0137      0.0000      0.0000      0.0000      0.0000      0.0281      0.0000      0.0000
 64      0.0000      0.0208      0.0000      0.0000      0.0000      0.0000      0.0000      0.0000      0.0000
 65      0.0000      0.0650      0.1328      0.0000      0.0000      0.0000      0.0000      0.0000      0.4044
 66      0.0000      0.0522      0.0024      0.0000      0.0000      0.0000      0.0477      0.0224      0.0000
 67      0.0083      0.0988      0.0000      0.0000      0.1980      0.0000      0.0000      0.0000      0.0125
 68     34.0464     34.5102     34.7663     34.9946     35.2193     34.8881     34.7754     34.8741     34.7337
 69      0.0000      0.2162      0.1416      0.0000      0.0000      0.5302      0.0161      0.1679      0.2568
 70      1.0718      0.1870      0.0975      0.2402      0.2900      0.0408      0.3602      0.0000      0.4041
 71      1.0719      0.2063      0.2154      0.2004      0.3602      0.1873      0.4049      0.0995      0.0000
 72      0.0000      0.1489      0.1226      0.3416      0.0000      0.0000      0.6482      0.1506      0.0884
 73      0.0000      0.1240      0.1898      0.0000      0.0053      0.0030      0.1116      0.0206      0.2363
 74      0.0000      0.1090      0.1694      0.0000      0.0982      0.1372      0.0000      0.2976      0.1266
 75      0.4408      0.1779      0.0193      0.3137      0.2121      0.0903      0.1432      0.1287      0.3300
 76      0.0000      0.0028      0.0000      0.0000      0.0000      0.0000      0.0000      0.0000      0.0000
 77      0.0000      0.0021      0.0000      0.0000      0.0000      0.0000      0.0000      0.0000      0.0000
 78      0.0000      0.0038      0.0000      0.0000      0.0000      0.0000      0.0000      0.0000      0.0000
 79      0.0000      0.0105      0.0000      0.0000      0.0000      0.0000      0.0000      0.0000      0.0000
 80      0.0000      0.0095      0.0000      0.0000      0.0000      0.0000      0.0000      0.0000      0.0437
 81      0.0000      0.0056      0.0000      0.0000      0.0000      0.0000      0.0000      0.0000      0.0000
 82      0.0000      0.0075      0.0000      0.0000      0.0000      0.0556      0.0477      0.0000      0.0000
 83      0.0000      0.0065      0.0000      0.0000      0.0000      0.0000      0.0000      0.0000      0.0000
 84      0.0000      0.0105      0.0000      0.0000      0.0000      0.0000      0.0000      0.0536      0.0102
 85      0.0000      0.0072      0.0000      0.0000      0.0000      0.0000      0.0218      0.0000      0.0000
 86      0.0000      0.0142      0.0016      0.0000      0.0000      0.0000      0.0000      0.0000      0.0038
 87      0.0000      0.0105      0.0000      0.0000      0.0000      0.0000      0.0000      0.0000      0.0000
 88      0.0000      0.0124      0.0000      0.0000      0.0000      0.0000      0.0000      0.0000      0.0000
 89      0.0000      0.0274      0.0542      0.0000      0.0000      0.0044      0.0000      0.0000      0.0161
 90      0.0000      0.0308      0.0000      0.0000      0.0477      0.0000      0.1690      0.0147      0.0000
 91      0.0000      0.0318      0.0000      0.0000      0.0000      0.0000      0.0000      0.0000      0.0000
 92      0.0000      0.0516      0.0000      0.0000      0.0000      0.0000      0.0847      0.0000      0.0000
 93      0.0000      0.0798      0.0811      0.0000      0.0000      0.1596      0.0000      0.0586      0.0722
 94      0.0000      0.1315      0.2615      0.1275      0.0000      0.0000      0.0512      0.1194      0.0000
 95      0.0000      0.0575      0.0000      0.0000      0.0069      0.1547      0.0198      0.1306      0.2723
 96      0.0000      0.0533      0.0000      0.0000      0.0000      0.0000      0.0000      0.0226      0.2410
 97      0.0000      0.0621      0.0711      0.0000      0.0000      0.0000      0.0000      0.0000      0.0020
 98      0.0000      0.0302      0.1728      0.0000      0.1244      0.0000      0.0384      0.0802      0.0667
 99      0.0000      0.0344      0.0000      0.0000      0.0000      0.0000      0.0000      0.0000      0.0000
100      0.0000      0.0180      0.0000      0.0000      0.0000      0.0000      0.0000      0.0597      0.0000
101      0.0000      0.0026      0.0000      0.0000      0.0000      0.0000      0.0000      0.0000      0.0000
102      0.0000      0.0024      0.0000      0.0000      0.0000      0.0000      0.0000      0.0000      0.0000
103      0.0000      0.0055      0.0000      0.0053      0.0000      0.0000      0.0000      0.0000      0.0000
104      0.0000      0.0084      0.0000      0.0000      0.0000      0.0000      0.0000      0.0000      0.0000
105      0.0000      0.0046      0.0000      0.0000      0.0000      0.0000      0.0000      0.0000      0.0000
106      0.0000      0.0063      0.0000      0.0000      0.0000      0.0000      0.0215      0.0000      0.0000
107      0.0000      0.0041      0.0000      0.0000      0.0000      0.0000      0.0000      0.0000      0.0000
108      0.0000      0.0042      0.0000      0.0000      0.0000      0.0000      0.0000      0.0019      0.0000
109      0.0000      0.0060      0.0000      0.0138      0.0000      0.0000      0.0000      0.0000      0.0000
110      0.0000      0.0093      0.0000      0.0000      0.0000      0.0000      0.0831      0.0000      0.0000
111      0.0000      0.0078      0.0000      0.0000      0.0000      0.0000      0.0048      0.0000      0.0000
112      0.0000      0.0105      0.0000      0.0000      0.0000      0.0000      0.0000      0.0000      0.0000
113      0.0000      0.0075      0.0000      0.0000      0.0000      0.0000      0.0000      0.0000      0.0000
114      0.0000      0.0137      0.0000      0.0000      0.0000      0.0000      0.1101      0.0000      0.0000
115      0.0000      0.0922      0.0641      0.1380      0.1091      0.0000      0.0000      0.1318      0.0000
116      0.0000      0.0959      0.0098      0.0000      0.0000      0.0000      0.0275      0.0000      0.0903
117      0.0000      0.0909      0.0000      0.0000      0.0000      0.0000      0.0000      0.0000      0.0000
118      0.0000      0.0886      0.0000      0.0000      0.0014      0.0929      0.1604      0.0000      0.0000
119      0.0000      0.0215      0.0000      0.0000      0.0000      0.0845      0.0000      0.0000      0.0003
120      0.0000      0.0178      0.0000      0.0000      0.0000      0.0000      0.0000      0.0000      0.0000
121      0.0000      0.0136      0.0000      0.0000      0.0000      0.0000      0.0111      0.0000      0.0000
122      0.0000      0.0161      0.0000      0.0000      0.0556      0.0056      0.0000      0.0000      0.0000
123      0.0000      0.0072      0.0000      0.0000      0.0000      0.0096      0.0000      0.0000      0.0000
124      0.0000      0.0056      0.0000      0.0000      0.0000      0.0000      0.0000      0.0000      0.0000
125      0.0000      0.0072      0.0000      0.0000      0.0000      0.0000      0.0176      0.0000      0.0000
126      0.0000      0.0016      0.0000      0.0000      0.0012      0.0000      0.0000      0.0000      0.0000
127      0.0000      0.0045      0.0000      0.0000      0.0000      0.0000      0.0000      0.0000      0.0000
128      0.0000      0.0100      0.0000      0.0000      0.0000      0.0000      0.0013      0.0000      0.0000
129      0.0000      0.0039      0.0000      0.0000      0.0000      0.0000      0.0000      0.0198      0.0000
130      0.0000      0.0041      0.0000      0.0000      0.0000      0.0000      0.1585      0.0000      0.0000
131      0.0000      0.0025      0.0000      0.0000      0.0000      0.0000      0.0000      0.0000      0.0000
132      0.0000      0.0047      0.0000      0.0000      0.0000      0.0000      0.0000      0.0000      0.0000
133      0.0000      0.0046      0.0000      0.0000      0.0000      0.0041      0.0000      0.0000      0.0000
134      0.0000      0.0063      0.0552      0.0000      0.0000      0.0000      0.0000      0.0000      0.0000
135      0.0000      0.0103      0.0000      0.0094      0.0000      0.0000      0.0000      0.0000      0.0000
136      0.0000      0.0096      0.0000      0.0000      0.0000      0.0075      0.0000      0.0000      0.0000
137      0.0000      0.0080      0.0366      0.0000      0.0000      0.0000      0.0000      0.0000      0.0000
138      0.0000      0.0189      0.0000      0.0000      0.0000      0.0000      0.0000      0.0000      0.0000
139      0.0000      0.0435      0.1259      0.1039      0.0799      0.0000      0.0000      0.0286      0.1903
140      0.0000      0.1354      0.0000      0.0000      0.0000      0.0000      0.0258      0.0000      0.0863
141     10.9815     11.2602     11.3201     11.8609     10.9059     11.5045     11.1049     11.2394     11.3640
142      1.3451      0.5239      0.6416      0.3409      0.7733      0.7258      0.5533      0.5951      0.2676
143      0.5113      0.0839      0.2228      0.0000      0.3161      0.0000      0.0061      0.0000      0.2530
144      0.0000      0.1485      0.1054      0.1767      0.1716      0.3715      0.2078      0.1930      0.1467
145      0.0000      0.0844      0.1653      0.1863      0.0619      0.1431      0.1960      0.0805      0.0528
146      0.0000      0.0439      0.0058      0.1469      0.0895      0.0000      0.0473      0.1568      0.0378
147      0.0000      0.0112      0.0000      0.0000      0.0951      0.0000      0.0000      0.0395      0.0000
148      0.0000      0.0120      0.0000      0.0000      0.0000      0.0000      0.0000      0.0499      0.0283
149      0.0000      0.0254      0.0000      0.0702      0.0000      0.0000      0.0000      0.0000      0.0000
150      0.0000      0.0242      0.0454      0.0000      0.0000      0.0000      0.0000      0.0354      0.0000

# j      m_j: min, <> & last-chain-values for 1 ...  7 chains
  1  0.0000E+00  4.8429E-05  0.0000E+00  0.0000E+00  0.0000E+00  0.0000E+00  0.0000E+00  0.0000E+00  0.0000E+00
  2  1.8012E-02  1.3260E-02  1.4286E-02  1.3954E-02  1.4414E-02  1.4194E-02  1.4119E-02  1.3285E-02  1.4416E-02
  3  0.0000E+00  7.7934E-05  0.0000E+00  7.5925E-05  0.0000E+00  0.0000E+00  0.0000E+00  0.0000E+00  0.0000E+00
  4  0.0000E+00  2.6653E-05  0.0000E+00  0.0000E+00  1.1060E-04  0.0000E+00  0.0000E+00  0.0000E+00  0.0000E+00
  5  0.0000E+00  5.0225E-05  0.0000E+00  1.2670E-05  0.0000E+00  0.0000E+00  0.0000E+00  0.0000E+00  0.0000E+00
  6  0.0000E+00  5.2055E-05  0.0000E+00  0.0000E+00  0.0000E+00  0.0000E+00  0.0000E+00  0.0000E+00  0.0000E+00
  7  0.0000E+00  8.1399E-05  0.0000E+00  0.0000E+00  0.0000E+00  0.0000E+00  0.0000E+00  0.0000E+00  0.0000E+00
  8  0.0000E+00  2.4263E-04  0.0000E+00  1.3585E-04  0.0000E+00  0.0000E+00  0.0000E+00  0.0000E+00  0.0000E+00
  9  0.0000E+00  2.6887E-04  0.0000E+00  0.0000E+00  0.0000E+00  0.0000E+00  0.0000E+00  0.0000E+00  0.0000E+00
 10  0.0000E+00  3.2623E-04  0.0000E+00  0.0000E+00  0.0000E+00  0.0000E+00  0.0000E+00  0.0000E+00  0.0000E+00
 11  0.0000E+00  1.0293E-03  0.0000E+00  3.3849E-03  1.2212E-03  1.2208E-03  0.0000E+00  0.0000E+00  0.0000E+00
 12  0.0000E+00  8.6180E-04  0.0000E+00  0.0000E+00  0.0000E+00  0.0000E+00  0.0000E+00  0.0000E+00  0.0000E+00
 13  0.0000E+00  7.2671E-04  0.0000E+00  0.0000E+00  1.8164E-03  0.0000E+00  0.0000E+00  0.0000E+00  0.0000E+00
 14  0.0000E+00  1.0338E-03  7.4695E-03  0.0000E+00  0.0000E+00  0.0000E+00  0.0000E+00  0.0000E+00  0.0000E+00
 15  0.0000E+00  2.4124E-03  0.0000E+00  0.0000E+00  8.2964E-03  1.6619E-02  0.0000E+00  2.0425E-02  0.0000E+00
 16  0.0000E+00  4.9165E-03  0.0000E+00  2.3488E-04  0.0000E+00  3.0116E-03  5.1368E-03  0.0000E+00  0.0000E+00
 17  0.0000E+00  8.1851E-03  0.0000E+00  0.0000E+00  0.0000E+00  0.0000E+00  0.0000E+00  5.8003E-02  8.7147E-03
 18  0.0000E+00  1.4630E-02  3.9363E-02  0.0000E+00  4.8362E-02  0.0000E+00  0.0000E+00  0.0000E+00  0.0000E+00
 19  0.0000E+00  4.2059E-02  1.0376E-01  1.8044E-01  2.0979E-02  9.3951E-02  0.0000E+00  6.1871E-02  5.6091E-02
 20  1.4501E-01  1.1224E-01  2.1231E-01  5.9114E-01  2.5027E-01  3.6750E-01  2.9506E-01  5.0348E-02  0.0000E+00
 21  0.0000E+00  1.6099E-01  0.0000E+00  5.3997E-01  0.0000E+00  1.9583E-01  0.0000E+00  3.9003E-01  2.1789E-01
 22  0.0000E+00  1.7889E-01  0.0000E+00  0.0000E+00  2.2825E-02  0.0000E+00  5.7607E-02  0.0000E+00  0.0000E+00
 23  0.0000E+00  2.1575E-01  0.0000E+00  1.6991E-01  3.4674E-01  0.0000E+00  2.1888E-01  4.7285E-01  1.0046E+00
 24  0.0000E+00  2.4449E-01  0.0000E+00  0.0000E+00  0.0000E+00  2.7147E-01  0.0000E+00  3.0095E-02  1.5193E-01
 25  0.0000E+00  3.1703E-01  1.0176E+00  0.0000E+00  2.1740E-01  3.4396E-01  0.0000E+00  5.1929E-04  3.7177E-01
 26  0.0000E+00  4.7062E-05  0.0000E+00  0.0000E+00  0.0000E+00  0.0000E+00  0.0000E+00  0.0000E+00  0.0000E+00
 27  0.0000E+00  3.0216E-05  0.0000E+00  3.5619E-05  0.0000E+00  3.9730E-05  1.8053E-05  0.0000E+00  0.0000E+00
 28  0.0000E+00  2.0167E-05  0.0000E+00  0.0000E+00  0.0000E+00  0.0000E+00  0.0000E+00  2.7585E-04  6.3750E-05
 29  0.0000E+00  2.2161E-05  0.0000E+00  0.0000E+00  0.0000E+00  2.6982E-04  5.0154E-05  0.0000E+00  0.0000E+00
 30  0.0000E+00  3.2870E-05  0.0000E+00  0.0000E+00  1.2096E-04  0.0000E+00  5.6244E-05  0.0000E+00  0.0000E+00
 31  0.0000E+00  4.9163E-05  0.0000E+00  0.0000E+00  0.0000E+00  0.0000E+00  0.0000E+00  0.0000E+00  0.0000E+00
 32  0.0000E+00  1.1368E-04  7.4763E-04  0.0000E+00  0.0000E+00  0.0000E+00  0.0000E+00  0.0000E+00  0.0000E+00
 33  0.0000E+00  1.9333E-04  0.0000E+00  0.0000E+00  1.9440E-04  0.0000E+00  0.0000E+00  0.0000E+00  0.0000E+00
 34  0.0000E+00  4.1212E-04  0.0000E+00  1.4936E-04  0.0000E+00  7.5821E-04  0.0000E+00  0.0000E+00  0.0000E+00
 35  0.0000E+00  4.8825E-04  3.1497E-04  0.0000E+00  0.0000E+00  0.0000E+00  0.0000E+00  0.0000E+00  0.0000E+00
 36  0.0000E+00  5.8751E-04  0.0000E+00  0.0000E+00  0.0000E+00  0.0000E+00  0.0000E+00  0.0000E+00  5.0289E-03
 37  0.0000E+00  7.8759E-04  0.0000E+00  0.0000E+00  2.8972E-03  4.3992E-04  0.0000E+00  0.0000E+00  0.0000E+00
 38  0.0000E+00  6.2504E-04  0.0000E+00  0.0000E+00  0.0000E+00  0.0000E+00  0.0000E+00  0.0000E+00  0.0000E+00
 39  0.0000E+00  1.3682E-03  0.0000E+00  0.0000E+00  0.0000E+00  0.0000E+00  0.0000E+00  1.2053E-03  0.0000E+00
 40  0.0000E+00  3.7065E-03  0.0000E+00  0.0000E+00  0.0000E+00  0.0000E+00  1.7838E-02  0.0000E+00  4.5100E-03
 41  0.0000E+00  7.9890E-03  4.1943E-02  3.7922E-02  0.0000E+00  0.0000E+00  0.0000E+00  0.0000E+00  0.0000E+00
 42  0.0000E+00  1.2700E-02  0.0000E+00  0.0000E+00  0.0000E+00  0.0000E+00  0.0000E+00  0.0000E+00  0.0000E+00
 43  7.3622E-01  6.9436E-01  6.8346E-01  6.6493E-01  8.0680E-01  9.4333E-01  8.8531E-01  7.2014E-01  5.0910E-01
 44  1.5724E+01  1.2473E+01  1.2786E+01  1.2772E+01  1.2735E+01  1.2916E+01  1.3254E+01  1.2885E+01  1.2492E+01
 45  1.2258E+00  5.1048E-01  6.8659E-01  9.4781E-01  4.6814E-01  4.3547E-01  7.4718E-01  7.3941E-01  5.2989E-01
 46  1.2375E+01  9.6081E+00  9.2350E+00  9.9297E+00  9.2964E+00  9.8214E+00  9.5246E+00  9.6556E+00  8.3441E+00
 47  2.4711E+01  3.0873E+01  3.1678E+01  2.9888E+01  3.1402E+01  3.1418E+01  2.9348E+01  3.1137E+01  3.1561E+01
 48  1.9630E-01  5.0061E-01  0.0000E+00  0.0000E+00  1.2792E+00  4.2962E-01  3.1610E-01  3.8007E-01  5.6388E-01
 49  0.0000E+00  5.1817E-01  9.6861E-01  5.1209E-01  5.3088E-02  7.9890E-01  2.0650E+00  2.9949E-01  0.0000E+00
 50  0.0000E+00  6.8737E-01  0.0000E+00  3.7675E-01  4.3548E-01  0.0000E+00  1.7013E-01  0.0000E+00  1.4517E+00
 51  0.0000E+00  2.9419E-05  0.0000E+00  0.0000E+00  0.0000E+00  0.0000E+00  0.0000E+00  2.2169E-04  0.0000E+00
 52  0.0000E+00  6.6137E-05  0.0000E+00  0.0000E+00  0.0000E+00  5.0106E-04  0.0000E+00  0.0000E+00  0.0000E+00
 53  0.0000E+00  3.4696E-05  0.0000E+00  3.6789E-04  0.0000E+00  0.0000E+00  0.0000E+00  0.0000E+00  0.0000E+00
 54  0.0000E+00  7.3391E-05  1.5765E-05  6.0754E-05  7.0943E-04  0.0000E+00  7.1657E-05  0.0000E+00  4.5828E-04
 55  0.0000E+00  9.6189E-05  7.6815E-04  0.0000E+00  0.0000E+00  0.0000E+00  0.0000E+00  0.0000E+00  0.0000E+00
 56  0.0000E+00  8.7917E-05  6.3245E-04  4.0515E-04  0.0000E+00  0.0000E+00  0.0000E+00  1.3215E-03  0.0000E+00
 57  0.0000E+00  1.3673E-04  0.0000E+00  6.7754E-04  0.0000E+00  0.0000E+00  0.0000E+00  0.0000E+00  0.0000E+00
 58  0.0000E+00  1.4883E-04  1.0557E-04  1.9147E-03  0.0000E+00  0.0000E+00  0.0000E+00  0.0000E+00  4.4656E-05
 59  0.0000E+00  2.5019E-04  1.3064E-04  0.0000E+00  2.0673E-03  0.0000E+00  0.0000E+00  0.0000E+00  0.0000E+00
 60  0.0000E+00  3.7092E-04  0.0000E+00  0.0000E+00  4.0958E-04  1.6025E-03  0.0000E+00  4.6046E-04  2.9407E-04
 61  0.0000E+00  6.7179E-04  0.0000E+00  0.0000E+00  0.0000E+00  0.0000E+00  0.0000E+00  0.0000E+00  0.0000E+00
 62  0.0000E+00  1.0314E-03  0.0000E+00  0.0000E+00  0.0000E+00  0.0000E+00  0.0000E+00  0.0000E+00  0.0000E+00
 63  0.0000E+00  1.1005E-03  0.0000E+00  0.0000E+00  0.0000E+00  0.0000E+00  2.2931E-03  0.0000E+00  0.0000E+00
 64  0.0000E+00  2.7591E-03  0.0000E+00  0.0000E+00  0.0000E+00  0.0000E+00  0.0000E+00  0.0000E+00  0.0000E+00
 65  0.0000E+00  1.4560E-02  2.9991E-02  0.0000E+00  0.0000E+00  0.0000E+00  0.0000E+00  0.0000E+00  9.0093E-02
 66  0.0000E+00  1.4958E-02  6.9098E-04  0.0000E+00  0.0000E+00  0.0000E+00  1.3833E-02  6.3890E-03  0.0000E+00
 67  3.4583E-03  3.8873E-02  0.0000E+00  0.0000E+00  7.8521E-02  0.0000E+00  0.0000E+00  0.0000E+00  4.8779E-03
 68  2.6393E+01  2.5247E+01  2.5630E+01  2.5862E+01  2.5971E+01  2.6127E+01  2.5749E+01  2.5412E+01  2.5270E+01
 69  0.0000E+00  2.7276E-01  1.8001E-01  0.0000E+00  0.0000E+00  6.8474E-01  2.0557E-02  2.1102E-01  3.2215E-01
 70  1.9942E+00  3.2841E-01  1.7253E-01  4.2600E-01  5.1327E-01  7.3263E-02  6.4005E-01  0.0000E+00  7.0569E-01
 71  2.3532E+00  4.2741E-01  4.4972E-01  4.1929E-01  7.5209E-01  3.9729E-01  8.4900E-01  2.0542E-01  0.0000E+00
 72  0.0000E+00  4.0602E-01  3.3684E-01  9.4101E-01  0.0000E+00  0.0000E+00  1.7891E+00  4.0907E-01  2.3963E-01
 73  0.0000E+00  4.2650E-01  6.5794E-01  0.0000E+00  1.8377E-02  1.0667E-02  3.8841E-01  7.0637E-02  8.0842E-01
 74  0.0000E+00  4.1848E-01  6.5525E-01  0.0000E+00  3.7974E-01  5.3917E-01  0.0000E+00  1.1378E+00  4.8316E-01
 75  2.0614E+00  7.8535E-01  8.5958E-02  1.3985E+00  9.4374E-01  4.0775E-01  6.3966E-01  5.6577E-01  1.4483E+00
 76  0.0000E+00  2.8171E-05  0.0000E+00  0.0000E+00  0.0000E+00  0.0000E+00  0.0000E+00  9.4087E-08  0.0000E+00
 77  0.0000E+00  8.6820E-06  0.0000E+00  0.0000E+00  0.0000E+00  0.0000E+00  0.0000E+00  0.0000E+00  0.0000E+00
 78  0.0000E+00  1.7713E-05  0.0000E+00  0.0000E+00  0.0000E+00  0.0000E+00  0.0000E+00  0.0000E+00  0.0000E+00
 79  0.0000E+00  5.9013E-05  0.0000E+00  0.0000E+00  0.0000E+00  0.0000E+00  0.0000E+00  0.0000E+00  0.0000E+00
 80  0.0000E+00  6.8434E-05  0.0000E+00  0.0000E+00  0.0000E+00  0.0000E+00  0.0000E+00  0.0000E+00  3.1417E-04
 81  0.0000E+00  5.3737E-05  0.0000E+00  0.0000E+00  0.0000E+00  0.0000E+00  0.0000E+00  0.0000E+00  0.0000E+00
 82  0.0000E+00  9.6210E-05  0.0000E+00  0.0000E+00  0.0000E+00  7.3203E-04  6.2162E-04  0.0000E+00  0.0000E+00
 83  0.0000E+00  1.2296E-04  0.0000E+00  0.0000E+00  0.0000E+00  0.0000E+00  0.0000E+00  0.0000E+00  0.0000E+00
 84  0.0000E+00  2.7555E-04  0.0000E+00  0.0000E+00  0.0000E+00  0.0000E+00  0.0000E+00  1.3980E-03  2.6571E-04
 85  0.0000E+00  2.2848E-04  0.0000E+00  0.0000E+00  0.0000E+00  0.0000E+00  7.0113E-04  0.0000E+00  0.0000E+00
 86  0.0000E+00  6.1057E-04  7.1254E-05  0.0000E+00  0.0000E+00  0.0000E+00  0.0000E+00  0.0000E+00  1.6426E-04
 87  0.0000E+00  6.0131E-04  0.0000E+00  0.0000E+00  0.0000E+00  0.0000E+00  0.0000E+00  0.0000E+00  0.0000E+00
 88  0.0000E+00  1.0857E-03  0.0000E+00  0.0000E+00  0.0000E+00  0.0000E+00  0.0000E+00  0.0000E+00  0.0000E+00
 89  0.0000E+00  3.9868E-03  7.9556E-03  0.0000E+00  0.0000E+00  6.4848E-04  0.0000E+00  0.0000E+00  2.3339E-03
 90  0.0000E+00  8.2806E-03  0.0000E+00  0.0000E+00  1.2958E-02  0.0000E+00  4.6058E-02  3.9473E-03  0.0000E+00
 91  0.0000E+00  1.1031E-02  0.0000E+00  0.0000E+00  0.0000E+00  0.0000E+00  0.0000E+00  0.0000E+00  0.0000E+00
 92  0.0000E+00  2.3852E-02  0.0000E+00  0.0000E+00  0.0000E+00  0.0000E+00  3.9672E-02  0.0000E+00  0.0000E+00
 93  0.0000E+00  7.4962E-02  7.6806E-02  0.0000E+00  0.0000E+00  1.5349E-01  0.0000E+00  5.4817E-02  6.7488E-02
 94  0.0000E+00  2.2166E-01  4.4409E-01  2.1711E-01  0.0000E+00  0.0000E+00  8.7325E-02  2.0037E-01  0.0000E+00
 95  0.0000E+00  1.3055E-01  0.0000E+00  0.0000E+00  1.5844E-02  3.5940E-01  4.5585E-02  2.9538E-01  6.1478E-01
 96  0.0000E+00  1.4601E-01  0.0000E+00  0.0000E+00  0.0000E+00  0.0000E+00  0.0000E+00  6.1738E-02  6.5639E-01
 97  0.0000E+00  2.2167E-01  2.5573E-01  0.0000E+00  0.0000E+00  0.0000E+00  0.0000E+00  0.0000E+00  7.2340E-03
 98  0.0000E+00  1.3834E-01  7.9708E-01  0.0000E+00  5.7393E-01  0.0000E+00  1.7808E-01  3.6542E-01  3.0347E-01
 99  0.0000E+00  1.7942E-01  0.0000E+00  0.0000E+00  0.0000E+00  0.0000E+00  0.0000E+00  0.0000E+00  0.0000E+00
100  0.0000E+00  1.0782E-01  0.0000E+00  0.0000E+00  0.0000E+00  0.0000E+00  0.0000E+00  3.5713E-01  0.0000E+00
101  0.0000E+00  1.7357E-05  0.0000E+00  0.0000E+00  0.0000E+00  0.0000E+00  0.0000E+00  0.0000E+00  0.0000E+00
102  0.0000E+00  8.3718E-06  0.0000E+00  0.0000E+00  0.0000E+00  0.0000E+00  0.0000E+00  0.0000E+00  0.0000E+00
103  0.0000E+00  2.1123E-05  0.0000E+00  2.0501E-05  0.0000E+00  0.0000E+00  0.0000E+00  0.0000E+00  0.0000E+00
104  0.0000E+00  4.2180E-05  0.0000E+00  0.0000E+00  0.0000E+00  0.0000E+00  0.0000E+00  0.0000E+00  0.0000E+00
105  0.0000E+00  4.8747E-05  0.0000E+00  0.0000E+00  0.0000E+00  0.0000E+00  0.0000E+00  0.0000E+00  0.0000E+00
106  0.0000E+00  7.1526E-05  0.0000E+00  0.0000E+00  0.0000E+00  0.0000E+00  2.4756E-04  0.0000E+00  0.0000E+00
107  0.0000E+00  6.1907E-05  0.0000E+00  0.0000E+00  0.0000E+00  0.0000E+00  0.0000E+00  0.0000E+00  0.0000E+00
108  0.0000E+00  1.0699E-04  0.0000E+00  0.0000E+00  0.0000E+00  0.0000E+00  0.0000E+00  4.8949E-05  0.0000E+00
109  0.0000E+00  1.8238E-04  0.0000E+00  4.2397E-04  0.0000E+00  0.0000E+00  0.0000E+00  0.0000E+00  0.0000E+00
110  0.0000E+00  3.3988E-04  0.0000E+00  0.0000E+00  0.0000E+00  0.0000E+00  3.0560E-03  0.0000E+00  0.0000E+00
111  0.0000E+00  3.9340E-04  0.0000E+00  0.0000E+00  0.0000E+00  0.0000E+00  2.4730E-04  0.0000E+00  0.0000E+00
112  0.0000E+00  7.0068E-04  0.0000E+00  0.0000E+00  0.0000E+00  0.0000E+00  0.0000E+00  0.0000E+00  0.0000E+00
113  0.0000E+00  7.4513E-04  0.0000E+00  0.0000E+00  0.0000E+00  0.0000E+00  0.0000E+00  0.0000E+00  0.0000E+00
114  0.0000E+00  2.4001E-03  0.0000E+00  0.0000E+00  0.0000E+00  0.0000E+00  1.9497E-02  0.0000E+00  0.0000E+00
115  0.0000E+00  3.2261E-02  2.2603E-02  4.8773E-02  3.8467E-02  0.0000E+00  0.0000E+00  4.5922E-02  0.0000E+00
116  0.0000E+00  5.3880E-02  5.5701E-03  0.0000E+00  0.0000E+00  0.0000E+00  1.5654E-02  0.0000E+00  5.0464E-02
117  0.0000E+00  5.9984E-02  0.0000E+00  0.0000E+00  0.0000E+00  0.0000E+00  0.0000E+00  0.0000E+00  0.0000E+00
118  0.0000E+00  1.1869E-01  0.0000E+00  0.0000E+00  1.8991E-03  1.2739E-01  2.1753E-01  0.0000E+00  0.0000E+00
119  0.0000E+00  4.9796E-02  0.0000E+00  0.0000E+00  0.0000E+00  2.0034E-01  0.0000E+00  0.0000E+00  5.9441E-04
120  0.0000E+00  5.8720E-02  0.0000E+00  0.0000E+00  0.0000E+00  0.0000E+00  0.0000E+00  0.0000E+00  0.0000E+00
121  0.0000E+00  5.2684E-02  0.0000E+00  0.0000E+00  0.0000E+00  0.0000E+00  4.3471E-02  0.0000E+00  0.0000E+00
122  0.0000E+00  8.3619E-02  0.0000E+00  0.0000E+00  2.9118E-01  2.9531E-02  0.0000E+00  0.0000E+00  0.0000E+00
123  0.0000E+00  4.8974E-02  0.0000E+00  0.0000E+00  0.0000E+00  6.6956E-02  0.0000E+00  0.0000E+00  0.0000E+00
124  0.0000E+00  4.4270E-02  0.0000E+00  0.0000E+00  0.0000E+00  0.0000E+00  0.0000E+00  0.0000E+00  0.0000E+00
125  0.0000E+00  6.7475E-02  0.0000E+00  0.0000E+00  0.0000E+00  0.0000E+00  1.6800E-01  0.0000E+00  0.0000E+00
126  0.0000E+00  7.8304E-06  0.0000E+00  0.0000E+00  6.1151E-06  0.0000E+00  0.0000E+00  0.0000E+00  0.0000E+00
127  0.0000E+00  1.1778E-05  0.0000E+00  0.0000E+00  0.0000E+00  0.0000E+00  0.0000E+00  0.0000E+00  0.0000E+00
128  0.0000E+00  3.8839E-05  0.0000E+00  0.0000E+00  0.0000E+00  0.0000E+00  5.1231E-06  0.0000E+00  0.0000E+00
129  0.0000E+00  3.1166E-05  0.0000E+00  0.0000E+00  0.0000E+00  0.0000E+00  0.0000E+00  1.5609E-04  0.0000E+00
130  0.0000E+00  4.4784E-05  0.0000E+00  0.0000E+00  0.0000E+00  0.0000E+00  1.7349E-03  0.0000E+00  0.0000E+00
131  0.0000E+00  3.1386E-05  0.0000E+00  0.0000E+00  0.0000E+00  0.0000E+00  0.0000E+00  0.0000E+00  0.0000E+00
132  0.0000E+00  8.0678E-05  0.0000E+00  0.0000E+00  0.0000E+00  0.0000E+00  0.0000E+00  0.0000E+00  0.0000E+00
133  0.0000E+00  1.1443E-04  0.0000E+00  0.0000E+00  0.0000E+00  1.0418E-04  0.0000E+00  0.0000E+00  0.0000E+00
134  0.0000E+00  1.9664E-04  1.7407E-03  0.0000E+00  0.0000E+00  0.0000E+00  0.0000E+00  0.0000E+00  0.0000E+00
135  0.0000E+00  3.8980E-04  0.0000E+00  3.5686E-04  0.0000E+00  0.0000E+00  0.0000E+00  0.0000E+00  0.0000E+00
136  0.0000E+00  5.2308E-04  0.0000E+00  0.0000E+00  0.0000E+00  4.1550E-04  0.0000E+00  0.0000E+00  0.0000E+00
137  0.0000E+00  5.9487E-04  2.7359E-03  0.0000E+00  0.0000E+00  0.0000E+00  0.0000E+00  0.0000E+00  0.0000E+00
138  0.0000E+00  2.3371E-03  0.0000E+00  0.0000E+00  0.0000E+00  0.0000E+00  0.0000E+00  0.0000E+00  0.0000E+00
139  0.0000E+00  1.0118E-02  2.9535E-02  2.4442E-02  1.8757E-02  0.0000E+00  0.0000E+00  6.6398E-03  4.4054E-02
140  0.0000E+00  7.3028E-02  0.0000E+00  0.0000E+00  0.0000E+00  0.0000E+00  1.4065E-02  0.0000E+00  4.6300E-02
141  9.6062E+00  9.2956E+00  9.4166E+00  9.8909E+00  9.0746E+00  9.7219E+00  9.2785E+00  9.2415E+00  9.3292E+00
142  1.4000E+00  5.1456E-01  6.3500E-01  3.3828E-01  7.6557E-01  7.2973E-01  5.5005E-01  5.8216E-01  2.6134E-01
143  1.0579E+00  1.6385E-01  4.3846E-01  0.0000E+00  6.2221E-01  0.0000E+00  1.2014E-02  0.0000E+00  4.9133E-01
144  0.0000E+00  5.6959E-01  4.0749E-01  6.8476E-01  6.6346E-01  1.4586E+00  8.0661E-01  7.3746E-01  5.5947E-01
145  0.0000E+00  4.8217E-01  9.5114E-01  1.0747E+00  3.5628E-01  8.3642E-01  1.1330E+00  4.5770E-01  2.9996E-01
146  0.0000E+00  2.9956E-01  3.9955E-02  1.0120E+00  6.1491E-01  0.0000E+00  3.2666E-01  1.0650E+00  2.5620E-01
147  0.0000E+00  1.0275E-01  0.0000E+00  0.0000E+00  8.7849E-01  0.0000E+00  0.0000E+00  3.6056E-01  0.0000E+00
148  0.0000E+00  1.4869E-01  0.0000E+00  0.0000E+00  0.0000E+00  0.0000E+00  0.0000E+00  6.1736E-01  3.4939E-01
149  0.0000E+00  3.6969E-01  0.0000E+00  1.0303E+00  0.0000E+00  0.0000E+00  0.0000E+00  0.0000E+00  0.0000E+00
150  0.0000E+00  4.1891E-01  7.9203E-01  0.0000E+00  0.0000E+00  0.0000E+00  0.0000E+00  6.0985E-01  0.0000E+00

# AV, chi2 & Mass for <> & i_chain = 1 ...  7 solutions
AV       0.0800      0.0731      0.0737      0.0736      0.0737      0.0728      0.0744      0.0712      0.0720
chi2 2.7475E+00  2.8234E+00  2.7998E+00  2.7954E+00  2.7891E+00  2.7938E+00  2.8023E+00  2.8036E+00  2.8028E+00
Mass 6.6474E-10  6.9789E-10  6.9311E-10  6.9135E-10  6.9293E-10  6.8155E-10  6.9078E-10  6.9891E-10  7.0080E-10
  -5.27                                  [v0_min (km/s) before EX0s...]
  58.10                                  [vd_min (km/s) before EX0s...]


## Synthetic spectrum (Best Model) ##l_obs f_obs f_syn wei
 3070    [Nl_obs]
 3359.00    0.23931   0.44368   -1.000
 3360.00    0.22817   0.41973   -1.000
 3361.00    0.23060   0.42460   -1.000
 3362.00    0.24838   0.45408   -1.000
 3363.00    0.26918   0.49308   -1.000
 3364.00    0.29386   0.51986   -1.000
 3365.00    0.30567   0.52269   -1.000
 3366.00    0.30446   0.50937   -1.000
 3367.00    0.29837   0.49112   -1.000
 3368.00    0.29442   0.47556   -1.000
 3369.00    0.29261   0.46304   -1.000
 3370.00    0.28547   0.44875   -1.000
 3371.00    0.28022   0.43767   -1.000
 3372.00    0.28499   0.43934   -1.000
 3373.00    0.29941   0.45815   -1.000
 3374.00    0.31899   0.48855   -1.000
 3375.00    0.34321   0.52004   -1.000
 3376.00    0.36267   0.53732   -1.000
 3377.00    0.36830   0.53240   -1.000
 3378.00    0.36187   0.51137   -1.000
 3379.00    0.35627   0.49042   -1.000
 3380.00    0.35206   0.48353   -1.000
 3381.00    0.35165   0.49063   -1.000
 3382.00    0.36364   0.50427   -1.000
 3383.00    0.37863   0.51676   -1.000
 3384.00    0.38835   0.52713   -1.000
 3385.00    0.38920   0.53559   -1.000
 3386.00    0.39087   0.53562   -1.000
 3387.00    0.39588   0.52741   -1.000
 3388.00    0.39466   0.52183   -1.000
 3389.00    0.40048   0.52509   -1.000
 3390.00    0.40832   0.53010   -1.000
 3391.00    0.40975   0.52742   -1.000
 3392.00    0.40384   0.51494   -1.000
 3393.00    0.40334   0.50626   -1.000
 3394.00    0.41609   0.51289   -1.000
 3395.00    0.42872   0.53209   -1.000
 3396.00    0.43962   0.55574   -1.000
 3397.00    0.45305   0.57576   -1.000
 3398.00    0.46948   0.58915   -1.000
 3399.00    0.47953   0.59256   -1.000
 3400.00    0.48130   0.58475   -1.000
 3401.00    0.47571   0.56802   -1.000
 3402.00    0.46102   0.54733   -1.000
 3403.00    0.45385   0.53276   -1.000
 3404.00    0.44999   0.52726   -1.000
 3405.00    0.45063   0.52752   -1.000
 3406.00    0.44772   0.52485   -1.000
 3407.00    0.43483   0.51602   -1.000
 3408.00    0.42927   0.50843   -1.000
 3409.00    0.43015   0.51226   -1.000
 3410.00    0.43542   0.52368   -1.000
 3411.00    0.44237   0.52802   -1.000
 3412.00    0.44062   0.52089   -1.000
 3413.00    0.43880   0.50901   -1.000
 3414.00    0.43607   0.50579   -1.000
 3415.00    0.44078   0.51574   -1.000
 3416.00    0.44953   0.53225   -1.000
 3417.00    0.46087   0.54887   -1.000
 3418.00    0.47690   0.56360   -1.000
 3419.00    0.49133   0.57476   -1.000
 3420.00    0.49593   0.57923   -1.000
 3421.00    0.49404   0.57287   -1.000
 3422.00    0.49214   0.55762   -1.000
 3423.00    0.48536   0.54262   -1.000
 3424.00    0.47636   0.53665   -1.000
 3425.00    0.47888   0.53974   -1.000
 3426.00    0.47946   0.54773   -1.000
 3427.00    0.48338   0.56164   -1.000
 3428.00    0.49671   0.58235   -1.000
 3429.00    0.51497   0.60009   -1.000
 3430.00    0.52510   0.60225   -1.000
 3431.00    0.52416   0.58479   -1.000
 3432.00    0.51339   0.56270   -1.000
 3433.00    0.50175   0.55330   -1.000
 3434.00    0.50330   0.56133   -1.000
 3435.00    0.51710   0.57520   -1.000
 3436.00    0.51992   0.57804   -1.000
 3437.00    0.51212   0.56674   -1.000
 3438.00    0.49882   0.54627   -1.000
 3439.00    0.47971   0.52114   -1.000
 3440.00    0.45916   0.49489   -1.000
 3441.00    0.44339   0.47411   96.778
 3442.00    0.44203   0.46621   91.427
 3443.00    0.44547   0.47157   87.586
 3444.00    0.45543   0.48529   -1.000
 3445.00    0.47640   0.50435   -1.000
 3446.00    0.49262   0.52913   -1.000
 3447.00    0.51282   0.55678   -1.000
 3448.00    0.52901   0.57995   -1.000
 3449.00    0.53570   0.59064   -1.000
 3450.00    0.54149   0.58232   -1.000
 3451.00    0.53833   0.56064   -1.000
 3452.00    0.53710   0.54001  667.968
 3453.00    0.53186   0.53294  667.968
 3454.00    0.53497   0.53903  667.968
 3455.00    0.53801   0.54935  123.070
 3456.00    0.53750   0.55343   85.064
 3457.00    0.53749   0.54755   85.087
 3458.00    0.53034   0.53578  203.981
 3459.00    0.52199   0.52214  667.968
 3460.00    0.51458   0.51003   -1.000
 3461.00    0.52005   0.50815   -1.000
 3462.00    0.53027   0.52087   -1.000
 3463.00    0.53889   0.53692  667.968
 3464.00    0.55057   0.54496   -1.000
 3465.00    0.55472   0.54411   -1.000
 3466.00    0.55173   0.54505   -1.000
 3467.00    0.55537   0.55530  667.968
 3468.00    0.57413   0.57074  667.968
 3469.00    0.58882   0.58326   -1.000
 3470.00    0.58810   0.58679  667.968
 3471.00    0.58153   0.58003  121.403
 3472.00    0.57329   0.56429   87.147
 3473.00    0.55215   0.54082   86.909
 3474.00    0.52757   0.51635  213.677
 3475.00    0.50762   0.50121   -1.000
 3476.00    0.49779   0.50300   -1.000
 3477.00    0.51379   0.52149   -1.000
 3478.00    0.54350   0.54489  667.968
 3479.00    0.56456   0.56348  667.968
 3480.00    0.58678   0.57333   -1.000
 3481.00    0.58714   0.57308   -1.000
 3482.00    0.57499   0.56595   -1.000
 3483.00    0.57125   0.55842   -1.000
 3484.00    0.57112   0.55769   -1.000
 3485.00    0.58250   0.56815   -1.000
 3486.00    0.59595   0.58243   -1.000
 3487.00    0.59946   0.58500   -1.000
 3488.00    0.59489   0.57152   -1.000
 3489.00    0.57466   0.54974   -1.000
 3490.00    0.55047   0.53458   -1.000
 3491.00    0.54223   0.53541   -1.000
 3492.00    0.54594   0.54459  667.968
 3493.00    0.55556   0.54904   -1.000
 3494.00    0.56078   0.54331   -1.000
 3495.00    0.55200   0.53118   -1.000
 3496.00    0.53812   0.52320   -1.000
 3497.00    0.53815   0.52939   -1.000
 3498.00    0.55821   0.54610   -1.000
 3499.00    0.57969   0.56141   -1.000
 3500.00    0.59740   0.56825   -1.000
 3501.00    0.59934   0.57075   -1.000
 3502.00    0.60645   0.57558   -1.000
 3503.00    0.61523   0.58009   -1.000
 3504.00    0.61067   0.57739   -1.000
 3505.00    0.60322   0.56798   -1.000
 3506.00    0.59127   0.55984   -1.000
 3507.00    0.58884   0.55650   -1.000
 3508.00    0.58994   0.55563   -1.000
 3509.00    0.58772   0.55394   -1.000
 3510.00    0.58061   0.54941   -1.000
 3511.00    0.57255   0.54306   -1.000
 3512.00    0.56402   0.53504   -1.000
 3513.00    0.56185   0.52795   -1.000
 3514.00    0.55703   0.53020   -1.000
 3515.00    0.56556   0.54675   -1.000
 3516.00    0.57996   0.57325   -1.000
 3517.00    0.60227   0.59512   -1.000
 3518.00    0.60583   0.59890   -1.000
 3519.00    0.59324   0.58434   -1.000
 3520.00    0.57630   0.56267  112.966
 3521.00    0.56383   0.54493   86.459
 3522.00    0.55431   0.53173   86.904
 3523.00    0.53868   0.51787   -1.000
 3524.00    0.52480   0.50311   -1.000
 3525.00    0.51611   0.49577   -1.000
 3526.00    0.51349   0.50507   -1.000
 3527.00    0.52813   0.52829  667.968
 3528.00    0.55792   0.55505  667.968
 3529.00    0.58483   0.57523   -1.000
 3530.00    0.59101   0.58402   -1.000
 3531.00    0.58732   0.58412  667.968
 3532.00    0.58737   0.57892   -1.000
 3533.00    0.59041   0.57277   -1.000
 3534.00    0.58881   0.57076   -1.000
 3535.00    0.59059   0.57500   -1.000
 3536.00    0.59556   0.58649   -1.000
 3537.00    0.59534   0.60150   -1.000
 3538.00    0.60375   0.61402   -1.000
 3539.00    0.60936   0.61986   -1.000
 3540.00    0.60251   0.61719   -1.000
 3541.00    0.60218   0.61211   -1.000
 3542.00    0.59538   0.61254   -1.000
 3543.00    0.60260   0.61913   -1.000
 3544.00    0.60579   0.62512   -1.000
 3545.00    0.60566   0.62433   -1.000
 3546.00    0.60428   0.61869   -1.000
 3547.00    0.59835   0.61353   -1.000
 3548.00    0.59771   0.61299   -1.000
 3549.00    0.59934   0.61725   -1.000
 3550.00    0.60037   0.62224   -1.000
 3551.00    0.59300   0.62264   -1.000
 3552.00    0.57752   0.61435   -1.000
 3553.00    0.57293   0.60232   -1.000
 3554.00    0.56874   0.59558   -1.000
 3555.00    0.57600   0.59727   -1.000
 3556.00    0.57950   0.60401   -1.000
 3557.00    0.57531   0.61014   -1.000
 3558.00    0.57993   0.61154   -1.000
 3559.00    0.57734   0.61025   -1.000
 3560.00    0.57706   0.61193   -1.000
 3561.00    0.58374   0.61745   -1.000
 3562.00    0.58898   0.61899   87.788
 3563.00    0.58389   0.60580   87.829
 3564.00    0.56633   0.57675   87.208
 3565.00    0.53502   0.54779   89.391
 3566.00    0.51851   0.53343   91.375
 3567.00    0.51925   0.53168   89.501
 3568.00    0.51407   0.53059   85.734
 3569.00    0.50721   0.52246   -1.000
 3570.00    0.49733   0.51261   -1.000
 3571.00    0.50111   0.51090   -1.000
 3572.00    0.51300   0.51741  667.968
 3573.00    0.52773   0.52576  667.968
 3574.00    0.53536   0.53246  667.968
 3575.00    0.53790   0.53903  110.172
 3576.00    0.54438   0.54621   93.383
 3577.00    0.55577   0.55150   99.044
 3578.00    0.54919   0.54916  100.710
 3579.00    0.53287   0.53473  101.165
 3580.00    0.51367   0.51472  103.269
 3581.00    0.49016   0.49963  106.523
 3582.00    0.48199   0.49436  108.458
 3583.00    0.48371   0.49447  104.359
 3584.00    0.47538   0.48809   98.825
 3585.00    0.46057   0.47322   93.946
 3586.00    0.45198   0.46045   86.254
 3587.00    0.46146   0.46075  284.165
 3588.00    0.48240   0.47797   -1.000
 3589.00    0.49971   0.50675   -1.000
 3590.00    0.52099   0.53660   -1.000
 3591.00    0.55192   0.55760   -1.000
 3592.00    0.56717   0.56690  667.968
 3593.00    0.56509   0.56984  663.801
 3594.00    0.57009   0.57544   -1.000
 3595.00    0.58237   0.58808   -1.000
 3596.00    0.58843   0.60253   -1.000
 3597.00    0.60229   0.61346   -1.000
 3598.00    0.61676   0.62018  667.968
 3599.00    0.62085   0.62210  667.968
 3600.00    0.61701   0.61553  667.968
 3601.00    0.59935   0.59794  667.968
 3602.00    0.58224   0.57619   -1.000
 3603.00    0.56880   0.56081   -1.000
 3604.00    0.55829   0.55740  667.968
 3605.00    0.55510   0.56136   -1.000
 3606.00    0.55993   0.56243  667.968
 3607.00    0.55728   0.55597  667.968
 3608.00    0.54385   0.54501  667.968
 3609.00    0.53816   0.53859  667.968
 3610.00    0.54530   0.54209  667.968
 3611.00    0.55538   0.55145  667.968
 3612.00    0.56064   0.56153  667.968
 3613.00    0.56022   0.57178   -1.000
 3614.00    0.56556   0.58517   -1.000
 3615.00    0.58540   0.59811  100.338
 3616.00    0.58961   0.59584  311.793
 3617.00    0.57346   0.57407  667.968
 3618.00    0.54272   0.54906   -1.000
 3619.00    0.52677   0.54017   -1.000
 3620.00    0.54374   0.55327   -1.000
 3621.00    0.57304   0.57574  632.964
 3622.00    0.59495   0.59413  606.749
 3623.00    0.60761   0.60659  595.143
 3624.00    0.61392   0.62046   -1.000
 3625.00    0.62068   0.64172   -1.000
 3626.00    0.63976   0.66580   -1.000
 3627.00    0.65015   0.68051   -1.000
 3628.00    0.64299   0.67174   -1.000
 3629.00    0.62094   0.63686   -1.000
 3630.00    0.58433   0.59150   -1.000
 3631.00    0.54972   0.55980   -1.000
 3632.00    0.53855   0.55524   -1.000
 3633.00    0.55355   0.56994   -1.000
 3634.00    0.56769   0.58664   -1.000
 3635.00    0.58208   0.59592   -1.000
 3636.00    0.59461   0.60322   -1.000
 3637.00    0.60355   0.61652   -1.000
 3638.00    0.62443   0.63426   -1.000
 3639.00    0.63415   0.64910   -1.000
 3640.00    0.63545   0.65316   -1.000
 3641.00    0.62203   0.64374   -1.000
 3642.00    0.60508   0.62521   -1.000
 3643.00    0.59210   0.60608   -1.000
 3644.00    0.58849   0.59305   -1.000
 3645.00    0.57005   0.58607   -1.000
 3646.00    0.57098   0.58141   -1.000
 3647.00    0.58001   0.57828  658.865
 3648.00    0.57181   0.57798   -1.000
 3649.00    0.57697   0.58199   -1.000
 3650.00    0.58617   0.59202   -1.000
 3651.00    0.59923   0.60811   -1.000
 3652.00    0.61472   0.62700   -1.000
 3653.00    0.62705   0.64401   -1.000
 3654.00    0.63544   0.65711   -1.000
 3655.00    0.64307   0.66797   -1.000
 3656.00    0.64844   0.67802   -1.000
 3657.00    0.65633   0.68526   -1.000
 3658.00    0.66019   0.68797   -1.000
 3659.00    0.66060   0.68699   -1.000
 3660.00    0.65270   0.68231   -1.000
 3661.00    0.64458   0.67340   -1.000
 3662.00    0.64484   0.66264   -1.000
 3663.00    0.63842   0.65446   -1.000
 3664.00    0.63156   0.65303   -1.000
 3665.00    0.64054   0.65622   -1.000
 3666.00    0.64547   0.65779   -1.000
 3667.00    0.63902   0.65304   -1.000
 3668.00    0.62674   0.64248   -1.000
 3669.00    0.62233   0.63539   -1.000
 3670.00    0.61789   0.63871   -1.000
 3671.00    0.62654   0.65058   -1.000
 3672.00    0.63847   0.66301   -1.000
 3673.00    0.64525   0.66855   -1.000
 3674.00    0.64498   0.66593   -1.000
 3675.00    0.64959   0.65587   -1.000
 3676.00    0.64001   0.63954  664.642
 3677.00    0.62191   0.62104  648.659
 3678.00    0.60434   0.60676  629.981
 3679.00    0.59400   0.60194   -1.000
 3680.00    0.59854   0.60542   -1.000
 3681.00    0.60903   0.61315  661.393
 3682.00    0.62151   0.62126  667.968
 3683.00    0.63298   0.62456   -1.000
 3684.00    0.61946   0.61911  667.968
 3685.00    0.60409   0.60551  642.304
 3686.00    0.58711   0.59345   -1.000
 3687.00    0.58364   0.59363   -1.000
 3688.00    0.60108   0.60963   -1.000
 3689.00    0.62576   0.63434   -1.000
 3690.00    0.64615   0.65569   -1.000
 3691.00    0.65133   0.66583   -1.000
 3692.00    0.65147   0.66530   -1.000
 3693.00    0.64959   0.66103   -1.000
 3694.00    0.64963   0.65785   -1.000
 3695.00    0.65475   0.65601  558.631
 3696.00    0.65007   0.65483  550.641
 3697.00    0.64180   0.65945   -1.000
 3698.00    0.65935   0.67536   -1.000
 3699.00    0.68611   0.69676   -1.000
 3700.00    0.70232   0.70913   -1.000
 3701.00    0.68815   0.69796   -1.000
 3702.00    0.65660   0.66148   -1.000
 3703.00    0.62323   0.61467   -1.000
 3704.00    0.58404   0.57619   -1.000
 3705.00    0.55825   0.55958  667.968
 3706.00    0.56970   0.56371   -1.000
 3707.00    0.58771   0.57723   -1.000
 3708.00    0.59656   0.58965   -1.000
 3709.00    0.60358   0.59514   -1.000
 3710.00    0.60677   0.59581   -1.000
 3711.00    0.61372   0.60177   -1.000
 3712.00    0.62846   0.62131   -1.000
 3713.00    0.66155   0.65200   -1.000
 3714.00    0.69856   0.68351   -1.000
 3715.00    0.71235   0.70459   -1.000
 3716.00    0.71385   0.70922   -1.000
 3717.00    0.71005   0.69469   91.749
 3718.00    0.66465   0.65770   -1.000
 3719.00    0.59419   0.60046   -1.000
 3720.00    0.54429   0.54186  638.468
 3721.00    0.51285   0.50929  609.755
 3722.00    0.52477   0.51795   -1.000
 3723.00    0.57388   0.56133   -1.000
 3724.00    0.63322   0.61679   -1.000
 3725.00    0.67616   0.65568   -1.000
 3726.00    0.68751   0.66917   -1.000
 3727.00    0.67194   0.67166  662.394
 3728.00    0.67669   0.67535  667.968
 3729.00    0.68702   0.67855   88.941
 3730.00    0.67642   0.66899   93.519
 3731.00    0.64432   0.63369   97.462
 3732.00    0.60024   0.57499   92.989
 3733.00    0.53186   0.51290   84.393
 3734.00    0.48016   0.46945   -1.000
 3735.00    0.46807   0.45950   -1.000
 3736.00    0.49275   0.48611   -1.000
 3737.00    0.54045   0.53809  625.867
 3738.00    0.61144   0.59942   -1.000
 3739.00    0.65875   0.65461   -1.000
 3740.00    0.69152   0.68917  667.968
 3741.00    0.70234   0.69670   -1.000
 3742.00    0.69466   0.68194   -1.000
 3743.00    0.66680   0.65558   89.002
 3744.00    0.63749   0.62685   90.476
 3745.00    0.60958   0.60001   91.639
 3746.00    0.58279   0.57257   -1.000
 3747.00    0.55032   0.53874   -1.000
 3748.00    0.50930   0.50253   -1.000
 3749.00    0.47462   0.48110   -1.000
 3750.00    0.48872   0.49069  571.045
 3751.00    0.55110   0.53330   -1.000
 3752.00    0.62641   0.59519   -1.000
 3753.00    0.68193   0.65800   -1.000
 3754.00    0.72152   0.70506   -1.000
 3755.00    0.75047   0.72515   -1.000
 3756.00    0.73424   0.71386   -1.000
 3757.00    0.68931   0.68185   -1.000
 3758.00    0.65014   0.65144  650.022
 3759.00    0.64616   0.63981   -1.000
 3760.00    0.66122   0.64738   -1.000
 3761.00    0.68760   0.66230   -1.000
 3762.00    0.69653   0.67430   -1.000
 3763.00    0.70174   0.68020   -1.000
 3764.00    0.69953   0.67848   -1.000
 3765.00    0.69859   0.66810   -1.000
 3766.00    0.68214   0.64998   -1.000
 3767.00    0.64926   0.62497   -1.000
 3768.00    0.63268   0.59487   -1.000
 3769.00    0.61451   0.56687   -1.000
 3770.00    0.59301   0.55376   -1.000
 3771.00    0.60324   0.56757   -1.000
 3772.00    0.64593   0.60499   -1.000
 3773.00    0.68851   0.64763   -1.000
 3774.00    0.71114   0.67938   -1.000
 3775.00    0.72363   0.69823   -1.000
 3776.00    0.73306   0.71234   -1.000
 3777.00    0.74989   0.73026   -1.000
 3778.00    0.75870   0.75393   -1.000
 3779.00    0.79311   0.77869   -1.000
 3780.00    0.81459   0.79825   -1.000
 3781.00    0.82730   0.80881   -1.000
 3782.00    0.82683   0.81124   -1.000
 3783.00    0.82462   0.80722   -1.000
 3784.00    0.81407   0.79461   -1.000
 3785.00    0.79220   0.77151   -1.000
 3786.00    0.75709   0.74341   -1.000
 3787.00    0.73177   0.71872   -1.000
 3788.00    0.71720   0.70447   -1.000
 3789.00    0.71487   0.70154   -1.000
 3790.00    0.72845   0.70383   -1.000
 3791.00    0.72947   0.70268   -1.000
 3792.00    0.71117   0.69073   -1.000
 3793.00    0.68284   0.66592   -1.000
 3794.00    0.64948   0.63121   -1.000
 3795.00    0.61884   0.59087   -1.000
 3796.00    0.58109   0.54908   -1.000
 3797.00    0.53106   0.51462   -1.000
 3798.00    0.51602   0.50544   -1.000
 3799.00    0.55225   0.53461   -1.000
 3800.00    0.61339   0.59339   -1.000
 3801.00    0.67216   0.65882   -1.000
 3802.00    0.71897   0.71100   -1.000
 3803.00    0.75124   0.74210   -1.000
 3804.00    0.76532   0.75419   -1.000
 3805.00    0.76795   0.75207   -1.000
 3806.00    0.76005   0.74640   -1.000
 3807.00    0.75702   0.75120   -1.000
 3808.00    0.77111   0.77009  634.310
 3809.00    0.79468   0.79400  667.968
 3810.00    0.81280   0.80805   -1.000
 3811.00    0.80597   0.80048   -1.000
 3812.00    0.77533   0.77185  667.968
 3813.00    0.74319   0.73517   -1.000
 3814.00    0.71841   0.70740   -1.000
 3815.00    0.70435   0.70095  667.968
 3816.00    0.72017   0.71409   -1.000
 3817.00    0.74629   0.72949   -1.000
 3818.00    0.74875   0.72925   -1.000
 3819.00    0.72126   0.71085   -1.000
 3820.00    0.68137   0.69135   -1.000
 3821.00    0.68985   0.68691   88.142
 3822.00    0.71609   0.69188   89.915
 3823.00    0.71304   0.68718   89.052
 3824.00    0.67454   0.66548   87.593
 3825.00    0.64702   0.63922   86.250
 3826.00    0.63174   0.62155   87.505
 3827.00    0.63359   0.61331   91.715
 3828.00    0.63432   0.60925   99.006
 3829.00    0.63825   0.60301   -1.000
 3830.00    0.62636   0.58875   -1.000
 3831.00    0.59572   0.56218   -1.000
 3832.00    0.54565   0.52381   93.612
 3833.00    0.50769   0.48171   95.732
 3834.00    0.48190   0.45125   -1.000
 3835.00    0.47270   0.44260   95.806
 3836.00    0.49065   0.45410   -1.000
 3837.00    0.50774   0.47742   -1.000
 3838.00    0.53248   0.50514   -1.000
 3839.00    0.55846   0.53620   -1.000
 3840.00    0.59862   0.57404   -1.000
 3841.00    0.63575   0.61892   -1.000
 3842.00    0.67927   0.66506   -1.000
 3843.00    0.72214   0.70429   -1.000
 3844.00    0.74395   0.73089   -1.000
 3845.00    0.75328   0.74768   -1.000
 3846.00    0.75470   0.76171   -1.000
 3847.00    0.75905   0.77273   -1.000
 3848.00    0.75660   0.77516   -1.000
 3849.00    0.74193   0.77104   -1.000
 3850.00    0.73680   0.76997   -1.000
 3851.00    0.74913   0.77904   -1.000
 3852.00    0.76377   0.79365   -1.000
 3853.00    0.77267   0.80116   -1.000
 3854.00    0.77101   0.79562   83.754
 3855.00    0.75802   0.78217   88.583
 3856.00    0.75569   0.76609   92.532
 3857.00    0.74804   0.74872  667.968
 3858.00    0.72116   0.73233   -1.000
 3859.00    0.69929   0.72550   -1.000
 3860.00    0.70068   0.73663   -1.000
 3861.00    0.73311   0.76276   -1.000
 3862.00    0.77334   0.79048   -1.000
 3863.00    0.80354   0.80540  667.968
 3864.00    0.80060   0.80583   -1.000
 3865.00    0.79491   0.80110   -1.000
 3866.00    0.79225   0.79871   -1.000
 3867.00    0.78590   0.80005   91.358
 3868.00    0.77791   0.80032   -1.000
 3869.00    0.76838   0.79153   -1.000
 3870.00    0.74298   0.77094   -1.000
 3871.00    0.71743   0.74544   -1.000
 3872.00    0.70167   0.72790   -1.000
 3873.00    0.70726   0.72843   -1.000
 3874.00    0.74178   0.74478  667.968
 3875.00    0.76802   0.75883   -1.000
 3876.00    0.76250   0.75403   -1.000
 3877.00    0.72433   0.73313   -1.000
 3878.00    0.69257   0.71387   -1.000
 3879.00    0.69376   0.70822   -1.000
 3880.00    0.69931   0.71148   -1.000
 3881.00    0.68870   0.71150   -1.000
 3882.00    0.67963   0.70337   -1.000
 3883.00    0.68466   0.68921   -1.000
 3884.00    0.68588   0.66702   -1.000
 3885.00    0.66178   0.63096   -1.000
 3886.00    0.61503   0.58306   -1.000
 3887.00    0.57267   0.53719   -1.000
 3888.00    0.54418   0.51137   -1.000
 3889.00    0.54618   0.51796   -1.000
 3890.00    0.58967   0.55592   -1.000
 3891.00    0.65362   0.60972   -1.000
 3892.00    0.70216   0.65602   -1.000
 3893.00    0.71820   0.68271   -1.000
 3894.00    0.72158   0.69638   -1.000
 3895.00    0.73560   0.70952   -1.000
 3896.00    0.74822   0.72621   -1.000
 3897.00    0.76257   0.74123   -1.000
 3898.00    0.77040   0.75021   -1.000
 3899.00    0.76652   0.75628   -1.000
 3900.00    0.77647   0.76502   -1.000
 3901.00    0.79749   0.77440   -1.000
 3902.00    0.80366   0.77723   -1.000
 3903.00    0.79842   0.77042   -1.000
 3904.00    0.78588   0.75915   -1.000
 3905.00    0.77070   0.75450   -1.000
 3906.00    0.76450   0.76441  515.799
 3907.00    0.79475   0.78935   -1.000
 3908.00    0.83419   0.82102   -1.000
 3909.00    0.85232   0.84699   -1.000
 3910.00    0.86490   0.86190  527.235
 3911.00    0.87038   0.86734  538.966
 3912.00    0.86577   0.86531  545.713
 3913.00    0.85511   0.85692  554.192
 3914.00    0.84159   0.84550  571.825
 3915.00    0.83524   0.83620  597.763
 3916.00    0.82525   0.83019  624.311
 3917.00    0.81687   0.82323   -1.000
 3918.00    0.80855   0.81210  627.077
 3919.00    0.79484   0.79840  617.638
 3920.00    0.78217   0.78708  626.545
 3921.00    0.77894   0.78306  662.643
 3922.00    0.78013   0.78699   -1.000
 3923.00    0.79020   0.79252  385.145
 3924.00    0.79162   0.78993   95.266
 3925.00    0.77413   0.77271  111.702
 3926.00    0.72924   0.73929  130.892
 3927.00    0.67256   0.69228   -1.000
 3928.00    0.60752   0.63534   -1.000
 3929.00    0.53202   0.56963   -1.000
 3930.00    0.46099   0.49336   -1.000
 3931.00    0.40423   0.40854  155.189
 3932.00    0.34357   0.33037  128.047
 3933.00    0.30165   0.28378  105.555
 3934.00    0.30661   0.28799  105.840
 3935.00    0.35632   0.34288   -1.000
 3936.00    0.43034   0.42784   -1.000
 3937.00    0.51683   0.51931  667.968
 3938.00    0.59546   0.60206   -1.000
 3939.00    0.65781   0.66679   -1.000
 3940.00    0.69668   0.71044   -1.000
 3941.00    0.71838   0.73432   -1.000
 3942.00    0.73261   0.74379   -1.000
 3943.00    0.73635   0.74873   -1.000
 3944.00    0.75376   0.75862  566.527
 3945.00    0.78967   0.77575   -1.000
 3946.00    0.81422   0.79315   -1.000
 3947.00    0.81245   0.80278   -1.000
 3948.00    0.79990   0.80600   -1.000
 3949.00    0.81229   0.80836  529.445
 3950.00    0.82839   0.81035   -1.000
 3951.00    0.83269   0.81080   -1.000
 3952.00    0.82514   0.81274   -1.000
 3953.00    0.83206   0.81827   -1.000
 3954.00    0.84398   0.82155   -1.000
 3955.00    0.83938   0.81579   -1.000
 3956.00    0.81532   0.80438   -1.000
 3957.00    0.80311   0.79708   -1.000
 3958.00    0.81099   0.79429   -1.000
 3959.00    0.81053   0.78319   -1.000
 3960.00    0.77876   0.75356   90.164
 3961.00    0.72026   0.71062  106.772
 3962.00    0.66767   0.66654  131.719
 3963.00    0.62181   0.62518  158.446
 3964.00    0.56560   0.57702  169.212
 3965.00    0.49338   0.50875  152.876
 3966.00    0.40979   0.42162  125.718
 3967.00    0.33032   0.33638  103.670
 3968.00    0.27877   0.28206  108.163
 3969.00    0.27595   0.27834  667.968
 3970.00    0.32538   0.32383  667.968
 3971.00    0.40517   0.40002   -1.000
 3972.00    0.49252   0.48440   -1.000
 3973.00    0.57287   0.56176   -1.000
 3974.00    0.64261   0.62743   -1.000
 3975.00    0.70191   0.68184   -1.000
 3976.00    0.74685   0.72726   -1.000
 3977.00    0.78310   0.76665   -1.000
 3978.00    0.82271   0.80200   -1.000
 3979.00    0.85533   0.82913   -1.000
 3980.00    0.86911   0.84244   -1.000
 3981.00    0.86663   0.84387   -1.000
 3982.00    0.86227   0.84302   -1.000
 3983.00    0.86814   0.84833   -1.000
 3984.00    0.88373   0.86061   -1.000
 3985.00    0.90020   0.87502   -1.000
 3986.00    0.91150   0.88834   -1.000
 3987.00    0.92218   0.90065   -1.000
 3988.00    0.93294   0.91107   -1.000
 3989.00    0.93380   0.91826   -1.000
 3990.00    0.93705   0.92461   -1.000
 3991.00    0.95043   0.93361   -1.000
 3992.00    0.96383   0.94370   -1.000
 3993.00    0.96862   0.94860   -1.000
 3994.00    0.96038   0.94349   -1.000
 3995.00    0.94116   0.92883   -1.000
 3996.00    0.91965   0.91206   -1.000
 3997.00    0.90945   0.90455  406.849
 3998.00    0.92036   0.91225   -1.000
 3999.00    0.94494   0.93118   -1.000
 4000.00    0.97165   0.95194   -1.000
 4001.00    0.98859   0.96536   -1.000
 4002.00    0.99859   0.96578   -1.000
 4003.00    0.98509   0.95158   -1.000
 4004.00    0.95140   0.92703   -1.000
 4005.00    0.92566   0.90675   -1.000
 4006.00    0.92533   0.90776   -1.000
 4007.00    0.95347   0.92959   -1.000
 4008.00    0.98412   0.95669   -1.000
 4009.00    0.99132   0.97543   -1.000
 4010.00    0.99027   0.98314  403.483
 4011.00    0.99778   0.98465   -1.000
 4012.00    0.99777   0.98457   -1.000
 4013.00    0.99325   0.98601  407.303
 4014.00    1.00100   0.98940   -1.000
 4015.00    1.00504   0.99252   -1.000
 4016.00    1.00595   0.99440   -1.000
 4017.00    1.00507   0.99711   -1.000
 4018.00    1.00033   1.00314  409.365
 4019.00    1.00955   1.01036  412.193
 4020.00    1.01382   1.01381  411.968
 4021.00    1.00627   1.01076  400.218
 4022.00    1.00040   1.00329  387.370
 4023.00    0.99188   0.99531  382.551
 4024.00    0.99200   0.99145  389.399
 4025.00    1.00031   0.99699  408.541
 4026.00    1.01681   1.01139  434.309
 4027.00    1.02922   1.02354  448.985
 4028.00    1.02617   1.01863   -1.000
 4029.00    0.99748   0.99406  442.699
 4030.00    0.95988   0.96083  425.921
 4031.00    0.94060   0.93397  404.625
 4032.00    0.93410   0.92355   -1.000
 4033.00    0.93719   0.92964  375.948
 4034.00    0.95576   0.94892  377.302
 4035.00    0.98445   0.97797  385.873
 4036.00    1.01712   1.01128  393.808
 4037.00    1.03791   1.03827  397.333
 4038.00    1.04238   1.04863  403.773
 4039.00    1.03498   1.04265   -1.000
 4040.00    1.01937   1.03124   -1.000
 4041.00    1.00736   1.02181   -1.000
 4042.00    1.00301   1.00909  460.391
 4043.00    0.98706   0.98115  419.776
 4044.00    0.93817   0.94104  398.420
 4045.00    0.89486   0.91359   -1.000
 4046.00    0.90481   0.91863   -1.000
 4047.00    0.95501   0.95260  391.938
 4048.00    1.00000   0.99372  402.807
 4049.00    1.01645   1.02113  412.077
 4050.00    1.01706   1.03046   -1.000
 4051.00    1.01965   1.02683   -1.000
 4052.00    1.01476   1.01432  423.904
 4053.00    0.99896   0.99878  425.648
 4054.00    0.98950   0.98723  417.261
 4055.00    0.98717   0.98005  403.837
 4056.00    0.98426   0.97525   -1.000
 4057.00    0.97864   0.97494  413.902
 4058.00    0.98449   0.98366  444.621
 4059.00    0.99751   0.99954  464.234
 4060.00    1.01893   1.00755   -1.000
 4061.00    1.00853   0.99352   -1.000
 4062.00    0.96145   0.96230  421.346
 4063.00    0.92465   0.93342   -1.000
 4064.00    0.92564   0.92259  398.320
 4065.00    0.95352   0.92884   -1.000
 4066.00    0.96151   0.94215   -1.000
 4067.00    0.96874   0.95626   -1.000
 4068.00    0.99419   0.96731   -1.000
 4069.00    1.00732   0.96784   -1.000
 4070.00    0.99105   0.95449   -1.000
 4071.00    0.96833   0.93731   -1.000
 4072.00    0.96123   0.93166   -1.000
 4073.00    0.97338   0.93882   -1.000
 4074.00    0.97658   0.94163   -1.000
 4075.00    0.95360   0.92633   -1.000
 4076.00    0.91414   0.89929   -1.000
 4077.00    0.88218   0.87971  391.516
 4078.00    0.88798   0.88374  400.739
 4079.00    0.92858   0.91169   -1.000
 4080.00    0.96800   0.94703   -1.000
 4081.00    0.99390   0.96890   -1.000
 4082.00    0.99455   0.96957   -1.000
 4083.00    0.97034   0.95657   -1.000
 4084.00    0.95412   0.94450   -1.000
 4085.00    0.95287   0.94463   -1.000
 4086.00    0.97212   0.95841   -1.000
 4087.00    0.99924   0.97796   -1.000
 4088.00    1.01745   0.99164   -1.000
 4089.00    1.01915   0.99279   -1.000
 4090.00    1.00518   0.98350   -1.000
 4091.00    0.99207   0.97145   -1.000
 4092.00    0.98345   0.96028   -1.000
 4093.00    0.96946   0.94678   -1.000
 4094.00    0.95998   0.92736   -1.000
 4095.00    0.93534   0.90147   -1.000
 4096.00    0.90223   0.87292   -1.000
 4097.00    0.87683   0.84275   -1.000
 4098.00    0.85536   0.80475   -1.000
 4099.00    0.80670   0.75245   -1.000
 4100.00    0.72948   0.69253   -1.000
 4101.00    0.66800   0.65045   -1.000
 4102.00    0.66057   0.65084   -1.000
 4103.00    0.72029   0.69625   -1.000
 4104.00    0.79650   0.76382   -1.000
 4105.00    0.85760   0.82457   -1.000
 4106.00    0.89177   0.86474   -1.000
 4107.00    0.90716   0.88659   -1.000
 4108.00    0.91696   0.89688   -1.000
 4109.00    0.92111   0.90271   -1.000
 4110.00    0.92743   0.91021   -1.000
 4111.00    0.93752   0.92184   -1.000
 4112.00    0.95090   0.93735   -1.000
 4113.00    0.96543   0.95537   -1.000
 4114.00    0.98113   0.97341   -1.000
 4115.00    0.99035   0.98584  423.060
 4116.00    0.99792   0.98723   -1.000
 4117.00    0.98265   0.97804  415.242
 4118.00    0.95530   0.96523   -1.000
 4119.00    0.94622   0.95687   -1.000
 4120.00    0.95685   0.95664  403.140
 4121.00    0.96521   0.96157  404.384
 4122.00    0.96381   0.96770  411.228
 4123.00    0.96899   0.97489  418.236
 4124.00    0.99070   0.98313   -1.000
 4125.00    0.99827   0.98813   -1.000
 4126.00    0.99168   0.98573  432.733
 4127.00    0.97914   0.97868  446.680
 4128.00    0.97125   0.97299  456.027
 4129.00    0.96660   0.96960  450.740
 4130.00    0.96406   0.96222  432.400
 4131.00    0.95232   0.94844  413.269
 4132.00    0.93349   0.93661  402.543
 4133.00    0.92549   0.93815   -1.000
 4134.00    0.94440   0.95580   -1.000
 4135.00    0.96783   0.98180   -1.000
 4136.00    0.99360   1.00687   -1.000
 4137.00    1.01537   1.02645   -1.000
 4138.00    1.02261   1.04048   -1.000
 4139.00    1.02610   1.04607   -1.000
 4140.00    1.02720   1.03592   -1.000
 4141.00    0.99789   1.00885   -1.000
 4142.00    0.95106   0.97571   -1.000
 4143.00    0.91880   0.95350   -1.000
 4144.00    0.92323   0.95541   -1.000
 4145.00    0.95748   0.97651   -1.000
 4146.00    0.99022   0.99819   -1.000
 4147.00    1.00242   1.00767  435.006
 4148.00    0.99450   1.00661   -1.000
 4149.00    0.98039   1.00412   -1.000
 4150.00    0.97600   1.00456   -1.000
 4151.00    0.97629   1.00474   -1.000
 4152.00    0.97661   0.99974   -1.000
 4153.00    0.97201   0.98965   -1.000
 4154.00    0.96282   0.98012   -1.000
 4155.00    0.96779   0.97777   -1.000
 4156.00    0.97536   0.98505   -1.000
 4157.00    0.96587   0.99858   -1.000
 4158.00    0.96770   1.01327   -1.000
 4159.00    0.98900   1.02473   -1.000
 4160.00    1.00920   1.03179   -1.000
 4161.00    1.01523   1.03701   -1.000
 4162.00    1.01815   1.04292   -1.000
 4163.00    1.01982   1.04880   -1.000
 4164.00    1.01340   1.05093   -1.000
 4165.00    1.01026   1.04604   -1.000
 4166.00    1.00196   1.03593   -1.000
 4167.00    0.99011   1.02718   -1.000
 4168.00    0.98716   1.02280   -1.000
 4169.00    0.99345   1.01655   -1.000
 4170.00    0.98513   0.99885   -1.000
 4171.00    0.95036   0.96932   -1.000
 4172.00    0.91568   0.94192   -1.000
 4173.00    0.90520   0.93348   -1.000
 4174.00    0.91814   0.94571   -1.000
 4175.00    0.93473   0.96509   -1.000
 4176.00    0.93984   0.97732   -1.000
 4177.00    0.94200   0.98226   -1.000
 4178.00    0.94353   0.98804   -1.000
 4179.00    0.95736   0.99733   -1.000
 4180.00    0.97094   1.00420   -1.000
 4181.00    0.97594   1.00322   -1.000
 4182.00    0.97321   1.00024   -1.000
 4183.00    0.97301   1.00387   -1.000
 4184.00    0.98529   1.01063   -1.000
 4185.00    0.98699   1.01060   -1.000
 4186.00    0.97064   1.00173   -1.000
 4187.00    0.95513   0.99241   -1.000
 4188.00    0.95428   0.99175   -1.000
 4189.00    0.96423   0.99901   -1.000
 4190.00    0.97187   1.00750   -1.000
 4191.00    0.97762   1.01522   -1.000
 4192.00    0.98907   1.02310   -1.000
 4193.00    1.00101   1.02770   -1.000
 4194.00    0.99975   1.02249   -1.000
 4195.00    0.97795   1.00489   -1.000
 4196.00    0.94982   0.98069   -1.000
 4197.00    0.93313   0.95938   -1.000
 4198.00    0.92698   0.94624   -1.000
 4199.00    0.92872   0.94226   -1.000
 4200.00    0.93518   0.94555   -1.000
 4201.00    0.93865   0.95103   -1.000
 4202.00    0.94704   0.95671   -1.000
 4203.00    0.95188   0.96633   -1.000
 4204.00    0.95472   0.98082   -1.000
 4205.00    0.96339   0.99671   -1.000
 4206.00    0.97499   1.01127   -1.000
 4207.00    0.98785   1.02204   -1.000
 4208.00    0.99649   1.02693   -1.000
 4209.00    0.99721   1.02762   -1.000
 4210.00    0.99843   1.02926   -1.000
 4211.00    0.99775   1.03443   -1.000
 4212.00    0.99492   1.03722   -1.000
 4213.00    0.98763   1.02796   -1.000
 4214.00    0.96770   1.00789   -1.000
 4215.00    0.94394   0.99005   -1.000
 4216.00    0.94381   0.98654   -1.000
 4217.00    0.97045   1.00002   -1.000
 4218.00    0.99859   1.02149   -1.000
 4219.00    1.01497   1.03895   -1.000
 4220.00    1.02353   1.04661   -1.000
 4221.00    1.02351   1.04204   -1.000
 4222.00    1.00469   1.02164   -1.000
 4223.00    0.97520   0.98278   -1.000
 4224.00    0.93518   0.93017  436.797
 4225.00    0.87599   0.88045  403.197
 4226.00    0.82402   0.85693   -1.000
 4227.00    0.82896   0.87539   -1.000
 4228.00    0.89596   0.92863   -1.000
 4229.00    0.96954   0.98632   -1.000
 4230.00    1.00543   1.02076   -1.000
 4231.00    1.00801   1.02597   -1.000
 4232.00    0.99658   1.01347   -1.000
 4233.00    0.98093   0.99635   -1.000
 4234.00    0.96996   0.98314   -1.000
 4235.00    0.96026   0.97688   -1.000
 4236.00    0.95248   0.97552   -1.000
 4237.00    0.95526   0.97876   -1.000
 4238.00    0.96043   0.98756   -1.000
 4239.00    0.96907   1.00011   -1.000
 4240.00    0.98518   1.01422   -1.000
 4241.00    0.99822   1.02736   -1.000
 4242.00    1.00311   1.03732   -1.000
 4243.00    1.00651   1.04277   -1.000
 4244.00    1.01079   1.04215   -1.000
 4245.00    1.00359   1.03246   -1.000
 4246.00    0.97652   1.01305   -1.000
 4247.00    0.95183   0.99099   -1.000
 4248.00    0.94242   0.97555   -1.000
 4249.00    0.94005   0.97077   -1.000
 4250.00    0.94250   0.97668   -1.000
 4251.00    0.95544   0.98918   -1.000
 4252.00    0.97199   0.99950   -1.000
 4253.00    0.97177   1.00050   -1.000
 4254.00    0.96276   0.99714   -1.000
 4255.00    0.96693   1.00036   -1.000
 4256.00    0.98465   1.00953   -1.000
 4257.00    0.99727   1.01121   -1.000
 4258.00    0.98358   0.99634   -1.000
 4259.00    0.95425   0.97421   -1.000
 4260.00    0.93734   0.96497   -1.000
 4261.00    0.94297   0.97879   -1.000
 4262.00    0.96993   1.00829   -1.000
 4263.00    1.00608   1.03711   -1.000
 4264.00    1.02876   1.05351   -1.000
 4265.00    1.03317   1.05549   -1.000
 4266.00    1.02709   1.04808   -1.000
 4267.00    1.01121   1.03437   -1.000
 4268.00    0.99120   1.01338   -1.000
 4269.00    0.97097   0.98478   -1.000
 4270.00    0.94000   0.95302   -1.000
 4271.00    0.90411   0.92747   -1.000
 4272.00    0.88936   0.91737   -1.000
 4273.00    0.89827   0.92390   -1.000
 4274.00    0.91527   0.94177   -1.000
 4275.00    0.93811   0.96766   -1.000
 4276.00    0.97413   0.99852   -1.000
 4277.00    1.00859   1.02370   -1.000
 4278.00    1.01322   1.03216   -1.000
 4279.00    0.99040   1.02343   -1.000
 4280.00    0.96996   1.00790   -1.000
 4281.00    0.96473   0.99738   -1.000
 4282.00    0.96606   0.99505   -1.000
 4283.00    0.96911   0.99477   -1.000
 4284.00    0.96508   0.99111   -1.000
 4285.00    0.94910   0.98232   -1.000
 4286.00    0.93694   0.96755   -1.000
 4287.00    0.93049   0.94677   -1.000
 4288.00    0.90528   0.92163   -1.000
 4289.00    0.87417   0.90069   -1.000
 4290.00    0.86877   0.89706   -1.000
 4291.00    0.89180   0.91330   -1.000
 4292.00    0.92539   0.93597   -1.000
 4293.00    0.94269   0.94909   -1.000
 4294.00    0.93965   0.94786   -1.000
 4295.00    0.93204   0.93826   -1.000
 4296.00    0.92076   0.92240  548.494
 4297.00    0.89387   0.89653  536.166
 4298.00    0.85282   0.86203   -1.000
 4299.00    0.81351   0.82937   -1.000
 4300.00    0.79332   0.80955   -1.000
 4301.00    0.79899   0.80608   -1.000
 4302.00    0.81112   0.81414  555.873
 4303.00    0.82210   0.82713   -1.000
 4304.00    0.83439   0.83858   -1.000
 4305.00    0.84031   0.84009  552.400
 4306.00    0.83177   0.82881  518.333
 4307.00    0.80476   0.81270   -1.000
 4308.00    0.78356   0.80465   -1.000
 4309.00    0.79182   0.81316   -1.000
 4310.00    0.81837   0.83469   -1.000
 4311.00    0.84377   0.85838   -1.000
 4312.00    0.86117   0.87924   -1.000
 4313.00    0.87492   0.90238   -1.000
 4314.00    0.89932   0.93579   -1.000
 4315.00    0.94691   0.98055   -1.000
 4316.00    1.00118   1.02594   -1.000
 4317.00    1.03641   1.05645   -1.000
 4318.00    1.04821   1.06491   -1.000
 4319.00    1.04208   1.05684   -1.000
 4320.00    1.02604   1.04047   -1.000
 4321.00    1.01031   1.01752   -1.000
 4322.00    0.98416   0.98510  422.578
 4323.00    0.94361   0.94462  386.180
 4324.00    0.89926   0.90781   -1.000
 4325.00    0.87456   0.89365   -1.000
 4326.00    0.88781   0.91259   -1.000
 4327.00    0.93539   0.95375   -1.000
 4328.00    0.98330   0.99146  359.391
 4329.00    1.00084   1.00967   -1.000
 4330.00    0.99539   1.01112   -1.000
 4331.00    0.99513   1.00830   -1.000
 4332.00    0.99694   1.00761   -1.000
 4333.00    0.98970   1.00468   -1.000
 4334.00    0.97904   0.99132   -1.000
 4335.00    0.96674   0.96026   -1.000
 4336.00    0.92790   0.90724   -1.000
 4337.00    0.85962   0.83562   -1.000
 4338.00    0.78576   0.76064   -1.000
 4339.00    0.71639   0.70463   -1.000
 4340.00    0.67699   0.68735   -1.000
 4341.00    0.70380   0.71646   -1.000
 4342.00    0.77869   0.77893  371.093
 4343.00    0.84918   0.84677  365.841
 4344.00    0.89735   0.90065  364.145
 4345.00    0.93431   0.93977  377.194
 4346.00    0.95998   0.97003   -1.000
 4347.00    0.97669   0.99354   -1.000
 4348.00    0.99292   1.00596   -1.000
 4349.00    0.99646   1.00012  390.626
 4350.00    0.96831   0.97647   -1.000
 4351.00    0.92956   0.95083   -1.000
 4352.00    0.91855   0.94363   -1.000
 4353.00    0.94972   0.96084   -1.000
 4354.00    0.98796   0.99103  376.176
 4355.00    1.01042   1.01772  373.066
 4356.00    1.02435   1.03275   -1.000
 4357.00    1.03005   1.03678  356.177
 4358.00    1.01831   1.03508   -1.000
 4359.00    1.00883   1.03553   -1.000
 4360.00    1.01602   1.04390   -1.000
 4361.00    1.03371   1.05819   -1.000
 4362.00    1.04596   1.07172   -1.000
 4363.00    1.05200   1.08105   -1.000
 4364.00    1.05628   1.08487   -1.000
 4365.00    1.05372   1.08008   -1.000
 4366.00    1.04010   1.06599   -1.000
 4367.00    1.02055   1.04875   -1.000
 4368.00    1.01095   1.03591   -1.000
 4369.00    1.01699   1.02967   -1.000
 4370.00    1.02242   1.02660  406.465
 4371.00    1.02826   1.02064  394.949
 4372.00    1.02308   1.00687   -1.000
 4373.00    0.99685   0.98640   -1.000
 4374.00    0.97234   0.96907  364.487
 4375.00    0.96393   0.96846  369.739
 4376.00    0.98430   0.98858  383.621
 4377.00    1.02138   1.01731  417.882
 4378.00    1.04281   1.03808  465.893
 4379.00    1.04748   1.04165  487.017
 4380.00    1.04080   1.02519   -1.000
 4381.00    1.01684   0.98845   -1.000
 4382.00    0.96607   0.93866   -1.000
 4383.00    0.90234   0.89667  387.498
 4384.00    0.87806   0.88622   -1.000
 4385.00    0.91144   0.91029  393.037
 4386.00    0.96665   0.94797   -1.000
 4387.00    0.99985   0.97649   -1.000
 4388.00    1.00784   0.98893   -1.000
 4389.00    1.00420   0.99213   -1.000
 4390.00    1.00118   0.99457  387.271
 4391.00    1.00870   0.99975   -1.000
 4392.00    1.02085   1.00460   -1.000
 4393.00    1.02158   1.00346   -1.000
 4394.00    1.00344   0.99895  372.433
 4395.00    0.99537   1.00173  384.629
 4396.00    1.01532   1.01497  384.995
 4397.00    1.03892   1.02682   -1.000
 4398.00    1.03731   1.02513   -1.000
 4399.00    1.01041   1.01277  405.616
 4400.00    0.99278   1.00221   -1.000
 4401.00    1.00259   0.99991  406.280
 4402.00    1.02122   0.99945   -1.000
 4403.00    1.01546   0.99165   -1.000
 4404.00    0.98458   0.97935  381.954
 4405.00    0.97103   0.97416  365.799
 4406.00    0.98558   0.97995  352.374
 4407.00    0.99796   0.99096  345.951
 4408.00    0.99404   1.00381   -1.000
 4409.00    1.00225   1.02271   -1.000
 4410.00    1.03444   1.04692   -1.000
 4411.00    1.06352   1.06499  387.226
 4412.00    1.07908   1.06593   -1.000
 4413.00    1.06850   1.04788   -1.000
 4414.00    1.03101   1.01858   -1.000
 4415.00    0.99658   0.99432  348.364
 4416.00    0.98974   0.99018  355.781
 4417.00    1.00399   1.00788  363.269
 4418.00    1.02428   1.03674   -1.000
 4419.00    1.04971   1.06200   -1.000
 4420.00    1.06647   1.07218  362.055
 4421.00    1.05380   1.06715   -1.000
 4422.00    1.04172   1.05750   -1.000
 4423.00    1.04273   1.05231   -1.000
 4424.00    1.04898   1.05158  362.788
 4425.00    1.04626   1.05077  364.812
 4426.00    1.03443   1.04947   -1.000
 4427.00    1.03475   1.05081   -1.000
 4428.00    1.04172   1.05455   -1.000
 4429.00    1.04262   1.05772   -1.000
 4430.00    1.04078   1.05910   -1.000
 4431.00    1.04907   1.05817   -1.000
 4432.00    1.05632   1.05210  359.185
 4433.00    1.03787   1.03832  342.045
 4434.00    1.00552   1.02231   -1.000
 4435.00    0.99194   1.01805   -1.000
 4436.00    1.01452   1.03477   -1.000
 4437.00    1.05547   1.06513   -1.000
 4438.00    1.08320   1.09083  381.971
 4439.00    1.09544   1.09674  371.336
 4440.00    1.08095   1.07959  355.681
 4441.00    1.04398   1.04950  346.709
 4442.00    1.00913   1.02491   -1.000
 4443.00    0.99061   1.02075   -1.000
 4444.00    1.00021   1.03819   -1.000
 4445.00    1.03383   1.06458   -1.000
 4446.00    1.05878   1.08455   -1.000
 4447.00    1.06473   1.09233   -1.000
 4448.00    1.06905   1.09239   -1.000
 4449.00    1.06537   1.08992   -1.000
 4450.00    1.06008   1.08675   -1.000
 4451.00    1.05565   1.08210   -1.000
 4452.00    1.05283   1.07151   -1.000
 4453.00    1.04288   1.05113   -1.000
 4454.00    1.01503   1.02667   -1.000
 4455.00    0.99656   1.01101   -1.000
 4456.00    1.00627   1.01089  386.557
 4457.00    1.02055   1.01956  381.550
 4458.00    1.02221   1.02598  368.017
 4459.00    1.01855   1.02707   -1.000
 4460.00    1.01458   1.02677   -1.000
 4461.00    1.00908   1.03017   -1.000
 4462.00    1.01259   1.04023   -1.000
 4463.00    1.02992   1.05444   -1.000
 4464.00    1.04978   1.06574   -1.000
 4465.00    1.05545   1.06906   -1.000
 4466.00    1.05069   1.06419   -1.000
 4467.00    1.04079   1.05412   -1.000
 4468.00    1.02608   1.04495   -1.000
 4469.00    1.01456   1.04461   -1.000
 4470.00    1.02603   1.05705   -1.000
 4471.00    1.05001   1.07829   -1.000
 4472.00    1.07388   1.10005   -1.000
 4473.00    1.09628   1.11551   -1.000
 4474.00    1.10832   1.12277   -1.000
 4475.00    1.10568   1.12499   -1.000
 4476.00    1.10915   1.12560   -1.000
 4477.00    1.11572   1.12361  361.566
 4478.00    1.11322   1.11317  348.397
 4479.00    1.09464   1.09097  334.706
 4480.00    1.06422   1.06445  326.385
 4481.00    1.04029   1.04848  325.330
 4482.00    1.04160   1.05298   -1.000
 4483.00    1.06327   1.07563   -1.000
 4484.00    1.08851   1.10433   -1.000
 4485.00    1.10495   1.12484   -1.000
 4486.00    1.11334   1.12924   -1.000
 4487.00    1.11014   1.11805  336.150
 4488.00    1.08753   1.09951   -1.000
 4489.00    1.06256   1.08554   -1.000
 4490.00    1.06138   1.08469   -1.000
 4491.00    1.08023   1.09434   -1.000
 4492.00    1.09293   1.10304   -1.000
 4493.00    1.08570   1.10202   -1.000
 4494.00    1.06753   1.09423   -1.000
 4495.00    1.05793   1.09023   -1.000
 4496.00    1.06054   1.09481   -1.000
 4497.00    1.07452   1.10408   -1.000
 4498.00    1.09348   1.11138   -1.000
 4499.00    1.10567   1.11209  310.251
 4500.00    1.10319   1.10792  310.938
 4501.00    1.09340   1.10794   -1.000
 4502.00    1.10401   1.11947   -1.000
 4503.00    1.12523   1.13897   -1.000
 4504.00    1.14197   1.15581   -1.000
 4505.00    1.14825   1.16208   -1.000
 4506.00    1.13833   1.15806   -1.000
 4507.00    1.13012   1.15018   -1.000
 4508.00    1.12424   1.14563   -1.000
 4509.00    1.12923   1.14665   -1.000
 4510.00    1.13223   1.14911   -1.000
 4511.00    1.12975   1.14723   -1.000
 4512.00    1.12481   1.13982   -1.000
 4513.00    1.11353   1.13035   -1.000
 4514.00    1.10094   1.12229   -1.000
 4515.00    1.09725   1.11742   -1.000
 4516.00    1.09273   1.11525   -1.000
 4517.00    1.08817   1.11306   -1.000
 4518.00    1.08375   1.11016   -1.000
 4519.00    1.09182   1.10948   -1.000
 4520.00    1.10147   1.11190   -1.000
 4521.00    1.10107   1.11290   -1.000
 4522.00    1.08606   1.10786   -1.000
 4523.00    1.07295   1.09791   -1.000
 4524.00    1.07676   1.08749   -1.000
 4525.00    1.06920   1.07690  366.717
 4526.00    1.05479   1.06310   -1.000
 4527.00    1.03994   1.04642  357.425
 4528.00    1.02337   1.03283   -1.000
 4529.00    1.02202   1.02893  377.817
 4530.00    1.03361   1.03446  375.809
 4531.00    1.04516   1.04207  356.699
 4532.00    1.04454   1.04226  335.540
 4533.00    1.03134   1.03321  324.772
 4534.00    1.01083   1.02526   -1.000
 4535.00    1.00951   1.03147   -1.000
 4536.00    1.04201   1.05527   -1.000
 4537.00    1.08750   1.08719  332.238
 4538.00    1.11704   1.11238  330.788
 4539.00    1.11412   1.12182   -1.000
 4540.00    1.10350   1.11887   -2.000
 4541.00    1.09709   1.11336   -2.000
 4542.00    1.10956   1.11129   -2.000
 4543.00    0.44825   1.11094   -1.000
 4544.00 **********   1.10753   -2.000
 4545.00 **********   1.10088   -2.000
 4546.00 **********   1.09346    0.000
 4547.00    0.43557   1.08362   -1.000
 4548.00    0.59340   1.06942   -1.000
 4549.00    1.00354   1.05688   -1.000
 4550.00    1.04439   1.05543   -1.000
 4551.00    1.06232   1.06460  338.860
 4552.00    1.06246   1.07233   -1.000
 4553.00    1.04409   1.07017   -1.000
 4554.00    1.03056   1.06333   -1.000
 4555.00    1.03759   1.06312   -1.000
 4556.00    1.06492   1.07576   -1.000
 4557.00    1.08991   1.09732  325.976
 4558.00    1.11129   1.11779  334.143
 4559.00    1.11953   1.13135   -1.000
 4560.00    1.11532   1.13802   -1.000
 4561.00    1.11794   1.13742   -1.000
 4562.00    1.11127   1.12821   -1.000
 4563.00    1.08721   1.11312   -1.000
 4564.00    1.06743   1.10065   -1.000
 4565.00    1.06929   1.09901   -1.000
 4566.00    1.08910   1.10894   -1.000
 4567.00    1.11090   1.12333   -1.000
 4568.00    1.12351   1.13220  325.634
 4569.00    1.12452   1.12965  320.272
 4570.00    1.10782   1.11724  319.913
 4571.00    1.08007   1.10319   -1.000
 4572.00    1.07798   1.09847   -1.000
 4573.00    1.09667   1.10733   -1.000
 4574.00    1.11122   1.12152   -1.000
 4575.00    1.11610   1.12990   -1.000
 4576.00    1.11964   1.12975   -1.000
 4577.00    1.11205   1.12371   -1.000
 4578.00    1.10376   1.11289   -1.000
 4579.00    1.09200   1.09781  338.308
 4580.00    1.07183   1.08224   -1.000
 4581.00    1.06494   1.07126  336.406
 4582.00    1.06610   1.06680  327.940
 4583.00    1.07166   1.06722  320.751
 4584.00    1.07316   1.07072  319.591
 4585.00    1.07648   1.07661  323.774
 4586.00    1.08896   1.08487  329.739
 4587.00    1.10385   1.09508  335.586
 4588.00    1.10944   1.10495  336.492
 4589.00    1.11625   1.11065  333.904
 4590.00    1.10842   1.10985  331.228
 4591.00    1.09272   1.10363   -1.000
 4592.00    1.08732   1.09649   -1.000
 4593.00    1.08595   1.09351  328.734
 4594.00    1.08721   1.09578  331.279
 4595.00    1.09687   1.10077  334.289
 4596.00    1.10702   1.10613  335.427
 4597.00    1.11003   1.11028  332.270
 4598.00    1.11030   1.11152  328.515
 4599.00    1.10623   1.10875  328.668
 4600.00    1.09920   1.10298  328.247
 4601.00    1.09149   1.09763  324.929
 4602.00    1.08661   1.09584  318.718
 4603.00    1.09567   1.09768  311.901
 4604.00    1.10159   1.10159  307.958
 4605.00    1.10924   1.10655  308.923
 4606.00    1.11429   1.11292  312.985
 4607.00    1.12420   1.12165  316.559
 4608.00    1.14099   1.13167   -1.000
 4609.00    1.15047   1.13928   -1.000
 4610.00    1.14649   1.14034  314.676
 4611.00    1.13491   1.13507  313.285
 4612.00    1.12535   1.12863  315.137
 4613.00    1.12044   1.12504  317.490
 4614.00    1.12262   1.12463  317.390
 4615.00    1.12669   1.12526  314.533
 4616.00    1.12501   1.12445  309.639
 4617.00    1.11760   1.12150  309.187
 4618.00    1.11523   1.11826  309.936
 4619.00    1.11565   1.11822  310.562
 4620.00    1.12274   1.12355  313.280
 4621.00    1.13450   1.13227  314.201
 4622.00    1.14613   1.13926  314.085
 4623.00    1.14432   1.14078  315.978
 4624.00    1.13747   1.13792  316.755
 4625.00    1.13613   1.13389  315.296
 4626.00    1.13080   1.13056  311.747
 4627.00    1.13235   1.12829  312.833
 4628.00    1.12335   1.12637  317.269
 4629.00    1.11183   1.12537   -1.000
 4630.00    1.12230   1.12699  320.779
 4631.00    1.13110   1.13042  323.209
 4632.00    1.13795   1.13165  327.443
 4633.00    1.13511   1.12831  328.956
 4634.00    1.12221   1.12261  328.571
 4635.00    1.12523   1.11806  323.227
 4636.00    1.12548   1.11492   -1.000
 4637.00    1.11166   1.11186  310.866
 4638.00    1.11168   1.10994  311.885
 4639.00    1.11698   1.11157  317.536
 4640.00    1.12330   1.11776  326.410
 4641.00    1.13790   1.12646   -1.000
 4642.00    1.15125   1.13290   -1.000
 4643.00    1.14603   1.13252   -1.000
 4644.00    1.13686   1.12423   -1.000
 4645.00    1.11825   1.11066  319.243
 4646.00    1.09632   1.09570  318.553
 4647.00    1.08739   1.08572  317.908
 4648.00    1.09674   1.08708   -1.000
 4649.00    1.11514   1.09861   -1.000
 4650.00    1.12566   1.11252   -1.000
 4651.00    1.12294   1.12172  330.220
 4652.00    1.12010   1.12360  319.883
 4653.00    1.11657   1.11903  307.610
 4654.00    1.10479   1.11077  300.551
 4655.00    1.08886   1.10385   -1.000
 4656.00    1.08883   1.10373   -1.000
 4657.00    1.10224   1.11345   -1.000
 4658.00    1.12863   1.13147  317.353
 4659.00    1.15690   1.15011  318.215
 4660.00    1.16477   1.15962  323.346
 4661.00    1.15146   1.15667  337.154
 4662.00    1.13488   1.14542   -1.000
 4663.00    1.12827   1.13147  351.921
 4664.00    1.12633   1.11667   -1.000
 4665.00    1.12729   1.09924   -1.000
 4666.00    1.10114   1.07860   -1.000
 4667.00    1.06690   1.06045  316.023
 4668.00    1.05537   1.05436  316.258
 4669.00    1.06312   1.06398  315.937
 4670.00    1.08924   1.08305  311.847
 4671.00    1.11449   1.10191   -1.000
 4672.00    1.12583   1.11428   -1.000
 4673.00    1.13247   1.12051   -1.000
 4674.00    1.13350   1.12518  321.617
 4675.00    1.13714   1.13081  326.948
 4676.00    1.14701   1.13441   -1.000
 4677.00    1.15190   1.13056   -1.000
 4678.00    1.13794   1.11871   -1.000
 4679.00    1.12084   1.10463   -1.000
 4680.00    1.10654   1.09437   -1.000
 4681.00    1.09876   1.09063  314.774
 4682.00    1.10052   1.09355  316.589
 4683.00    1.11859   1.10126   -1.000
 4684.00    1.13442   1.10963   -1.000
 4685.00    1.13878   1.11469   -1.000
 4686.00    1.13782   1.11585   -1.000
 4687.00    1.13434   1.11502   -1.000
 4688.00    1.13296   1.11384   -1.000
 4689.00    1.12983   1.11255   -1.000
 4690.00    1.12462   1.11059   -1.000
 4691.00    1.12046   1.10859   -1.000
 4692.00    1.12922   1.10912   -1.000
 4693.00    1.14558   1.11327   -1.000
 4694.00    1.15199   1.11869   -1.000
 4695.00    1.15609   1.12219   -1.000
 4696.00    1.15742   1.12121   -1.000
 4697.00    1.15076   1.11394   -1.000
 4698.00    1.13681   1.10185   -1.000
 4699.00    1.12504   1.08970   -1.000
 4700.00    1.12488   1.08028   -1.000
 4701.00    1.12314   1.07279   -1.000
 4702.00    1.10589   1.06677   -1.000
 4703.00    1.09556   1.06518   -1.000
 4704.00    1.10189   1.07038   -1.000
 4705.00    1.10848   1.07811   -1.000
 4706.00    1.10788   1.08066   -1.000
 4707.00    1.09654   1.07600   -1.000
 4708.00    1.08676   1.07012   -1.000
 4709.00    1.08454   1.07068   -1.000
 4710.00    1.09824   1.07928   -1.000
 4711.00    1.12077   1.09076   -1.000
 4712.00    1.13904   1.09838   -1.000
 4713.00    1.13207   1.09883   -1.000
 4714.00    1.11633   1.09585   -1.000
 4715.00    1.11791   1.09671   -1.000
 4716.00    1.12998   1.10466   -1.000
 4717.00    1.14277   1.11623   -1.000
 4718.00    1.15128   1.12568   -1.000
 4719.00    1.15083   1.13068   -1.000
 4720.00    1.14809   1.13178   -1.000
 4721.00    1.14497   1.13059   -1.000
 4722.00    1.14758   1.12957   -1.000
 4723.00    1.14647   1.13083   -1.000
 4724.00    1.14720   1.13312   -1.000
 4725.00    1.16018   1.13164   -1.000
 4726.00    1.14255   1.12272   -1.000
 4727.00    1.12248   1.10755   -1.000
 4728.00    1.10362   1.09223   -1.000
 4729.00    1.10540   1.08307   -1.000
 4730.00    1.11223   1.08107   -1.000
 4731.00    1.11617   1.08402   -1.000
 4732.00    1.11494   1.09042   -1.000
 4733.00    1.11755   1.09764   -1.000
 4734.00    1.13150   1.10210   -1.000
 4735.00    1.13118   1.10256   -1.000
 4736.00    1.11788   1.10102   -1.000
 4737.00    1.11653   1.10096   -1.000
 4738.00    1.12307   1.10391   -1.000
 4739.00    1.12971   1.10791   -1.000
 4740.00    1.13179   1.11024   -1.000
 4741.00    1.12632   1.11132   -1.000
 4742.00    1.12860   1.11364   -1.000
 4743.00    1.13669   1.11752   -1.000
 4744.00    1.14088   1.12104   -1.000
 4745.00    1.14171   1.12333   -1.000
 4746.00    1.14054   1.12571   -1.000
 4747.00    1.14220   1.12975   -1.000
 4748.00    1.14898   1.13483   -1.000
 4749.00    1.15452   1.13941   -1.000
 4750.00    1.15292   1.14293   -1.000
 4751.00    1.15094   1.14361  315.131
 4752.00    1.14835   1.13925  317.508
 4753.00    1.13590   1.13095  317.664
 4754.00    1.12758   1.12288  314.880
 4755.00    1.13142   1.11877   -1.000
 4756.00    1.11889   1.11941  319.917
 4757.00    1.11455   1.12340  328.050
 4758.00    1.12276   1.12850  331.925
 4759.00    1.12369   1.13233  332.166
 4760.00    1.13555   1.13164  331.362
 4761.00    1.12939   1.12369  328.858
 4762.00    1.10998   1.10936  324.068
 4763.00    1.09572   1.09419  316.605
 4764.00    1.08822   1.08426  312.546
 4765.00    1.09584   1.08194   -1.000
 4766.00    1.10676   1.08684   -1.000
 4767.00    1.11655   1.09805   -1.000
 4768.00    1.12780   1.11334   -1.000
 4769.00    1.13428   1.12739  307.843
 4770.00    1.13999   1.13425  306.107
 4771.00    1.12566   1.13310  306.508
 4772.00    1.12377   1.12967  307.494
 4773.00    1.12993   1.13075  309.637
 4774.00    1.14623   1.13781  313.153
 4775.00    1.15843   1.14585   -1.000
 4776.00    1.15393   1.15012  315.614
 4777.00    1.14987   1.15018  317.258
 4778.00    1.14259   1.14718  319.757
 4779.00    1.13601   1.14234  319.519
 4780.00    1.13288   1.13777  320.785
 4781.00    1.13409   1.13468  324.052
 4782.00    1.13038   1.13156  325.719
 4783.00    1.12164   1.12704  325.196
 4784.00    1.12347   1.12218  323.499
 4785.00    1.12089   1.11775  321.400
 4786.00    1.10481   1.11357   -1.000
 4787.00    1.10454   1.11096  312.396
 4788.00    1.10720   1.11141  305.405
 4789.00    1.11077   1.11434  300.506
 4790.00    1.12004   1.11945  299.888
 4791.00    1.12590   1.12779  303.340
 4792.00    1.13367   1.13955  309.636
 4793.00    1.14086   1.15288   -1.000
 4794.00    1.15341   1.16429   -1.000
 4795.00    1.16036   1.16989   -1.000
 4796.00    1.15628   1.16731   -1.000
 4797.00    1.14399   1.15801   -1.000
 4798.00    1.12525   1.14650   -1.000
 4799.00    1.11704   1.13825   -1.000
 4800.00    1.12149   1.13743   -1.000
 4801.00    1.13702   1.14399  316.329
 4802.00    1.14572   1.15256  316.030
 4803.00    1.14296   1.15578   -1.000
 4804.00    1.13251   1.15071   -1.000
 4805.00    1.12248   1.14167   -1.000
 4806.00    1.12148   1.13509   -1.000
 4807.00    1.11969   1.13317   -1.000
 4808.00    1.12730   1.13501  306.844
 4809.00    1.13062   1.13916  306.036
 4810.00    1.13400   1.14350  304.845
 4811.00    1.13704   1.14643  302.875
 4812.00    1.14260   1.14876  301.056
 4813.00    1.14368   1.15207  299.964
 4814.00    1.15237   1.15644  299.927
 4815.00    1.15012   1.16118   -1.000
 4816.00    1.14949   1.16558   -1.000
 4817.00    1.15183   1.16879   -1.000
 4818.00    1.15912   1.17008   -1.000
 4819.00    1.15959   1.16973   -1.000
 4820.00    1.15300   1.16736   -1.000
 4821.00    1.15347   1.16018  305.435
 4822.00    1.14003   1.14626  307.256
 4823.00    1.12541   1.12950  310.856
 4824.00    1.11381   1.11863  312.494
 4825.00    1.12251   1.11953  312.608
 4826.00    1.13728   1.12828  315.439
 4827.00    1.14546   1.13565   -1.000
 4828.00    1.13727   1.13676  309.998
 4829.00    1.12874   1.13337  306.243
 4830.00    1.12877   1.12891  305.433
 4831.00    1.12456   1.12451  306.121
 4832.00    1.11927   1.12116  307.931
 4833.00    1.12538   1.12113  312.444
 4834.00    1.13596   1.12472   -1.000
 4835.00    1.13671   1.12920  317.337
 4836.00    1.13659   1.13139  316.523
 4837.00    1.13638   1.12991  314.795
 4838.00    1.12999   1.12471  312.309
 4839.00    1.11630   1.11679  308.931
 4840.00    1.10576   1.10936  304.361
 4841.00    1.10724   1.10536  303.861
 4842.00    1.11571   1.10484   -1.000
 4843.00    1.12327   1.10631   -1.000
 4844.00    1.12095   1.10919   -1.000
 4845.00    1.12440   1.11334   -1.000
 4846.00    1.13105   1.11583   -1.000
 4847.00    1.12627   1.11246   -1.000
 4848.00    1.10769   1.10489  314.550
 4849.00    1.09444   1.09950  324.272
 4850.00    1.10362   1.09884  332.183
 4851.00    1.10875   1.09921   -1.000
 4852.00    1.10586   1.09487   -1.000
 4853.00    1.09691   1.08204   -1.000
 4854.00    1.07150   1.06050   -1.000
 4855.00    1.04560   1.03576   -1.000
 4856.00    1.03442   1.01511   -1.000
 4857.00    1.02948   0.99695   -1.000
 4858.00    1.00737   0.96700   -1.000
 4859.00    0.93544   0.91070   -1.000
 4860.00    0.83630   0.83609  331.572
 4861.00    0.76445   0.77842   -1.000
 4862.00    0.78191   0.77248   -1.000
 4863.00    0.86718   0.82077   -1.000
 4864.00    0.95064   0.89146   -1.000
 4865.00    1.00229   0.95279   -1.000
 4866.00    1.02907   0.99538   -1.000
 4867.00    1.04639   1.02346   -1.000
 4868.00    1.06279   1.04068   -1.000
 4869.00    1.06641   1.04583   -1.000
 4870.00    1.05438   1.03801   -1.000
 4871.00    1.03249   1.02407  319.016
 4872.00    1.02888   1.01789   -1.000
 4873.00    1.04833   1.02814   -1.000
 4874.00    1.07005   1.04867   -1.000
 4875.00    1.08119   1.06688   -1.000
 4876.00    1.08108   1.07660  318.655
 4877.00    1.07944   1.08142  319.950
 4878.00    1.08673   1.08827  319.187
 4879.00    1.10187   1.09925  321.538
 4880.00    1.11062   1.10981  326.147
 4881.00    1.10564   1.11358  327.195
 4882.00    1.09650   1.10957   -1.000
 4883.00    1.09724   1.10290  325.979
 4884.00    1.09419   1.09633  331.424
 4885.00    1.08690   1.08991  337.326
 4886.00    1.08528   1.08536  332.768
 4887.00    1.09079   1.08328  318.609
 4888.00    1.08972   1.08057  304.597
 4889.00    1.07698   1.07301  296.348
 4890.00    1.05872   1.06165  291.596
 4891.00    1.05105   1.05619  290.682
 4892.00    1.07201   1.06773  292.351
 4893.00    1.11226   1.09651   -1.000
 4894.00    1.14227   1.12978   -1.000
 4895.00    1.15820   1.15430  307.895
 4896.00    1.16437   1.16602  306.559
 4897.00    1.16228   1.16747  307.660
 4898.00    1.15664   1.16206  310.310
 4899.00    1.14273   1.15271   -1.000
 4900.00    1.12951   1.14325   -1.000
 4901.00    1.12969   1.13679  298.866
 4902.00    1.13168   1.13256  302.621
 4903.00    1.12201   1.12909  310.391
 4904.00    1.12141   1.12974  318.545
 4905.00    1.13931   1.13797  320.874
 4906.00    1.15402   1.14841  316.064
 4907.00    1.14693   1.15128  310.536
 4908.00    1.13344   1.14310  306.360
 4909.00    1.11841   1.12756  302.615
 4910.00    1.10548   1.11217  300.762
 4911.00    1.10115   1.10469  304.049
 4912.00    1.11019   1.10881  316.182
 4913.00    1.12439   1.12126  333.407
 4914.00    1.13225   1.13523  346.939
 4915.00    1.14198   1.14422  347.465
 4916.00    1.14976   1.14196  335.418
 4917.00    1.12710   1.12354  324.615
 4918.00    1.09200   1.09090  320.907
 4919.00    1.05858   1.05527  319.960
 4920.00    1.03527   1.03183  314.864
 4921.00    1.03933   1.02894  307.006
 4922.00    1.06338   1.04168   -1.000
 4923.00    1.08319   1.05746   -1.000
 4924.00    1.09001   1.06966   -1.000
 4925.00    1.09273   1.08234   -1.000
 4926.00    1.11310   1.09986   -1.000
 4927.00    1.13162   1.11978   -1.000
 4928.00    1.14016   1.13707  319.044
 4929.00    1.14752   1.14881  318.121
 4930.00    1.15301   1.15310  313.365
 4931.00    1.15131   1.14743  315.313
 4932.00    1.13414   1.13116  324.825
 4933.00    1.10388   1.10989  331.230
 4934.00    1.08529   1.09472   -1.000
 4935.00    1.09395   1.09172  314.885
 4936.00    1.10813   1.09380   -1.000
 4937.00    1.09857   1.08894  300.826
 4938.00    1.07848   1.07715  298.806
 4939.00    1.07201   1.07145  299.534
 4940.00    1.09323   1.08148   -1.000
 4941.00    1.12438   1.10441   -1.000
 4942.00    1.14107   1.12873   -1.000
 4943.00    1.14574   1.14452  295.261
 4944.00    1.14370   1.14961  294.362
 4945.00    1.13963   1.14741  293.743
 4946.00    1.13857   1.14359  295.473
 4947.00    1.13883   1.14341  297.843
 4948.00    1.14050   1.14850  301.407
 4949.00    1.14906   1.15536  306.173
 4950.00    1.15434   1.15920  316.254
 4951.00    1.15557   1.15848  332.086
 4952.00    1.15337   1.15471  340.589
 4953.00    1.15095   1.14954  330.043
 4954.00    1.14836   1.14165  312.599
 4955.00    1.13731   1.12502   -1.000
 4956.00    1.10203   1.09606  302.774
 4957.00    1.06412   1.06558  304.532
 4958.00    1.05561   1.05446  307.282
 4959.00    1.08891   1.07186   -1.000
 4960.00    1.12737   1.10454   -1.000
 4961.00    1.14119   1.13155   -1.000
 4962.00    1.14341   1.14418  320.557
 4963.00    1.13914   1.14540  319.234
 4964.00    1.13473   1.13887  316.565
 4965.00    1.12405   1.12738  313.142
 4966.00    1.11259   1.11570  309.679
 4967.00    1.10641   1.10815  306.156
 4968.00    1.11038   1.10550  303.701
 4969.00    1.11617   1.10724  303.356
 4970.00    1.11914   1.11310  305.837
 4971.00    1.12292   1.12160  309.336
 4972.00    1.13180   1.13041  313.793
 4973.00    1.14245   1.13763  318.629
 4974.00    1.14788   1.14196  322.681
 4975.00    1.14707   1.14259  328.836
 4976.00    1.14448   1.13921  339.837
 4977.00    1.13523   1.13211  347.989
 4978.00    1.12559   1.12292  345.972
 4979.00    1.11431   1.11279  338.426
 4980.00    1.10243   1.09933  328.479
 4981.00    1.07628   1.07910  318.621
 4982.00    1.04970   1.05434  312.960
 4983.00    1.03916   1.03506  314.588
 4984.00    1.04716   1.03154   -1.000
 4985.00    1.06431   1.04531   -1.000
 4986.00    1.08310   1.06912   -1.000
 4987.00    1.10161   1.09318  318.088
 4988.00    1.11174   1.10867  317.109
 4989.00    1.10901   1.11109  316.574
 4990.00    1.09881   1.10405  314.916
 4991.00    1.09633   1.09616  314.315
 4992.00    1.09833   1.09362  316.952
 4993.00    1.10191   1.09635  321.874
 4994.00    1.10754   1.10154  327.766
 4995.00    1.11062   1.10759  330.726
 4996.00    1.11836   1.11256  329.904
 4997.00    1.11986   1.11266  326.962
 4998.00    1.11086   1.10444  326.769
 4999.00    1.09305   1.08870  332.674
 5000.00    1.08424   1.07216   -1.000
 5001.00    1.08552   1.06290   -1.000
 5002.00    1.08959   1.06272   -1.000
 5003.00    1.09194   1.06587   -1.000
 5004.00    1.09106   1.06384   -1.000
 5005.00    1.07758   1.05340   -1.000
 5006.00    1.06273   1.04226   -1.000
 5007.00    1.06697   1.04285   -1.000
 5008.00    1.09306   1.05746   -1.000
 5009.00    1.11175   1.07480   -1.000
 5010.00    1.10644   1.08170   -1.000
 5011.00    1.08695   1.07331   -1.000
 5012.00    1.06301   1.05468  334.967
 5013.00    1.04096   1.03628  333.884
 5014.00    1.03687   1.02740  330.313
 5015.00    1.04992   1.02951   -1.000
 5016.00    1.06675   1.03586   -1.000
 5017.00    1.06637   1.03888   -1.000
 5018.00    1.06357   1.03884   -1.000
 5019.00    1.06858   1.04240   -1.000
 5020.00    1.07942   1.05157   -1.000
 5021.00    1.08351   1.06077   -1.000
 5022.00    1.08592   1.06632   -1.000
 5023.00    1.08939   1.07126   -1.000
 5024.00    1.09535   1.07927   -1.000
 5025.00    1.09956   1.08740   -1.000
 5026.00    1.09832   1.08997  306.292
 5027.00    1.09261   1.08753  304.074
 5028.00    1.09502   1.08597  307.573
 5029.00    1.10272   1.08931   -1.000
 5030.00    1.11184   1.09714   -1.000
 5031.00    1.12268   1.10719   -1.000
 5032.00    1.12957   1.11690   -1.000
 5033.00    1.13095   1.12152   -1.000
 5034.00    1.12558   1.11564   -1.000
 5035.00    1.10451   1.10021  365.638
 5036.00    1.07998   1.08373  359.395
 5037.00    1.07382   1.07274  339.914
 5038.00    1.07138   1.06323  321.175
 5039.00    1.05433   1.04576  310.354
 5040.00    1.02821   1.02173  302.105
 5041.00    1.00988   1.00703  297.230
 5042.00    1.03634   1.01544   -1.000
 5043.00    1.01292   1.04520   -1.000
 5044.00    0.57677   1.08172   -1.000
 5045.00 **********   1.11068   -2.000
 5046.00 **********   1.12517   -2.000
 5047.00    0.41725   1.12381   -1.000
 5048.00    0.98261   1.10922   -1.000
 5049.00    1.08697   1.08870  305.879
 5050.00    1.07847   1.07158  303.693
 5051.00    1.08006   1.06435   -1.000
 5052.00    1.09167   1.06938   -1.000
 5053.00    1.11176   1.08463   -1.000
 5054.00    1.13287   1.10313   -1.000
 5055.00    1.14144   1.11713   -1.000
 5056.00    1.14508   1.12476   -1.000
 5057.00    1.14690   1.12891   -1.000
 5058.00    1.14666   1.13245   -1.000
 5059.00    1.14304   1.13617  328.162
 5060.00    1.13784   1.13928  328.957
 5061.00    1.13937   1.14026  324.401
 5062.00    1.13551   1.13621  320.850
 5063.00    1.12405   1.12370  319.745
 5064.00    1.10291   1.10466  317.992
 5065.00    1.08705   1.08807  317.562
 5066.00    1.08815   1.08118  320.245
 5067.00    1.09616   1.08278   -1.000
 5068.00    1.10530   1.08685   -1.000
 5069.00    1.11206   1.09041   -1.000
 5070.00    1.11920   1.09316   -1.000
 5071.00    1.11891   1.09348   -1.000
 5072.00    1.11360   1.09039   -1.000
 5073.00    1.11195   1.08705   -1.000
 5074.00    1.11311   1.08681   -1.000
 5075.00    1.11439   1.08877   -1.000
 5076.00    1.11285   1.08922   -1.000
 5077.00    1.10565   1.08372   -1.000
 5078.00    1.08848   1.06932   -1.000
 5079.00    1.06334   1.04979   -1.000
 5080.00    1.04609   1.03626   -1.000
 5081.00    1.05287   1.03560   -1.000
 5082.00    1.07417   1.04414   -1.000
 5083.00    1.08651   1.05534   -1.000
 5084.00    1.09678   1.06724   -1.000
 5085.00    1.11234   1.08020   -1.000
 5086.00    1.12425   1.09197   -1.000
 5087.00    1.12804   1.09965   -1.000
 5088.00    1.12362   1.10377   -1.000
 5089.00    1.12592   1.10679   -1.000
 5090.00    1.12948   1.11019   -1.000
 5091.00    1.13064   1.11445   -1.000
 5092.00    1.13288   1.11984   -1.000
 5093.00    1.13973   1.12494   -1.000
 5094.00    1.14423   1.12588   -1.000
 5095.00    1.14174   1.11891   -1.000
 5096.00    1.12847   1.10367   -1.000
 5097.00    1.10718   1.08412   -1.000
 5098.00    1.08480   1.06693   -1.000
 5099.00    1.07848   1.05938   -1.000
 5100.00    1.09183   1.06525   -1.000
 5101.00    1.11584   1.08054   -1.000
 5102.00    1.12882   1.09529   -1.000
 5103.00    1.12861   1.10211   -1.000
 5104.00    1.12299   1.10064   -1.000
 5105.00    1.11550   1.09320   -1.000
 5106.00    1.09980   1.08166   -1.000
 5107.00    1.08317   1.06901   -1.000
 5108.00    1.07638   1.06011   -1.000
 5109.00    1.07933   1.05829   -1.000
 5110.00    1.08681   1.06367   -1.000
 5111.00    1.09760   1.07486   -1.000
 5112.00    1.11049   1.08876   -1.000
 5113.00    1.12045   1.10101   -1.000
 5114.00    1.12679   1.10968   -1.000
 5115.00    1.13291   1.11587   -1.000
 5116.00    1.14217   1.12129   -1.000
 5117.00    1.14792   1.12604   -1.000
 5118.00    1.14762   1.12803   -1.000
 5119.00    1.14389   1.12470   -1.000
 5120.00    1.13535   1.11557   -1.000
 5121.00    1.12163   1.10239   -1.000
 5122.00    1.09966   1.08706   -1.000
 5123.00    1.08153   1.07184   -1.000
 5124.00    1.07808   1.06039   -1.000
 5125.00    1.07721   1.05556   -1.000
 5126.00    1.07913   1.05589   -1.000
 5127.00    1.08397   1.05725   -1.000
 5128.00    1.08357   1.05750   -1.000
 5129.00    1.08238   1.05826   -1.000
 5130.00    1.08430   1.06212   -1.000
 5131.00    1.09278   1.06927   -1.000
 5132.00    1.10496   1.07724   -1.000
 5133.00    1.10892   1.08398   -1.000
 5134.00    1.11395   1.08911   -1.000
 5135.00    1.12151   1.09136   -1.000
 5136.00    1.11496   1.08766   -1.000
 5137.00    1.09846   1.07692   -1.000
 5138.00    1.07860   1.06347   -1.000
 5139.00    1.06636   1.05379   -1.000
 5140.00    1.07054   1.05096   -1.000
 5141.00    1.07612   1.05234   -1.000
 5142.00    1.07128   1.05413   -1.000
 5143.00    1.06931   1.05689   -1.000
 5144.00    1.08119   1.06216   -1.000
 5145.00    1.09333   1.06690   -1.000
 5146.00    1.09671   1.06704   -1.000
 5147.00    1.09350   1.06404   -1.000
 5148.00    1.09148   1.06287   -1.000
 5149.00    1.09618   1.06396   -1.000
 5150.00    1.09480   1.06278   -1.000
 5151.00    1.08176   1.05757   -1.000
 5152.00    1.07259   1.05187   -1.000
 5153.00    1.07593   1.05006   -1.000
 5154.00    1.08605   1.05418   -1.000
 5155.00    1.10030   1.06458   -1.000
 5156.00    1.11699   1.07944   -1.000
 5157.00    1.13153   1.09424   -1.000
 5158.00    1.14275   1.10484   -1.000
 5159.00    1.14690   1.10983   -1.000
 5160.00    1.14401   1.10967   -1.000
 5161.00    1.13784   1.10489   -1.000
 5162.00    1.13229   1.09603   -1.000
 5163.00    1.12624   1.08301   -1.000
 5164.00    1.10944   1.06187   -1.000
 5165.00    1.06809   1.02544   -1.000
 5166.00    1.00294   0.97462   -1.000
 5167.00    0.94861   0.92681   -1.000
 5168.00    0.94013   0.90475   -1.000
 5169.00    0.97020   0.91314   -1.000
 5170.00    0.99734   0.92943   -1.000
 5171.00    0.98759   0.92906   -1.000
 5172.00    0.95569   0.91584   -1.000
 5173.00    0.95266   0.91673   -1.000
 5174.00    0.99995   0.94960   -1.000
 5175.00    1.06470   1.00190   -1.000
 5176.00    1.10651   1.04767   -1.000
 5177.00    1.12274   1.07421   -1.000
 5178.00    1.12979   1.08417   -1.000
 5179.00    1.12723   1.08227   -1.000
 5180.00    1.11379   1.06631   -1.000
 5181.00    1.08177   1.03087   -1.000
 5182.00    1.02459   0.97924   -1.000
 5183.00    0.96433   0.93155   -1.000
 5184.00    0.95096   0.91582   -1.000
 5185.00    0.99984   0.94210   -1.000
 5186.00    1.06310   0.99074   -1.000
 5187.00    1.09557   1.03229   -1.000
 5188.00    1.10037   1.05364   -1.000
 5189.00    1.10053   1.05965   -1.000
 5190.00    1.09497   1.05647   -1.000
 5191.00    1.07257   1.04569   -1.000
 5192.00    1.04922   1.03245   -1.000
 5193.00    1.04565   1.02556   -1.000
 5194.00    1.05702   1.02818   -1.000
 5195.00    1.06984   1.03602   -1.000
 5196.00    1.08294   1.04496   -1.000
 5197.00    1.09722   1.05543   -1.000
 5198.00    1.10716   1.06810   -1.000
 5199.00    1.11400   1.08046   -1.000
 5200.00    1.12028   1.08850   -1.000
 5201.00    1.12030   1.08886   -1.000
 5202.00    1.11273   1.07976   -1.000
 5203.00    1.09830   1.06171   -1.000
 5204.00    1.07671   1.03806   -1.000
 5205.00    1.05508   1.01544   -1.000
 5206.00    1.04370   1.00058   -1.000
 5207.00    1.04294   0.99490   -1.000
 5208.00    1.04506   0.99558   -1.000
 5209.00    1.04914   1.00278   -1.000
 5210.00    1.06281   1.01986   -1.000
 5211.00    1.09112   1.04591   -1.000
 5212.00    1.12175   1.07268   -1.000
 5213.00    1.13751   1.08957   -1.000
 5214.00    1.13626   1.09092   -1.000
 5215.00    1.11801   1.08009   -1.000
 5216.00    1.10068   1.06839   -1.000
 5217.00    1.10262   1.06691   -1.000
 5218.00    1.11639   1.07809   -1.000
 5219.00    1.13296   1.09549   -1.000
 5220.00    1.14482   1.11045   -1.000
 5221.00    1.15127   1.11793   -1.000
 5222.00    1.14890   1.11614   -1.000
 5223.00    1.13392   1.10377   -1.000
 5224.00    1.10575   1.07933   -1.000
 5225.00    1.06718   1.04514   -1.000
 5226.00    1.03367   1.01260   -1.000
 5227.00    1.02705   0.99867   -1.000
 5228.00    1.05465   1.01193   -1.000
 5229.00    1.09379   1.04209   -1.000
 5230.00    1.12215   1.06833   -1.000
 5231.00    1.13085   1.07795   -1.000
 5232.00    1.11745   1.07218   -1.000
 5233.00    1.09890   1.06109   -1.000
 5234.00    1.09391   1.05677   -1.000
 5235.00    1.10532   1.06533   -1.000
 5236.00    1.12740   1.08295   -1.000
 5237.00    1.14414   1.10085   -1.000
 5238.00    1.14959   1.11259   -1.000
 5239.00    1.15005   1.11714   -1.000
 5240.00    1.15078   1.11723   -1.000
 5241.00    1.15167   1.11567   -1.000
 5242.00    1.15350   1.11445   -1.000
 5243.00    1.15565   1.11510   -1.000
 5244.00    1.15745   1.11678   -1.000
 5245.00    1.15384   1.11481   -1.000
 5246.00    1.13089   1.10561   -1.000
 5247.00    1.10560   1.09197   -1.000
 5248.00    1.09813   1.08013   -1.000
 5249.00    1.09513   1.07328   -1.000
 5250.00    1.08944   1.07048   -1.000
 5251.00    1.08815   1.07113   -1.000
 5252.00    1.09528   1.07498   -1.000
 5253.00    1.10413   1.07921   -1.000
 5254.00    1.10661   1.08158   -1.000
 5255.00    1.10939   1.08510   -1.000
 5256.00    1.12599   1.09420   -1.000
 5257.00    1.14937   1.10794   -1.000
 5258.00    1.15778   1.11938   -1.000
 5259.00    1.15332   1.12078   -1.000
 5260.00    1.13761   1.10854   -1.000
 5261.00    1.11109   1.08401   -1.000
 5262.00    1.08249   1.05252   -1.000
 5263.00    1.05558   1.02140   -1.000
 5264.00    1.03346   0.99749   -1.000
 5265.00    1.02446   0.98541   -1.000
 5266.00    1.03470   0.98503   -1.000
 5267.00    1.05089   0.98857   -1.000
 5268.00    1.04652   0.98515   -1.000
 5269.00    1.01782   0.97338   -1.000
 5270.00    1.00228   0.96727   -1.000
 5271.00    1.02950   0.98134   -1.000
 5272.00    1.06859   1.01026   -1.000
 5273.00    1.08869   1.03561   -1.000
 5274.00    1.09542   1.04845   -1.000
 5275.00    1.09846   1.05492   -1.000
 5276.00    1.10696   1.06526   -1.000
 5277.00    1.12553   1.08259   -1.000
 5278.00    1.14492   1.10027   -1.000
 5279.00    1.15087   1.10807   -1.000
 5280.00    1.14297   1.10186   -1.000
 5281.00    1.12577   1.08647   -1.000
 5282.00    1.08868   1.07031   -1.000
 5283.00    1.07378   1.06129   -1.000
 5284.00    1.09660   1.06544   -1.000
 5285.00    1.12708   1.08317   -1.000
 5286.00    1.15288   1.10667   -1.000
 5287.00    1.16331   1.12542   -1.000
 5288.00    1.16269   1.13489   -1.000
 5289.00    1.16020   1.13821   -1.000
 5290.00    1.16027   1.13930   -1.000
 5291.00    1.16271   1.13869   -1.000
 5292.00    1.16067   1.13638   -1.000
 5293.00    1.15469   1.13281   -1.000
 5294.00    1.14694   1.12640   -1.000
 5295.00    1.13540   1.11391   -1.000
 5296.00    1.11350   1.09433   -1.000
 5297.00    1.08762   1.07348   -1.000
 5298.00    1.08143   1.06174   -1.000
 5299.00    1.09525   1.06380   -1.000
 5300.00    1.11079   1.07449   -1.000
 5301.00    1.11584   1.08591   -1.000
 5302.00    1.11690   1.09566   -1.000
 5303.00    1.12648   1.10659   -1.000
 5304.00    1.14683   1.11862   -1.000
 5305.00    1.16003   1.12687   -1.000
 5306.00    1.15695   1.12844   -1.000
 5307.00    1.14621   1.12617   -1.000
 5308.00    1.14614   1.12583   -1.000
 5309.00    1.15501   1.13006   -1.000
 5310.00    1.16323   1.13600   -1.000
 5311.00    1.16602   1.13938   -1.000
 5312.00    1.16403   1.13838   -1.000
 5313.00    1.16124   1.13335   -1.000
 5314.00    1.15906   1.12491   -1.000
 5315.00    1.14941   1.11394   -1.000
 5316.00    1.13321   1.10362   -1.000
 5317.00    1.12800   1.09927   -1.000
 5318.00    1.13883   1.10338   -1.000
 5319.00    1.14549   1.11190   -1.000
 5320.00    1.14593   1.11748   -1.000
 5321.00    1.14006   1.11553   -1.000
 5322.00    1.13321   1.10584   -1.000
 5323.00    1.12296   1.09158   -1.000
 5324.00    1.11119   1.07746   -1.000
 5325.00    1.10758   1.06454   -1.000
 5326.00    1.09256   1.04757   -1.000
 5327.00    1.05801   1.02311   -1.000
 5328.00    1.02903   1.00165   -1.000
 5329.00    1.03437   1.00121   -1.000
 5330.00    1.07437   1.02560   -1.000
 5331.00    1.11181   1.05880   -1.000
 5332.00    1.12395   1.08314   -1.000
 5333.00    1.12783   1.09570   -1.000
 5334.00    1.13690   1.10274   -1.000
 5335.00    1.14205   1.10723   -1.000
 5336.00    1.13837   1.10787   -1.000
 5337.00    1.13318   1.10369   -1.000
 5338.00    1.12889   1.09459   -1.000
 5339.00    1.11969   1.08134   -1.000
 5340.00    1.10413   1.06862   -1.000
 5341.00    1.10082   1.06455   -1.000
 5342.00    1.11511   1.07284   -1.000
 5343.00    1.13054   1.08711   -1.000
 5344.00    1.14075   1.09680   -1.000
 5345.00    1.14278   1.09757   -1.000
 5346.00    1.13517   1.09226   -1.000
 5347.00    1.12498   1.08564   -1.000
 5348.00    1.11997   1.08098   -1.000
 5349.00    1.11602   1.08056   -1.000
 5350.00    1.12497   1.08619   -1.000
 5351.00    1.14208   1.09679   -1.000
 5352.00    1.14864   1.10825   -1.000
 5353.00    1.15080   1.11725   -1.000
 5354.00    1.16049   1.12446   -1.000
 5355.00    1.16844   1.13175   -1.000
 5356.00    1.17352   1.13835   -1.000
 5357.00    1.17142   1.14227   -1.000
 5358.00    1.17166   1.14287   -1.000
 5359.00    1.16900   1.14060   -1.000
 5360.00    1.16589   1.13530   -1.000
 5361.00    1.15550   1.12651   -1.000
 5362.00    1.14320   1.11515   -1.000
 5363.00    1.13681   1.10352   -1.000
 5364.00    1.13141   1.09399   -1.000
 5365.00    1.12939   1.08823   -1.000
 5366.00    1.12576   1.08628   -1.000
 5367.00    1.12039   1.08508   -1.000
 5368.00    1.11912   1.07939   -1.000
 5369.00    1.10847   1.06604   -1.000
 5370.00    1.08513   1.04846   -1.000
 5371.00    1.07349   1.03717   -1.000
 5372.00    1.09018   1.04219   -1.000
 5373.00    1.12359   1.06364   -1.000
 5374.00    1.14802   1.09066   -1.000
 5375.00    1.15968   1.11091   -1.000
 5376.00    1.16719   1.12020   -1.000
 5377.00    1.16729   1.12183   -1.000
 5378.00    1.16318   1.12011   -1.000
 5379.00    1.15633   1.11639   -1.000
 5380.00    1.14694   1.11051   -1.000
 5381.00    1.14051   1.10343   -1.000
 5382.00    1.13332   1.09749   -1.000
 5383.00    1.13046   1.09526   -1.000
 5384.00    1.13462   1.09826   -1.000
 5385.00    1.14206   1.10565   -1.000
 5386.00    1.15351   1.11338   -1.000
 5387.00    1.15506   1.11673   -1.000
 5388.00    1.14634   1.11378   -1.000
 5389.00    1.13802   1.10584   -1.000
 5390.00    1.13038   1.09607   -1.000
 5391.00    1.12597   1.08739   -1.000
 5392.00    1.11987   1.08099   -1.000
 5393.00    1.11216   1.07671   -1.000
 5394.00    1.11178   1.07286   -1.000
 5395.00    1.10472   1.06596   -1.000
 5396.00    1.08951   1.05523   -1.000
 5397.00    1.07862   1.04653   -1.000
 5398.00    1.08922   1.04793   -1.000
 5399.00    1.11088   1.06019   -1.000
 5400.00    1.13002   1.07524   -1.000
 5401.00    1.13231   1.08432   -1.000
 5402.00    1.12616   1.08277   -1.000
 5403.00    1.11125   1.06916   -1.000
 5404.00    1.08403   1.04760   -1.000
 5405.00    1.06890   1.02921   -1.000
 5406.00    1.07423   1.02433   -1.000
 5407.00    1.08608   1.03303   -1.000
 5408.00    1.09693   1.04495   -1.000
 5409.00    1.09739   1.05112   -1.000
 5410.00    1.09415   1.05421   -1.000
 5411.00    1.10339   1.06184   -1.000
 5412.00    1.12501   1.07464   -1.000
 5413.00    1.13882   1.08593   -1.000
 5414.00    1.13709   1.09128   -1.000
 5415.00    1.12939   1.09377   -1.000
 5416.00    1.13244   1.09810   -1.000
 5417.00    1.14003   1.10386   -1.000
 5418.00    1.14048   1.10736   -1.000
 5419.00    1.13942   1.10697   -1.000
 5420.00    1.13714   1.10435   -1.000
 5421.00    1.13719   1.10108   -1.000
 5422.00    1.13778   1.09642   -1.000
 5423.00    1.12766   1.09008   -1.000
 5424.00    1.11760   1.08534   -1.000
 5425.00    1.12123   1.08722   -1.000
 5426.00    1.12880   1.09512   -1.000
 5427.00    1.13525   1.09934   -1.000
 5428.00    1.12537   1.09142   -1.000
 5429.00    1.09947   1.07537   -1.000
 5430.00    1.08943   1.06373   -1.000
 5431.00    1.09702   1.06309   -1.000
 5432.00    1.10431   1.06670   -1.000
 5433.00    1.09758   1.06503   -1.000
 5434.00    1.08355   1.05877   -1.000
 5435.00    1.08142   1.05698   -1.000
 5436.00    1.09369   1.06615   -1.000
 5437.00    1.11251   1.08430   -1.000
 5438.00    1.13537   1.10402   -1.000
 5439.00    1.15317   1.11877   -1.000
 5440.00    1.15969   1.12685   -1.000
 5441.00    1.15674   1.13007   -1.000
 5442.00    1.15144   1.12929   -1.000
 5443.00    1.15032   1.12251   -1.000
 5444.00    1.13811   1.10656   -1.000
 5445.00    1.10931   1.08267   -1.000
 5446.00    1.07895   1.05979   -1.000
 5447.00    1.07169   1.05000   -1.000
 5448.00    1.09194   1.05897   -1.000
 5449.00    1.12789   1.07971   -1.000
 5450.00    1.14513   1.09920   -1.000
 5451.00    1.14624   1.10924   -1.000
 5452.00    1.14487   1.10804   -1.000
 5453.00    1.13758   1.09642   -1.000
 5454.00    1.11129   1.07779   -1.000
 5455.00    1.08186   1.06091   -1.000
 5456.00    1.08010   1.05744   -1.000
 5457.00    1.10889   1.07116   -1.000
 5458.00    1.13793   1.09257   -1.000
 5459.00    1.14674   1.10815   -1.000
 5460.00    1.13834   1.11117   -1.000
 5461.00    1.12756   1.10342   -1.000
 5462.00    1.11960   1.09135   -1.000
 5463.00    1.11269   1.08256   -1.000
 5464.00    1.11958   1.08193   -1.000
 5465.00    1.13055   1.08848   -1.000
 5466.00    1.13294   1.09708   -1.000
 5467.00    1.13794   1.10370   -1.000
 5468.00    1.14271   1.10764   -1.000
 5469.00    1.14252   1.10915   -1.000
 5470.00    1.13507   1.10783   -1.000
 5471.00    1.12575   1.10394   -1.000
 5472.00    1.12247   1.09844   -1.000
 5473.00    1.11662   1.09111   -1.000
 5474.00    1.10743   1.08039   -1.000
 5475.00    1.09398   1.06598   -1.000
 5476.00    1.07539   1.05233   -1.000
 5477.00    1.07278   1.04759   -1.000
 5478.00    1.09097   1.05562   -1.000
 5479.00    1.10999   1.06993   -1.000
 5480.00    1.11331   1.07953   -1.000
 5481.00    1.10593   1.08149   -1.000
 5482.00    1.10406   1.08227   -1.000
 5483.00    1.11152   1.08788   -1.000
 5484.00    1.11962   1.09748   -1.000
 5485.00    1.13239   1.10511   -1.000
 5486.00    1.13431   1.10602   -1.000
 5487.00    1.12451   1.10082   -1.000
 5488.00    1.12075   1.09482   -1.000
 5489.00    1.11917   1.09295   -1.000
 5490.00    1.12469   1.09545   -1.000
 5491.00    1.12653   1.09929   -1.000
 5492.00    1.12362   1.10181   -1.000
 5493.00    1.12491   1.10230   -1.000
 5494.00    1.12589   1.10121   -1.000
 5495.00    1.12836   1.09832   -1.000
 5496.00    1.12468   1.09350   -1.000
 5497.00    1.11214   1.08898   -1.000
 5498.00    1.10797   1.08785   -1.000
 5499.00    1.12155   1.08943   -1.000
 5500.00    1.12627   1.08870   -1.000
 5501.00    1.11601   1.08319   -1.000
 5502.00    1.10724   1.07756   -1.000
 5503.00    1.11219   1.07659   -1.000
 5504.00    1.12306   1.07792   -1.000
 5505.00    1.11872   1.07621   -1.000
 5506.00    1.10335   1.07127   -1.000
 5507.00    1.09614   1.06893   -1.000
 5508.00    1.10438   1.07317   -1.000
 5509.00    1.11924   1.08029   -1.000
 5510.00    1.11986   1.08337   -1.000
 5511.00    1.10933   1.07958   -1.000
 5512.00    1.09938   1.07181   -1.000
 5513.00    1.08904   1.06570   -1.000
 5514.00    1.09047   1.06546   -1.000
 5515.00    1.09975   1.07136   -1.000
 5516.00    1.11469   1.08091   -1.000
 5517.00    1.12618   1.09153   -1.000
 5518.00    1.13765   1.10119   -1.000
 5519.00    1.14272   1.10781   -1.000
 5520.00    1.14496   1.11040   -1.000
 5521.00    1.13744   1.11014   -1.000
 5522.00    1.13707   1.10910   -1.000
 5523.00    1.13803   1.10765   -1.000
 5524.00    1.13445   1.10358   -1.000
 5525.00    1.12290   1.09404   -1.000
 5526.00    1.10290   1.07859   -1.000
 5527.00    1.08590   1.06187   -1.000
 5528.00    1.07398   1.05211   -1.000
 5529.00    1.08209   1.05539   -1.000
 5530.00    1.10487   1.06966   -1.000
 5531.00    1.12242   1.08514   -1.000
 5532.00    1.12379   1.09307   -1.000
 5533.00    1.11634   1.09229   -1.000
 5534.00    1.10915   1.08743   -1.000
 5535.00    1.11056   1.08426   -1.000
 5536.00    1.11226   1.08586   -1.000
 5537.00    1.12084   1.09109   -1.000
 5538.00    1.12565   1.09697   -1.000
 5539.00    1.12950   1.10207   -1.000
 5540.00    1.13084   1.10619   -1.000
 5541.00    1.13268   1.10803   -1.000
 5542.00    1.13778   1.10610   -1.000
 5543.00    1.13098   1.10144   -1.000
 5544.00    1.12199   1.09742   -1.000
 5545.00    1.12158   1.09651   -1.000
 5546.00    1.11976   1.09861   -1.000
 5547.00    1.12536   1.10284   -1.000
 5548.00    1.13509   1.10871   -1.000
 5549.00    1.14161   1.11449   -1.000
 5550.00    1.14471   1.11771   -1.000
 5551.00    1.13861   1.11722   -1.000
 5552.00    1.13564   1.11361   -1.000
 5553.00    1.12888   1.10863   -1.000
 5554.00    1.11933   1.10464   -1.000
 5555.00    1.12286   1.10332   -1.000
 5556.00    1.12385   1.10423   -1.000
 5557.00    1.12801   1.10568   -1.000
 5558.00    1.13258   1.10682   -1.000
 5559.00    1.13411   1.10754   -1.000
 5560.00    1.12946   1.10684   -1.000
 5561.00    1.13049   1.10360   -1.000
 5562.00    1.12101   1.09840   -1.000
 5563.00    1.11538   1.09340   -1.000
 5564.00    1.11414   1.09016   -1.000
 5565.00    1.10854   1.08823   -1.000
 5566.00    1.10535   1.08647   -1.000
 5567.00    1.10536   1.08461   -1.000
 5568.00    1.10815   1.08275   -1.000
 5569.00    1.10320   1.08122   -1.000
 5570.00    1.09246   1.08017   -1.000
 5571.00    1.08283   1.07871  293.001
 5572.00    1.07691   1.07644  297.876
 5573.00    1.08041   1.07559  308.259
 5574.00    1.10173   1.07859   -1.000
 5575.00    1.10679   1.08389   -1.000
 5576.00    1.10704   1.08857   -1.000
 5577.00    1.11513   1.09242   -1.000
 5578.00    1.11447   1.09634   -1.000
 5579.00    1.11719   1.09963   -1.000
 5580.00    1.12178   1.10071   -1.000
 5581.00    1.11590   1.09956   -1.000
 5582.00    1.11378   1.09785   -1.000
 5583.00    1.11176   1.09610   -1.000
 5584.00    1.11642   1.09163   -1.000
 5585.00    1.10943   1.08057   -1.000
 5586.00    1.08559   1.06272   -1.000
 5587.00    1.06384   1.04411   -1.000
 5588.00    1.05437   1.03264   -1.000
 5589.00    1.05698   1.03226   -1.000
 5590.00    1.06925   1.04111   -1.000
 5591.00    1.08859   1.05329   -1.000
 5592.00    1.09389   1.06257   -1.000
 5593.00    1.09117   1.06680   -1.000
 5594.00    1.09133   1.06922   -1.000
 5595.00    1.09126   1.07355   -1.000
 5596.00    1.10207   1.07838   -1.000
 5597.00    1.10489   1.07855   -1.000
 5598.00    1.09212   1.07275   -1.000
 5599.00    1.08773   1.06511   -1.000
 5600.00    1.08628   1.05844   -1.000
 5601.00    1.07800   1.05301   -1.000
 5602.00    1.06948   1.05164   -1.000
 5603.00    1.07186   1.05868   -1.000
 5604.00    1.09257   1.07432   -1.000
 5605.00    1.11561   1.09303   -1.000
 5606.00    1.12812   1.10805   -1.000
 5607.00    1.13473   1.11660   -1.000
 5608.00    1.13533   1.12007   -1.000
 5609.00    1.13437   1.12128   -1.000
 5610.00    1.13590   1.12211   -1.000
 5611.00    1.13538   1.12199   -1.000
 5612.00    1.13483   1.11746   -1.000
 5613.00    1.12852   1.10450   -1.000
 5614.00    1.10152   1.08409   -1.000
 5615.00    1.07738   1.06479   -1.000
 5616.00    1.07465   1.05751   -1.000
 5617.00    1.08656   1.06463   -1.000
 5618.00    1.10266   1.07797   -1.000
 5619.00    1.11380   1.08900   -1.000
 5620.00    1.11406   1.09562   -1.000
 5621.00    1.11700   1.09865   -1.000
 5622.00    1.11846   1.09739   -1.000
 5623.00    1.10914   1.09089   -1.000
 5624.00    1.08805   1.08221  299.341
 5625.00    1.08700   1.07768   -1.000
 5626.00    1.09609   1.08072   -1.000
 5627.00    1.10686   1.08898   -1.000
 5628.00    1.12015   1.09755   -1.000
 5629.00    1.12699   1.10359   -1.000
 5630.00    1.13206   1.10711   -1.000
 5631.00    1.13217   1.10882   -1.000
 5632.00    1.13362   1.10885   -1.000
 5633.00    1.12915   1.10694   -1.000
 5634.00    1.12403   1.10310   -1.000
 5635.00    1.12070   1.09794   -1.000
 5636.00    1.11617   1.09266   -1.000
 5637.00    1.11033   1.08869   -1.000
 5638.00    1.10635   1.08679   -1.000
 5639.00    1.10865   1.08618   -1.000
 5640.00    1.10467   1.08513   -1.000
 5641.00    1.10016   1.08363   -1.000
 5642.00    1.10798   1.08370   -1.000
 5643.00    1.11214   1.08611   -1.000
 5644.00    1.10862   1.08950   -1.000
 5645.00    1.11559   1.09261   -1.000
 5646.00    1.12619   1.09490   -1.000
 5647.00    1.12152   1.09591   -1.000
 5648.00    1.11782   1.09553   -1.000
 5649.00    1.12121   1.09453   -1.000
 5650.00    1.11673   1.09449   -1.000
 5651.00    1.12239   1.09593   -1.000
 5652.00    1.12724   1.09712   -1.000
 5653.00    1.12392   1.09591   -1.000
 5654.00    1.11905   1.09159   -1.000
 5655.00    1.10725   1.08427   -1.000
 5656.00    1.09816   1.07349   -1.000
 5657.00    1.08311   1.05986   -1.000
 5658.00    1.06009   1.04861   -1.000
 5659.00    1.06273   1.04634   -1.000
 5660.00    1.07945   1.05272   -1.000
 5661.00    1.09143   1.06104   -1.000
 5662.00    1.09197   1.06719   -1.000
 5663.00    1.09245   1.07302   -1.000
 5664.00    1.10725   1.08047   -1.000
 5665.00    1.11127   1.08677   -1.000
 5666.00    1.10731   1.08802   -1.000
 5667.00    1.11030   1.08482   -1.000
 5668.00    1.10071   1.08152   -1.000
 5669.00    1.09704   1.08140   -1.000
 5670.00    1.10046   1.08477   -1.000
 5671.00    1.10704   1.09027   -1.000
 5672.00    1.11959   1.09603   -1.000
 5673.00    1.12782   1.10034   -1.000
 5674.00    1.12629   1.10229   -1.000
 5675.00    1.12026   1.10259   -1.000
 5676.00    1.12466   1.10284   -1.000
 5677.00    1.11883   1.10331   -1.000
 5678.00    1.11599   1.10261   -1.000
 5679.00    1.11797   1.09956   -1.000
 5680.00    1.10944   1.09387   -1.000
 5681.00    1.10830   1.08585   -1.000
 5682.00    1.10541   1.07721   -1.000
 5683.00    1.09716   1.07117   -1.000
 5684.00    1.09723   1.06981   -1.000
 5685.00    1.09721   1.07172   -1.000
 5686.00    1.09121   1.07316   -1.000
 5687.00    1.08712   1.07233   -1.000
 5688.00    1.08712   1.07103   -1.000
 5689.00    1.09207   1.07245   -1.000
 5690.00    1.10399   1.07791   -1.000
 5691.00    1.11515   1.08569   -1.000
 5692.00    1.11716   1.09271   -1.000
 5693.00    1.11641   1.09697   -1.000
 5694.00    1.11824   1.09868   -1.000
 5695.00    1.11572   1.09885   -1.000
 5696.00    1.11427   1.09781   -1.000
 5697.00    1.11495   1.09504   -1.000
 5698.00    1.11008   1.09014   -1.000
 5699.00    1.09528   1.08380   -1.000
 5700.00    1.09436   1.07750   -1.000
 5701.00    1.09279   1.07319   -1.000
 5702.00    1.08522   1.07244   -1.000
 5703.00    1.09017   1.07495   -1.000
 5704.00    1.09774   1.07756   -1.000
 5705.00    1.09449   1.07644   -1.000
 5706.00    1.08857   1.07052   -1.000
 5707.00    1.07237   1.06129   -1.000
 5708.00    1.06299   1.05090   -1.000
 5709.00    1.05112   1.04230   -1.000
 5710.00    1.04801   1.03888   -1.000
 5711.00    1.05613   1.04246   -1.000
 5712.00    1.06675   1.05237   -1.000
 5713.00    1.08431   1.06558   -1.000
 5714.00    1.09894   1.07778   -1.000
 5715.00    1.10232   1.08594   -1.000
 5716.00    1.11069   1.09035   -1.000
 5717.00    1.11211   1.09323   -1.000
 5718.00    1.10999   1.09634   -1.000
 5719.00    1.11411   1.10013   -1.000
 5720.00    1.11867   1.10411   -1.000
 5721.00    1.12388   1.10749   -1.000
 5722.00    1.13007   1.10985   -1.000
 5723.00    1.12650   1.11089   -1.000
 5724.00    1.12486   1.10997   -1.000
 5725.00    1.11725   1.10642   -1.000
 5726.00    1.10840   1.10109  300.927
 5727.00    1.10292   1.09661  297.830
 5728.00    1.10946   1.09490   -1.000
 5729.00    1.12009   1.09538   -1.000
 5730.00    1.11808   1.09593   -1.000
 5731.00    1.10915   1.09568   -1.000
 5732.00    1.11174   1.09628   -1.000
 5733.00    1.11540   1.09928   -1.000
 5734.00    1.11934   1.10354   -1.000
 5735.00    1.12038   1.10647   -1.000
 5736.00    1.11588   1.10706   -1.000
 5737.00    1.11958   1.10632   -1.000
 5738.00    1.11938   1.10564   -1.000
 5739.00    1.11477   1.10542   -1.000
 5740.00    1.11590   1.10506   -1.000
 5741.00    1.11396   1.10392   -1.000
 5742.00    1.11252   1.10257   -1.000
 5743.00    1.11572   1.10247   -1.000
 5744.00    1.11750   1.10404   -1.000
 5745.00    1.12096   1.10548   -1.000
 5746.00    1.11913   1.10458   -1.000
 5747.00    1.10838   1.10172  307.621
 5748.00    1.10732   1.09971  306.825
 5749.00    1.10899   1.10014   -1.000
 5750.00    1.11432   1.10066   -1.000
 5751.00    1.11250   1.09742   -1.000
 5752.00    1.10342   1.08995   -1.000
 5753.00    1.08997   1.08247  299.103
 5754.00    1.08458   1.08055  303.097
 5755.00    1.09664   1.08602   -1.000
 5756.00    1.11055   1.09568   -1.000
 5757.00    1.12165   1.10449   -1.000
 5758.00    1.12116   1.10880   -1.000
 5759.00    1.11909   1.10727   -1.000
 5760.00    1.11324   1.10086   -1.000
 5761.00    1.10381   1.09254   -1.000
 5762.00    1.09433   1.08684  293.757
 5763.00    1.09761   1.08778   -1.000
 5764.00    1.10827   1.09540   -1.000
 5765.00    1.11586   1.10520   -1.000
 5766.00    1.12647   1.11224   -1.000
 5767.00    1.12544   1.11492   -1.000
 5768.00    1.12637   1.11445   -1.000
 5769.00    1.12407   1.11248   -1.000
 5770.00    1.12054   1.10990   -1.000
 5771.00    1.11343   1.10695  297.625
 5772.00    1.11057   1.10370  299.071
 5773.00    1.11313   1.10057   -1.000
 5774.00    1.10512   1.09824  310.996
 5775.00    1.10240   1.09744  314.104
 5776.00    1.10929   1.09816   -1.000
 5777.00    1.11225   1.09851   -1.000
 5778.00    1.11315   1.09566   -1.000
 5779.00    1.11094   1.08856   -1.000
 5780.00    1.10601   1.07889   -1.000
 5781.00    1.09554   1.07020   -1.000
 5782.00    1.09380   1.06541   -1.000
 5783.00    1.09589   1.06458   -1.000
 5784.00    1.09512   1.06589   -1.000
 5785.00    1.09670   1.06844   -1.000
 5786.00    1.10405   1.07280   -1.000
 5787.00    1.10939   1.07896   -1.000
 5788.00    1.11351   1.08476   -1.000
 5789.00    1.11673   1.08768   -1.000
 5790.00    1.11035   1.08743   -1.000
 5791.00    1.10528   1.08672   -1.000
 5792.00    1.11165   1.08881   -1.000
 5793.00    1.11760   1.09408   -1.000
 5794.00    1.12022   1.10004   -1.000
 5795.00    1.12468   1.10367   -1.000
 5796.00    1.12249   1.10343   -1.000
 5797.00    1.12014   1.10054   -1.000
 5798.00    1.11624   1.09883   -1.000
 5799.00    1.12144   1.10107   -1.000
 5800.00    1.13192   1.10597   -1.000
 5801.00    1.13381   1.10999   -1.000
 5802.00    1.13140   1.11069   -1.000
 5803.00    1.12900   1.10793   -1.000
 5804.00    1.12404   1.10345   -1.000
 5805.00    1.11819   1.09993   -1.000
 5806.00    1.11538   1.09915   -1.000
 5807.00    1.12225   1.10088   -1.000
 5808.00    1.12770   1.10350   -1.000
 5809.00    1.12806   1.10591   -1.000
 5810.00    1.13145   1.10800   -1.000
 5811.00    1.13317   1.10952   -1.000
 5812.00    1.13459   1.10964   -1.000
 5813.00    1.13061   1.10772   -1.000
 5814.00    1.13261   1.10382   -1.000
 5815.00    1.12708   1.09945   -1.000
 5816.00    1.12458   1.09754   -1.000
 5817.00    1.12603   1.10000   -1.000
 5818.00    1.13221   1.10548   -1.000
 5819.00    1.13899   1.11054   -1.000
 5820.00    1.13836   1.11310   -1.000
 5821.00    1.13596   1.11364   -1.000
 5822.00    1.13960   1.11346   -1.000
 5823.00    1.13953   1.11323   -1.000
 5824.00    1.13669   1.11296   -1.000
 5825.00    1.13666   1.11279   -1.000
 5826.00    1.14191   1.11305   -1.000
 5827.00    1.13783   1.11389   -1.000
 5828.00    1.13488   1.11503   -1.000
 5829.00    1.14208   1.11582   -1.000
 5830.00    1.14420   1.11586   -1.000
 5831.00    1.14183   1.11510   -1.000
 5832.00    1.14268   1.11358   -1.000
 5833.00    1.14197   1.11139   -1.000
 5834.00    1.13817   1.10917   -1.000
 5835.00    1.13513   1.10809   -1.000
 5836.00    1.13707   1.10866   -1.000
 5837.00    1.13832   1.11023   -1.000
 5838.00    1.13993   1.11188   -1.000
 5839.00    1.14040   1.11343   -1.000
 5840.00    1.14019   1.11502   -1.000
 5841.00    1.14081   1.11617   -1.000
 5842.00    1.14122   1.11599   -1.000
 5843.00    1.14104   1.11417   -1.000
 5844.00    1.13700   1.11114   -1.000
 5845.00    1.13355   1.10752   -1.000
 5846.00    1.13267   1.10396   -1.000
 5847.00    1.13217   1.10142   -1.000
 5848.00    1.13259   1.10056   -1.000
 5849.00    1.13305   1.10041   -1.000
 5850.00    1.13067   1.09883   -1.000
 5851.00    1.12888   1.09431   -1.000
 5852.00    1.11888   1.08768   -1.000
 5853.00    1.10396   1.08161   -1.000
 5854.00    1.10047   1.07747   -1.000
 5855.00    1.10686   1.07341   -1.000
 5856.00    1.10553   1.06692   -1.000
 5857.00    1.09303   1.05961   -1.000
 5858.00    1.09244   1.05680   -1.000
 5859.00    1.10196   1.06113   -1.000
 5860.00    1.11297   1.06958   -1.000
 5861.00    1.12485   1.07747   -1.000
 5862.00    1.12586   1.08277   -1.000
 5863.00    1.11918   1.08615   -1.000
 5864.00    1.12025   1.08788   -1.000
 5865.00    1.12045   1.08721   -1.000
 5866.00    1.11925   1.08498   -1.000
 5867.00    1.11602   1.08409   -1.000
 5868.00    1.11735   1.08660   -1.000
 5869.00    1.12753   1.09167   -1.000
 5870.00    1.13053   1.09661   -1.000
 5871.00    1.13222   1.09915   -1.000
 5872.00    1.13078   1.09904   -1.000
 5873.00    1.12454   1.09750   -1.000
 5874.00    1.11742   1.09573   -1.000
 5875.00    1.11786   1.09393   -1.000
 5876.00    1.11765   1.09180   -1.000
 5877.00    1.11807   1.08896   -1.000
 5878.00    1.11162   1.08520   -1.000
 5879.00    1.10628   1.08098   -1.000
 5880.00    1.09668   1.07735   -1.000
 5881.00    1.08623   1.07468   -1.000
 5882.00    1.07754   1.07211  345.575
 5883.00    1.05683   1.06886   -1.000
 5884.00    1.03968   1.06505   -1.000
 5885.00    1.04293   1.05988   -1.000
 5886.00    1.06469   1.04871   -1.000
 5887.00    1.07360   1.02442   -1.000
 5888.00    1.04762   0.98589   -1.000
 5889.00    0.99454   0.94555   -1.000
 5890.00    0.96174   0.92374   -1.000
 5891.00    0.97533   0.92965   -1.000
 5892.00    1.01609   0.95071   -1.000
 5893.00    1.04401   0.96530   -1.000
 5894.00    1.03913   0.96241   -1.000
 5895.00    1.01905   0.94951   -1.000
 5896.00    1.01044   0.94401   -1.000
 5897.00    1.02952   0.95637   -1.000
 5898.00    1.06654   0.98168   -1.000
 5899.00    1.08925   1.00817   -1.000
 5900.00    1.09599   1.02929   -1.000
 5901.00    1.10478   1.04470   -1.000
 5902.00    1.10730   1.05543   -1.000
 5903.00    1.10488   1.06207   -1.000
 5904.00    1.10455   1.06546   -1.000
 5905.00    1.10477   1.06718   -1.000
 5906.00    1.10731   1.06879   -1.000
 5907.00    1.10776   1.07098   -1.000
 5908.00    1.10956   1.07345   -1.000
 5909.00    1.11124   1.07558   -1.000
 5910.00    1.10865   1.07667   -1.000
 5911.00    1.10111   1.07575   -1.000
 5912.00    1.09571   1.07178   -1.000
 5913.00    1.08379   1.06499   -1.000
 5914.00    1.07194   1.05796   -1.000
 5915.00    1.07590   1.05405   -1.000
 5916.00    1.07642   1.05464   -1.000
 5917.00    1.08045   1.05862   -1.000
 5918.00    1.09091   1.06377   -1.000
 5919.00    1.10466   1.06816   -1.000
 5920.00    1.10873   1.07075   -1.000
 5921.00    1.10975   1.07151   -1.000
 5922.00    1.10970   1.07131   -1.000
 5923.00    1.11048   1.07156   -1.000
 5924.00    1.11415   1.07327   -1.000
 5925.00    1.11581   1.07595   -1.000
 5926.00    1.11135   1.07768   -1.000
 5927.00    1.11348   1.07657   -1.000
 5928.00    1.11484   1.07248   -1.000
 5929.00    1.10821   1.06778   -1.000
 5930.00    1.10087   1.06567   -1.000
 5931.00    1.10513   1.06716   -1.000
 5932.00    1.10331   1.06994   -1.000
 5933.00    1.09560   1.07106   -1.000
 5934.00    1.08697   1.07050   -1.000
 5935.00    1.07721   1.07069  307.176
 5936.00    1.07966   1.07294  306.278
 5937.00    1.08718   1.07582   -1.000
 5938.00    1.09053   1.07700   -1.000
 5939.00    1.09259   1.07528   -1.000
 5940.00    1.09008   1.07137   -1.000
 5941.00    1.08566   1.06756   -1.000
 5942.00    1.08597   1.06609   -1.000
 5943.00    1.09183   1.06753   -1.000
 5944.00    1.09785   1.07047   -1.000
 5945.00    1.11008   1.07254   -1.000
 5946.00    1.11637   1.07199   -1.000
 5947.00    1.11527   1.06899   -1.000
 5948.00    1.10598   1.06580   -1.000
 5949.00    1.09913   1.06486   -1.000
 5950.00    1.09729   1.06615   -1.000
 5951.00    1.09207   1.06735   -1.000
 5952.00    1.08799   1.06699   -1.000
 5953.00    1.08892   1.06615   -1.000
 5954.00    1.09339   1.06599   -1.000
 5955.00    1.09845   1.06557   -1.000
 5956.00    1.09670   1.06422   -1.000
 5957.00    1.09494   1.06352   -1.000
 5958.00    1.10012   1.06542   -1.000
 5959.00    1.10163   1.06994   -1.000
 5960.00    1.09688   1.07522   -1.000
 5961.00    1.09765   1.07924   -1.000
 5962.00    1.10331   1.08093   -1.000
 5963.00    1.10544   1.08022   -1.000
 5964.00    1.10515   1.07771   -1.000
 5965.00    1.10524   1.07479   -1.000
 5966.00    1.10474   1.07311   -1.000
 5967.00    1.10669   1.07350   -1.000
 5968.00    1.11329   1.07542   -1.000
 5969.00    1.11251   1.07788   -1.000
 5970.00    1.10707   1.08025   -1.000
 5971.00    1.10719   1.08196   -1.000
 5972.00    1.11371   1.08232   -1.000
 5973.00    1.11453   1.08070   -1.000
 5974.00    1.11060   1.07673   -1.000
 5975.00    1.10576   1.07105   -1.000
 5976.00    1.10040   1.06576   -1.000
 5977.00    1.09786   1.06321   -1.000
 5978.00    1.09976   1.06435   -1.000
 5979.00    1.10283   1.06810   -1.000
 5980.00    1.10437   1.07182   -1.000
 5981.00    1.10454   1.07261   -1.000
 5982.00    1.09721   1.06914   -1.000
 5983.00    1.08800   1.06303   -1.000
 5984.00    1.08230   1.05805   -1.000
 5985.00    1.08057   1.05717   -1.000
 5986.00    1.08561   1.06027   -1.000
 5987.00    1.09296   1.06500   -1.000
 5988.00    1.09989   1.06902   -1.000
 5989.00    1.10217   1.07110   -1.000
 5990.00    1.10033   1.07142   -1.000
 5991.00    1.09934   1.07166   -1.000
 5992.00    1.10373   1.07369   -1.000
 5993.00    1.10702   1.07737   -1.000
 5994.00    1.10574   1.08009   -1.000
 5995.00    1.10770   1.07947   -1.000
 5996.00    1.10472   1.07592   -1.000
 5997.00    1.10406   1.07199   -1.000
 5998.00    1.10305   1.07004   -1.000
 5999.00    1.10448   1.07028   -1.000
 6000.00    1.10778   1.07098   -1.000
 6001.00    1.10393   1.07041   -1.000
 6002.00    1.10069   1.06856   -1.000
 6003.00    1.09430   1.06692   -1.000
 6004.00    1.08949   1.06614   -1.000
 6005.00    1.09055   1.06456   -1.000
 6006.00    1.08764   1.06058   -1.000
 6007.00    1.08070   1.05575   -1.000
 6008.00    1.07901   1.05403   -1.000
 6009.00    1.08381   1.05736   -1.000
 6010.00    1.09326   1.06301   -1.000
 6011.00    1.10085   1.06642   -1.000
 6012.00    1.10112   1.06607   -1.000
 6013.00    1.09252   1.06413   -1.000
 6014.00    1.09105   1.06296   -1.000
 6015.00    1.09463   1.06263   -1.000
 6016.00    1.09252   1.06213   -1.000
 6017.00    1.09183   1.06101   -1.000
 6018.00    1.09017   1.05910   -1.000
 6019.00    1.08479   1.05635   -1.000
 6020.00    1.07982   1.05371   -1.000
 6021.00    1.07817   1.05269   -1.000
 6022.00    1.08086   1.05369   -1.000
 6023.00    1.08291   1.05599   -1.000
 6024.00    1.08435   1.05924   -1.000
 6025.00    1.08818   1.06342   -1.000
 6026.00    1.09488   1.06780   -1.000
 6027.00    1.09816   1.07151   -1.000
 6028.00    1.10119   1.07453   -1.000
 6029.00    1.10539   1.07703   -1.000
 6030.00    1.10466   1.07891   -1.000
 6031.00    1.10252   1.08027   -1.000
 6032.00    1.10271   1.08154   -1.000
 6033.00    1.10723   1.08296   -1.000
 6034.00    1.10668   1.08437   -1.000
 6035.00    1.10509   1.08527   -1.000
 6036.00    1.10664   1.08517   -1.000
 6037.00    1.10451   1.08383   -1.000
 6038.00    1.10078   1.08128   -1.000
 6039.00    1.09748   1.07803   -1.000
 6040.00    1.09991   1.07499   -1.000
 6041.00    1.10393   1.07301   -1.000
 6042.00    1.10180   1.07250   -1.000
 6043.00    1.10315   1.07392   -1.000
 6044.00    1.10784   1.07721   -1.000
 6045.00    1.10926   1.08094   -1.000
 6046.00    1.10799   1.08376   -1.000
 6047.00    1.10690   1.08558   -1.000
 6048.00    1.10792   1.08667   -1.000
 6049.00    1.10503   1.08701   -1.000
 6050.00    1.10158   1.08648   -1.000
 6051.00    1.10050   1.08493   -1.000
 6052.00    1.10067   1.08231   -1.000
 6053.00    1.10014   1.07878   -1.000
 6054.00    1.09938   1.07488   -1.000
 6055.00    1.09649   1.07153   -1.000
 6056.00    1.10128   1.06989   -1.000
 6057.00    1.07489   1.07052  307.946
 6058.00    0.83537   1.07285   -1.000
 6059.00    0.76635   1.07553   -1.000
 6060.00    1.05608   1.07701  127.338
 6061.00    0.68361   1.07584   -1.000
 6062.00    0.17017   1.07133   -1.000
 6063.00    0.40374   1.06419   -1.000
 6064.00    0.86650   1.05688   -1.000
 6065.00    1.08080   1.05330   -1.000
 6066.00    1.08222   1.05618   -1.000
 6067.00    0.68875   1.06406   -1.000
 6068.00    0.48265   1.07251   -1.000
 6069.00    1.00086   1.07851   -1.000
 6070.00    1.12745   1.08184   -1.000
 6071.00    1.10311   1.08361   -1.000
 6072.00    1.10319   1.08474   -1.000
 6073.00    1.10355   1.08530   -1.000
 6074.00    1.10621   1.08476   -1.000
 6075.00    1.10206   1.08263   -1.000
 6076.00    1.09780   1.07888   -1.000
 6077.00    1.09109   1.07417   -1.000
 6078.00    1.08578   1.06983   -1.000
 6079.00    1.08422   1.06707   -1.000
 6080.00    1.08508   1.06569   -1.000
 6081.00    1.08588   1.06441   -1.000
 6082.00    1.08255   1.06278   -1.000
 6083.00    1.07832   1.06150   -1.000
 6084.00    1.07706   1.06116   -1.000
 6085.00    1.07798   1.06192   -1.000
 6086.00    1.07891   1.06378   -1.000
 6087.00    1.07906   1.06601   -1.000
 6088.00    1.08362   1.06701   -1.000
 6089.00    1.08283   1.06581   -1.000
 6090.00    1.07698   1.06327   -1.000
 6091.00    1.07459   1.06133   -1.000
 6092.00    1.07698   1.06144   -1.000
 6093.00    1.07735   1.06364   -1.000
 6094.00    1.08156   1.06691   -1.000
 6095.00    1.08811   1.06999   -1.000
 6096.00    1.08689   1.07235   -1.000
 6097.00    1.08526   1.07402   -1.000
 6098.00    1.08607   1.07442   -1.000
 6099.00    1.08402   1.07154   -1.000
 6100.00    1.07557   1.06317   -1.000
 6101.00    1.06112   1.05003   -1.000
 6102.00    1.04734   1.03769   -1.000
 6103.00    1.04578   1.03333   -1.000
 6104.00    1.05711   1.03898   -1.000
 6105.00    1.07295   1.04967   -1.000
 6106.00    1.08044   1.05924   -1.000
 6107.00    1.07604   1.06554   -1.000
 6108.00    1.07341   1.06962  304.025
 6109.00    1.07403   1.07240  305.770
 6110.00    1.07601   1.07363  307.012
 6111.00    1.07941   1.07341  307.869
 6112.00    1.07989   1.07301  311.014
 6113.00    1.08063   1.07334  315.500
 6114.00    1.08318   1.07390   -1.000
 6115.00    1.08371   1.07383   -1.000
 6116.00    1.08101   1.07304   -1.000
 6117.00    1.07673   1.07133  312.702
 6118.00    1.07505   1.06712   -1.000
 6119.00    1.07032   1.05869   -1.000
 6120.00    1.05750   1.04666   -1.000
 6121.00    1.04451   1.03481   -1.000
 6122.00    1.04026   1.02881   -1.000
 6123.00    1.04592   1.03172   -1.000
 6124.00    1.05747   1.04061   -1.000
 6125.00    1.06434   1.04967   -1.000
 6126.00    1.06221   1.05533  307.879
 6127.00    1.06007   1.05758  313.141
 6128.00    1.06166   1.05876  321.710
 6129.00    1.06474   1.06129  330.620
 6130.00    1.06940   1.06561  334.834
 6131.00    1.07323   1.07007  330.168
 6132.00    1.07401   1.07218  320.739
 6133.00    1.06862   1.06886  314.686
 6134.00    1.05821   1.05733  313.775
 6135.00    1.03934   1.03843  314.528
 6136.00    1.01609   1.01932  312.961
 6137.00    1.00422   1.00968  309.222
 6138.00    1.00865   1.01279  307.298
 6139.00    1.02761   1.02220  308.096
 6140.00    1.04048   1.03000   -1.000
 6141.00    1.03953   1.03514  312.071
 6142.00    1.03549   1.04120  314.105
 6143.00    1.04254   1.04957  314.894
 6144.00    1.05774   1.05742  314.136
 6145.00    1.06797   1.06144  312.326
 6146.00    1.06942   1.06102   -1.000
 6147.00    1.06341   1.05777  312.556
 6148.00    1.05764   1.05384  314.808
 6149.00    1.05396   1.05117  315.537
 6150.00    1.05238   1.05089  316.306
 6151.00    1.05157   1.05269  318.878
 6152.00    1.05657   1.05483  323.943
 6153.00    1.06249   1.05504   -1.000
 6154.00    1.06179   1.05273   -1.000
 6155.00    1.05761   1.04952   -1.000
 6156.00    1.05350   1.04712  346.556
 6157.00    1.05068   1.04517  338.324
 6158.00    1.04888   1.04105   -1.000
 6159.00    1.04494   1.03114   -1.000
 6160.00    1.02847   1.01412   -1.000
 6161.00    1.00405   0.99457   -1.000
 6162.00    0.98870   0.98141  335.589
 6163.00    0.98967   0.98070   -1.000
 6164.00    1.00544   0.99042   -1.000
 6165.00    1.02220   1.00314   -1.000
 6166.00    1.02860   1.01226   -1.000
 6167.00    1.02926   1.01453   -1.000
 6168.00    1.02447   1.01067   -1.000
 6169.00    1.01534   1.00592   -1.000
 6170.00    1.01415   1.00663  321.765
 6171.00    1.02279   1.01400   -1.000
 6172.00    1.03047   1.02380  319.061
 6173.00    1.03577   1.03192  318.023
 6174.00    1.04049   1.03721  316.725
 6175.00    1.04243   1.04022  315.626
 6176.00    1.04547   1.04196  315.744
 6177.00    1.04864   1.04345  316.756
 6178.00    1.04909   1.04492  318.756
 6179.00    1.05081   1.04613  321.979
 6180.00    1.05094   1.04749  325.439
 6181.00    1.04880   1.04949  328.620
 6182.00    1.05134   1.05158  331.274
 6183.00    1.05581   1.05253  334.835
 6184.00    1.05625   1.05160  337.983
 6185.00    1.05456   1.04869  336.290
 6186.00    1.05226   1.04428   -1.000
 6187.00    1.04642   1.03909  322.633
 6188.00    1.03683   1.03297  319.619
 6189.00    1.02745   1.02493  318.748
 6190.00    1.01698   1.01587  319.941
 6191.00    1.00577   1.01036  323.218
 6192.00    1.00941   1.01285  326.358
 6193.00    1.02682   1.02232  327.064
 6194.00    1.04200   1.03348   -1.000
 6195.00    1.04966   1.04208  320.715
 6196.00    1.04892   1.04666  318.648
 6197.00    1.04357   1.04692  318.538
 6198.00    1.03778   1.04364  318.223
 6199.00    1.03236   1.03964  317.981
 6200.00    1.02800   1.03844  318.811
 6201.00    1.03210   1.04124  319.307
 6202.00    1.04214   1.04625  320.113
 6203.00    1.04604   1.05106  322.623
 6204.00    1.04579   1.05450  325.379
 6205.00    1.04905   1.05655  328.303
 6206.00    1.05159   1.05761  332.742
 6207.00    1.04900   1.05789  336.817
 6208.00    1.04802   1.05718  338.458
 6209.00    1.04891   1.05496  335.727
 6210.00    1.04480   1.05063  332.856
 6211.00    1.03392   1.04378  334.173
 6212.00    1.02216   1.03494   -1.000
 6213.00    1.01527   1.02611   -1.000
 6214.00    1.01121   1.01999  332.610
 6215.00    1.00952   1.01778  349.636
 6216.00    1.01306   1.01817  352.068
 6217.00    1.02241   1.01861  335.002
 6218.00    0.97803   1.01774   -1.000
 6219.00    0.89011   1.01662   -1.000
 6220.00    0.94695   1.01733   -1.000
 6221.00    1.01802   1.02046  334.843
 6222.00    1.02087   1.02439  340.225
 6223.00    1.02348   1.02738  345.053
 6224.00    1.02348   1.02919  345.458
 6225.00    1.02312   1.03019  341.330
 6226.00    1.02710   1.02983  335.221
 6227.00    1.02880   1.02644  329.410
 6228.00    1.02064   1.01866  326.683
 6229.00    1.00521   1.00776  327.852
 6230.00    0.98908   0.99823  330.983
 6231.00    0.98279   0.99505   -1.000
 6232.00    0.99189   0.99993  337.897
 6233.00    1.00511   1.01007  340.027
 6234.00    1.01574   1.02034  340.279
 6235.00    1.02454   1.02638  341.873
 6236.00    1.02716   1.02676  344.361
 6237.00    1.02304   1.02299  344.900
 6238.00    1.01384   1.01786  343.206
 6239.00    1.00547   1.01361  340.098
 6240.00    1.00015   1.01094   -1.000
 6241.00    0.99711   1.00883   -1.000
 6242.00    0.99643   1.00573  330.935
 6243.00    0.99606   1.00125  333.081
 6244.00    0.99686   0.99673  338.448
 6245.00    0.99550   0.99444  343.425
 6246.00    0.99199   0.99647  346.239
 6247.00    0.99478   1.00303  347.569
 6248.00    1.00243   1.01133  347.714
 6249.00    1.00983   1.01689  349.812
 6250.00    1.01106   1.01642  353.126
 6251.00    1.00033   1.01003   -1.000
 6252.00    0.98165   1.00116   -1.000
 6253.00    0.97421   0.99406   -1.000
 6254.00    0.97350   0.99062   -1.000
 6255.00    0.97067   0.98968   -1.000
 6256.00    0.97031   0.98925   -1.000
 6257.00    0.96933   0.98893   -1.000
 6258.00    0.96865   0.99019   -1.000
 6259.00    0.97455   0.99459   -1.000
 6260.00    0.98518   1.00203   -1.000
 6261.00    0.99298   1.01074   -1.000
 6262.00    0.99742   1.01816   -1.000
 6263.00    1.00025   1.02239   -1.000
 6264.00    0.99932   1.02349   -1.000
 6265.00    0.99225   1.02351   -1.000
 6266.00    0.98766   1.02428   -1.000
 6267.00    0.98989   1.02549   -1.000
 6268.00    0.98550   1.02564   -1.000
 6269.00    0.96676   1.02449   -1.000
 6270.00    0.94181   1.02334   -1.000
 6271.00    0.93074   1.02298   -1.000
 6272.00    0.93397   1.02246   -1.000
 6273.00    0.94609   1.01980   -1.000
 6274.00    0.95973   1.01386   -1.000
 6275.00    0.96621   1.00536   -1.000
 6276.00    0.97307   0.99627   -1.000
 6277.00    0.97862   0.98860  338.895
 6278.00    0.97583   0.98354  335.783
 6279.00    0.97140   0.98171  332.840
 6280.00    0.96661   0.98375   -1.000
 6281.00    0.96670   0.98992   -1.000
 6282.00    0.97248   0.99914   -1.000
 6283.00    0.97928   1.00911   -1.000
 6284.00    0.98254   1.01749   -1.000
 6285.00    0.98562   1.02320   -1.000
 6286.00    0.98813   1.02652   -1.000
 6287.00    0.99014   1.02790   -1.000
 6288.00    0.99462   1.02712   -1.000
 6289.00    0.99476   1.02416   -1.000
 6290.00    0.99405   1.02020   -1.000
 6291.00    0.99268   1.01694   -1.000
 6292.00    0.98872   1.01514   -1.000
 6293.00    0.97984   1.01418   -1.000
 6294.00    0.97623   1.01265   -1.000
 6295.00    0.97906   1.00948   -1.000
 6296.00    0.97852   1.00506   -1.000
 6297.00    0.97259   1.00104   -1.000
 6298.00    0.96923   0.99862   -1.000
 6299.00    0.97020   0.99724   -1.000
 6300.00    0.96873   0.99577   -1.000
 6301.00    0.96514   0.99491   -1.000
 6302.00    0.96354   0.99693   -1.000
 6303.00    0.96839   1.00261   -1.000
 6304.00    0.97785   1.01003   -1.000
 6305.00    0.98610   1.01664   -1.000
 6306.00    0.99535   1.02140   -1.000
 6307.00    1.00046   1.02436   -1.000
 6308.00    0.99855   1.02569   -1.000
 6309.00    0.99623   1.02562   -1.000
 6310.00    0.99555   1.02452   -1.000
 6311.00    0.99261   1.02264   -1.000
 6312.00    0.99008   1.01985   -1.000
 6313.00    0.98518   1.01596   -1.000
 6314.00    0.97890   1.01140   -1.000
 6315.00    0.97330   1.00706   -1.000
 6316.00    0.96987   1.00351   -1.000
 6317.00    0.96984   1.00138   -1.000
 6318.00    0.97020   1.00202   -1.000
 6319.00    0.97532   1.00620   -1.000
 6320.00    0.98256   1.01238   -1.000
 6321.00    0.98488   1.01812   -1.000
 6322.00    0.98734   1.02276   -1.000
 6323.00    0.98829   1.02708   -1.000
 6324.00    0.99295   1.03105   -1.000
 6325.00    0.99872   1.03362   -1.000
 6326.00    1.00070   1.03441   -1.000
 6327.00    0.99891   1.03405   -1.000
 6328.00    0.99512   1.03342   -1.000
 6329.00    0.99428   1.03310   -1.000
 6330.00    0.98982   1.03332   -1.000
 6331.00    0.99042   1.03370   -1.000
 6332.00    0.99371   1.03269   -1.000
 6333.00    0.99075   1.02834   -1.000
 6334.00    0.98425   1.02066   -1.000
 6335.00    0.97573   1.01279   -1.000
 6336.00    0.96776   1.00881   -1.000
 6337.00    0.97185   1.01027   -1.000
 6338.00    0.98306   1.01546   -1.000
 6339.00    0.98921   1.02160   -1.000
 6340.00    0.99167   1.02648   -1.000
 6341.00    0.99237   1.02864   -1.000
 6342.00    0.99308   1.02774   -1.000
 6343.00    0.99235   1.02498   -1.000
 6344.00    0.99035   1.02258   -1.000
 6345.00    0.99059   1.02220   -1.000
 6346.00    0.99388   1.02429   -1.000
 6347.00    0.99411   1.02838   -1.000
 6348.00    0.99542   1.03341   -1.000
 6349.00    0.99884   1.03795   -1.000
 6350.00    1.00083   1.04063   -1.000
 6351.00    1.00116   1.04070   -1.000
 6352.00    0.99783   1.03820   -1.000
 6353.00    0.99272   1.03404   -1.000
 6354.00    0.98702   1.02976   -1.000
 6355.00    0.98289   1.02643   -1.000
 6356.00    0.97854   1.02374   -1.000
 6357.00    0.97362   1.02065   -1.000
 6358.00    0.96750   1.01701   -1.000
 6359.00    0.96469   1.01364   -1.000
 6360.00    0.96840   1.01093   -1.000
 6361.00    0.96880   1.00888   -1.000
 6362.00    0.96551   1.00815   -1.000
 6363.00    0.96797   1.00963   -1.000
 6364.00    0.97149   1.01327   -1.000
 6365.00    0.97426   1.01798   -1.000
 6366.00    0.97758   1.02256   -1.000
 6367.00    0.97797   1.02608   -1.000
 6368.00    0.98175   1.02782   -1.000
 6369.00    0.98226   1.02780   -1.000
 6370.00    0.97958   1.02734   -1.000
 6371.00    0.97880   1.02799   -1.000
 6372.00    0.97875   1.03007   -1.000
 6373.00    0.97840   1.03255   -1.000
 6374.00    0.97709   1.03406   -1.000
 6375.00    0.97606   1.03398   -1.000
 6376.00    0.97812   1.03251   -1.000
 6377.00    0.97683   1.03017   -1.000
 6378.00    0.97083   1.02757   -1.000
 6379.00    0.96575   1.02525   -1.000
 6380.00    0.95772   1.02361   -1.000
 6381.00    0.95309   1.02280   -1.000
 6382.00    0.95399   1.02273   -1.000
 6383.00    0.95286   1.02330   -1.000
 6384.00    0.95215   1.02464   -1.000
 6385.00    0.95144   1.02669   -1.000
 6386.00    0.94742   1.02887   -1.000
 6387.00    0.94301   1.03033   -1.000
 6388.00    0.93852   1.03053   -1.000
 6389.00    0.93702   1.02907   -1.000
 6390.00    0.93194   1.02518   -1.000
 6391.00    0.92042   1.01860   -1.000
 6392.00    0.91080   1.01130   -1.000
 6393.00    0.89955   1.00718   -1.000
 6394.00    0.89471   1.00875   -1.000
 6395.00    0.89845   1.01437   -1.000
 6396.00    0.90219   1.01932   -1.000
 6397.00    0.90038   1.01937   -1.000
 6398.00    0.89085   1.01409   -1.000
 6399.00    0.87846   1.00758   -1.000
 6400.00    0.86585   1.00538   -1.000
 6401.00    0.85990   1.00970   -1.000
 6402.00    0.87057   1.01786   -1.000
 6403.00    0.87905   1.02519   -1.000
 6404.00    0.87520   1.02841   -1.000
 6405.00    0.87011   1.02677   -1.000
 6406.00    0.86682   1.02182   -1.000
 6407.00    0.85239   1.01663   -1.000
 6408.00    0.84008   1.01387   -1.000
 6409.00    0.83475   1.01369   -1.000
 6410.00    0.83315   1.01420   -1.000
 6411.00    0.82772   1.01435   -1.000
 6412.00    0.82039   1.01502   -1.000
 6413.00    0.81682   1.01687   -1.000
 6414.00    0.81180   1.01924   -1.000
 6415.00    0.80661   1.02115   -1.000
 6416.00    0.80030   1.02191   -1.000
 6417.00    0.79385   1.02070   -1.000
 6418.00    0.78587   1.01698   -1.000
 6419.00    0.77319   1.01178   -1.000
 6420.00    0.75842   1.00808   -1.000
 6421.00    0.75123   1.00895   -1.000
 6422.00    0.74806   1.01478   -1.000
 6423.00    0.74613   1.02286   -1.000
 6424.00    0.16168   1.02999   -1.000
 6425.00    0.00000   1.03478   -2.000
 6426.00    0.00000   1.03693   -2.000
 6427.00    0.00000   1.03567   -2.000
 6428.00    0.00000   1.03018   -2.000
