###################################################################
## OUTPUT of StarlightChains_v04.for    [Cid@UFSC - 01/Apr/2007] ##
###################################################################

## Some input info
NGC1904_b_1.cxt                          [arq_obs]
Base.BC03.S                              [arq_base]
NGC1904_b_1.msk                          [arq_masks]
StCv04.C99.config                        [arq_config]
  150                                    [N_base]
    0                                    [N_YAV_components = # of components with extra extinction!]
    0                                    [i_FitPowerLaw (1/0 = Yes/No)]
-9.99                                    [alpha_PowerLaw]
CCM                                      [red_law_option]
 1.458241                                [q_norm = A(l_norm)/A(V)]

## (Re)Sampling Parameters
 3359.00                                 [l_ini (A)]
 6428.00                                 [l_fin (A)]
    1.00                                 [dl    (A)]     (OBS: dl_cushion =    50.00 A)

## Normalization info
 4020.00                                 [l_norm (A) - for base]
 4010.00                                 [llow_norm (A) - window for f_obs]
 4060.00                                 [lupp_norm (A) - window for f_obs]
3.423556E-14                             [fobs_norm (in input units)]

## S/N
 4730.00                                 [llow_SN (A) - window for S/N]
 4780.00                                 [lupp_SN (A) - window for S/N]
 126.287                                 [S/N in S/N window]
 125.997                                 [S/N in norm. window]
 129.607                                 [S/N_err in S/N window]
 129.310                                 [S/N_err in norm. window]
  1.0000                                 [fscale_chi2]

## etc...
  2147483645                             [idum_orig]
  3064                                   [NOl_eff]
  2186                                   [Nl_eff]
   878    NSIGMA                         [Ntot_cliped & clip_method]
  3050110                                [Nglobal_steps]
   7                                     [N_chains]
  17                                     [NEX0s_base = N_base in EX0s-fits]
 0   0   1      245   2.0   2.751E+02    [Clip-Bug, RC-Crash & Burn-In warning-flags, n_censored_weights, wei_nsig_threshold & wei_limit]
   122    122.653    122.633      0.020  [idt_all, wdt_TotTime, wdt_UsrTime & wdt_SysTime (sec)]

## Synthesis Results - Best model ##

 2.09743E+00                             [chi2/Nl_eff]
     1.14362                             [adev (%)]

   101.46802                             [sum-of-x (%)]
 4.04167E-14                             [Flux_tot (units of input spectrum!)]
 3.73088E-10                             [Mini_tot (???)]
 1.96122E-10                             [Mcor_tot (???)]

 -22.86                                  [v0_min  (km/s)]
  70.63                                  [vd_min  (km/s)]
 0.1127                                  [AV_min  (mag)]
 0.0000                                  [YAV_min (mag)]

# j     x_j(%)      Mini_j(%)     Mcor_j(%)     age_j(yr)     Z_j      (L/M)_j    YAV?  Mstars   component_j        a/Fe...       SSP_chi2r SSP_adev(%)   SSP_AV   SSP_x(%)
  1      0.0000     0.0000E+00    0.0000E+00    1.000000E+06  0.00010  8.160E-03    0   1.0000   age020_m22            0.0000     3.3269E+02    11.2520   3.4213    74.5066
  2     17.1476     3.8469E-02    7.3180E-02    3.160000E+06  0.00010  4.759E-02    0   1.0000   age045_m22            0.0000     3.8553E+01     4.2376   1.3680    95.6342
  3      0.0000     0.0000E+00    0.0000E+00    5.010000E+06  0.00010  1.932E-02    0   0.9582   age055_m22            0.0000     2.9440E+02    11.3742   1.7206    80.6269
  4      0.0000     0.0000E+00    0.0000E+00    6.610000E+06  0.00010  9.973E-03    0   0.9297   age061_m22            0.0000     3.2221E+02    11.4953   3.3806    77.2171
  5      0.0000     0.0000E+00    0.0000E+00    8.710000E+06  0.00010  7.690E-03    0   0.9030   age067_m22            0.0000     3.0520E+02    11.1852   3.3710    77.7024
  6      0.0000     0.0000E+00    0.0000E+00    1.000000E+07  0.00010  6.375E-03    0   0.8902   age070_m22            0.0000     2.9151E+02    10.9193   3.3829    77.9235
  7      0.0000     0.0000E+00    0.0000E+00    1.445000E+07  0.00010  4.874E-03    0   0.8589   age078_m22            0.0000     2.1500E+02     9.4036   3.1935    81.0840
  8      0.0000     0.0000E+00    0.0000E+00    2.512000E+07  0.00010  4.103E-03    0   0.8174   age090_m22            0.0000     8.6287E+01     6.1869   2.7680    88.2788
  9      0.0000     0.0000E+00    0.0000E+00    4.000000E+07  0.00010  3.654E-03    0   0.7830   age104_m22            0.0000     3.8771E+01     3.9162   2.4501    93.9355
 10      0.0000     0.0000E+00    0.0000E+00    5.500000E+07  0.00010  3.093E-03    0   0.7597   age110_m22            0.0000     3.3454E+01     3.3051   2.3400    95.9004
 11      0.0000     0.0000E+00    0.0000E+00    1.015200E+08  0.00010  2.431E-03    0   0.7138   age116_m22            0.0000     4.5526E+01     3.1426   1.9846    99.3234
 12      0.0000     0.0000E+00    0.0000E+00    1.609000E+08  0.00010  1.319E-03    0   0.6775   age120_m22            0.0000     4.4309E+01     3.0303   1.5078   101.6809
 13      0.0000     0.0000E+00    0.0000E+00    2.861200E+08  0.00010  1.075E-03    0   0.6412   age125_m22            0.0000     1.6980E+02     5.7435   1.5416   106.8096
 14      0.0000     0.0000E+00    0.0000E+00    5.088000E+08  0.00010  7.183E-04    0   0.6083   age130_m22            0.0000     2.2567E+02     6.9932   1.3014   109.0506
 15      0.0000     0.0000E+00    0.0000E+00    9.047900E+08  0.00010  4.524E-04    0   0.5785   age135_m22            0.0000     2.3274E+02     7.2450   1.1018   110.3497
 16      0.0000     0.0000E+00    0.0000E+00    1.278050E+09  0.00010  3.018E-04    0   0.5588   age138_m22            0.0000     8.9596E+01     4.4604   0.5865   107.5760
 17      0.0000     0.0000E+00    0.0000E+00    1.434000E+09  0.00010  2.691E-04    0   0.5532   age139_m22            0.0000     6.7878E+01     3.9323   0.4347   106.7780
 18      0.0000     0.0000E+00    0.0000E+00    2.500000E+09  0.00010  1.582E-04    0   0.5296   age150_m22            0.0000     5.3443E+01     3.3992   0.3285   107.1626
 19      0.0000     0.0000E+00    0.0000E+00    4.250000E+09  0.00010  1.007E-04    0   0.5110   age158_m22            0.0000     1.9303E+01     2.2351   0.1856   104.8893
 20      0.0000     0.0000E+00    0.0000E+00    6.250000E+09  0.00010  6.869E-05    0   0.4985   age166_m22            0.0000     4.3408E+00     1.3848   0.1373   101.5318
 21      0.0000     0.0000E+00    0.0000E+00    7.500000E+09  0.00010  5.873E-05    0   0.4931   age171_m22            0.0000     4.4662E+00     1.4513   0.1282   100.8268
 22      0.0000     0.0000E+00    0.0000E+00    1.000000E+10  0.00010  4.481E-05    0   0.4854   age181_m22            0.0000     4.2024E+00     1.4280   0.0901   100.4579
 23      0.0000     0.0000E+00    0.0000E+00    1.300000E+10  0.00010  3.489E-05    0   0.4791   age193_m22            0.0000     3.8023E+00     1.3890   0.0338    99.8816
 24      0.0000     0.0000E+00    0.0000E+00    1.500000E+10  0.00010  3.035E-05    0   0.4766   age201_m22            0.0000     3.7928E+00     1.3954  -0.0048    99.6530
 25      0.0471     2.0052E-01    1.8062E-01    1.800000E+10  0.00010  2.510E-05    0   0.4735   age213_m22            0.0000     4.4432E+00     1.4756  -0.0716    98.9361
 26      0.0000     0.0000E+00    0.0000E+00    1.000000E+06  0.00040  8.458E-03    0   1.0000   age020_m32            0.0000     3.2687E+02    11.2523   3.4345    75.1631
 27      0.0000     0.0000E+00    0.0000E+00    3.160000E+06  0.00040  3.973E-02    0   1.0000   age045_m32            0.0000     1.0011E+02     6.6806   2.6666    88.1241
 28      0.0000     0.0000E+00    0.0000E+00    5.010000E+06  0.00040  1.935E-02    0   0.9532   age055_m32            0.0000     2.4056E+02    10.2411   2.9202    81.2946
 29      0.0000     0.0000E+00    0.0000E+00    6.610000E+06  0.00040  1.204E-02    0   0.9243   age061_m32            0.0000     2.6797E+02    10.5401   3.2358    79.3535
 30      0.0000     0.0000E+00    0.0000E+00    8.710000E+06  0.00040  9.433E-03    0   0.9001   age067_m32            0.0000     2.3959E+02     9.9745   3.2041    80.3715
 31      0.0000     0.0000E+00    0.0000E+00    1.000000E+07  0.00040  8.053E-03    0   0.8877   age070_m32            0.0000     2.2853E+02     9.7476   3.1675    80.8698
 32      0.0000     0.0000E+00    0.0000E+00    1.445000E+07  0.00040  7.027E-03    0   0.8578   age078_m32            0.0000     1.3157E+02     7.7039   2.6328    86.5354
 33      0.0000     0.0000E+00    0.0000E+00    2.512000E+07  0.00040  4.707E-03    0   0.8166   age090_m32            0.0000     7.1178E+01     5.8037   2.3236    91.0406
 34      0.0000     0.0000E+00    0.0000E+00    4.000000E+07  0.00040  3.714E-03    0   0.7827   age104_m32            0.0000     3.7490E+01     4.0179   2.1057    95.1022
 35      0.0000     0.0000E+00    0.0000E+00    5.500000E+07  0.00040  2.982E-03    0   0.7593   age110_m32            0.0000     3.3061E+01     3.4713   2.0377    96.6303
 36      0.0000     0.0000E+00    0.0000E+00    1.015200E+08  0.00040  2.188E-03    0   0.7143   age116_m32            0.0000     7.1587E+01     3.5069   1.7480   102.2156
 37      0.0000     0.0000E+00    0.0000E+00    1.609000E+08  0.00040  1.690E-03    0   0.6856   age120_m32            0.0000     1.2751E+02     4.5863   1.5261   105.6020
 38      0.0000     0.0000E+00    0.0000E+00    2.861200E+08  0.00040  1.152E-03    0   0.6509   age125_m32            0.0000     1.8488E+02     6.1056   1.2898   108.1405
 39      0.0000     0.0000E+00    0.0000E+00    5.088000E+08  0.00040  7.331E-04    0   0.6182   age130_m32            0.0000     2.0949E+02     6.8072   1.1213   109.1755
 40      0.0000     0.0000E+00    0.0000E+00    9.047900E+08  0.00040  3.960E-04    0   0.5890   age135_m32            0.0000     9.6170E+01     4.9520   0.6755   107.0293
 41      0.0000     0.0000E+00    0.0000E+00    1.278050E+09  0.00040  2.854E-04    0   0.5687   age138_m32            0.0000     6.7246E+01     3.8437   0.3917   108.3499
 42      0.0000     0.0000E+00    0.0000E+00    1.434000E+09  0.00040  2.531E-04    0   0.5632   age139_m32            0.0000     6.4572E+01     3.7332   0.3302   108.2920
 43     15.4860     1.1111E+01    1.1384E+01    2.500000E+09  0.00040  1.488E-04    0   0.5386   age150_m32            0.0000     3.6129E+01     2.8661   0.0744   106.2929
 44     54.5670     6.4146E+01    6.3441E+01    4.250000E+09  0.00040  9.082E-05    0   0.5199   age158_m32            0.0000     3.7171E+00     1.2593  -0.0086   102.0096
 45      0.0000     0.0000E+00    0.0000E+00    6.250000E+09  0.00040  6.362E-05    0   0.5076   age166_m32            0.0000     1.1856E+01     2.0276  -0.0345    97.7384
 46      1.6146     3.2591E+00    3.1167E+00    7.500000E+09  0.00040  5.289E-05    0   0.5027   age171_m32            0.0000     1.6837E+01     2.2520  -0.0690    96.3935
 47      3.2462     8.7255E+00    8.2130E+00    1.000000E+10  0.00040  3.972E-05    0   0.4948   age181_m32            0.0000     2.0887E+01     2.3429  -0.1305    95.0502
 48      0.0029     9.2990E-03    8.6149E-03    1.300000E+10  0.00040  3.283E-05    0   0.4870   age193_m32            0.0000     7.3050E+00     1.6543  -0.1822    98.1517
 49      0.0000     0.0000E+00    0.0000E+00    1.500000E+10  0.00040  2.925E-05    0   0.4854   age201_m32            0.0000     3.9287E+00     1.4088  -0.2049    99.9675
 50      0.0000     0.0000E+00    0.0000E+00    1.800000E+10  0.00040  2.469E-05    0   0.4819   age213_m32            0.0000     3.8326E+00     1.4062  -0.2475   100.5820
 51      0.0000     0.0000E+00    0.0000E+00    1.000000E+06  0.00400  1.114E-02    0   1.0000   age020_m42            0.0000     3.1454E+02    10.9649   3.3637    75.6586
 52      0.0000     0.0000E+00    0.0000E+00    3.160000E+06  0.00400  4.073E-02    0   0.9999   age045_m42            0.0000     6.2366E+01     5.3136   2.3519    91.2648
 53      0.0000     0.0000E+00    0.0000E+00    5.010000E+06  0.00400  2.534E-02    0   0.9488   age055_m42            0.0000     1.5983E+02     8.1833   2.7841    84.0625
 54      0.0000     0.0000E+00    0.0000E+00    6.610000E+06  0.00400  2.583E-02    0   0.9220   age061_m42            0.0000     4.5309E+01     4.5202   2.1655    92.3934
 55      0.0000     0.0000E+00    0.0000E+00    8.710000E+06  0.00400  1.706E-02    0   0.8983   age067_m42            0.0000     9.0236E+01     6.6113   2.0066    89.7606
 56      0.0000     0.0000E+00    0.0000E+00    1.000000E+07  0.00400  1.271E-02    0   0.8862   age070_m42            0.0000     1.3785E+02     8.2298   2.0029    87.7908
 57      0.0000     0.0000E+00    0.0000E+00    1.445000E+07  0.00400  7.666E-03    0   0.8571   age078_m42            0.0000     1.8656E+02     9.0235   2.4140    84.3309
 58      0.0000     0.0000E+00    0.0000E+00    2.512000E+07  0.00400  5.070E-03    0   0.8174   age090_m42            0.0000     1.1868E+02     7.6658   1.8663    89.5861
 59      0.0000     0.0000E+00    0.0000E+00    4.000000E+07  0.00400  3.505E-03    0   0.7851   age104_m42            0.0000     7.0722E+01     5.9598   1.5360    93.0668
 60      0.0000     0.0000E+00    0.0000E+00    5.500000E+07  0.00400  3.059E-03    0   0.7629   age110_m42            0.0000     2.4218E+01     2.8962   1.5645    99.1112
 61      0.0000     0.0000E+00    0.0000E+00    1.015200E+08  0.00400  2.268E-03    0   0.7207   age116_m42            0.0000     1.0489E+02     4.3122   1.4420   106.1203
 62      0.0000     0.0000E+00    0.0000E+00    1.609000E+08  0.00400  1.720E-03    0   0.6930   age120_m42            0.0000     1.2205E+02     4.9572   1.2918   108.1525
 63      0.1061     1.0493E-02    1.3201E-02    2.861200E+08  0.00400  1.079E-03    0   0.6613   age125_m42            0.0000     1.2761E+02     5.1450   0.9386   108.5465
 64      0.0000     0.0000E+00    0.0000E+00    5.088000E+08  0.00400  6.261E-04    0   0.6313   age130_m42            0.0000     1.5920E+02     5.7452   0.7427   111.6449
 65      1.1649     3.5181E-01    4.0315E-01    9.047900E+08  0.00400  3.535E-04    0   0.6024   age135_m42            0.0000     8.0717E+01     4.3735   0.3529   111.2147
 66      0.0000     0.0000E+00    0.0000E+00    1.278050E+09  0.00400  2.677E-04    0   0.5837   age138_m42            0.0000     4.4370E+01     4.1755  -0.3177   107.5461
 67      0.0000     0.0000E+00    0.0000E+00    1.434000E+09  0.00400  1.910E-04    0   0.5716   age139_m42            0.0000     4.2642E+01     4.0570  -0.1565   108.8380
 68      2.0027     2.1778E+00    2.2633E+00    2.500000E+09  0.00400  9.818E-05    0   0.5463   age150_m42            0.0000     4.1902E+01     3.8357  -0.4059   102.8625
 69      0.0000     0.0000E+00    0.0000E+00    4.250000E+09  0.00400  5.491E-05    0   0.5269   age158_m42            0.0000     6.0922E+01     4.0889  -0.5193    99.4751
 70      0.0000     0.0000E+00    0.0000E+00    6.250000E+09  0.00400  3.857E-05    0   0.5151   age166_m42            0.0000     8.5263E+01     4.6943  -0.6408    97.9293
 71      0.0000     0.0000E+00    0.0000E+00    7.500000E+09  0.00400  3.243E-05    0   0.5110   age171_m42            0.0000     1.0169E+02     5.0676  -0.7168    97.2798
 72      0.0000     0.0000E+00    0.0000E+00    1.000000E+10  0.00400  2.424E-05    0   0.5028   age181_m42            0.0000     1.2616E+02     5.5427  -0.7929    96.5092
 73      0.0000     0.0000E+00    0.0000E+00    1.300000E+10  0.00400  1.883E-05    0   0.4927   age193_m42            0.0000     1.4668E+02     5.8802  -0.8290    96.0311
 74      0.0000     0.0000E+00    0.0000E+00    1.500000E+10  0.00400  1.685E-05    0   0.4919   age201_m42            0.0000     1.4123E+02     5.7962  -0.8259    96.0801
 75      0.0000     0.0000E+00    0.0000E+00    1.800000E+10  0.00400  1.452E-05    0   0.4874   age213_m42            0.0000     1.3117E+02     5.6324  -0.8123    96.3732
 76      0.0000     0.0000E+00    0.0000E+00    1.000000E+06  0.00800  1.286E-02    0   1.0000   age020_m52            0.0000     2.7710E+02    10.3980   3.3363    77.5008
 77      0.0000     0.0000E+00    0.0000E+00    3.160000E+06  0.00800  3.147E-02    0   0.9966   age045_m52            0.0000     2.6279E+02    10.2396   3.2477    79.0599
 78      0.0000     0.0000E+00    0.0000E+00    5.010000E+06  0.00800  2.664E-02    0   0.9443   age055_m52            0.0000     1.8909E+02     8.6865   2.9120    82.8354
 79      0.0000     0.0000E+00    0.0000E+00    6.610000E+06  0.00800  2.151E-02    0   0.9177   age061_m52            0.0000     1.2331E+02     7.3702   1.5950    89.4754
 80      0.0000     0.0000E+00    0.0000E+00    8.710000E+06  0.00800  1.628E-02    0   0.8948   age067_m52            0.0000     1.0852E+02     7.1933   1.9668    89.9472
 81      0.0000     0.0000E+00    0.0000E+00    1.000000E+07  0.00800  1.215E-02    0   0.8827   age070_m52            0.0000     1.3464E+02     7.8812   2.3135    87.8906
 82      0.0000     0.0000E+00    0.0000E+00    1.445000E+07  0.00800  8.739E-03    0   0.8552   age078_m52            0.0000     1.0421E+02     6.9372   2.3474    89.5161
 83      0.0000     0.0000E+00    0.0000E+00    2.512000E+07  0.00800  5.676E-03    0   0.8162   age090_m52            0.0000     6.0177E+01     5.4519   1.9290    94.9970
 84      0.0000     0.0000E+00    0.0000E+00    4.000000E+07  0.00800  3.939E-03    0   0.7841   age104_m52            0.0000     4.1264E+01     4.0367   1.7553    98.1448
 85      0.0000     0.0000E+00    0.0000E+00    5.500000E+07  0.00800  3.155E-03    0   0.7627   age110_m52            0.0000     4.0136E+01     3.1733   1.7147   100.4778
 86      0.0000     0.0000E+00    0.0000E+00    1.015200E+08  0.00800  2.206E-03    0   0.7226   age116_m52            0.0000     7.0207E+01     3.4959   1.5100   105.4451
 87      0.0000     0.0000E+00    0.0000E+00    1.609000E+08  0.00800  1.596E-03    0   0.6963   age120_m52            0.0000     9.3372E+01     4.2437   1.2876   107.5241
 88      0.0000     0.0000E+00    0.0000E+00    2.861200E+08  0.00800  1.002E-03    0   0.6665   age125_m52            0.0000     1.7324E+02     6.4763   0.9761   111.2553
 89      0.0000     0.0000E+00    0.0000E+00    5.088000E+08  0.00800  5.759E-04    0   0.6377   age130_m52            0.0000     1.9747E+02     7.4655   0.6193   115.7092
 90      0.0000     0.0000E+00    0.0000E+00    9.047900E+08  0.00800  2.972E-04    0   0.6086   age135_m52            0.0000     1.0916E+02     6.2845   0.0966   113.6622
 91      0.0000     0.0000E+00    0.0000E+00    1.278050E+09  0.00800  2.242E-04    0   0.5907   age138_m52            0.0000     7.4405E+01     5.3831  -0.4944   110.7224
 92      0.0000     0.0000E+00    0.0000E+00    1.434000E+09  0.00800  1.645E-04    0   0.5787   age139_m52            0.0000     5.8610E+01     4.8355  -0.3447   109.9931
 93      0.0000     0.0000E+00    0.0000E+00    2.500000E+09  0.00800  7.723E-05    0   0.5519   age150_m52            0.0000     8.6060E+01     5.2620  -0.6654   105.2072
 94      0.0000     0.0000E+00    0.0000E+00    4.250000E+09  0.00800  4.151E-05    0   0.5320   age158_m52            0.0000     9.9870E+01     5.3361  -0.7271   102.2614
 95      0.0000     0.0000E+00    0.0000E+00    6.250000E+09  0.00800  3.010E-05    0   0.5197   age166_m52            0.0000     1.4324E+02     6.1550  -0.9137   100.5676
 96      0.0000     0.0000E+00    0.0000E+00    7.500000E+09  0.00800  2.467E-05    0   0.5139   age171_m52            0.0000     1.5529E+02     6.3757  -0.9540   100.1315
 97      0.0052     3.0042E-02    2.8884E-02    1.000000E+10  0.00800  1.862E-05    0   0.5054   age181_m52            0.0000     1.9739E+02     6.6333  -1.0000    97.7494
 98      0.0036     2.6888E-02    2.5513E-02    1.300000E+10  0.00800  1.433E-05    0   0.4988   age193_m52            0.0000     2.5856E+02     7.2965  -1.0000    95.9647
 99      0.0099     8.5257E-02    8.0055E-02    1.500000E+10  0.00800  1.244E-05    0   0.4936   age201_m52            0.0000     2.8397E+02     7.6287  -1.0000    95.6447
100      0.0000     0.0000E+00    0.0000E+00    1.800000E+10  0.00800  1.070E-05    0   0.4888   age213_m52            0.0000     3.0686E+02     7.9869  -1.0000    94.6191
101      0.0000     0.0000E+00    0.0000E+00    1.000000E+06  0.02000  1.989E-02    0   1.0000   age020_m62            0.0000     3.1503E+02    10.9321   3.3230    76.4967
102      0.0000     0.0000E+00    0.0000E+00    3.160000E+06  0.02000  3.772E-02    0   0.9858   age045_m62            0.0000     2.8038E+02    10.4648   3.1829    78.7286
103      0.0000     0.0000E+00    0.0000E+00    5.010000E+06  0.02000  3.227E-02    0   0.9342   age055_m62            0.0000     1.0204E+02     6.5972   2.6274    87.5285
104      0.0000     0.0000E+00    0.0000E+00    6.610000E+06  0.02000  2.387E-02    0   0.9090   age061_m62            0.0000     1.6668E+02     8.7411   2.3903    86.2569
105      0.0000     0.0000E+00    0.0000E+00    8.710000E+06  0.02000  1.102E-02    0   0.8861   age067_m62            0.0000     4.5533E+02    14.6881   2.0473    80.1104
106      0.0000     0.0000E+00    0.0000E+00    1.000000E+07  0.02000  1.011E-02    0   0.8751   age070_m62            0.0000     3.2432E+02    12.3501   2.0540    83.1239
107      0.0000     0.0000E+00    0.0000E+00    1.445000E+07  0.02000  7.331E-03    0   0.8472   age078_m62            0.0000     2.3273E+02    10.3326   2.0600    85.1103
108      0.0000     0.0000E+00    0.0000E+00    2.512000E+07  0.02000  4.206E-03    0   0.8099   age090_m62            0.0000     2.4031E+02    10.4029   1.9741    84.5671
109      0.0000     0.0000E+00    0.0000E+00    4.000000E+07  0.02000  3.373E-03    0   0.7799   age104_m62            0.0000     5.8285E+01     5.3764   1.7362    95.1242
110      0.0000     0.0000E+00    0.0000E+00    5.500000E+07  0.02000  2.747E-03    0   0.7595   age110_m62            0.0000     3.7588E+01     3.6344   1.6498    99.6297
111      0.0000     0.0000E+00    0.0000E+00    1.015200E+08  0.02000  1.878E-03    0   0.7221   age116_m62            0.0000     8.6283E+01     3.8142   1.4832   105.9991
112      0.0000     0.0000E+00    0.0000E+00    1.609000E+08  0.02000  1.378E-03    0   0.6978   age120_m62            0.0000     1.4594E+02     5.1107   1.3127   109.4742
113      0.0000     0.0000E+00    0.0000E+00    2.861200E+08  0.02000  8.869E-04    0   0.6700   age125_m62            0.0000     2.6264E+02     7.5034   0.9217   114.8849
114      0.0000     0.0000E+00    0.0000E+00    5.088000E+08  0.02000  4.834E-04    0   0.6430   age130_m62            0.0000     2.2915E+02     7.9989   0.4818   117.5049
115      0.0000     0.0000E+00    0.0000E+00    9.047900E+08  0.02000  2.312E-04    0   0.6152   age135_m62            0.0000     9.7011E+01     6.0461  -0.1017   115.5579
116      0.0000     0.0000E+00    0.0000E+00    1.278050E+09  0.02000  1.387E-04    0   0.5927   age138_m62            0.0000     5.8964E+01     4.9327  -0.4621   109.6826
117      0.0000     0.0000E+00    0.0000E+00    1.434000E+09  0.02000  1.168E-04    0   0.5865   age139_m62            0.0000     6.0637E+01     4.9093  -0.4819   107.7460
118      0.0000     0.0000E+00    0.0000E+00    2.500000E+09  0.02000  5.505E-05    0   0.5610   age150_m62            0.0000     1.1606E+02     6.1031  -0.8405   103.9911
119      0.0000     0.0000E+00    0.0000E+00    4.250000E+09  0.02000  3.070E-05    0   0.5407   age158_m62            0.0000     2.1256E+02     7.1897  -1.0000   100.5002
120      0.0000     0.0000E+00    0.0000E+00    6.250000E+09  0.02000  2.104E-05    0   0.5277   age166_m62            0.0000     2.9932E+02     8.2184  -1.0000    97.4477
121      0.0000     0.0000E+00    0.0000E+00    7.500000E+09  0.02000  1.770E-05    0   0.5223   age171_m62            0.0000     3.6146E+02     9.1871  -1.0000    95.4647
122      0.0000     0.0000E+00    0.0000E+00    1.000000E+10  0.02000  1.297E-05    0   0.5121   age181_m62            0.0000     5.0648E+02    11.2610  -1.0000    91.5989
123      0.0000     0.0000E+00    0.0000E+00    1.300000E+10  0.02000  9.691E-06    0   0.5047   age193_m62            0.0000     6.0374E+02    12.4431  -1.0000    89.5899
124      0.0000     0.0000E+00    0.0000E+00    1.500000E+10  0.02000  8.360E-06    0   0.4999   age201_m62            0.0000     6.9082E+02    13.4275  -1.0000    87.8395
125      0.0000     0.0000E+00    0.0000E+00    1.800000E+10  0.02000  6.911E-06    0   0.4946   age213_m62            0.0000     7.9240E+02    14.4562  -1.0000    86.0220
126      0.0000     0.0000E+00    0.0000E+00    1.000000E+06  0.05000  2.651E-02    0   0.9998   age020_m72            0.0000     2.9643E+02    10.4467   3.3230    77.4432
127      0.0000     0.0000E+00    0.0000E+00    3.160000E+06  0.05000  4.817E-02    0   0.9577   age045_m72            0.0000     1.9896E+02     8.6896   3.0250    82.4250
128      0.0000     0.0000E+00    0.0000E+00    5.010000E+06  0.05000  3.101E-02    0   0.9147   age055_m72            0.0000     1.8335E+02     8.6147   2.6630    85.0729
129      0.0000     0.0000E+00    0.0000E+00    6.610000E+06  0.05000  1.472E-02    0   0.8877   age061_m72            0.0000     3.7300E+02    12.6815   2.2432    81.9545
130      0.0000     0.0000E+00    0.0000E+00    8.710000E+06  0.05000  1.050E-02    0   0.8638   age067_m72            0.0000     2.6536E+02    10.3627   2.6283    83.1501
131      0.0000     0.0000E+00    0.0000E+00    1.000000E+07  0.05000  8.954E-03    0   0.8524   age070_m72            0.0000     1.9846E+02     8.5493   2.8996    83.7829
132      0.0000     0.0000E+00    0.0000E+00    1.445000E+07  0.05000  6.392E-03    0   0.8262   age078_m72            0.0000     1.6777E+02     7.8210   2.8411    85.0616
133      0.0000     0.0000E+00    0.0000E+00    2.512000E+07  0.05000  4.207E-03    0   0.7902   age090_m72            0.0000     8.8890E+01     5.8865   2.4383    90.3328
134      0.0000     0.0000E+00    0.0000E+00    4.000000E+07  0.05000  3.198E-03    0   0.7618   age104_m72            0.0000     4.3677E+01     3.0810   1.8728   100.7033
135      0.0000     0.0000E+00    0.0000E+00    5.500000E+07  0.05000  2.593E-03    0   0.7432   age110_m72            0.0000     6.3338E+01     3.4700   1.7663   103.1675
136      0.0000     0.0000E+00    0.0000E+00    1.015200E+08  0.05000  1.716E-03    0   0.7092   age116_m72            0.0000     1.1326E+02     4.4283   1.5557   106.6551
137      0.0000     0.0000E+00    0.0000E+00    1.609000E+08  0.05000  1.218E-03    0   0.6876   age120_m72            0.0000     1.8221E+02     5.9334   1.2729   110.3185
138      0.0000     0.0000E+00    0.0000E+00    2.861200E+08  0.05000  7.047E-04    0   0.6618   age125_m72            0.0000     2.5539E+02     7.9886   0.7088   115.4644
139      0.0001     2.2207E-05    2.6851E-05    5.088000E+08  0.05000  3.590E-04    0   0.6356   age130_m72            0.0000     1.9682E+02     7.9238   0.1273   118.2967
140      0.0000     0.0000E+00    0.0000E+00    9.047900E+08  0.05000  1.484E-04    0   0.6088   age135_m72            0.0000     9.4961E+01     6.1933  -0.5734   109.6222
141      2.2148     2.5062E+00    2.8243E+00    1.278050E+09  0.05000  9.435E-05    0   0.5924   age138_m72            0.0000     1.5133E+02     7.3352  -0.9625   105.8342
142      2.4463     3.3369E+00    3.7116E+00    1.434000E+09  0.05000  7.827E-05    0   0.5847   age139_m72            0.0000     1.5351E+02     7.2149  -0.9443   104.9399
143      1.4030     3.9848E+00    4.2321E+00    2.500000E+09  0.05000  3.759E-05    0   0.5583   age150_m72            0.0000     2.8605E+02     8.1771  -1.0000    97.0443
144      0.0000     0.0000E+00    0.0000E+00    4.250000E+09  0.05000  1.842E-05    0   0.5374   age158_m72            0.0000     5.4349E+02    12.1141  -1.0000    88.0384
145      0.0000     0.0000E+00    0.0000E+00    6.250000E+09  0.05000  1.207E-05    0   0.5242   age166_m72            0.0000     8.2222E+02    15.2429  -1.0000    81.3561
146      0.0000     0.0000E+00    0.0000E+00    7.500000E+09  0.05000  9.993E-06    0   0.5183   age171_m72            0.0000     8.7565E+02    15.7909  -1.0000    80.1317
147      0.0000     0.0000E+00    0.0000E+00    1.000000E+10  0.05000  7.291E-06    0   0.5081   age181_m72            0.0000     1.0525E+03    17.3168  -1.0000    76.8215
148      0.0000     0.0000E+00    0.0000E+00    1.300000E+10  0.05000  5.316E-06    0   0.5018   age193_m72            0.0000     1.3388E+03    19.4144  -1.0000    71.9416
149      0.0000     0.0000E+00    0.0000E+00    1.500000E+10  0.05000  4.497E-06    0   0.4972   age201_m72            0.0000     1.4640E+03    20.2060  -1.0000    70.2539
150      0.0000     0.0000E+00    0.0000E+00    1.800000E+10  0.05000  3.739E-06    0   0.4924   age213_m72            0.0000     1.6406E+03    21.2248  -1.0000    67.7094


## Synthesis Results - Average & Chains ##

# j      x_j: min, <> & last-chain-values for 1 ...  7 chains
  1      0.0000      0.0013      0.0000      0.0000      0.0000      0.0000      0.0000      0.0000      0.0000
  2     17.1476     13.8870     14.1400     14.5594     14.3414     14.5748     14.5563     14.2366     14.9329
  3      0.0000      0.0035      0.0000      0.0172      0.0000      0.0000      0.0000      0.0000      0.0000
  4      0.0000      0.0007      0.0000      0.0000      0.0000      0.0000      0.0000      0.0000      0.0000
  5      0.0000      0.0009      0.0000      0.0000      0.0000      0.0000      0.0000      0.0000      0.0000
  6      0.0000      0.0009      0.0000      0.0000      0.0000      0.0000      0.0000      0.0000      0.0000
  7      0.0000      0.0014      0.0000      0.0000      0.0000      0.0000      0.0000      0.0000      0.0000
  8      0.0000      0.0032      0.0000      0.0000      0.0000      0.0000      0.0000      0.0000      0.0000
  9      0.0000      0.0148      0.0000      0.0000      0.0000      0.0000      0.0000      0.0000      0.0000
 10      0.0000      0.0161      0.0937      0.0000      0.0000      0.0453      0.0000      0.0000      0.0000
 11      0.0000      0.0469      0.0653      0.0000      0.0000      0.1275      0.1772      0.0000      0.1679
 12      0.0000      0.0267      0.0383      0.0000      0.0000      0.0000      0.0000      0.0000      0.0000
 13      0.0000      0.0278      0.0148      0.0000      0.0681      0.0000      0.0000      0.0000      0.0000
 14      0.0000      0.0203      0.0000      0.0000      0.1004      0.1051      0.0000      0.0000      0.1211
 15      0.0000      0.0288      0.0000      0.0000      0.1899      0.0000      0.0754      0.0017      0.0000
 16      0.0000      0.0301      0.0000      0.0000      0.0000      0.0000      0.0000      0.0387      0.0000
 17      0.0000      0.0373      0.0191      0.1075      0.0000      0.0000      0.0576      0.0000      0.0000
 18      0.0000      0.0562      0.0000      0.2189      0.0000      0.2987      0.0000      0.0000      0.0000
 19      0.0000      0.1096      0.0000      0.0000      0.0147      0.0000      0.0633      0.0000      0.0000
 20      0.0000      0.2782      0.2474      0.2784      0.0370      0.0123      0.0000      0.3658      0.1059
 21      0.0000      0.3160      0.1048      0.0000      0.2455      0.0000      0.5624      0.1595      0.0482
 22      0.0000      0.3392      0.4162      0.7918      0.5407      0.2189      0.1335      0.2111      0.0000
 23      0.0000      0.3268      1.2671      0.1108      0.0000      0.0000      0.6804      0.5699      0.1640
 24      0.0000      0.3538      0.2092      0.4559      0.3412      0.2381      0.2951      0.0000      0.0000
 25      0.0471      0.3636      0.2343      0.0000      0.0000      0.0971      0.4404      0.0000      0.4392
 26      0.0000      0.0010      0.0000      0.0000      0.0000      0.0000      0.0000      0.0000      0.0000
 27      0.0000      0.0048      0.0000      0.0000      0.0000      0.0000      0.0000      0.0000      0.0000
 28      0.0000      0.0013      0.0000      0.0000      0.0002      0.0000      0.0000      0.0000      0.0000
 29      0.0000      0.0013      0.0004      0.0000      0.0000      0.0000      0.0000      0.0000      0.0000
 30      0.0000      0.0012      0.0000      0.0000      0.0000      0.0000      0.0000      0.0000      0.0000
 31      0.0000      0.0009      0.0100      0.0000      0.0000      0.0000      0.0000      0.0000      0.0000
 32      0.0000      0.0041      0.0000      0.0000      0.0000      0.0000      0.0000      0.0000      0.0000
 33      0.0000      0.0052      0.0000      0.0000      0.0000      0.0004      0.0000      0.0000      0.0000
 34      0.0000      0.0156      0.0000      0.0000      0.0000      0.0000      0.0000      0.0000      0.1012
 35      0.0000      0.0206      0.0000      0.0000      0.0000      0.0000      0.0000      0.0000      0.0000
 36      0.0000      0.0728      0.1113      0.0000      0.0000      0.0000      0.0000      0.0000      0.0000
 37      0.0000      0.0646      0.0000      0.0000      0.0000      0.0237      0.0000      0.1723      0.0000
 38      0.0000      0.0669      0.0000      0.2258      0.0040      0.0283      0.0000      0.0000      0.0000
 39      0.0000      0.0392      0.0655      0.0000      0.0000      0.2268      0.0026      0.0095      0.0393
 40      0.0000      0.0438      0.0000      0.1316      0.0000      0.0000      0.0000      0.0000      0.0000
 41      0.0000      0.0758      0.1070      0.1246      0.0000      0.0000      0.2579      0.0865      0.0376
 42      0.0000      0.0801      0.0000      0.0513      0.0696      0.6053      0.1103      0.0000      0.0000
 43     15.4860     14.0844     14.0660     13.7695     14.5087     14.2516     14.0874     14.0194     14.6496
 44     54.5670     53.7409     54.2873     54.0952     53.4577     54.1411     53.6669     55.2816     54.1394
 45      0.0000      0.5527      0.2848      0.0000      0.7287      0.8545      0.9856      0.7293      0.1988
 46      1.6146      0.8452      0.9502      0.9233      1.0033      1.0148      0.8146      1.3578      1.6553
 47      3.2462      4.9707      4.5859      5.2811      4.7392      4.9540      4.7235      4.2977      5.0168
 48      0.0029      0.3690      0.2485      0.2672      0.8470      0.1903      0.3849      0.0000      0.3266
 49      0.0000      0.1916      0.0000      0.0764      0.0000      0.4468      0.0000      0.0000      0.0000
 50      0.0000      0.1739      0.5163      0.1532      0.3740      0.0000      0.0000      0.0000      0.0204
 51      0.0000      0.0014      0.0000      0.0000      0.0000      0.0000      0.0000      0.0000      0.0000
 52      0.0000      0.0115      0.0000      0.0000      0.0050      0.0000      0.0000      0.0000      0.0000
 53      0.0000      0.0030      0.0000      0.0000      0.0000      0.0000      0.0000      0.0244      0.0000
 54      0.0000      0.0391      0.0152      0.0157      0.0000      0.0384      0.0000      0.0000      0.0393
 55      0.0000      0.0156      0.0271      0.0000      0.0000      0.0000      0.0000      0.0000      0.0000
 56      0.0000      0.0056      0.0000      0.0000      0.0000      0.0000      0.0000      0.0000      0.0000
 57      0.0000      0.0023      0.0000      0.0000      0.0000      0.0000      0.0000      0.0000      0.0000
 58      0.0000      0.0072      0.0000      0.0000      0.0000      0.0000      0.0000      0.0000      0.0381
 59      0.0000      0.0078      0.0000      0.0000      0.0000      0.0000      0.0000      0.0000      0.0000
 60      0.0000      0.0181      0.0000      0.0000      0.0000      0.0000      0.0000      0.0000      0.0000
 61      0.0000      0.0757      0.0000      0.0609      0.1466      0.0000      0.0000      0.4088      0.0000
 62      0.0000      0.0999      0.2670      0.0660      0.4972      0.0000      0.3226      0.4054      0.1185
 63      0.1061      0.0483      0.2167      0.3437      0.0911      0.0000      0.0000      0.0000      0.3005
 64      0.0000      0.0818      0.0000      0.2020      0.0000      0.0839      0.0000      0.0000      0.0606
 65      1.1649      0.1597      0.1495      0.3671      0.0316      0.0045      0.1711      0.1345      0.3855
 66      0.0000      0.0222      0.0257      0.0000      0.0000      0.0000      0.0000      0.0000      0.0000
 67      0.0000      0.1480      0.1536      0.0000      0.0000      0.0000      0.2462      0.1912      0.0000
 68      2.0027      3.5141      3.1978      3.3387      4.0222      3.9672      3.4190      3.4504      3.2272
 69      0.0000      0.0434      0.0000      0.0000      0.0212      0.0753      0.0000      0.0000      0.0000
 70      0.0000      0.0632      0.0000      0.0000      0.0413      0.0000      0.0000      0.0368      0.0000
 71      0.0000      0.0647      0.0000      0.0176      0.0000      0.0044      0.0000      0.0000      0.0000
 72      0.0000      0.0133      0.0000      0.0000      0.0000      0.0000      0.0000      0.0000      0.0000
 73      0.0000      0.0110      0.0000      0.0000      0.0000      0.0000      0.0000      0.0000      0.0000
 74      0.0000      0.0128      0.0000      0.0000      0.0000      0.0133      0.0000      0.0000      0.0000
 75      0.0000      0.0097      0.0000      0.0000      0.0132      0.0000      0.0000      0.0186      0.0000
 76      0.0000      0.0008      0.0000      0.0044      0.0000      0.0000      0.0000      0.0000      0.0000
 77      0.0000      0.0014      0.0000      0.0000      0.0000      0.0000      0.0000      0.0000      0.0000
 78      0.0000      0.0022      0.0000      0.0000      0.0000      0.0000      0.0000      0.0000      0.0000
 79      0.0000      0.0069      0.0000      0.0000      0.0000      0.0000      0.0000      0.0000      0.0000
 80      0.0000      0.0073      0.0000      0.0000      0.0000      0.0000      0.0000      0.0000      0.0000
 81      0.0000      0.0033      0.0000      0.0000      0.0000      0.0000      0.0000      0.0150      0.0000
 82      0.0000      0.0073      0.0000      0.0841      0.0000      0.0000      0.0000      0.0000      0.0000
 83      0.0000      0.0102      0.0000      0.0000      0.0000      0.0320      0.0000      0.0000      0.0000
 84      0.0000      0.0172      0.0000      0.0000      0.0000      0.0000      0.0000      0.0000      0.0000
 85      0.0000      0.0189      0.0000      0.0000      0.0113      0.0000      0.0000      0.0092      0.0000
 86      0.0000      0.0538      0.0119      0.0059      0.0444      0.0429      0.0686      0.2895      0.0000
 87      0.0000      0.0507      0.1517      0.2307      0.0000      0.2771      0.0000      0.0000      0.0555
 88      0.0000      0.0295      0.0000      0.0000      0.0000      0.0000      0.0000      0.0000      0.0000
 89      0.0000      0.0298      0.0000      0.0000      0.0000      0.0327      0.0000      0.0000      0.0000
 90      0.0000      0.0152      0.0000      0.0000      0.0000      0.0000      0.0000      0.0000      0.0000
 91      0.0000      0.0113      0.0434      0.0000      0.0000      0.0000      0.0000      0.0000      0.0000
 92      0.0000      0.0227      0.0000      0.0000      0.0000      0.0000      0.0530      0.0000      0.0000
 93      0.0000      0.0736      0.0512      0.0000      0.0000      0.0000      0.1327      0.0000      0.0291
 94      0.0000      0.0718      0.0000      0.2240      0.0726      0.0000      0.0000      0.0288      0.0000
 95      0.0000      0.0580      0.0000      0.2071      0.0238      0.0000      0.0457      0.1433      0.1785
 96      0.0000      0.0440      0.0379      0.0562      0.0000      0.0000      0.0000      0.1999      0.0000
 97      0.0052      0.6882      0.6162      0.6169      0.6521      0.4875      0.3687      0.7706      0.5527
 98      0.0036      0.7572      0.7853      0.7027      0.6428      0.7242      0.7814      0.7360      0.8627
 99      0.0099      0.2248      0.2812      0.2968      0.0552      0.2979      0.0874      0.1309      0.2103
100      0.0000      0.0239      0.0000      0.0000      0.0000      0.0000      0.0967      0.0000      0.0000
101      0.0000      0.0011      0.0000      0.0000      0.0000      0.0000      0.0000      0.0000      0.0000
102      0.0000      0.0009      0.0000      0.0000      0.0000      0.0000      0.0000      0.0000      0.0000
103      0.0000      0.0061      0.0000      0.0000      0.0346      0.0000      0.0000      0.0000      0.0000
104      0.0000      0.0029      0.0000      0.0000      0.0000      0.0000      0.0000      0.0000      0.0000
105      0.0000      0.0012      0.0000      0.0000      0.0000      0.0000      0.0000      0.0000      0.0000
106      0.0000      0.0019      0.0000      0.0000      0.0000      0.0000      0.0000      0.0000      0.0017
107      0.0000      0.0018      0.0000      0.0000      0.0000      0.0000      0.0000      0.0000      0.0006
108      0.0000      0.0018      0.0000      0.0000      0.0000      0.0000      0.0000      0.0000      0.0000
109      0.0000      0.0052      0.0016      0.0000      0.0000      0.0000      0.0000      0.0039      0.0000
110      0.0000      0.0098      0.0000      0.0000      0.0308      0.0385      0.0000      0.0000      0.0000
111      0.0000      0.0246      0.0479      0.0000      0.0000      0.0000      0.0000      0.0710      0.0000
112      0.0000      0.0196      0.0000      0.0000      0.0133      0.0000      0.0608      0.0000      0.0000
113      0.0000      0.0280      0.0000      0.0113      0.0240      0.0000      0.0000      0.0000      0.0000
114      0.0000      0.0211      0.0000      0.0000      0.0000      0.0000      0.0000      0.0000      0.0000
115      0.0000      0.0294      0.0000      0.0000      0.0000      0.0000      0.0000      0.0000      0.1247
116      0.0000      0.0644      0.0000      0.0337      0.0000      0.0000      0.0000      0.0000      0.0737
117      0.0000      0.0885      0.0000      0.0458      0.5976      0.0000      0.4031      0.0461      0.0000
118      0.0000      0.2002      0.0000      0.2484      0.1439      0.0194      0.3214      0.1612      0.0000
119      0.0000      0.0565      0.0000      0.0000      0.0000      0.0205      0.0000      0.0753      0.0000
120      0.0000      0.0325      0.0000      0.1053      0.0000      0.0067      0.0000      0.0453      0.0129
121      0.0000      0.0155      0.0000      0.0463      0.0000      0.1060      0.0000      0.0000      0.0000
122      0.0000      0.0152      0.0000      0.0000      0.0000      0.0000      0.0000      0.0106      0.0000
123      0.0000      0.0086      0.0000      0.0000      0.0000      0.0000      0.0060      0.0000      0.0200
124      0.0000      0.0062      0.0000      0.0000      0.0000      0.0000      0.0000      0.0000      0.0000
125      0.0000      0.0069      0.0000      0.0000      0.0000      0.0000      0.0000      0.0000      0.0000
126      0.0000      0.0011      0.0000      0.0000      0.0000      0.0000      0.0000      0.0000      0.0000
127      0.0000      0.0025      0.0104      0.0000      0.0000      0.0000      0.0000      0.0000      0.0000
128      0.0000      0.0033      0.0000      0.0000      0.0000      0.0000      0.0000      0.0000      0.0000
129      0.0000      0.0017      0.0000      0.0000      0.0000      0.0000      0.0000      0.0000      0.0000
130      0.0000      0.0020      0.0000      0.0000      0.0000      0.0000      0.0000      0.0000      0.0000
131      0.0000      0.0014      0.0000      0.0000      0.0000      0.0000      0.0000      0.0141      0.0000
132      0.0000      0.0016      0.0000      0.0000      0.0000      0.0000      0.0000      0.0000      0.0000
133      0.0000      0.0030      0.0000      0.0000      0.0000      0.0000      0.0000      0.0000      0.0000
134      0.0000      0.0155      0.0643      0.0000      0.1083      0.0000      0.0000      0.0000      0.0301
135      0.0000      0.0163      0.0000      0.0000      0.0000      0.0000      0.0000      0.0000      0.0000
136      0.0000      0.0237      0.0000      0.0000      0.0774      0.0000      0.0000      0.0000      0.0000
137      0.0000      0.0234      0.0123      0.0000      0.0000      0.0000      0.0000      0.0000      0.0000
138      0.0000      0.0413      0.0038      0.0000      0.0000      0.0000      0.1573      0.0269      0.0000
139      0.0001      0.0452      0.0000      0.0000      0.0000      0.1058      0.0000      0.0000      0.3198
140      0.0000      0.0700      0.0346      0.0097      0.0258      0.0000      0.0274      0.0000      0.0541
141      2.2148      0.8735      1.6476      0.8467      1.0710      0.9593      0.9571      0.9633      0.8883
142      2.4463      0.4990      0.6710      0.8731      0.5792      0.6818      0.6559      0.7928      0.7532
143      1.4030      0.6167      0.7681      0.6132      0.6630      0.8016      0.7367      0.6284      0.7593
144      0.0000      0.0184      0.0000      0.0600      0.0298      0.1050      0.1264      0.0545      0.0000
145      0.0000      0.0071      0.0000      0.0000      0.0291      0.0000      0.0000      0.0000      0.0000
146      0.0000      0.0056      0.0000      0.0000      0.0000      0.0000      0.0587      0.0000      0.0000
147      0.0000      0.0076      0.0000      0.0000      0.0000      0.0000      0.0000      0.0000      0.0000
148      0.0000      0.0058      0.0000      0.0000      0.0000      0.0000      0.0000      0.0000      0.0000
149      0.0000      0.0068      0.0000      0.0000      0.0000      0.0000      0.0000      0.0000      0.0982
150      0.0000      0.0024      0.0000      0.0000      0.0000      0.0000      0.0000      0.0000      0.0000

# j      m_j: min, <> & last-chain-values for 1 ...  7 chains
  1  0.0000E+00  2.6512E-05  0.0000E+00  0.0000E+00  0.0000E+00  0.0000E+00  0.0000E+00  0.0000E+00  0.0000E+00
  2  7.3180E-02  4.9970E-02  5.1299E-02  5.3314E-02  5.3575E-02  5.4215E-02  5.3645E-02  5.3216E-02  5.4851E-02
  3  0.0000E+00  3.0128E-05  0.0000E+00  1.4867E-04  0.0000E+00  0.0000E+00  0.0000E+00  0.0000E+00  0.0000E+00
  4  0.0000E+00  1.1856E-05  0.0000E+00  0.0000E+00  0.0000E+00  0.0000E+00  0.0000E+00  0.0000E+00  0.0000E+00
  5  0.0000E+00  1.8664E-05  0.0000E+00  0.0000E+00  0.0000E+00  0.0000E+00  0.0000E+00  0.0000E+00  0.0000E+00
  6  0.0000E+00  2.2337E-05  0.0000E+00  0.0000E+00  0.0000E+00  0.0000E+00  0.0000E+00  0.0000E+00  0.0000E+00
  7  0.0000E+00  4.1467E-05  0.0000E+00  0.0000E+00  0.0000E+00  0.0000E+00  0.0000E+00  0.0000E+00  0.0000E+00
  8  0.0000E+00  1.1083E-04  0.0000E+00  0.0000E+00  0.0000E+00  0.0000E+00  0.0000E+00  0.0000E+00  0.0000E+00
  9  0.0000E+00  5.4210E-04  0.0000E+00  0.0000E+00  0.0000E+00  0.0000E+00  0.0000E+00  0.0000E+00  0.0000E+00
 10  0.0000E+00  6.7755E-04  3.9740E-03  0.0000E+00  0.0000E+00  1.9677E-03  0.0000E+00  0.0000E+00  0.0000E+00
 11  0.0000E+00  2.3592E-03  3.3110E-03  0.0000E+00  0.0000E+00  6.6248E-03  9.1236E-03  0.0000E+00  8.6176E-03
 12  0.0000E+00  2.3466E-03  3.3988E-03  0.0000E+00  0.0000E+00  0.0000E+00  0.0000E+00  0.0000E+00  0.0000E+00
 13  0.0000E+00  2.8383E-03  1.5271E-03  0.0000E+00  7.2254E-03  0.0000E+00  0.0000E+00  0.0000E+00  0.0000E+00
 14  0.0000E+00  2.9488E-03  0.0000E+00  0.0000E+00  1.5122E-02  1.5753E-02  0.0000E+00  0.0000E+00  1.7932E-02
 15  0.0000E+00  6.2988E-03  0.0000E+00  0.0000E+00  4.3177E-02  0.0000E+00  1.6921E-02  3.8687E-04  0.0000E+00
 16  0.0000E+00  9.5383E-03  0.0000E+00  0.0000E+00  0.0000E+00  0.0000E+00  0.0000E+00  1.2755E-02  0.0000E+00
 17  0.0000E+00  1.3116E-02  6.7954E-03  3.8529E-02  0.0000E+00  0.0000E+00  2.0779E-02  0.0000E+00  0.0000E+00
 18  0.0000E+00  3.2222E-02  0.0000E+00  1.2768E-01  0.0000E+00  1.7703E-01  0.0000E+00  0.0000E+00  0.0000E+00
 19  0.0000E+00  9.5197E-02  0.0000E+00  0.0000E+00  1.3274E-02  0.0000E+00  5.6351E-02  0.0000E+00  0.0000E+00
 20  0.0000E+00  3.4572E-01  3.0998E-01  3.5216E-01  4.7716E-02  1.5804E-02  0.0000E+00  4.7221E-01  1.3439E-01
 21  0.0000E+00  4.5428E-01  1.5197E-01  0.0000E+00  3.6642E-01  0.0000E+00  8.2819E-01  2.3829E-01  7.0799E-02
 22  0.0000E+00  6.2921E-01  7.7832E-01  1.4947E+00  1.0413E+00  4.1970E-01  2.5366E-01  4.0678E-01  0.0000E+00
 23  0.0000E+00  7.6848E-01  3.0042E+00  2.6515E-01  0.0000E+00  0.0000E+00  1.6386E+00  1.3922E+00  3.9356E-01
 24  0.0000E+00  9.5134E-01  5.6708E-01  1.2477E+00  9.5267E-01  6.6183E-01  8.1279E-01  0.0000E+00  0.0000E+00
 25  1.8062E-01  1.1747E+00  7.6310E-01  0.0000E+00  0.0000E+00  3.2426E-01  1.4570E+00  0.0000E+00  1.4482E+00
 26  0.0000E+00  2.0292E-05  0.0000E+00  0.0000E+00  0.0000E+00  0.0000E+00  0.0000E+00  0.0000E+00  0.0000E+00
 27  0.0000E+00  2.0558E-05  0.0000E+00  0.0000E+00  0.0000E+00  0.0000E+00  0.0000E+00  0.0000E+00  0.0000E+00
 28  0.0000E+00  1.0593E-05  0.0000E+00  0.0000E+00  1.5639E-06  0.0000E+00  0.0000E+00  0.0000E+00  0.0000E+00
 29  0.0000E+00  1.7686E-05  5.2429E-06  0.0000E+00  0.0000E+00  0.0000E+00  0.0000E+00  0.0000E+00  0.0000E+00
 30  0.0000E+00  2.0167E-05  0.0000E+00  0.0000E+00  0.0000E+00  0.0000E+00  0.0000E+00  0.0000E+00  0.0000E+00
 31  0.0000E+00  1.7495E-05  1.9068E-04  0.0000E+00  0.0000E+00  0.0000E+00  0.0000E+00  0.0000E+00  0.0000E+00
 32  0.0000E+00  8.6531E-05  0.0000E+00  0.0000E+00  0.0000E+00  0.0000E+00  0.0000E+00  0.0000E+00  0.0000E+00
 33  0.0000E+00  1.5495E-04  0.0000E+00  0.0000E+00  0.0000E+00  1.0871E-05  0.0000E+00  0.0000E+00  0.0000E+00
 34  0.0000E+00  5.6363E-04  0.0000E+00  0.0000E+00  0.0000E+00  0.0000E+00  0.0000E+00  0.0000E+00  3.7290E-03
 35  0.0000E+00  8.9776E-04  0.0000E+00  0.0000E+00  0.0000E+00  0.0000E+00  0.0000E+00  0.0000E+00  0.0000E+00
 36  0.0000E+00  4.0693E-03  6.2730E-03  0.0000E+00  0.0000E+00  0.0000E+00  0.0000E+00  0.0000E+00  0.0000E+00
 37  0.0000E+00  4.4844E-03  0.0000E+00  0.0000E+00  0.0000E+00  1.7022E-03  0.0000E+00  1.2435E-02  0.0000E+00
 38  0.0000E+00  6.4744E-03  0.0000E+00  2.2234E-02  4.0066E-04  2.8267E-03  0.0000E+00  0.0000E+00  0.0000E+00
 39  0.0000E+00  5.6545E-03  9.5381E-03  0.0000E+00  0.0000E+00  3.3857E-02  3.8347E-04  1.4306E-03  5.7953E-03
 40  0.0000E+00  1.1148E-02  0.0000E+00  3.4103E-02  0.0000E+00  0.0000E+00  0.0000E+00  0.0000E+00  0.0000E+00
 41  0.0000E+00  2.5876E-02  3.6803E-02  4.3253E-02  0.0000E+00  0.0000E+00  9.0122E-02  3.0652E-02  1.3107E-02
 42  0.0000E+00  3.0520E-02  0.0000E+00  1.9874E-02  2.7544E-02  2.3845E-01  4.3028E-02  0.0000E+00  0.0000E+00
 43  1.1384E+01  8.7300E+00  8.7905E+00  8.6856E+00  9.3363E+00  9.1319E+00  8.9430E+00  9.0271E+00  9.2693E+00
 44  6.3441E+01  5.2681E+01  5.3655E+01  5.3965E+01  5.4404E+01  5.4865E+01  5.3881E+01  5.6295E+01  5.4176E+01
 45  0.0000E+00  7.5517E-01  3.9235E-01  0.0000E+00  1.0336E+00  1.2069E+00  1.3792E+00  1.0352E+00  2.7726E-01
 46  3.1167E+00  1.3757E+00  1.5592E+00  1.5293E+00  1.6953E+00  1.7075E+00  1.3579E+00  2.2957E+00  2.7503E+00
 47  8.2130E+00  1.0604E+01  9.8632E+00  1.1465E+01  1.0496E+01  1.0925E+01  1.0320E+01  9.5238E+00  1.0925E+01
 48  8.6149E-03  9.3728E-01  6.3654E-01  6.9075E-01  2.2338E+00  4.9982E-01  1.0014E+00  0.0000E+00  8.4697E-01
 49  0.0000E+00  5.4460E-01  0.0000E+00  2.2088E-01  0.0000E+00  1.3126E+00  0.0000E+00  0.0000E+00  0.0000E+00
 50  0.0000E+00  5.8127E-01  1.7399E+00  5.2117E-01  1.2977E+00  0.0000E+00  0.0000E+00  0.0000E+00  6.9566E-02
 51  0.0000E+00  2.1369E-05  0.0000E+00  0.0000E+00  0.0000E+00  0.0000E+00  0.0000E+00  0.0000E+00  0.0000E+00
 52  0.0000E+00  4.8279E-05  0.0000E+00  0.0000E+00  2.1762E-05  0.0000E+00  0.0000E+00  0.0000E+00  0.0000E+00
 53  0.0000E+00  1.9101E-05  0.0000E+00  0.0000E+00  0.0000E+00  0.0000E+00  0.0000E+00  1.6283E-04  0.0000E+00
 54  0.0000E+00  2.3921E-04  9.3775E-05  9.7722E-05  0.0000E+00  2.4237E-04  0.0000E+00  0.0000E+00  2.4492E-04
 55  0.0000E+00  1.4028E-04  2.4627E-04  0.0000E+00  0.0000E+00  0.0000E+00  0.0000E+00  0.0000E+00  0.0000E+00
 56  0.0000E+00  6.7065E-05  0.0000E+00  0.0000E+00  0.0000E+00  0.0000E+00  0.0000E+00  0.0000E+00  0.0000E+00
 57  0.0000E+00  4.3780E-05  0.0000E+00  0.0000E+00  0.0000E+00  0.0000E+00  0.0000E+00  0.0000E+00  0.0000E+00
 58  0.0000E+00  1.9894E-04  0.0000E+00  0.0000E+00  0.0000E+00  0.0000E+00  0.0000E+00  0.0000E+00  1.0737E-03
 59  0.0000E+00  2.9751E-04  0.0000E+00  0.0000E+00  0.0000E+00  0.0000E+00  0.0000E+00  0.0000E+00  0.0000E+00
 60  0.0000E+00  7.7179E-04  0.0000E+00  0.0000E+00  0.0000E+00  0.0000E+00  0.0000E+00  0.0000E+00  0.0000E+00
 61  0.0000E+00  4.1214E-03  0.0000E+00  3.3740E-03  8.2809E-03  0.0000E+00  0.0000E+00  2.3107E-02  0.0000E+00
 62  0.0000E+00  6.8914E-03  1.8571E-02  4.6307E-03  3.5613E-02  0.0000E+00  2.2799E-02  2.9060E-02  8.3445E-03
 63  1.3201E-02  5.0654E-03  2.2932E-02  3.6709E-02  9.9303E-03  0.0000E+00  0.0000E+00  0.0000E+00  3.2195E-02
 64  0.0000E+00  1.4125E-02  0.0000E+00  3.5501E-02  0.0000E+00  1.4983E-02  0.0000E+00  0.0000E+00  1.0682E-02
 65  4.0315E-01  4.6592E-02  4.3992E-02  1.0903E-01  9.5622E-03  1.3497E-03  5.1134E-02  4.0778E-02  1.1482E-01
 66  0.0000E+00  8.2837E-03  9.6719E-03  0.0000E+00  0.0000E+00  0.0000E+00  0.0000E+00  0.0000E+00  0.0000E+00
 67  0.0000E+00  7.5859E-02  7.9388E-02  0.0000E+00  0.0000E+00  0.0000E+00  1.2922E-01  1.0180E-01  0.0000E+00
 68  2.2633E+00  3.3484E+00  3.0721E+00  3.2375E+00  3.9788E+00  3.9078E+00  3.3366E+00  3.4153E+00  3.1390E+00
 69  0.0000E+00  7.1380E-02  0.0000E+00  0.0000E+00  3.6120E-02  1.2788E-01  0.0000E+00  0.0000E+00  0.0000E+00
 70  0.0000E+00  1.4451E-01  0.0000E+00  0.0000E+00  9.8027E-02  0.0000E+00  0.0000E+00  8.7518E-02  0.0000E+00
 71  0.0000E+00  1.7465E-01  0.0000E+00  4.8314E-02  0.0000E+00  1.2366E-02  0.0000E+00  0.0000E+00  0.0000E+00
 72  0.0000E+00  4.7181E-02  0.0000E+00  0.0000E+00  0.0000E+00  0.0000E+00  0.0000E+00  0.0000E+00  0.0000E+00
 73  0.0000E+00  4.9169E-02  0.0000E+00  0.0000E+00  0.0000E+00  0.0000E+00  0.0000E+00  0.0000E+00  0.0000E+00
 74  0.0000E+00  6.3983E-02  0.0000E+00  0.0000E+00  0.0000E+00  6.8869E-02  0.0000E+00  0.0000E+00  0.0000E+00
 75  0.0000E+00  5.5745E-02  0.0000E+00  0.0000E+00  7.8736E-02  0.0000E+00  0.0000E+00  1.1102E-01  0.0000E+00
 76  0.0000E+00  1.0401E-05  0.0000E+00  6.0116E-05  0.0000E+00  0.0000E+00  0.0000E+00  0.0000E+00  0.0000E+00
 77  0.0000E+00  7.7536E-06  0.0000E+00  0.0000E+00  0.0000E+00  0.0000E+00  0.0000E+00  0.0000E+00  0.0000E+00
 78  0.0000E+00  1.3616E-05  0.0000E+00  0.0000E+00  0.0000E+00  0.0000E+00  0.0000E+00  0.0000E+00  0.0000E+00
 79  0.0000E+00  5.0629E-05  0.0000E+00  0.0000E+00  0.0000E+00  0.0000E+00  0.0000E+00  0.0000E+00  0.0000E+00
 80  0.0000E+00  6.8841E-05  0.0000E+00  0.0000E+00  0.0000E+00  0.0000E+00  0.0000E+00  0.0000E+00  0.0000E+00
 81  0.0000E+00  4.0747E-05  0.0000E+00  0.0000E+00  0.0000E+00  0.0000E+00  0.0000E+00  1.9400E-04  0.0000E+00
 82  0.0000E+00  1.2299E-04  0.0000E+00  1.4347E-03  0.0000E+00  0.0000E+00  0.0000E+00  0.0000E+00  0.0000E+00
 83  0.0000E+00  2.5131E-04  0.0000E+00  0.0000E+00  0.0000E+00  8.1405E-04  0.0000E+00  0.0000E+00  0.0000E+00
 84  0.0000E+00  5.8714E-04  0.0000E+00  0.0000E+00  0.0000E+00  0.0000E+00  0.0000E+00  0.0000E+00  0.0000E+00
 85  0.0000E+00  7.8116E-04  0.0000E+00  0.0000E+00  4.8708E-04  0.0000E+00  0.0000E+00  3.9583E-04  0.0000E+00
 86  0.0000E+00  3.0159E-03  6.7484E-04  3.3781E-04  2.5836E-03  2.4852E-03  3.9400E-03  1.6868E-02  0.0000E+00
 87  0.0000E+00  3.7909E-03  1.1430E-02  1.7539E-02  0.0000E+00  2.1400E-02  0.0000E+00  0.0000E+00  4.2339E-03
 88  0.0000E+00  3.3576E-03  0.0000E+00  0.0000E+00  0.0000E+00  0.0000E+00  0.0000E+00  0.0000E+00  0.0000E+00
 89  0.0000E+00  5.6451E-03  0.0000E+00  0.0000E+00  0.0000E+00  6.4166E-03  0.0000E+00  0.0000E+00  0.0000E+00
 90  0.0000E+00  5.3387E-03  0.0000E+00  0.0000E+00  0.0000E+00  0.0000E+00  0.0000E+00  0.0000E+00  0.0000E+00
 91  0.0000E+00  5.0931E-03  1.9721E-02  0.0000E+00  0.0000E+00  0.0000E+00  0.0000E+00  0.0000E+00  0.0000E+00
 92  0.0000E+00  1.3649E-02  0.0000E+00  0.0000E+00  0.0000E+00  0.0000E+00  3.2712E-02  0.0000E+00  0.0000E+00
 93  0.0000E+00  9.0048E-02  6.3227E-02  0.0000E+00  0.0000E+00  0.0000E+00  1.6635E-01  0.0000E+00  3.6384E-02
 94  0.0000E+00  1.5762E-01  0.0000E+00  5.0022E-01  1.6552E-01  0.0000E+00  0.0000E+00  6.5761E-02  0.0000E+00
 95  0.0000E+00  1.7145E-01  0.0000E+00  6.2319E-01  7.2976E-02  0.0000E+00  1.3838E-01  4.4005E-01  5.3874E-01
 96  0.0000E+00  1.5700E-01  1.3620E-01  2.0414E-01  0.0000E+00  0.0000E+00  0.0000E+00  7.4062E-01  0.0000E+00
 97  2.8884E-02  3.1986E+00  2.8877E+00  2.9180E+00  3.1468E+00  2.3424E+00  1.7554E+00  3.7206E+00  2.6226E+00
 98  2.5513E-02  4.5134E+00  4.7196E+00  4.2628E+00  3.9778E+00  4.4625E+00  4.7700E+00  4.5575E+00  5.2490E+00
 99  8.0055E-02  1.5273E+00  1.9263E+00  2.0523E+00  3.8938E-01  2.0927E+00  6.0836E-01  9.2362E-01  1.4588E+00
100  0.0000E+00  1.8691E-01  0.0000E+00  0.0000E+00  0.0000E+00  0.0000E+00  7.7478E-01  0.0000E+00  0.0000E+00
101  0.0000E+00  9.3223E-06  0.0000E+00  0.0000E+00  0.0000E+00  0.0000E+00  0.0000E+00  0.0000E+00  0.0000E+00
102  0.0000E+00  3.9696E-06  0.0000E+00  0.0000E+00  0.0000E+00  0.0000E+00  0.0000E+00  0.0000E+00  0.0000E+00
103  0.0000E+00  3.0106E-05  0.0000E+00  0.0000E+00  1.7789E-04  0.0000E+00  0.0000E+00  0.0000E+00  0.0000E+00
104  0.0000E+00  1.8724E-05  0.0000E+00  0.0000E+00  0.0000E+00  0.0000E+00  0.0000E+00  0.0000E+00  0.0000E+00
105  0.0000E+00  1.6608E-05  0.0000E+00  0.0000E+00  0.0000E+00  0.0000E+00  0.0000E+00  0.0000E+00  0.0000E+00
106  0.0000E+00  2.8211E-05  0.0000E+00  0.0000E+00  0.0000E+00  0.0000E+00  0.0000E+00  0.0000E+00  2.5401E-05
107  0.0000E+00  3.5431E-05  0.0000E+00  0.0000E+00  0.0000E+00  0.0000E+00  0.0000E+00  0.0000E+00  1.1183E-05
108  0.0000E+00  5.9239E-05  0.0000E+00  0.0000E+00  0.0000E+00  0.0000E+00  0.0000E+00  0.0000E+00  0.0000E+00
109  0.0000E+00  2.0604E-04  6.4681E-05  0.0000E+00  0.0000E+00  0.0000E+00  0.0000E+00  1.5886E-04  0.0000E+00
110  0.0000E+00  4.6232E-04  0.0000E+00  0.0000E+00  1.5150E-03  1.8845E-03  0.0000E+00  0.0000E+00  0.0000E+00
111  0.0000E+00  1.6204E-03  3.1781E-03  0.0000E+00  0.0000E+00  0.0000E+00  0.0000E+00  4.8561E-03  0.0000E+00
112  0.0000E+00  1.6970E-03  0.0000E+00  0.0000E+00  1.2013E-03  0.0000E+00  5.4018E-03  0.0000E+00  0.0000E+00
113  0.0000E+00  3.6180E-03  0.0000E+00  1.4827E-03  3.2291E-03  0.0000E+00  0.0000E+00  0.0000E+00  0.0000E+00
114  0.0000E+00  4.8085E-03  0.0000E+00  0.0000E+00  0.0000E+00  0.0000E+00  0.0000E+00  0.0000E+00  0.0000E+00
115  0.0000E+00  1.3383E-02  0.0000E+00  0.0000E+00  0.0000E+00  0.0000E+00  0.0000E+00  0.0000E+00  5.8009E-02
116  0.0000E+00  4.7158E-02  0.0000E+00  2.5092E-02  0.0000E+00  0.0000E+00  0.0000E+00  0.0000E+00  5.5045E-02
117  0.0000E+00  7.6132E-02  0.0000E+00  4.0071E-02  5.3353E-01  0.0000E+00  3.5498E-01  4.1221E-02  0.0000E+00
118  0.0000E+00  3.4943E-01  0.0000E+00  4.4119E-01  2.6076E-01  3.4969E-02  5.7439E-01  2.9225E-01  0.0000E+00
119  0.0000E+00  1.7034E-01  0.0000E+00  0.0000E+00  0.0000E+00  6.3949E-02  0.0000E+00  2.3607E-01  0.0000E+00
120  0.0000E+00  1.3958E-01  0.0000E+00  4.6031E-01  0.0000E+00  2.9812E-02  0.0000E+00  2.0230E-01  5.6481E-02
121  0.0000E+00  7.8405E-02  0.0000E+00  2.3815E-01  0.0000E+00  5.5381E-01  0.0000E+00  0.0000E+00  0.0000E+00
122  0.0000E+00  1.0269E-01  0.0000E+00  0.0000E+00  0.0000E+00  0.0000E+00  0.0000E+00  7.4391E-02  0.0000E+00
123  0.0000E+00  7.6775E-02  0.0000E+00  0.0000E+00  0.0000E+00  0.0000E+00  5.4430E-02  0.0000E+00  1.8185E-01
124  0.0000E+00  6.3308E-02  0.0000E+00  0.0000E+00  0.0000E+00  0.0000E+00  0.0000E+00  0.0000E+00  0.0000E+00
125  0.0000E+00  8.4323E-02  0.0000E+00  0.0000E+00  0.0000E+00  0.0000E+00  0.0000E+00  0.0000E+00  0.0000E+00
126  0.0000E+00  7.1665E-06  0.0000E+00  0.0000E+00  0.0000E+00  0.0000E+00  0.0000E+00  0.0000E+00  0.0000E+00
127  0.0000E+00  8.6631E-06  3.5693E-05  0.0000E+00  0.0000E+00  0.0000E+00  0.0000E+00  0.0000E+00  0.0000E+00
128  0.0000E+00  1.6638E-05  0.0000E+00  0.0000E+00  0.0000E+00  0.0000E+00  0.0000E+00  0.0000E+00  0.0000E+00
129  0.0000E+00  1.8029E-05  0.0000E+00  0.0000E+00  0.0000E+00  0.0000E+00  0.0000E+00  0.0000E+00  0.0000E+00
130  0.0000E+00  2.8675E-05  0.0000E+00  0.0000E+00  0.0000E+00  0.0000E+00  0.0000E+00  0.0000E+00  0.0000E+00
131  0.0000E+00  2.2181E-05  0.0000E+00  0.0000E+00  0.0000E+00  0.0000E+00  0.0000E+00  2.3871E-04  0.0000E+00
132  0.0000E+00  3.6464E-05  0.0000E+00  0.0000E+00  0.0000E+00  0.0000E+00  0.0000E+00  0.0000E+00  0.0000E+00
133  0.0000E+00  9.7200E-05  0.0000E+00  0.0000E+00  0.0000E+00  0.0000E+00  0.0000E+00  0.0000E+00  0.0000E+00
134  0.0000E+00  6.3260E-04  2.6441E-03  0.0000E+00  4.5859E-03  0.0000E+00  0.0000E+00  0.0000E+00  1.2528E-03
135  0.0000E+00  8.0072E-04  0.0000E+00  0.0000E+00  0.0000E+00  0.0000E+00  0.0000E+00  0.0000E+00  0.0000E+00
136  0.0000E+00  1.6773E-03  0.0000E+00  0.0000E+00  5.6882E-03  0.0000E+00  0.0000E+00  0.0000E+00  0.0000E+00
137  0.0000E+00  2.2613E-03  1.2013E-03  0.0000E+00  0.0000E+00  0.0000E+00  0.0000E+00  0.0000E+00  0.0000E+00
138  0.0000E+00  6.6434E-03  6.1028E-04  0.0000E+00  0.0000E+00  0.0000E+00  2.5911E-02  4.4910E-03  0.0000E+00
139  2.6851E-05  1.3689E-02  0.0000E+00  0.0000E+00  0.0000E+00  3.3158E-02  0.0000E+00  0.0000E+00  9.8970E-02
140  0.0000E+00  4.9188E-02  2.4497E-02  6.9530E-03  1.8810E-02  0.0000E+00  1.9733E-02  0.0000E+00  3.8812E-02
141  2.8243E+00  9.3923E-01  1.7861E+00  9.2648E-01  1.1955E+00  1.0663E+00  1.0540E+00  1.0759E+00  9.7501E-01
142  3.7116E+00  6.3837E-01  8.6545E-01  1.1367E+00  7.6925E-01  9.0163E-01  8.5934E-01  1.0535E+00  9.8356E-01
143  4.2321E+00  1.5684E+00  1.9696E+00  1.5870E+00  1.7505E+00  2.1077E+00  1.9191E+00  1.6603E+00  1.9714E+00
144  0.0000E+00  9.2160E-02  0.0000E+00  3.0509E-01  1.5454E-01  5.4209E-01  6.4662E-01  2.8267E-01  0.0000E+00
145  0.0000E+00  5.2600E-02  0.0000E+00  0.0000E+00  2.2460E-01  0.0000E+00  0.0000E+00  0.0000E+00  0.0000E+00
146  0.0000E+00  4.9995E-02  0.0000E+00  0.0000E+00  0.0000E+00  0.0000E+00  5.3371E-01  0.0000E+00  0.0000E+00
147  0.0000E+00  9.0853E-02  0.0000E+00  0.0000E+00  0.0000E+00  0.0000E+00  0.0000E+00  0.0000E+00  0.0000E+00
148  0.0000E+00  9.3769E-02  0.0000E+00  0.0000E+00  0.0000E+00  0.0000E+00  0.0000E+00  0.0000E+00  0.0000E+00
149  0.0000E+00  1.2815E-01  0.0000E+00  0.0000E+00  0.0000E+00  0.0000E+00  0.0000E+00  0.0000E+00  1.8981E+00
150  0.0000E+00  5.4422E-02  0.0000E+00  0.0000E+00  0.0000E+00  0.0000E+00  0.0000E+00  0.0000E+00  0.0000E+00

# AV, chi2 & Mass for <> & i_chain = 1 ...  7 solutions
AV       0.1127      0.0895      0.0888      0.0927      0.0945      0.0942      0.0920      0.0924      0.0981
chi2 2.0974E+00  2.1595E+00  2.1446E+00  2.1472E+00  2.1465E+00  2.1444E+00  2.1433E+00  2.1431E+00  2.1416E+00
Mass 1.9612E-10  2.2547E-10  2.2340E-10  2.2250E-10  2.1864E-10  2.1949E-10  2.2088E-10  2.1789E-10  2.2343E-10
 -23.07                                  [v0_min (km/s) before EX0s...]
  68.52                                  [vd_min (km/s) before EX0s...]


## Synthetic spectrum (Best Model) ##l_obs f_obs f_syn wei
 3070    [Nl_obs]
 3359.00    0.27357   0.45220   -1.000
 3360.00    0.27108   0.44373   -1.000
 3361.00    0.28301   0.45670   -1.000
 3362.00    0.29706   0.48268   -1.000
 3363.00    0.30788   0.50941   -1.000
 3364.00    0.32501   0.52340   -1.000
 3365.00    0.34501   0.52133   -1.000
 3366.00    0.34984   0.51225   -1.000
 3367.00    0.34951   0.50253   -1.000
 3368.00    0.34390   0.49291   -1.000
 3369.00    0.32811   0.48123   -1.000
 3370.00    0.32409   0.46724   -1.000
 3371.00    0.32998   0.45936   -1.000
 3372.00    0.33165   0.46506   -1.000
 3373.00    0.34024   0.48321   -1.000
 3374.00    0.36068   0.50628   -1.000
 3375.00    0.37980   0.52589   -1.000
 3376.00    0.39502   0.53449   -1.000
 3377.00    0.40492   0.53026   -1.000
 3378.00    0.40839   0.51883   -1.000
 3379.00    0.39926   0.51035   -1.000
 3380.00    0.39375   0.51024   -1.000
 3381.00    0.40198   0.51590   -1.000
 3382.00    0.40722   0.52283   -1.000
 3383.00    0.41106   0.52908   -1.000
 3384.00    0.41603   0.53433   -1.000
 3385.00    0.41694   0.53617   -1.000
 3386.00    0.42241   0.53114   -1.000
 3387.00    0.43248   0.52366   -1.000
 3388.00    0.43027   0.52241   -1.000
 3389.00    0.42466   0.52841   -1.000
 3390.00    0.43083   0.53500   -1.000
 3391.00    0.43374   0.53552   -1.000
 3392.00    0.43157   0.52981   -1.000
 3393.00    0.43180   0.52711   -1.000
 3394.00    0.43321   0.53340   -1.000
 3395.00    0.44313   0.54653   -1.000
 3396.00    0.45831   0.56137   -1.000
 3397.00    0.46696   0.57326   -1.000
 3398.00    0.47536   0.57961   -1.000
 3399.00    0.48219   0.57834   -1.000
 3400.00    0.47806   0.57008   -1.000
 3401.00    0.47835   0.55617   38.468
 3402.00    0.47823   0.54151   39.162
 3403.00    0.46629   0.53309   39.836
 3404.00    0.45670   0.53143   40.227
 3405.00    0.45489   0.53283   -1.000
 3406.00    0.45738   0.53075   41.082
 3407.00    0.45304   0.52446   41.035
 3408.00    0.44286   0.51992   40.216
 3409.00    0.45350   0.52285   39.490
 3410.00    0.46567   0.52894   40.299
 3411.00    0.46185   0.52972   41.515
 3412.00    0.46013   0.52531   41.789
 3413.00    0.45852   0.52128   41.151
 3414.00    0.45502   0.52429   39.690
 3415.00    0.45896   0.53403   37.877
 3416.00    0.46715   0.54504   36.011
 3417.00    0.47783   0.55475   35.129
 3418.00    0.48926   0.56301   34.943
 3419.00    0.50065   0.56956   34.956
 3420.00    0.50313   0.57233   35.629
 3421.00    0.49686   0.56762   36.551
 3422.00    0.49163   0.55594   36.304
 3423.00    0.49374   0.54474   35.294
 3424.00    0.49043   0.54097   34.785
 3425.00    0.49028   0.54443   -1.000
 3426.00    0.49858   0.55177   -1.000
 3427.00    0.50454   0.56297   -1.000
 3428.00    0.51379   0.57741   -1.000
 3429.00    0.52336   0.58875   -1.000
 3430.00    0.52214   0.58764   -1.000
 3431.00    0.51902   0.57359   34.716
 3432.00    0.52008   0.55913   69.786
 3433.00    0.51427   0.55644   -1.000
 3434.00    0.51299   0.56674   -1.000
 3435.00    0.52212   0.57830   35.508
 3436.00    0.52408   0.57924   37.448
 3437.00    0.51825   0.56892   40.117
 3438.00    0.50704   0.55287   42.433
 3439.00    0.49650   0.53515   43.195
 3440.00    0.48202   0.51796   43.111
 3441.00    0.47001   0.50460   42.030
 3442.00    0.47172   0.49952   39.977
 3443.00    0.47789   0.50349   37.768
 3444.00    0.48288   0.51437   36.131
 3445.00    0.49135   0.53037   72.747
 3446.00    0.50238   0.55034   -1.000
 3447.00    0.51622   0.57035   -1.000
 3448.00    0.53201   0.58420   -1.000
 3449.00    0.53967   0.58497   -1.000
 3450.00    0.53497   0.57079   -1.000
 3451.00    0.53675   0.55135   -1.000
 3452.00    0.53748   0.53891  275.074
 3453.00    0.53079   0.53786  275.074
 3454.00    0.53324   0.54435  275.074
 3455.00    0.54593   0.55147  275.074
 3456.00    0.55902   0.55413   55.664
 3457.00    0.55640   0.55113   34.978
 3458.00    0.54312   0.54393   35.038
 3459.00    0.53757   0.53471   73.046
 3460.00    0.54197   0.52690   -1.000
 3461.00    0.54461   0.52680   -1.000
 3462.00    0.54341   0.53591  275.074
 3463.00    0.54743   0.54626  275.074
 3464.00    0.55391   0.54992  275.074
 3465.00    0.55595   0.54854  275.074
 3466.00    0.55409   0.55061  275.074
 3467.00    0.56183   0.56012  275.074
 3468.00    0.57196   0.57360  275.074
 3469.00    0.57779   0.58404  275.074
 3470.00    0.57932   0.58613  275.074
 3471.00    0.57980   0.57958  275.074
 3472.00    0.57075   0.56635   55.164
 3473.00    0.55912   0.54887   35.769
 3474.00    0.54907   0.53336   35.832
 3475.00    0.53432   0.52592   75.484
 3476.00    0.52437   0.52950  275.074
 3477.00    0.53814   0.54191  275.074
 3478.00    0.55689   0.55635  275.074
 3479.00    0.57644   0.56867  275.074
 3480.00    0.58722   0.57638  275.074
 3481.00    0.58704   0.57707  275.074
 3482.00    0.57971   0.57252  275.074
 3483.00    0.57200   0.56808  275.074
 3484.00    0.57461   0.56948  275.074
 3485.00    0.58569   0.57788  275.074
 3486.00    0.59143   0.58589  275.074
 3487.00    0.59373   0.58563  275.074
 3488.00    0.59282   0.57607   -1.000
 3489.00    0.57591   0.56222   -1.000
 3490.00    0.55830   0.55342  275.074
 3491.00    0.54873   0.55498  275.074
 3492.00    0.54802   0.56106   -1.000
 3493.00    0.55644   0.56253  275.074
 3494.00    0.55532   0.55671  275.074
 3495.00    0.54993   0.54672  275.074
 3496.00    0.55184   0.54066  275.074
 3497.00    0.55378   0.54372  275.074
 3498.00    0.56396   0.55257   -1.000
 3499.00    0.57883   0.56094   -1.000
 3500.00    0.58208   0.56411   -1.000
 3501.00    0.58194   0.56491   -1.000
 3502.00    0.59463   0.56722   -1.000
 3503.00    0.60297   0.56905   -1.000
 3504.00    0.59577   0.56722   -1.000
 3505.00    0.59364   0.56167   -1.000
 3506.00    0.59216   0.55604   -1.000
 3507.00    0.59145   0.55280   -1.000
 3508.00    0.59245   0.55195   -1.000
 3509.00    0.58654   0.55183   -1.000
 3510.00    0.57753   0.54997   -1.000
 3511.00    0.57072   0.54592   -1.000
 3512.00    0.56835   0.54084   -1.000
 3513.00    0.56523   0.53827   -1.000
 3514.00    0.56059   0.54250   -1.000
 3515.00    0.57199   0.55564   -1.000
 3516.00    0.59293   0.57373   -1.000
 3517.00    0.59987   0.58627   -1.000
 3518.00    0.59411   0.58547  275.074
 3519.00    0.58707   0.57330   -1.000
 3520.00    0.57781   0.55911   -1.000
 3521.00    0.56824   0.54900   52.055
 3522.00    0.55767   0.54204   35.472
 3523.00    0.55240   0.53447   35.791
 3524.00    0.54669   0.52605   81.702
 3525.00    0.53412   0.52298   -1.000
 3526.00    0.53042   0.52987  275.074
 3527.00    0.54188   0.54424  275.074
 3528.00    0.56257   0.56124  275.074
 3529.00    0.57454   0.57551  275.074
 3530.00    0.58736   0.58377  275.074
 3531.00    0.58759   0.58535  275.074
 3532.00    0.59171   0.58033  275.074
 3533.00    0.59744   0.57207   -1.000
 3534.00    0.59457   0.56703   -1.000
 3535.00    0.59163   0.56997   -1.000
 3536.00    0.59219   0.58062  273.696
 3537.00    0.59170   0.59328  273.994
 3538.00    0.59537   0.60270  275.074
 3539.00    0.59714   0.60698   -1.000
 3540.00    0.59997   0.60663  275.074
 3541.00    0.59602   0.60476  275.074
 3542.00    0.59214   0.60541   -1.000
 3543.00    0.59923   0.60938   -1.000
 3544.00    0.60709   0.61244  275.074
 3545.00    0.60235   0.61152   -1.000
 3546.00    0.60076   0.60796  275.074
 3547.00    0.60065   0.60469  275.074
 3548.00    0.59428   0.60407  275.074
 3549.00    0.59435   0.60668   -1.000
 3550.00    0.59522   0.61079   -1.000
 3551.00    0.59044   0.61176   -1.000
 3552.00    0.58194   0.60617   -1.000
 3553.00    0.57756   0.59744   -1.000
 3554.00    0.57739   0.59243   -1.000
 3555.00    0.58051   0.59427   -1.000
 3556.00    0.58083   0.60120   -1.000
 3557.00    0.57377   0.60866   -1.000
 3558.00    0.57650   0.61219   -1.000
 3559.00    0.58143   0.61214   -1.000
 3560.00    0.58255   0.61180   -1.000
 3561.00    0.58418   0.61181   -1.000
 3562.00    0.58502   0.60821   50.360
 3563.00    0.58123   0.59692   35.982
 3564.00    0.57003   0.57942   36.194
 3565.00    0.54667   0.56269   35.914
 3566.00    0.53714   0.55332   36.662
 3567.00    0.53513   0.55131   37.539
 3568.00    0.53404   0.55072   36.960
 3569.00    0.52610   0.54601   35.454
 3570.00    0.52008   0.53773   86.337
 3571.00    0.52677   0.53169  275.074
 3572.00    0.53676   0.53119  275.074
 3573.00    0.54123   0.53453  275.074
 3574.00    0.54888   0.54033  275.074
 3575.00    0.55357   0.54809  275.074
 3576.00    0.55534   0.55627   51.446
 3577.00    0.55757   0.56264   38.117
 3578.00    0.56104   0.56335   40.533
 3579.00    0.55282   0.55624   41.425
 3580.00    0.53272   0.54473   41.620
 3581.00    0.52123   0.53463   42.388
 3582.00    0.52019   0.53036   43.688
 3583.00    0.52685   0.52932   44.573
 3584.00    0.52282   0.52294   43.196
 3585.00    0.51073   0.50895   40.915
 3586.00    0.50366   0.49600   38.873
 3587.00    0.50014   0.49454   35.861
 3588.00    0.50602   0.50697   88.097
 3589.00    0.52496   0.52712  275.074
 3590.00    0.54100   0.54598  275.074
 3591.00    0.55355   0.55813  275.074
 3592.00    0.56986   0.56389  275.074
 3593.00    0.57213   0.56763  275.074
 3594.00    0.57241   0.57403  274.101
 3595.00    0.57770   0.58370  266.683
 3596.00    0.58399   0.59291  261.514
 3597.00    0.59285   0.59893  262.387
 3598.00    0.59964   0.60186  272.122
 3599.00    0.60894   0.60183  275.074
 3600.00    0.60620   0.59639  275.074
 3601.00    0.58760   0.58512  275.074
 3602.00    0.58138   0.57310  275.074
 3603.00    0.57064   0.56636  275.074
 3604.00    0.56405   0.56680  275.074
 3605.00    0.56795   0.56934  275.074
 3606.00    0.57548   0.56867  275.074
 3607.00    0.57319   0.56452  275.074
 3608.00    0.56619   0.55973  275.074
 3609.00    0.55001   0.55706  275.074
 3610.00    0.54617   0.55751   -1.000
 3611.00    0.56243   0.56124  275.074
 3612.00    0.57233   0.56704  275.074
 3613.00    0.56945   0.57429  275.074
 3614.00    0.57839   0.58454  275.074
 3615.00    0.59043   0.59417  275.074
 3616.00    0.59146   0.59460   47.319
 3617.00    0.57723   0.58372   92.100
 3618.00    0.55567   0.56885   -1.000
 3619.00    0.54727   0.56207   -1.000
 3620.00    0.56386   0.56871  274.111
 3621.00    0.58150   0.58238  269.860
 3622.00    0.58984   0.59475  261.703
 3623.00    0.59582   0.60368  251.013
 3624.00    0.59895   0.61347   -1.000
 3625.00    0.61449   0.62764   -1.000
 3626.00    0.62989   0.64308   -1.000
 3627.00    0.63645   0.65047   -1.000
 3628.00    0.63220   0.64131   -1.000
 3629.00    0.61050   0.61704  275.074
 3630.00    0.57478   0.58924   -1.000
 3631.00    0.55726   0.57223   -1.000
 3632.00    0.56089   0.57223   -1.000
 3633.00    0.56867   0.58347   -1.000
 3634.00    0.58450   0.59434   -1.000
 3635.00    0.59503   0.59956  262.748
 3636.00    0.59849   0.60385  253.115
 3637.00    0.60723   0.61220  250.587
 3638.00    0.61810   0.62247  255.124
 3639.00    0.62783   0.62885  263.193
 3640.00    0.62471   0.62780  275.074
 3641.00    0.61680   0.61955  275.074
 3642.00    0.60603   0.60760  275.074
 3643.00    0.59304   0.59675  275.074
 3644.00    0.58595   0.58947  275.074
 3645.00    0.58478   0.58526  275.074
 3646.00    0.58270   0.58309  275.074
 3647.00    0.57816   0.58268  275.074
 3648.00    0.58164   0.58347  272.897
 3649.00    0.58532   0.58557  260.954
 3650.00    0.58791   0.59034  253.368
 3651.00    0.60076   0.59898  249.156
 3652.00    0.61015   0.61070  247.646
 3653.00    0.61352   0.62290  245.308
 3654.00    0.62053   0.63414   -1.000
 3655.00    0.63052   0.64366   -1.000
 3656.00    0.63263   0.65034   -1.000
 3657.00    0.62904   0.65345   -1.000
 3658.00    0.63493   0.65340   -1.000
 3659.00    0.63438   0.65089   -1.000
 3660.00    0.63644   0.64582   -1.000
 3661.00    0.63459   0.63888  248.997
 3662.00    0.63186   0.63250  247.176
 3663.00    0.63155   0.62939  246.511
 3664.00    0.62826   0.63026  250.477
 3665.00    0.63120   0.63265  253.902
 3666.00    0.62843   0.63339  259.322
 3667.00    0.62199   0.63080   -1.000
 3668.00    0.61258   0.62598   -1.000
 3669.00    0.61479   0.62249  245.603
 3670.00    0.62042   0.62340  243.760
 3671.00    0.62668   0.62918  243.527
 3672.00    0.62983   0.63648  243.941
 3673.00    0.63480   0.64028  249.795
 3674.00    0.63283   0.63815  257.629
 3675.00    0.63361   0.63025  265.502
 3676.00    0.63052   0.61827  272.591
 3677.00    0.61512   0.60615  273.683
 3678.00    0.59789   0.59899  267.966
 3679.00    0.59781   0.59917  260.334
 3680.00    0.60337   0.60390  256.701
 3681.00    0.60544   0.60910  260.918
 3682.00    0.61237   0.61204  270.666
 3683.00    0.61081   0.61088  275.074
 3684.00    0.60960   0.60533  275.074
 3685.00    0.60004   0.59776  275.074
 3686.00    0.59453   0.59413  266.890
 3687.00    0.59436   0.60074  249.121
 3688.00    0.60435   0.61722   -1.000
 3689.00    0.62059   0.63444   -1.000
 3690.00    0.63318   0.64405  244.883
 3691.00    0.63459   0.64610   -1.000
 3692.00    0.63974   0.64608  248.983
 3693.00    0.64269   0.64778  246.990
 3694.00    0.64244   0.64979  244.141
 3695.00    0.63621   0.64846   -1.000
 3696.00    0.63055   0.64398   -1.000
 3697.00    0.63677   0.64457  227.064
 3698.00    0.64443   0.65738   -1.000
 3699.00    0.66671   0.67760  238.986
 3700.00    0.68017   0.68969  259.061
 3701.00    0.66616   0.67896   -1.000
 3702.00    0.64356   0.64637  275.074
 3703.00    0.60922   0.60721  275.074
 3704.00    0.57939   0.57957  275.074
 3705.00    0.57513   0.57309  275.074
 3706.00    0.58913   0.58439  275.074
 3707.00    0.60594   0.60181  271.982
 3708.00    0.61480   0.61269  259.590
 3709.00    0.61760   0.61064  245.411
 3710.00    0.61503   0.60038   -1.000
 3711.00    0.60275   0.59419  226.268
 3712.00    0.61310   0.60297  224.537
 3713.00    0.63936   0.62924  229.086
 3714.00    0.67663   0.66378  238.551
 3715.00    0.70244   0.69270  258.717
 3716.00    0.70071   0.70736  275.074
 3717.00    0.68999   0.70290   -1.000
 3718.00    0.66467   0.67484   44.123
 3719.00    0.61568   0.62540  114.584
 3720.00    0.56747   0.57149  275.074
 3721.00    0.53826   0.53800  266.921
 3722.00    0.55047   0.53958   -1.000
 3723.00    0.58844   0.57464   -1.000
 3724.00    0.63862   0.62545   -1.000
 3725.00    0.67342   0.66743  262.484
 3726.00    0.69247   0.68999  259.399
 3727.00    0.69212   0.69952  260.636
 3728.00    0.68559   0.70456   -1.000
 3729.00    0.68776   0.70480   -1.000
 3730.00    0.68096   0.69085   42.758
 3731.00    0.64737   0.65319   37.789
 3732.00    0.59633   0.59664   39.890
 3733.00    0.54626   0.54011   38.577
 3734.00    0.50584   0.50357   35.253
 3735.00    0.50235   0.50052  114.547
 3736.00    0.52402   0.53139  275.074
 3737.00    0.57151   0.58307  261.934
 3738.00    0.63039   0.64027  257.790
 3739.00    0.67655   0.68991   -1.000
 3740.00    0.70122   0.72042   -1.000
 3741.00    0.71580   0.72770   -1.000
 3742.00    0.70697   0.71729  275.074
 3743.00    0.69158   0.69807  275.074
 3744.00    0.66669   0.67489   42.972
 3745.00    0.63646   0.64831   36.859
 3746.00    0.60493   0.61638   37.657
 3747.00    0.56776   0.57877  129.316
 3748.00    0.53424   0.54103  275.074
 3749.00    0.50337   0.51592   -1.000
 3750.00    0.51236   0.51918  251.270
 3751.00    0.56280   0.55568  237.019
 3752.00    0.62097   0.61304  230.955
 3753.00    0.67244   0.67119  240.738
 3754.00    0.71579   0.71448  269.192
 3755.00    0.74448   0.73594  275.074
 3756.00    0.74036   0.73419  275.074
 3757.00    0.71612   0.71589  275.074
 3758.00    0.69674   0.69567  275.074
 3759.00    0.68695   0.68567  268.423
 3760.00    0.69654   0.68890  265.673
 3761.00    0.72024   0.70060   -1.000
 3762.00    0.73364   0.71223   -1.000
 3763.00    0.72787   0.71711  271.952
 3764.00    0.72061   0.71272  275.074
 3765.00    0.71601   0.69946   -1.000
 3766.00    0.70072   0.67753   -1.000
 3767.00    0.67346   0.64576   -1.000
 3768.00    0.63436   0.60736   -1.000
 3769.00    0.60944   0.57229   -1.000
 3770.00    0.58420   0.55566   -1.000
 3771.00    0.59338   0.56846   -1.000
 3772.00    0.63291   0.60583   -1.000
 3773.00    0.68066   0.65016   -1.000
 3774.00    0.70919   0.68583   -1.000
 3775.00    0.72458   0.71007   -1.000
 3776.00    0.74875   0.73041   -1.000
 3777.00    0.77264   0.75404   -1.000
 3778.00    0.79398   0.78049   -1.000
 3779.00    0.81316   0.80540  219.020
 3780.00    0.82420   0.82429  218.912
 3781.00    0.83497   0.83401  223.194
 3782.00    0.83887   0.83490  234.061
 3783.00    0.84049   0.82971  250.950
 3784.00    0.83375   0.81963   -1.000
 3785.00    0.81130   0.80409  270.801
 3786.00    0.79102   0.78440  271.392
 3787.00    0.78131   0.76582   -1.000
 3788.00    0.77409   0.75455   -1.000
 3789.00    0.76647   0.75107   -1.000
 3790.00    0.76829   0.74971   -1.000
 3791.00    0.75944   0.74348   -1.000
 3792.00    0.74045   0.72745   -1.000
 3793.00    0.70660   0.69922  275.074
 3794.00    0.67148   0.65965   -1.000
 3795.00    0.63161   0.61350   -1.000
 3796.00    0.59147   0.56777   -1.000
 3797.00    0.55913   0.53416   -1.000
 3798.00    0.54656   0.52834   -1.000
 3799.00    0.57725   0.55922   -1.000
 3800.00    0.62841   0.61760  245.633
 3801.00    0.68701   0.68149  243.671
 3802.00    0.73424   0.73258  246.705
 3803.00    0.76190   0.76502  255.364
 3804.00    0.78382   0.78121  261.071
 3805.00    0.79446   0.78642  255.845
 3806.00    0.79380   0.78972  246.240
 3807.00    0.79539   0.79926  242.533
 3808.00    0.81209   0.81656  246.285
 3809.00    0.82920   0.83569  258.493
 3810.00    0.84612   0.84628  274.370
 3811.00    0.84318   0.83946  275.074
 3812.00    0.82543   0.81642  275.074
 3813.00    0.80527   0.78922   -1.000
 3814.00    0.78137   0.77212  275.074
 3815.00    0.78514   0.77222   -1.000
 3816.00    0.80228   0.78476   -1.000
 3817.00    0.80304   0.79703  275.074
 3818.00    0.80878   0.79671   -1.000
 3819.00    0.79300   0.78340  275.074
 3820.00    0.77399   0.76913  275.074
 3821.00    0.77328   0.76452  275.074
 3822.00    0.78607   0.76605   41.754
 3823.00    0.77591   0.75932   36.906
 3824.00    0.74729   0.73957   36.726
 3825.00    0.71712   0.71699   36.161
 3826.00    0.70345   0.70063   35.566
 3827.00    0.70652   0.69015   35.882
 3828.00    0.70065   0.68102   37.380
 3829.00    0.69211   0.66915   40.234
 3830.00    0.67579   0.64977   41.723
 3831.00    0.65109   0.61839   41.140
 3832.00    0.60549   0.57429   39.560
 3833.00    0.56006   0.52631   38.605
 3834.00    0.52191   0.49065   39.234
 3835.00    0.51009   0.47856   40.181
 3836.00    0.53348   0.49140   39.658
 3837.00    0.56466   0.52281   37.548
 3838.00    0.59460   0.56227   -1.000
 3839.00    0.62054   0.60239   -1.000
 3840.00    0.65693   0.64263   -1.000
 3841.00    0.70164   0.68358   -1.000
 3842.00    0.73634   0.72358   -1.000
 3843.00    0.77276   0.75860   -1.000
 3844.00    0.80086   0.78483   -1.000
 3845.00    0.81167   0.80326  275.074
 3846.00    0.81090   0.81709  275.074
 3847.00    0.81955   0.82645  275.074
 3848.00    0.82533   0.82923  275.074
 3849.00    0.81797   0.82767  275.074
 3850.00    0.81201   0.82991   -1.000
 3851.00    0.81572   0.84105   -1.000
 3852.00    0.84091   0.85602   -1.000
 3853.00    0.85251   0.86496   -1.000
 3854.00    0.84933   0.86287   -1.000
 3855.00    0.83747   0.85254   38.567
 3856.00    0.82438   0.84004   36.241
 3857.00    0.81643   0.82898   35.745
 3858.00    0.80559   0.82123  162.883
 3859.00    0.79055   0.82071   -1.000
 3860.00    0.79175   0.83019   -1.000
 3861.00    0.82705   0.84608   -1.000
 3862.00    0.86151   0.86011  275.074
 3863.00    0.87553   0.86677  275.074
 3864.00    0.86693   0.86668  275.074
 3865.00    0.86299   0.86469  275.074
 3866.00    0.86924   0.86561  275.074
 3867.00    0.86550   0.86975  275.074
 3868.00    0.86159   0.87190   38.707
 3869.00    0.84741   0.86540   -1.000
 3870.00    0.82118   0.84860   -1.000
 3871.00    0.79764   0.82624   -1.000
 3872.00    0.77651   0.80780   -1.000
 3873.00    0.78165   0.80197   -1.000
 3874.00    0.80997   0.80759  275.074
 3875.00    0.82777   0.81297   -1.000
 3876.00    0.81513   0.80631  275.074
 3877.00    0.78838   0.78905  275.074
 3878.00    0.76484   0.77354  275.074
 3879.00    0.75367   0.76818   -1.000
 3880.00    0.75797   0.76871  275.074
 3881.00    0.75487   0.76443  275.074
 3882.00    0.74444   0.75118  275.074
 3883.00    0.73503   0.73017  275.074
 3884.00    0.72368   0.69993   -1.000
 3885.00    0.68965   0.65750   -1.000
 3886.00    0.63834   0.60550   -1.000
 3887.00    0.59277   0.55674   -1.000
 3888.00    0.56164   0.52855   -1.000
 3889.00    0.56495   0.53262   -1.000
 3890.00    0.60651   0.56860   -1.000
 3891.00    0.66074   0.62144   -1.000
 3892.00    0.70991   0.67005   -1.000
 3893.00    0.72804   0.70300   -1.000
 3894.00    0.74497   0.72318   -1.000
 3895.00    0.76937   0.73935   -1.000
 3896.00    0.78214   0.75639   -1.000
 3897.00    0.80050   0.77224   -1.000
 3898.00    0.80317   0.78273   -1.000
 3899.00    0.79851   0.78929  229.195
 3900.00    0.82153   0.79804   -1.000
 3901.00    0.83446   0.80927   -1.000
 3902.00    0.84573   0.81752   -1.000
 3903.00    0.84263   0.81923   -1.000
 3904.00    0.83318   0.81684   -1.000
 3905.00    0.82080   0.81729  220.648
 3906.00    0.82750   0.82706  214.814
 3907.00    0.84890   0.84818  212.707
 3908.00    0.87948   0.87479  210.684
 3909.00    0.89472   0.89669  209.391
 3910.00    0.90744   0.90781  211.666
 3911.00    0.90921   0.90835  215.984
 3912.00    0.90364   0.90092  221.058
 3913.00    0.89532   0.88930  223.998
 3914.00    0.88447   0.87963  226.984
 3915.00    0.89175   0.87603   -1.000
 3916.00    0.88070   0.87586  243.668
 3917.00    0.87153   0.87386  255.340
 3918.00    0.86614   0.86812  260.961
 3919.00    0.85919   0.86117  258.970
 3920.00    0.85736   0.85640  254.264
 3921.00    0.85420   0.85501  255.948
 3922.00    0.85623   0.85637  268.291
 3923.00    0.86214   0.85770  275.074
 3924.00    0.85320   0.85433  275.074
 3925.00    0.83422   0.84069   40.942
 3926.00    0.81067   0.81406   44.471
 3927.00    0.77777   0.77583   52.037
 3928.00    0.73108   0.72776   61.559
 3929.00    0.67027   0.66990   72.069
 3930.00    0.59595   0.59857   79.063
 3931.00    0.51691   0.51463   76.284
 3932.00    0.44217   0.43528   66.488
 3933.00    0.40626   0.38968   55.073
 3934.00    0.41324   0.39953   45.226
 3935.00    0.47320   0.46024   37.972
 3936.00    0.57057   0.54589   -1.000
 3937.00    0.64551   0.63214   -1.000
 3938.00    0.71530   0.70542  275.074
 3939.00    0.76728   0.75990  275.074
 3940.00    0.79700   0.79573  275.074
 3941.00    0.80614   0.81555  275.074
 3942.00    0.81747   0.82457  254.590
 3943.00    0.82615   0.83006  239.503
 3944.00    0.82748   0.83713  236.504
 3945.00    0.85086   0.84690  234.771
 3946.00    0.87477   0.85638   -1.000
 3947.00    0.87295   0.86080  218.877
 3948.00    0.86413   0.85916  219.626
 3949.00    0.87082   0.85472   -1.000
 3950.00    0.87823   0.85092   -1.000
 3951.00    0.88087   0.84919   -1.000
 3952.00    0.87661   0.85078   -1.000
 3953.00    0.87608   0.85465   -1.000
 3954.00    0.88606   0.85557   -1.000
 3955.00    0.87138   0.84968   -1.000
 3956.00    0.85501   0.83910   -1.000
 3957.00    0.84912   0.83006   -1.000
 3958.00    0.85379   0.82393   -1.000
 3959.00    0.84949   0.81287   -1.000
 3960.00    0.81483   0.78993   -1.000
 3961.00    0.76923   0.75613   37.577
 3962.00    0.73209   0.71687   42.097
 3963.00    0.69432   0.67422   51.874
 3964.00    0.64325   0.62121   63.501
 3965.00    0.57169   0.55005   70.383
 3966.00    0.47564   0.46282   65.652
 3967.00    0.38001   0.37670   54.239
 3968.00    0.31862   0.31923   44.554
 3969.00    0.31245   0.31117   37.252
 3970.00    0.36476   0.35374   -1.000
 3971.00    0.45231   0.42977   -1.000
 3972.00    0.54833   0.51532   -1.000
 3973.00    0.62502   0.59307   -1.000
 3974.00    0.69207   0.65771   -1.000
 3975.00    0.74614   0.70985   -1.000
 3976.00    0.78088   0.75190   -1.000
 3977.00    0.81366   0.78613   -1.000
 3978.00    0.84460   0.81414   -1.000
 3979.00    0.87471   0.83459   -1.000
 3980.00    0.88192   0.84554   -1.000
 3981.00    0.88594   0.84961   -1.000
 3982.00    0.88774   0.85343   -1.000
 3983.00    0.89490   0.86272   -1.000
 3984.00    0.91600   0.87715   -1.000
 3985.00    0.92926   0.89140   -1.000
 3986.00    0.93177   0.90200   -1.000
 3987.00    0.93837   0.91064   -1.000
 3988.00    0.94641   0.91864   -1.000
 3989.00    0.95013   0.92533   -1.000
 3990.00    0.96251   0.93214   -1.000
 3991.00    0.96816   0.94070   -1.000
 3992.00    0.98191   0.95000   -1.000
 3993.00    0.98572   0.95553   -1.000
 3994.00    0.97530   0.95235   -1.000
 3995.00    0.95523   0.94050  185.310
 3996.00    0.94330   0.92693   -1.000
 3997.00    0.93705   0.92097  170.723
 3998.00    0.94514   0.92631   -1.000
 3999.00    0.96831   0.93875   -1.000
 4000.00    0.98054   0.95094   -1.000
 4001.00    0.99518   0.95768   -1.000
 4002.00    0.99436   0.95702   -1.000
 4003.00    0.98686   0.94943   -1.000
 4004.00    0.96519   0.93814   -1.000
 4005.00    0.94578   0.93109  170.317
 4006.00    0.95914   0.93565   -1.000
 4007.00    0.96624   0.95060  166.348
 4008.00    0.98288   0.96732  165.819
 4009.00    0.99718   0.97809   -1.000
 4010.00    1.00000   0.98171   -1.000
 4011.00    0.99390   0.98073  166.651
 4012.00    1.00054   0.97852   -1.000
 4013.00    0.99403   0.97855  165.765
 4014.00    0.99769   0.98222  167.846
 4015.00    1.00613   0.98798   -1.000
 4016.00    1.00553   0.99381  164.302
 4017.00    1.00289   0.99935  164.785
 4018.00    1.00894   1.00508  167.285
 4019.00    1.01240   1.00970  168.221
 4020.00    1.01266   1.01016  169.330
 4021.00    1.00390   1.00489  170.658
 4022.00    0.99879   0.99581  166.233
 4023.00    0.99926   0.98682  160.222
 4024.00    0.99382   0.98266  157.071
 4025.00    0.99932   0.98696  158.670
 4026.00    1.01166   0.99729  165.454
 4027.00    1.01356   1.00437  177.015
 4028.00    1.00613   1.00057  184.298
 4029.00    0.99322   0.98646  186.308
 4030.00    0.97375   0.96888  183.762
 4031.00    0.95250   0.95634  177.585
 4032.00    0.96108   0.95329  168.675
 4033.00    0.96988   0.95925  160.364
 4034.00    0.97672   0.97236  154.843
 4035.00    0.99648   0.99066  154.456
 4036.00    1.02148   1.01071  157.892
 4037.00    1.03053   1.02653  161.669
 4038.00    1.03080   1.03272  163.350
 4039.00    1.02934   1.02984  164.213
 4040.00    1.01620   1.02298  172.557
 4041.00    1.00620   1.01558  189.811
 4042.00    1.00549   1.00491  204.021
 4043.00    0.99054   0.98627  194.714
 4044.00    0.96283   0.96303  175.517
 4045.00    0.93767   0.94754  165.154
 4046.00    0.94108   0.95113  160.641
 4047.00    0.97529   0.97210  158.929
 4048.00    1.00294   0.99627  160.195
 4049.00    1.01562   1.01177  164.733
 4050.00    1.01369   1.01664  168.964
 4051.00    1.02090   1.01379  171.505
 4052.00    1.01186   1.00611  172.827
 4053.00    0.99757   0.99747  174.007
 4054.00    0.99784   0.99142  175.756
 4055.00    0.99115   0.98887  173.429
 4056.00    0.98936   0.98906  167.046
 4057.00    0.98209   0.99233  163.996
 4058.00    0.99173   0.99963  167.285
 4059.00    1.00286   1.00676  179.961
 4060.00    1.01483   1.00531  191.978
 4061.00    1.00788   0.99194  188.274
 4062.00    0.97465   0.97178  178.899
 4063.00    0.95218   0.95385  174.662
 4064.00    0.95345   0.94502  169.878
 4065.00    0.96745   0.94658   -1.000
 4066.00    0.97881   0.95396   -1.000
 4067.00    0.97829   0.96101  169.560
 4068.00    0.98776   0.96420   -1.000
 4069.00    0.99097   0.96106   -1.000
 4070.00    0.98534   0.95100   -1.000
 4071.00    0.97092   0.93978   -1.000
 4072.00    0.96267   0.93563   -1.000
 4073.00    0.97746   0.93877   -1.000
 4074.00    0.97591   0.93958   -1.000
 4075.00    0.96426   0.92900   -1.000
 4076.00    0.94146   0.91004   -1.000
 4077.00    0.92146   0.89607   -1.000
 4078.00    0.92851   0.89899   -1.000
 4079.00    0.95109   0.91838   -1.000
 4080.00    0.97461   0.94112   -1.000
 4081.00    0.98498   0.95427   -1.000
 4082.00    0.98325   0.95415   -1.000
 4083.00    0.97211   0.94564   -1.000
 4084.00    0.96087   0.93657   -1.000
 4085.00    0.95789   0.93318   -1.000
 4086.00    0.97216   0.93726   -1.000
 4087.00    0.97974   0.94542   -1.000
 4088.00    0.98367   0.95197   -1.000
 4089.00    0.98152   0.95264   -1.000
 4090.00    0.97162   0.94733   -1.000
 4091.00    0.95225   0.93816  163.907
 4092.00    0.94456   0.92555   -1.000
 4093.00    0.94102   0.90930   -1.000
 4094.00    0.92412   0.88982   -1.000
 4095.00    0.89698   0.86663   -1.000
 4096.00    0.87680   0.83909   -1.000
 4097.00    0.85815   0.80549   -1.000
 4098.00    0.82888   0.76265   -1.000
 4099.00    0.77381   0.70908   -1.000
 4100.00    0.70506   0.65386   -1.000
 4101.00    0.64290   0.61843   -1.000
 4102.00    0.63858   0.62241  174.062
 4103.00    0.69462   0.66663   -1.000
 4104.00    0.76684   0.73010   -1.000
 4105.00    0.82525   0.78793   -1.000
 4106.00    0.86114   0.82748   -1.000
 4107.00    0.87507   0.85034   -1.000
 4108.00    0.88397   0.86330   -1.000
 4109.00    0.88937   0.87296  169.596
 4110.00    0.90872   0.88359   -1.000
 4111.00    0.91447   0.89726  164.242
 4112.00    0.93298   0.91373   -1.000
 4113.00    0.95202   0.93094   -1.000
 4114.00    0.96081   0.94622  167.677
 4115.00    0.96916   0.95593  173.190
 4116.00    0.97698   0.95751   -1.000
 4117.00    0.97137   0.95212   -1.000
 4118.00    0.95999   0.94450  170.840
 4119.00    0.95379   0.94014  170.927
 4120.00    0.95032   0.94117  168.920
 4121.00    0.95639   0.94526  166.057
 4122.00    0.95757   0.95022  165.800
 4123.00    0.96485   0.95658  168.251
 4124.00    0.97924   0.96392  171.774
 4125.00    0.98800   0.96863   -1.000
 4126.00    0.98652   0.96775   -1.000
 4127.00    0.98004   0.96275  176.556
 4128.00    0.97329   0.95786  182.280
 4129.00    0.97351   0.95449   -1.000
 4130.00    0.97024   0.95024   -1.000
 4131.00    0.95620   0.94453  180.632
 4132.00    0.94011   0.94196  171.651
 4133.00    0.94348   0.94792  166.409
 4134.00    0.95229   0.96193  163.817
 4135.00    0.97210   0.97895  161.426
 4136.00    0.99224   0.99477  161.202
 4137.00    0.99986   1.00787  165.114
 4138.00    1.00556   1.01752  174.516
 4139.00    1.00657   1.02101  189.093
 4140.00    1.00273   1.01468  197.270
 4141.00    0.98992   0.99853  189.022
 4142.00    0.96497   0.97861  177.878
 4143.00    0.93269   0.96523   -1.000
 4144.00    0.94550   0.96583   -1.000
 4145.00    0.96610   0.97790  174.259
 4146.00    0.98446   0.99111  178.962
 4147.00    0.98653   0.99737  180.746
 4148.00    0.98125   0.99729  179.333
 4149.00    0.97932   0.99591  178.581
 4150.00    0.99620   0.99586  180.483
 4151.00    1.04267   0.99538   -1.000
 4152.00    0.97626   0.99173  178.200
 4153.00    0.91934   0.98560   -1.000
 4154.00    0.94706   0.98058   -1.000
 4155.00    0.98209   0.98011  171.409
 4156.00    0.96713   0.98506   -1.000
 4157.00    0.97048   0.99362   -1.000
 4158.00    0.98417   1.00251   -1.000
 4159.00    0.99562   1.00849  164.959
 4160.00    1.00371   1.01071  166.233
 4161.00    0.99689   1.01116  169.028
 4162.00    0.99420   1.01293   -1.000
 4163.00    1.00106   1.01707  175.487
 4164.00    1.00327   1.02147   -1.000
 4165.00    1.00014   1.02272   -1.000
 4166.00    0.99272   1.01971   -1.000
 4167.00    0.99080   1.01514   -1.000
 4168.00    0.99372   1.01046   -1.000
 4169.00    0.98977   1.00250  197.494
 4170.00    0.97571   0.98649  196.753
 4171.00    0.95376   0.96392  189.388
 4172.00    0.93066   0.94514  183.315
 4173.00    0.92174   0.94015   -1.000
 4174.00    0.92656   0.94959   -1.000
 4175.00    0.94511   0.96376   -1.000
 4176.00    0.94819   0.97156   -1.000
 4177.00    0.94671   0.97224   -1.000
 4178.00    0.94814   0.97300   -1.000
 4179.00    0.96202   0.97888   -1.000
 4180.00    0.97316   0.98651  173.182
 4181.00    0.96989   0.99007   -1.000
 4182.00    0.96548   0.99085   -1.000
 4183.00    0.96795   0.99277   -1.000
 4184.00    0.97142   0.99489   -1.000
 4185.00    0.96711   0.99358   -1.000
 4186.00    0.95815   0.98819   -1.000
 4187.00    0.95149   0.98327   -1.000
 4188.00    0.94881   0.98332   -1.000
 4189.00    0.96030   0.98704   -1.000
 4190.00    0.96310   0.99075   -1.000
 4191.00    0.96842   0.99366   -1.000
 4192.00    0.97813   0.99717   -1.000
 4193.00    0.99016   1.00011  187.291
 4194.00    0.98739   0.99764  190.095
 4195.00    0.97101   0.98688   -1.000
 4196.00    0.95217   0.97108   -1.000
 4197.00    0.94052   0.95593  185.017
 4198.00    0.93039   0.94580  184.518
 4199.00    0.93051   0.94257  183.048
 4200.00    0.93398   0.94439  180.309
 4201.00    0.93954   0.94741  178.761
 4202.00    0.94209   0.95111  175.032
 4203.00    0.94607   0.95734  170.743
 4204.00    0.95342   0.96559  167.814
 4205.00    0.95421   0.97409   -1.000
 4206.00    0.94873   0.98222   -1.000
 4207.00    0.96573   0.98883   -1.000
 4208.00    0.96839   0.99239   -1.000
 4209.00    0.96705   0.99398   -1.000
 4210.00    0.96947   0.99626   -1.000
 4211.00    0.97248   0.99983   -1.000
 4212.00    0.97811   1.00096   -1.000
 4213.00    0.97509   0.99452   -1.000
 4214.00    0.96338   0.98145  166.477
 4215.00    0.94493   0.96968   -1.000
 4216.00    0.93102   0.96759   -1.000
 4217.00    0.94448   0.97672   -1.000
 4218.00    0.96190   0.99025   -1.000
 4219.00    0.97360   1.00107   -1.000
 4220.00    0.97899   1.00619   -1.000
 4221.00    0.97656   1.00377   -1.000
 4222.00    0.96652   0.99107   -1.000
 4223.00    0.94897   0.96661   -1.000
 4224.00    0.92532   0.93441  214.110
 4225.00    0.88967   0.90558  185.866
 4226.00    0.85835   0.89362   -1.000
 4227.00    0.86469   0.90746   -1.000
 4228.00    0.90842   0.94201   -1.000
 4229.00    0.95038   0.97847   -1.000
 4230.00    0.97329   0.99814   -1.000
 4231.00    0.97465   0.99729   -1.000
 4232.00    0.96380   0.98481   -1.000
 4233.00    0.95431   0.97145  177.319
 4234.00    0.94696   0.96418  175.326
 4235.00    0.93540   0.96369   -1.000
 4236.00    0.93149   0.96661   -1.000
 4237.00    0.93191   0.97140   -1.000
 4238.00    0.94118   0.97849   -1.000
 4239.00    0.94515   0.98743   -1.000
 4240.00    0.94795   0.99703   -1.000
 4241.00    0.95744   1.00518   -1.000
 4242.00    0.96021   1.00993   -1.000
 4243.00    0.95791   1.01020   -1.000
 4244.00    0.95625   1.00513   -1.000
 4245.00    0.95112   0.99420   -1.000
 4246.00    0.93937   0.97937   -1.000
 4247.00    0.92213   0.96634   -1.000
 4248.00    0.91524   0.95935   -1.000
 4249.00    0.91455   0.95837   -1.000
 4250.00    0.91468   0.96236   -1.000
 4251.00    0.92724   0.97019   -1.000
 4252.00    0.94390   0.97797   -1.000
 4253.00    0.94596   0.98219   -1.000
 4254.00    0.94297   0.98403   -1.000
 4255.00    0.94358   0.98659   -1.000
 4256.00    0.95558   0.98915   -1.000
 4257.00    0.95791   0.98662   -1.000
 4258.00    0.95023   0.97716   -1.000
 4259.00    0.93491   0.96692   -1.000
 4260.00    0.92343   0.96455   -1.000
 4261.00    0.92364   0.97378   -1.000
 4262.00    0.94176   0.99084   -1.000
 4263.00    0.96166   1.00723   -1.000
 4264.00    0.97365   1.01592   -1.000
 4265.00    0.97934   1.01608   -1.000
 4266.00    0.97343   1.01075   -1.000
 4267.00    0.96020   1.00129   -1.000
 4268.00    0.95346   0.98718   -1.000
 4269.00    0.94346   0.96850   -1.000
 4270.00    0.91871   0.94810   -1.000
 4271.00    0.89791   0.93239   -1.000
 4272.00    0.89263   0.92726   -1.000
 4273.00    0.90085   0.93345   -1.000
 4274.00    0.90708   0.94727   -1.000
 4275.00    0.92003   0.96519   -1.000
 4276.00    0.94099   0.98403   -1.000
 4277.00    0.95860   0.99833   -1.000
 4278.00    0.96688   1.00283   -1.000
 4279.00    0.95294   0.99749   -1.000
 4280.00    0.93409   0.98738   -1.000
 4281.00    0.92606   0.97876   -1.000
 4282.00    0.92742   0.97451   -1.000
 4283.00    0.93207   0.97349   -1.000
 4284.00    0.92972   0.97237   -1.000
 4285.00    0.92353   0.96681   -1.000
 4286.00    0.91469   0.95437   -1.000
 4287.00    0.89998   0.93603   -1.000
 4288.00    0.88224   0.91610   -1.000
 4289.00    0.86825   0.90189   -1.000
 4290.00    0.86274   0.90052   -1.000
 4291.00    0.87161   0.91115   -1.000
 4292.00    0.89582   0.92363   -1.000
 4293.00    0.90896   0.92843   -1.000
 4294.00    0.90711   0.92602   -1.000
 4295.00    0.90314   0.92145   -1.000
 4296.00    0.89846   0.91383   -1.000
 4297.00    0.88063   0.89872   -1.000
 4298.00    0.84910   0.87603   -1.000
 4299.00    0.82623   0.85176   -1.000
 4300.00    0.81281   0.83464   -1.000
 4301.00    0.80799   0.82963   -1.000
 4302.00    0.81391   0.83552   -1.000
 4303.00    0.82269   0.84723   -1.000
 4304.00    0.83248   0.85769   -1.000
 4305.00    0.84062   0.85995   -1.000
 4306.00    0.83392   0.85323   -1.000
 4307.00    0.81639   0.84442   -1.000
 4308.00    0.80149   0.84215   -1.000
 4309.00    0.80058   0.84990   -1.000
 4310.00    0.81549   0.86317   -1.000
 4311.00    0.83557   0.87423   -1.000
 4312.00    0.84762   0.88006   -1.000
 4313.00    0.85939   0.88639   -1.000
 4314.00    0.87504   0.90197   -1.000
 4315.00    0.90005   0.92867   -1.000
 4316.00    0.93425   0.95878   -1.000
 4317.00    0.95693   0.98022   -1.000
 4318.00    0.96164   0.98735   -1.000
 4319.00    0.96066   0.98280   -1.000
 4320.00    0.95054   0.97228   -1.000
 4321.00    0.94088   0.95901   -1.000
 4322.00    0.92737   0.94218  196.499
 4323.00    0.89783   0.92071   -1.000
 4324.00    0.86772   0.89964   -1.000
 4325.00    0.85769   0.89057   -1.000
 4326.00    0.86610   0.90018   -1.000
 4327.00    0.88695   0.92062   -1.000
 4328.00    0.91599   0.93735  150.879
 4329.00    0.92899   0.94248  148.411
 4330.00    0.92529   0.93920  147.245
 4331.00    0.91254   0.93423  147.678
 4332.00    0.90789   0.92880  152.022
 4333.00    0.90402   0.91909  163.401
 4334.00    0.89582   0.90017  179.476
 4335.00    0.87683   0.86788  195.700
 4336.00    0.83705   0.81962   -1.000
 4337.00    0.78702   0.75815   -1.000
 4338.00    0.72244   0.69516   -1.000
 4339.00    0.65716   0.64845  173.283
 4340.00    0.62536   0.63405  164.258
 4341.00    0.65332   0.65921  159.472
 4342.00    0.71658   0.71401  155.576
 4343.00    0.77884   0.77594  153.271
 4344.00    0.81551   0.82750  151.462
 4345.00    0.85355   0.86592  149.668
 4346.00    0.87761   0.89511  152.212
 4347.00    0.88952   0.91597   -1.000
 4348.00    0.90359   0.92525   -1.000
 4349.00    0.91330   0.92115  171.035
 4350.00    0.90091   0.90825  163.400
 4351.00    0.87915   0.89799  156.590
 4352.00    0.87089   0.90061   -1.000
 4353.00    0.89208   0.91756   -1.000
 4354.00    0.91921   0.94096  151.117
 4355.00    0.93300   0.96064   -1.000
 4356.00    0.94116   0.97144   -1.000
 4357.00    0.94472   0.97431   -1.000
 4358.00    0.93844   0.97396   -1.000
 4359.00    0.93606   0.97585   -1.000
 4360.00    0.94362   0.98250   -1.000
 4361.00    0.95580   0.99216   -1.000
 4362.00    0.96949   1.00136   -1.000
 4363.00    0.97435   1.00735   -1.000
 4364.00    0.97742   1.00840   -1.000
 4365.00    0.97344   1.00352   -1.000
 4366.00    0.96310   0.99358   -1.000
 4367.00    0.95635   0.98220   -1.000
 4368.00    0.95178   0.97401  153.195
 4369.00    0.94741   0.97051  156.106
 4370.00    0.95411   0.96912  162.728
 4371.00    0.95417   0.96526  167.413
 4372.00    0.95347   0.95535  165.161
 4373.00    0.94545   0.94092  157.574
 4374.00    0.92339   0.92975  151.046
 4375.00    0.91681   0.93123  149.623
 4376.00    0.92528   0.94676  151.188
 4377.00    0.94625   0.96743  155.224
 4378.00    0.96190   0.98164  165.475
 4379.00    0.96611   0.98349  184.613
 4380.00    0.96631   0.97219  200.184
 4381.00    0.95258   0.94861  194.982
 4382.00    0.92526   0.91801  176.018
 4383.00    0.89372   0.89286  162.592
 4384.00    0.87784   0.88548  159.336
 4385.00    0.89244   0.89779  160.152
 4386.00    0.92630   0.92008  161.619
 4387.00    0.94688   0.93970  160.980
 4388.00    0.94847   0.95081  157.523
 4389.00    0.94549   0.95462  155.305
 4390.00    0.94678   0.95531  157.301
 4391.00    0.94996   0.95553  159.717
 4392.00    0.95629   0.95345  156.833
 4393.00    0.95186   0.94668  150.115
 4394.00    0.93992   0.93924  147.805
 4395.00    0.93623   0.93921  151.211
 4396.00    0.94769   0.94757  156.682
 4397.00    0.96413   0.95536  159.299
 4398.00    0.96515   0.95499  156.796
 4399.00    0.95310   0.94878  156.397
 4400.00    0.94024   0.94491  163.449
 4401.00    0.94269   0.94688  170.757
 4402.00    0.95385   0.95005  169.479
 4403.00    0.95378   0.94948  164.449
 4404.00    0.93761   0.94649  162.513
 4405.00    0.93163   0.94592  159.580
 4406.00    0.94095   0.94913  152.988
 4407.00    0.94591   0.95363  146.827
 4408.00    0.94953   0.95877  142.924
 4409.00    0.95597   0.96701  143.094
 4410.00    0.96660   0.97794  148.601
 4411.00    0.98357   0.98595  156.472
 4412.00    0.99279   0.98482  159.878
 4413.00    0.98290   0.97259  157.135
 4414.00    0.95948   0.95367  151.076
 4415.00    0.94233   0.93730  145.394
 4416.00    0.93764   0.93235  142.951
 4417.00    0.94362   0.94129  144.959
 4418.00    0.96122   0.95955  148.576
 4419.00    0.97790   0.97775  150.061
 4420.00    0.98858   0.98795  149.079
 4421.00    0.98690   0.98905  148.775
 4422.00    0.98129   0.98649  149.449
 4423.00    0.98012   0.98495  149.590
 4424.00    0.98156   0.98412  148.606
 4425.00    0.98252   0.98254  148.707
 4426.00    0.97473   0.98128  149.996
 4427.00    0.97017   0.98216  149.695
 4428.00    0.97166   0.98503  148.011
 4429.00    0.97487   0.98798  148.840
 4430.00    0.97712   0.98947  154.882
 4431.00    0.97698   0.98874  160.700
 4432.00    0.97647   0.98475  159.397
 4433.00    0.96483   0.97721  151.456
 4434.00    0.94847   0.96978  142.969
 4435.00    0.94405   0.96962   -1.000
 4436.00    0.95488   0.98076  140.399
 4437.00    0.97960   0.99836  145.865
 4438.00    1.00080   1.01147  152.747
 4439.00    1.00040   1.01147  157.175
 4440.00    0.98597   0.99723  155.199
 4441.00    0.96805   0.97564  148.812
 4442.00    0.94334   0.95763  143.637
 4443.00    0.93158   0.95295  142.012
 4444.00    0.93777   0.96360   -1.000
 4445.00    0.95438   0.98205   -1.000
 4446.00    0.96989   0.99735   -1.000
 4447.00    0.97506   1.00426   -1.000
 4448.00    0.97820   1.00468   -1.000
 4449.00    0.97654   1.00242   -1.000
 4450.00    0.97337   1.00025   -1.000
 4451.00    0.97802   0.99857  159.183
 4452.00    0.97821   0.99468  160.185
 4453.00    0.96864   0.98595  157.149
 4454.00    0.95426   0.97509  155.359
 4455.00    0.94314   0.96910   -1.000
 4456.00    0.94758   0.97108   -1.000
 4457.00    0.95679   0.97685  158.576
 4458.00    0.95828   0.98047   -1.000
 4459.00    0.95848   0.98039   -1.000
 4460.00    0.95130   0.97908   -1.000
 4461.00    0.94858   0.97976   -1.000
 4462.00    0.95441   0.98351   -1.000
 4463.00    0.96512   0.98829   -1.000
 4464.00    0.97097   0.99109  149.200
 4465.00    0.97233   0.98958  151.445
 4466.00    0.96729   0.98290  151.166
 4467.00    0.95886   0.97306  147.944
 4468.00    0.95292   0.96577  142.994
 4469.00    0.95161   0.96702  138.412
 4470.00    0.95878   0.97790  135.632
 4471.00    0.97131   0.99397  135.103
 4472.00    0.98550   1.00894  134.892
 4473.00    0.99551   1.01903  133.780
 4474.00    1.00116   1.02385  133.740
 4475.00    1.00218   1.02533  136.388
 4476.00    0.99937   1.02519   -1.000
 4477.00    1.00023   1.02235  147.713
 4478.00    1.00046   1.01322  149.617
 4479.00    0.99255   0.99698  145.925
 4480.00    0.97884   0.98018  139.799
 4481.00    0.96546   0.97284  135.401
 4482.00    0.96079   0.98015  133.743
 4483.00    0.96811   0.99813   -1.000
 4484.00    0.98133   1.01685   -1.000
 4485.00    0.99599   1.02770   -1.000
 4486.00    1.00199   1.02720   -1.000
 4487.00    0.99970   1.01738  142.508
 4488.00    0.99257   1.00493  139.173
 4489.00    0.97974   0.99789  138.630
 4490.00    0.97153   0.99964   -1.000
 4491.00    0.97971   1.00637   -1.000
 4492.00    0.99362   1.01090  146.987
 4493.00    0.99174   1.00981  143.833
 4494.00    0.98068   1.00645   -1.000
 4495.00    0.97575   1.00563   -1.000
 4496.00    0.97576   1.00834   -1.000
 4497.00    0.98278   1.01183   -1.000
 4498.00    0.99140   1.01219  136.452
 4499.00    0.99541   1.00761  132.274
 4500.00    0.99185   1.00151  128.527
 4501.00    0.98335   1.00115  127.556
 4502.00    0.98942   1.00996  129.229
 4503.00    1.00573   1.02362  131.435
 4504.00    1.01151   1.03409  132.201
 4505.00    1.01529   1.03661  131.819
 4506.00    1.01601   1.03247  130.795
 4507.00    1.00782   1.02665  130.673
 4508.00    1.00651   1.02416  132.452
 4509.00    1.00730   1.02604  135.050
 4510.00    1.00677   1.02902  136.837
 4511.00    1.00942   1.02929  137.018
 4512.00    1.00780   1.02598  136.503
 4513.00    1.00012   1.02054  137.127
 4514.00    0.99651   1.01501  138.540
 4515.00    0.99482   1.01123  138.043
 4516.00    0.99344   1.00930  135.408
 4517.00    0.99288   1.00744  133.941
 4518.00    0.98970   1.00461  135.573
 4519.00    0.98603   1.00201  138.737
 4520.00    0.98362   1.00051  140.883
 4521.00    0.98243   0.99845  142.483
 4522.00    0.98002   0.99466  145.720
 4523.00    0.98078   0.99089  150.148
 4524.00    0.97676   0.98874  153.401
 4525.00    0.97693   0.98640  153.941
 4526.00    0.97428   0.98107  152.052
 4527.00    0.96481   0.97298  149.270
 4528.00    0.95290   0.96593  147.348
 4529.00    0.94887   0.96391  148.654
 4530.00    0.95517   0.96635  153.402
 4531.00    0.95823   0.96765  155.693
 4532.00    0.95695   0.96269  150.472
 4533.00    0.94385   0.95385  141.505
 4534.00    0.93304   0.95020  135.028
 4535.00    0.93706   0.95847  133.577
 4536.00    0.95623   0.97669  135.858
 4537.00    0.98375   0.99653  137.813
 4538.00    0.98864   1.00991  137.170
 4539.00    0.64266   1.01378   -1.000
 4540.00    0.07302   1.01108   -1.000
 4541.00   -0.00189   1.00726   -2.000
 4542.00    0.35779   1.00550   -2.000
 4543.00    0.59485   1.00485   -2.000
 4544.00    0.43756   1.00326   -1.000
 4545.00    0.85896   1.00046   -1.000
 4546.00    1.00221   0.99582   81.124
 4547.00    0.97036   0.98651  151.876
 4548.00    0.95845   0.97267  142.176
 4549.00    0.94357   0.96170  143.631
 4550.00    0.94561   0.96153  145.549
 4551.00    0.96016   0.96970  145.350
 4552.00    0.96667   0.97509  141.678
 4553.00    0.96191   0.97189  136.151
 4554.00    0.95497   0.96592  131.967
 4555.00    0.95597   0.96663  131.053
 4556.00    0.96838   0.97701  131.547
 4557.00    0.98326   0.99195  131.488
 4558.00    0.99303   1.00486  132.822
 4559.00    0.99923   1.01349  136.137
 4560.00    1.00690   1.01781  139.092
 4561.00    1.00493   1.01599  139.742
 4562.00    0.99354   1.00736  137.181
 4563.00    0.98397   0.99689  133.558
 4564.00    0.98077   0.99221  130.969
 4565.00    0.98249   0.99638  130.919
 4566.00    0.99042   1.00563  133.275
 4567.00    1.00037   1.01347  136.795
 4568.00    1.00324   1.01526  138.395
 4569.00    0.99961   1.00969  135.812
 4570.00    0.98696   0.99902  132.546
 4571.00    0.97266   0.98940  131.593
 4572.00    0.97110   0.98805  131.968
 4573.00    0.98066   0.99577  132.664
 4574.00    0.99240   1.00497  134.098
 4575.00    1.00099   1.00885  137.211
 4576.00    1.00248   1.00752  140.843
 4577.00    0.99807   1.00364  142.244
 4578.00    0.99573   0.99771  141.014
 4579.00    0.99251   0.98962  139.388
 4580.00    0.98555   0.98091  139.034
 4581.00    0.97988   0.97329  139.705
 4582.00    0.97677   0.96743  139.338
 4583.00    0.97281   0.96503  136.524
 4584.00    0.97178   0.96831  133.185
 4585.00    0.97796   0.97605  131.556
 4586.00    0.98661   0.98411  132.396
 4587.00    0.99298   0.98950  134.653
 4588.00    0.99486   0.99160  137.122
 4589.00    0.99145   0.99139  138.499
 4590.00    0.98759   0.99047  137.957
 4591.00    0.98341   0.98978  136.779
 4592.00    0.97899   0.98996  136.029
 4593.00    0.97835   0.99190  135.725
 4594.00    0.98542   0.99564  135.432
 4595.00    0.99848   1.00024  135.807
 4596.00    1.00161   1.00425  137.070
 4597.00    0.99799   1.00606  137.916
 4598.00    1.00007   1.00479  137.421
 4599.00    1.00297   1.00102  135.860
 4600.00    0.99540   0.99633  135.135
 4601.00    0.98651   0.99278  135.211
 4602.00    0.98070   0.99174  134.389
 4603.00    0.98041   0.99310  132.324
 4604.00    0.98909   0.99582  129.561
 4605.00    0.99768   0.99906  127.357
 4606.00    1.00267   1.00279  126.856
 4607.00    1.00688   1.00704  128.040
 4608.00    1.00659   1.01102  129.690
 4609.00    1.00674   1.01336  130.840
 4610.00    1.00895   1.01311  130.968
 4611.00    1.00754   1.01081  130.024
 4612.00    1.00251   1.00830  129.148
 4613.00    0.99758   1.00682  129.301
 4614.00    0.99666   1.00585  130.260
 4615.00    0.99570   1.00399  130.716
 4616.00    0.99783   1.00092  130.019
 4617.00    0.99856   0.99772  128.341
 4618.00    0.99588   0.99575  127.220
 4619.00    0.99428   0.99644  127.420
 4620.00    0.99843   1.00050  127.718
 4621.00    1.00688   1.00650  128.408
 4622.00    1.01164   1.01133  129.210
 4623.00    1.00858   1.01273  129.312
 4624.00    1.00040   1.01098  129.666
 4625.00    0.99687   1.00794  130.269
 4626.00    0.99995   1.00481  130.077
 4627.00    1.00255   1.00152  128.979
 4628.00    0.99904   0.99847  128.454
 4629.00    0.99170   0.99769  129.729
 4630.00    0.99126   1.00045  131.450
 4631.00    1.00052   1.00446  132.123
 4632.00    1.00626   1.00599  132.529
 4633.00    1.00535   1.00426  133.982
 4634.00    1.00583   1.00183  135.188
 4635.00    1.00598   1.00103  135.337
 4636.00    0.99965   1.00153  134.082
 4637.00    0.99555   1.00215  131.232
 4638.00    0.99937   1.00324  128.678
 4639.00    1.00457   1.00599  128.080
 4640.00    1.00899   1.01039  129.591
 4641.00    1.01218   1.01474  132.682
 4642.00    1.01477   1.01698  136.445
 4643.00    1.01533   1.01596  138.646
 4644.00    1.01018   1.01145  137.609
 4645.00    1.00095   1.00427  134.680
 4646.00    0.99142   0.99677  132.154
 4647.00    0.98779   0.99270  131.170
 4648.00    0.99290   0.99435  130.969
 4649.00    0.99705   1.00010  131.605
 4650.00    0.99891   1.00615  133.979
 4651.00    1.00125   1.00959  136.366
 4652.00    1.00183   1.00921  136.501
 4653.00    0.99910   1.00541  133.619
 4654.00    0.99031   1.00010  128.812
 4655.00    0.98112   0.99600  124.882
 4656.00    0.97819   0.99567  123.492
 4657.00    0.98605   1.00092  124.288
 4658.00    1.00197   1.01110  126.651
 4659.00    1.01691   1.02150  129.513
 4660.00    1.02205   1.02663  130.902
 4661.00    1.01709   1.02491  132.070
 4662.00    1.01060   1.01887  136.076
 4663.00    1.00930   1.01141  141.981
 4664.00    1.00942   1.00298  144.943
 4665.00    1.00391   0.99242  142.515
 4666.00    0.99023   0.98033  137.157
 4667.00    0.97524   0.97086  132.418
 4668.00    0.97197   0.96862  130.339
 4669.00    0.97875   0.97406  130.101
 4670.00    0.98996   0.98364  130.104
 4671.00    1.00003   0.99325  129.146
 4672.00    1.00653   1.00036  127.273
 4673.00    1.00849   1.00493  126.671
 4674.00    1.00929   1.00848  128.487
 4675.00    1.01189   1.01135  131.226
 4676.00    1.01474   1.01186  133.595
 4677.00    1.01619   1.00831  135.316
 4678.00    1.01089   1.00154  135.019
 4679.00    1.00050   0.99432  132.323
 4680.00    0.99480   0.98900  129.772
 4681.00    0.99334   0.98701  129.247
 4682.00    0.99731   0.98876  129.548
 4683.00    1.00406   0.99283  129.949
 4684.00    1.00735   0.99679  130.327
 4685.00    1.01018   0.99900  130.312
 4686.00    1.01481   0.99956  130.818
 4687.00    1.01769   0.99938  131.437
 4688.00    1.01579   0.99898  130.707
 4689.00    1.01124   0.99807  128.885
 4690.00    1.00865   0.99641  126.434
 4691.00    1.00804   0.99507  124.229
 4692.00    1.01108   0.99549  123.854
 4693.00    1.01462   0.99749  126.108
 4694.00    1.01529   0.99961  129.949
 4695.00    1.01863   1.00047  132.596
 4696.00    1.02042   0.99864   -1.000
 4697.00    1.01663   0.99342   -1.000
 4698.00    1.00862   0.98645   -1.000
 4699.00    1.00544   0.98024   -1.000
 4700.00    1.00546   0.97534   -1.000
 4701.00    0.99982   0.97085   -1.000
 4702.00    0.99278   0.96717   -1.000
 4703.00    0.98736   0.96645   -1.000
 4704.00    0.98988   0.96944   -1.000
 4705.00    0.99433   0.97307   -1.000
 4706.00    0.98985   0.97321  134.493
 4707.00    0.98369   0.96960  130.580
 4708.00    0.98170   0.96634  128.264
 4709.00    0.98495   0.96763  128.425
 4710.00    0.99221   0.97346  130.393
 4711.00    1.00097   0.97979   -1.000
 4712.00    1.00765   0.98254   -1.000
 4713.00    1.00880   0.98128   -1.000
 4714.00    1.00607   0.97950   -1.000
 4715.00    1.00476   0.98095   -1.000
 4716.00    1.00753   0.98595   -1.000
 4717.00    1.01076   0.99167   -1.000
 4718.00    1.01024   0.99567  126.321
 4719.00    1.01184   0.99768  126.299
 4720.00    1.01318   0.99820  125.155
 4721.00    1.01169   0.99784  124.643
 4722.00    1.00981   0.99788  126.454
 4723.00    1.00772   0.99944  130.591
 4724.00    1.01311   1.00154  134.494
 4725.00    1.01732   1.00152  135.474
 4726.00    1.01539   0.99772  134.373
 4727.00    1.00813   0.99095  133.154
 4728.00    1.00075   0.98370  131.798
 4729.00    1.00186   0.97806   -1.000
 4730.00    1.00219   0.97483   -1.000
 4731.00    0.99656   0.97474   -1.000
 4732.00    0.99330   0.97799  129.297
 4733.00    0.99650   0.98240  130.058
 4734.00    0.99994   0.98489  129.127
 4735.00    0.99894   0.98450  128.383
 4736.00    0.99642   0.98294  128.886
 4737.00    0.99752   0.98244  129.326
 4738.00    0.99988   0.98347  128.785
 4739.00    1.00313   0.98487   -1.000
 4740.00    1.00643   0.98602   -1.000
 4741.00    1.00650   0.98751   -1.000
 4742.00    1.00811   0.98994  126.756
 4743.00    1.00947   0.99297  125.582
 4744.00    1.00846   0.99586  124.880
 4745.00    1.00876   0.99856  124.908
 4746.00    1.00884   1.00160  125.049
 4747.00    1.00875   1.00508  125.606
 4748.00    1.01041   1.00831  126.844
 4749.00    1.01219   1.01062  128.085
 4750.00    1.01538   1.01191  129.035
 4751.00    1.01737   1.01188  129.268
 4752.00    1.01379   1.01002  129.435
 4753.00    1.00859   1.00679  130.229
 4754.00    1.00247   1.00369  130.729
 4755.00    0.99980   1.00216  130.127
 4756.00    1.00082   1.00274  129.506
 4757.00    0.99951   1.00461  130.613
 4758.00    0.99905   1.00612  133.444
 4759.00    0.99940   1.00568  135.878
 4760.00    1.00003   1.00191  136.674
 4761.00    0.99760   0.99431  136.551
 4762.00    0.98785   0.98479  135.854
 4763.00    0.98230   0.97713  134.329
 4764.00    0.98270   0.97442  131.728
 4765.00    0.98574   0.97724  129.393
 4766.00    0.98883   0.98402  128.819
 4767.00    0.99235   0.99258  129.608
 4768.00    1.00073   1.00092  130.762
 4769.00    1.00594   1.00688  130.325
 4770.00    1.00686   1.00866  127.971
 4771.00    1.00274   1.00693  126.311
 4772.00    1.00032   1.00493  126.072
 4773.00    1.00241   1.00563  126.357
 4774.00    1.00442   1.00890  127.008
 4775.00    1.01046   1.01217  128.213
 4776.00    1.01263   1.01348  129.263
 4777.00    1.00859   1.01230  129.744
 4778.00    1.00697   1.00866  130.245
 4779.00    1.00585   1.00401  131.143
 4780.00    1.00341   1.00125  131.542
 4781.00    1.00441   1.00143  131.759
 4782.00    1.00384   1.00223  132.745
 4783.00    1.00040   1.00136  133.756
 4784.00    0.99977   0.99890  133.963
 4785.00    0.99977   0.99572  133.487
 4786.00    0.99245   0.99258  132.715
 4787.00    0.98513   0.99076  131.544
 4788.00    0.98883   0.99100  129.672
 4789.00    0.99535   0.99294  127.050
 4790.00    0.99557   0.99643  124.596
 4791.00    0.99704   1.00172  123.501
 4792.00    1.00245   1.00838  124.125
 4793.00    1.00789   1.01515  126.189
 4794.00    1.01511   1.02004  128.662
 4795.00    1.01816   1.02101  130.531
 4796.00    1.01382   1.01751  130.398
 4797.00    1.00789   1.01127  128.258
 4798.00    1.00078   1.00544  126.091
 4799.00    0.99374   1.00312  125.530
 4800.00    0.99545   1.00533  126.687
 4801.00    1.00433   1.00997  128.377
 4802.00    1.00754   1.01272  129.725
 4803.00    1.00707   1.01011  130.142
 4804.00    1.00643   1.00315  129.898
 4805.00    1.00252   0.99685  129.404
 4806.00    0.99985   0.99509  128.444
 4807.00    1.00146   0.99751  127.417
 4808.00    1.00605   1.00140  126.672
 4809.00    1.00732   1.00432  126.357
 4810.00    1.00277   1.00550  126.128
 4811.00    1.00341   1.00601  125.724
 4812.00    1.00896   1.00758  125.053
 4813.00    1.00953   1.01075  124.264
 4814.00    1.01005   1.01435  123.661
 4815.00    1.01021   1.01697  123.453
 4816.00    1.01455   1.01844  123.450
 4817.00    1.01731   1.01906  124.138
 4818.00    1.01554   1.01862  126.636
 4819.00    1.01294   1.01691  129.458
 4820.00    1.01348   1.01361  130.188
 4821.00    1.00895   1.00773  128.567
 4822.00    0.99777   0.99893  126.428
 4823.00    0.98848   0.98981  126.052
 4824.00    0.98861   0.98479  127.250
 4825.00    0.99319   0.98583  128.326
 4826.00    0.99887   0.99019  128.577
 4827.00    1.00243   0.99349  129.307
 4828.00    1.00308   0.99376  129.912
 4829.00    1.00492   0.99208  128.626
 4830.00    1.00256   0.99007  126.740
 4831.00    1.00091   0.98837  125.844
 4832.00    1.00042   0.98731  125.836
 4833.00    0.99964   0.98717  126.311
 4834.00    0.99995   0.98747  127.647
 4835.00    1.00233   0.98726  129.772
 4836.00    1.00005   0.98631  130.664
 4837.00    0.99809   0.98490  130.464
 4838.00    0.99502   0.98285  129.935
 4839.00    0.98517   0.98010  129.068
 4840.00    0.98093   0.97766  127.884
 4841.00    0.98341   0.97633  126.118
 4842.00    0.98678   0.97559  124.984
 4843.00    0.98768   0.97476  126.425
 4844.00    0.98896   0.97389  128.627
 4845.00    0.99235   0.97283   -1.000
 4846.00    0.98980   0.97016   -1.000
 4847.00    0.98194   0.96488  127.187
 4848.00    0.97732   0.95878  127.588
 4849.00    0.97398   0.95479  128.572
 4850.00    0.96983   0.95299  131.463
 4851.00    0.96940   0.95042   -1.000
 4852.00    0.96671   0.94374   -1.000
 4853.00    0.95524   0.93109   -1.000
 4854.00    0.94036   0.91338   -1.000
 4855.00    0.92482   0.89433   -1.000
 4856.00    0.90955   0.87619   -1.000
 4857.00    0.89518   0.85414   -1.000
 4858.00    0.86284   0.81755   -1.000
 4859.00    0.79808   0.76118   -1.000
 4860.00    0.72346   0.69859   -1.000
 4861.00    0.68075   0.65988   -1.000
 4862.00    0.69611   0.66834   -1.000
 4863.00    0.75994   0.71764   -1.000
 4864.00    0.83057   0.77925   -1.000
 4865.00    0.87479   0.83008   -1.000
 4866.00    0.90155   0.86548   -1.000
 4867.00    0.91840   0.88960   -1.000
 4868.00    0.93057   0.90488   -1.000
 4869.00    0.93878   0.91089   -1.000
 4870.00    0.93459   0.90884   -1.000
 4871.00    0.92349   0.90475  132.425
 4872.00    0.92321   0.90624  131.621
 4873.00    0.93809   0.91557   -1.000
 4874.00    0.95546   0.92805   -1.000
 4875.00    0.96702   0.93785   -1.000
 4876.00    0.96652   0.94349   -1.000
 4877.00    0.96357   0.94765  130.252
 4878.00    0.96643   0.95361  131.506
 4879.00    0.97213   0.96179  131.439
 4880.00    0.97720   0.96891  131.749
 4881.00    0.97905   0.97102  133.375
 4882.00    0.97909   0.96793  134.558
 4883.00    0.97663   0.96338  134.283
 4884.00    0.97397   0.96088  133.902
 4885.00    0.97231   0.96105  135.188
 4886.00    0.97364   0.96242  137.911
 4887.00    0.97574   0.96270  138.301
 4888.00    0.97359   0.95974  134.139
 4889.00    0.96574   0.95306  128.079
 4890.00    0.95366   0.94596  123.590
 4891.00    0.94767   0.94512  120.876
 4892.00    0.95907   0.95499  119.769
 4893.00    0.97901   0.97237  119.784
 4894.00    0.99769   0.98948  121.644
 4895.00    1.00941   1.00115  124.495
 4896.00    1.01204   1.00660  126.386
 4897.00    1.00847   1.00686  126.382
 4898.00    1.00292   1.00304  126.279
 4899.00    0.99528   0.99699  127.419
 4900.00    0.98953   0.99164  126.983
 4901.00    0.98780   0.98878  124.624
 4902.00    0.98550   0.98758  123.099
 4903.00    0.98597   0.98747  123.601
 4904.00    0.98794   0.99014  126.041
 4905.00    0.99531   0.99594  129.544
 4906.00    1.00194   1.00106  131.871
 4907.00    1.00497   1.00117  131.157
 4908.00    0.99997   0.99574  128.930
 4909.00    0.98873   0.98747  126.975
 4910.00    0.98163   0.98014  125.300
 4911.00    0.98280   0.97736  124.030
 4912.00    0.98774   0.98040  124.105
 4913.00    0.99347   0.98720  127.302
 4914.00    0.99871   0.99400  133.571
 4915.00    0.99986   0.99701  140.310
 4916.00    1.00114   0.99281  143.491
 4917.00    0.99252   0.97972  140.642
 4918.00    0.97221   0.96023  135.605
 4919.00    0.94785   0.94110  132.705
 4920.00    0.93947   0.92958  132.054
 4921.00    0.94510   0.92813  130.857
 4922.00    0.95198   0.93266  127.921
 4923.00    0.95599   0.93805  125.293
 4924.00    0.95984   0.94461  123.810
 4925.00    0.97009   0.95548  122.879
 4926.00    0.98496   0.96985  122.109
 4927.00    0.99398   0.98329  122.734
 4928.00    0.99934   0.99290  125.470
 4929.00    1.00775   0.99822  129.740
 4930.00    1.00764   0.99855  131.395
 4931.00    0.99679   0.99256  129.757
 4932.00    0.98562   0.98069  128.976
 4933.00    0.97625   0.96755  131.654
 4934.00    0.96918   0.96003  135.430
 4935.00    0.97185   0.96038  135.685
 4936.00    0.97894   0.96301  131.974
 4937.00    0.97745   0.96165  127.615
 4938.00    0.96512   0.95755  124.758
 4939.00    0.95636   0.95735  123.298
 4940.00    0.96334   0.96506  123.047
 4941.00    0.98008   0.97828  123.715
 4942.00    0.99163   0.99113  124.170
 4943.00    0.99725   0.99923  123.437
 4944.00    0.99657   1.00171  122.051
 4945.00    0.99500   1.00050  121.372
 4946.00    0.99704   0.99881  120.911
 4947.00    0.99727   0.99914  121.218
 4948.00    1.00248   1.00155  122.009
 4949.00    1.00617   1.00411  123.265
 4950.00    1.00225   1.00515  124.780
 4951.00    0.99844   1.00446  127.617
 4952.00    0.99946   1.00261  133.339
 4953.00    1.00083   0.99940  139.217
 4954.00    0.99383   0.99251  138.723
 4955.00    0.98370   0.97885  132.042
 4956.00    0.96603   0.95986  126.612
 4957.00    0.94537   0.94497  124.726
 4958.00    0.94462   0.94476  124.914
 4959.00    0.96212   0.95951  125.815
 4960.00    0.98488   0.97905  127.179
 4961.00    0.99466   0.99356  129.565
 4962.00    0.99905   1.00014  131.561
 4963.00    0.99883   1.00027  132.041
 4964.00    0.99244   0.99589  131.751
 4965.00    0.98978   0.98919  130.930
 4966.00    0.98639   0.98317  129.637
 4967.00    0.98261   0.97999  128.242
 4968.00    0.98592   0.97973  126.747
 4969.00    0.98769   0.98178  125.462
 4970.00    0.98909   0.98561  124.773
 4971.00    0.98709   0.99015  125.281
 4972.00    0.99063   0.99416  126.498
 4973.00    0.99676   0.99680  128.123
 4974.00    1.00000   0.99764  130.130
 4975.00    1.00007   0.99653  131.879
 4976.00    0.99786   0.99351  133.679
 4977.00    0.99378   0.98911  137.428
 4978.00    0.98520   0.98425  141.952
 4979.00    0.98207   0.97848  143.162
 4980.00    0.97234   0.96959  141.119
 4981.00    0.95545   0.95698  137.456
 4982.00    0.94203   0.94420  133.197
 4983.00    0.93741   0.93692  129.649
 4984.00    0.94125   0.93847  128.909
 4985.00    0.95226   0.94773  130.383
 4986.00    0.96821   0.96085  131.896
 4987.00    0.97792   0.97305  132.283
 4988.00    0.98062   0.97970  131.401
 4989.00    0.98043   0.97889  130.677
 4990.00    0.97337   0.97335  130.498
 4991.00    0.96682   0.96822  129.980
 4992.00    0.96815   0.96689  129.321
 4993.00    0.96959   0.96925  129.747
 4994.00    0.97083   0.97370  131.263
 4995.00    0.97615   0.97859  133.710
 4996.00    0.98329   0.98144  135.657
 4997.00    0.98418   0.97912  136.144
 4998.00    0.97615   0.97014  135.176
 4999.00    0.97091   0.95745  134.174
 5000.00    0.96230   0.94817  135.409
 5001.00    0.95795   0.94690  138.527
 5002.00    0.96387   0.95066  140.002
 5003.00    0.96972   0.95288  137.551
 5004.00    0.96440   0.94963  133.507
 5005.00    0.95470   0.94246  131.435
 5006.00    0.94593   0.93753  132.420
 5007.00    0.94637   0.94010  135.889
 5008.00    0.95763   0.94870  140.779
 5009.00    0.97278   0.95630   -1.000
 5010.00    0.97299   0.95703  144.823
 5011.00    0.95919   0.95034  142.160
 5012.00    0.94662   0.94025  139.118
 5013.00    0.93457   0.93227  137.985
 5014.00    0.93051   0.92985  137.891
 5015.00    0.93645   0.93167  136.693
 5016.00    0.94295   0.93269  135.458
 5017.00    0.94550   0.92987  135.666
 5018.00    0.94280   0.92676  136.051
 5019.00    0.94692   0.92955  135.517
 5020.00    0.95384   0.93859  134.219
 5021.00    0.96682   0.94846  133.193
 5022.00    0.96812   0.95571  133.484
 5023.00    0.96482   0.96142  134.139
 5024.00    0.96579   0.96689  133.331
 5025.00    0.96717   0.97095  131.084
 5026.00    0.96625   0.97211  129.068
 5027.00    0.96726   0.97112  127.027
 5028.00    0.96921   0.97015  125.426
 5029.00    0.97332   0.97045  125.268
 5030.00    0.97550   0.97221  128.449
 5031.00    0.97388   0.97561  133.387
 5032.00    0.97857   0.97955  136.305
 5033.00    0.98387   0.98082  137.151
 5034.00    0.97981   0.97703  138.570
 5035.00    0.96687   0.96983  143.214
 5036.00    0.95817   0.96314  149.063
 5037.00    0.95836   0.95805  150.433
 5038.00    0.95121   0.95111  144.613
 5039.00    0.97476   0.93945   -1.000
 5040.00    0.71318   0.92663   -1.000
 5041.00    0.19135   0.92124   -1.000
 5042.00   -0.00952   0.92871    0.000
 5043.00    0.20724   0.94591   -1.000
 5044.00    0.80801   0.96482   -1.000
 5045.00    0.98075   0.97887  103.040
 5046.00    0.98525   0.98508  148.753
 5047.00    0.98477   0.98296  134.468
 5048.00    0.97568   0.97416  132.660
 5049.00    0.96287   0.96234  129.356
 5050.00    0.95095   0.95188  126.810
 5051.00    0.95248   0.94676  125.387
 5052.00    0.96044   0.94998  124.832
 5053.00    0.97483   0.96089  124.941
 5054.00    0.98622   0.97404  125.178
 5055.00    0.98941   0.98365  125.185
 5056.00    0.99400   0.98848  124.485
 5057.00    0.99298   0.99064  124.367
 5058.00    0.99281   0.99214  125.738
 5059.00    0.98730   0.99358  129.037
 5060.00    0.98707   0.99457  133.506
 5061.00    0.98830   0.99398  135.689
 5062.00    0.98754   0.99019  134.624
 5063.00    0.98187   0.98255  132.630
 5064.00    0.96787   0.97316  131.903
 5065.00    0.95841   0.96603  131.327
 5066.00    0.96318   0.96333  130.502
 5067.00    0.96825   0.96369  131.198
 5068.00    0.97169   0.96488  132.260
 5069.00    0.97270   0.96614  131.119
 5070.00    0.97674   0.96715  129.961
 5071.00    0.97880   0.96696  129.638
 5072.00    0.97564   0.96532  129.529
 5073.00    0.97319   0.96347  130.542
 5074.00    0.97187   0.96259  134.514
 5075.00    0.97833   0.96233   -1.000
 5076.00    0.97790   0.96072   -1.000
 5077.00    0.96885   0.95532  140.992
 5078.00    0.95967   0.94602  137.946
 5079.00    0.94505   0.93707  135.899
 5080.00    0.93743   0.93378  133.462
 5081.00    0.94250   0.93683  131.125
 5082.00    0.95373   0.94277  129.962
 5083.00    0.96424   0.94919  129.664
 5084.00    0.96814   0.95607  129.096
 5085.00    0.97498   0.96288  128.205
 5086.00    0.98336   0.96799  127.458
 5087.00    0.99250   0.97094   -1.000
 5088.00    0.99800   0.97298   -1.000
 5089.00    0.98846   0.97535  124.269
 5090.00    0.98220   0.97818  125.031
 5091.00    0.98658   0.98106  127.424
 5092.00    0.98869   0.98375  130.181
 5093.00    0.99348   0.98554  133.287
 5094.00    0.99301   0.98487  136.162
 5095.00    0.98888   0.98035  136.989
 5096.00    0.98249   0.97200  134.199
 5097.00    0.97213   0.96186  130.364
 5098.00    0.96161   0.95363  128.797
 5099.00    0.95883   0.95116  129.275
 5100.00    0.97078   0.95558  130.850
 5101.00    0.97440   0.96373  132.527
 5102.00    0.98049   0.97083  134.160
 5103.00    0.98483   0.97402  135.840
 5104.00    0.98158   0.97280  135.929
 5105.00    0.97625   0.96753  135.141
 5106.00    0.96947   0.95931  134.181
 5107.00    0.95774   0.95106  132.390
 5108.00    0.95243   0.94627  130.717
 5109.00    0.95346   0.94639  129.122
 5110.00    0.95882   0.95092  127.896
 5111.00    0.96678   0.95866  127.145
 5112.00    0.97515   0.96753  125.898
 5113.00    0.98430   0.97497  124.798
 5114.00    0.98596   0.97977  124.965
 5115.00    0.98723   0.98276  126.433
 5116.00    0.98764   0.98525  128.316
 5117.00    0.99356   0.98718  130.414
 5118.00    0.99682   0.98726  133.609
 5119.00    0.99023   0.98447  137.579
 5120.00    0.98436   0.97882  138.993
 5121.00    0.98086   0.97098  138.033
 5122.00    0.97593   0.96206  137.267
 5123.00    0.96449   0.95409  136.470
 5124.00    0.95396   0.94932  136.529
 5125.00    0.95756   0.94808  136.457
 5126.00    0.96346   0.94811  134.890
 5127.00    0.95895   0.94736  132.641
 5128.00    0.95335   0.94631  131.403
 5129.00    0.96017   0.94694  130.181
 5130.00    0.96855   0.95023   -1.000
 5131.00    0.96733   0.95504  128.583
 5132.00    0.97018   0.95958  130.565
 5133.00    0.97101   0.96309  133.670
 5134.00    0.97501   0.96529  135.959
 5135.00    0.97940   0.96507  136.387
 5136.00    0.97569   0.96115  135.319
 5137.00    0.96706   0.95402  136.040
 5138.00    0.95177   0.94657  138.135
 5139.00    0.94308   0.94220  137.710
 5140.00    0.94729   0.94192  135.541
 5141.00    0.94656   0.94383  134.843
 5142.00    0.94883   0.94614  135.915
 5143.00    0.95289   0.94922  136.375
 5144.00    0.95922   0.95327  134.922
 5145.00    0.96773   0.95648  134.044
 5146.00    0.97050   0.95742  135.434
 5147.00    0.96424   0.95688  137.844
 5148.00    0.96723   0.95580  138.943
 5149.00    0.97151   0.95356   -1.000
 5150.00    0.96097   0.94936  135.960
 5151.00    0.95386   0.94440  132.577
 5152.00    0.95241   0.94133  129.198
 5153.00    0.95224   0.94193  126.684
 5154.00    0.95895   0.94635  125.598
 5155.00    0.97330   0.95385   -1.000
 5156.00    0.98446   0.96263   -1.000
 5157.00    0.98970   0.97011   -1.000
 5158.00    0.99071   0.97454  127.925
 5159.00    0.99142   0.97577  129.863
 5160.00    0.98885   0.97439  134.526
 5161.00    0.98269   0.97106  145.043
 5162.00    0.97907   0.96602  159.968
 5163.00    0.97615   0.95762   -1.000
 5164.00    0.96746   0.94146   -1.000
 5165.00    0.94432   0.91385   -1.000
 5166.00    0.90655   0.87877   -1.000
 5167.00    0.87062   0.84952   -1.000
 5168.00    0.86087   0.83856   -1.000
 5169.00    0.87927   0.84482   -1.000
 5170.00    0.89997   0.85440   -1.000
 5171.00    0.89955   0.85640   -1.000
 5172.00    0.88049   0.85588   -1.000
 5173.00    0.88200   0.86661  133.414
 5174.00    0.91408   0.89289   -1.000
 5175.00    0.95109   0.92453   -1.000
 5176.00    0.97996   0.94891   -1.000
 5177.00    0.98771   0.96193   -1.000
 5178.00    0.98952   0.96604   -1.000
 5179.00    0.99069   0.96275   -1.000
 5180.00    0.98037   0.94988   -1.000
 5181.00    0.96129   0.92529   -1.000
 5182.00    0.93218   0.89377   -1.000
 5183.00    0.89713   0.86916   -1.000
 5184.00    0.89390   0.86546   -1.000
 5185.00    0.91156   0.88331   -1.000
 5186.00    0.94410   0.90863   -1.000
 5187.00    0.96125   0.92706   -1.000
 5188.00    0.96406   0.93490   -1.000
 5189.00    0.95837   0.93563   -1.000
 5190.00    0.95298   0.93215   -1.000
 5191.00    0.94543   0.92609   -1.000
 5192.00    0.93602   0.92081  134.970
 5193.00    0.93762   0.91981   -1.000
 5194.00    0.94146   0.92286   -1.000
 5195.00    0.94660   0.92728   -1.000
 5196.00    0.95214   0.93186   -1.000
 5197.00    0.96117   0.93723   -1.000
 5198.00    0.96102   0.94365  131.934
 5199.00    0.96392   0.94981  134.926
 5200.00    0.97012   0.95327   -1.000
 5201.00    0.96984   0.95183   -1.000
 5202.00    0.96492   0.94453   -1.000
 5203.00    0.95243   0.93230   -1.000
 5204.00    0.93779   0.91846   -1.000
 5205.00    0.92821   0.90774   -1.000
 5206.00    0.92410   0.90284   -1.000
 5207.00    0.92628   0.90275   -1.000
 5208.00    0.93061   0.90558   -1.000
 5209.00    0.93447   0.91200   -1.000
 5210.00    0.94271   0.92338   -1.000
 5211.00    0.96016   0.93757   -1.000
 5212.00    0.97749   0.94941   -1.000
 5213.00    0.98048   0.95436   -1.000
 5214.00    0.97079   0.95154   -1.000
 5215.00    0.95850   0.94465  125.762
 5216.00    0.95293   0.94005  124.753
 5217.00    0.95624   0.94218  124.233
 5218.00    0.96859   0.95040   -1.000
 5219.00    0.98114   0.96036   -1.000
 5220.00    0.98616   0.96787   -1.000
 5221.00    0.98800   0.97083   -1.000
 5222.00    0.99097   0.96817   -1.000
 5223.00    0.98209   0.95847   -1.000
 5224.00    0.96834   0.94106   -1.000
 5225.00    0.94183   0.91914   -1.000
 5226.00    0.91504   0.90149  126.571
 5227.00    0.90416   0.89776  126.304
 5228.00    0.92011   0.90941  128.771
 5229.00    0.94959   0.92733   -1.000
 5230.00    0.96263   0.93990   -1.000
 5231.00    0.96299   0.94189   -1.000
 5232.00    0.96303   0.93623   -1.000
 5233.00    0.95410   0.93015   -1.000
 5234.00    0.95021   0.93000   -1.000
 5235.00    0.96124   0.93712   -1.000
 5236.00    0.97302   0.94784   -1.000
 5237.00    0.98112   0.95731   -1.000
 5238.00    0.98799   0.96305   -1.000
 5239.00    0.98843   0.96549   -1.000
 5240.00    0.98651   0.96617   -1.000
 5241.00    0.98523   0.96626   -1.000
 5242.00    0.98435   0.96639   -1.000
 5243.00    0.98203   0.96675  131.825
 5244.00    0.98448   0.96658   -1.000
 5245.00    0.98430   0.96416   -1.000
 5246.00    0.97623   0.95882   -1.000
 5247.00    0.96359   0.95227  132.702
 5248.00    0.95594   0.94686  130.873
 5249.00    0.95550   0.94346  129.564
 5250.00    0.95459   0.94210  129.565
 5251.00    0.95513   0.94287  128.650
 5252.00    0.96110   0.94491  125.662
 5253.00    0.96443   0.94660  122.260
 5254.00    0.96096   0.94779  121.151
 5255.00    0.96346   0.95055  122.264
 5256.00    0.97316   0.95638  125.607
 5257.00    0.97966   0.96353  130.937
 5258.00    0.98387   0.96783   -1.000
 5259.00    0.98422   0.96579   -1.000
 5260.00    0.97940   0.95635   -1.000
 5261.00    0.96331   0.94112   -1.000
 5262.00    0.94486   0.92369   -1.000
 5263.00    0.92780   0.90805   -1.000
 5264.00    0.91348   0.89721  143.279
 5265.00    0.91272   0.89245   -1.000
 5266.00    0.91745   0.89203   -1.000
 5267.00    0.92079   0.89092   -1.000
 5268.00    0.91699   0.88516   -1.000
 5269.00    0.90007   0.87805   -1.000
 5270.00    0.89380   0.87853  130.639
 5271.00    0.90780   0.89064  130.334
 5272.00    0.93308   0.90779   -1.000
 5273.00    0.94649   0.92026   -1.000
 5274.00    0.94751   0.92554   -1.000
 5275.00    0.95026   0.92859   -1.000
 5276.00    0.95331   0.93489  124.844
 5277.00    0.96681   0.94482   -1.000
 5278.00    0.97944   0.95373   -1.000
 5279.00    0.96371   0.95663  131.078
 5280.00    0.96796   0.95245  128.390
 5281.00    0.96322   0.94405   -1.000
 5282.00    0.95251   0.93599  120.507
 5283.00    0.94707   0.93285  119.632
 5284.00    0.94928   0.93740  120.290
 5285.00    0.96035   0.94845  120.263
 5286.00    0.97867   0.96095   -1.000
 5287.00    0.98681   0.97000  119.299
 5288.00    0.98604   0.97450  120.018
 5289.00    0.98169   0.97617  121.165
 5290.00    0.97951   0.97639  122.787
 5291.00    0.98476   0.97548  126.166
 5292.00    0.98356   0.97369  131.062
 5293.00    0.98074   0.97109  134.551
 5294.00    0.97998   0.96677  133.617
 5295.00    0.97371   0.95954  130.159
 5296.00    0.96434   0.94999  127.757
 5297.00    0.95478   0.94144  126.980
 5298.00    0.95208   0.93777  125.394
 5299.00    0.95603   0.93976  121.954
 5300.00    0.95851   0.94469  119.742
 5301.00    0.96126   0.94972  119.484
 5302.00    0.96499   0.95447  120.697
 5303.00    0.96960   0.95958  121.742
 5304.00    0.97228   0.96421  120.889
 5305.00    0.97872   0.96657  119.602
 5306.00    0.97928   0.96646  118.855
 5307.00    0.97203   0.96577  119.002
 5308.00    0.97082   0.96651  119.693
 5309.00    0.97596   0.96877  120.204
 5310.00    0.97644   0.97094  121.093
 5311.00    0.98284   0.97142  122.307
 5312.00    0.98336   0.96964  123.389
 5313.00    0.97724   0.96540  123.387
 5314.00    0.97544   0.95871  122.433
 5315.00    0.96328   0.95089  121.929
 5316.00    0.95513   0.94522  122.418
 5317.00    0.95509   0.94490  123.299
 5318.00    0.95877   0.94983  124.779
 5319.00    0.96752   0.95624  127.006
 5320.00    0.96929   0.95981  128.134
 5321.00    0.96985   0.95824  128.027
 5322.00    0.96521   0.95188  131.735
 5323.00    0.95483   0.94325  140.512
 5324.00    0.95241   0.93480   -1.000
 5325.00    0.94890   0.92585   -1.000
 5326.00    0.94055   0.91366   -1.000
 5327.00    0.92123   0.89969   -1.000
 5328.00    0.89916   0.89222  125.046
 5329.00    0.90773   0.89865  123.848
 5330.00    0.93639   0.91622   -1.000
 5331.00    0.95382   0.93440   -1.000
 5332.00    0.96138   0.94579  122.772
 5333.00    0.96277   0.95040  123.564
 5334.00    0.96406   0.95130  124.954
 5335.00    0.96130   0.95034  128.234
 5336.00    0.95996   0.94811  130.423
 5337.00    0.96005   0.94477  129.145
 5338.00    0.95840   0.94015   -1.000
 5339.00    0.95406   0.93478   -1.000
 5340.00    0.93878   0.93131  123.461
 5341.00    0.94140   0.93284  124.315
 5342.00    0.95308   0.93909  125.114
 5343.00    0.96345   0.94587   -1.000
 5344.00    0.96993   0.94919   -1.000
 5345.00    0.96138   0.94844  127.134
 5346.00    0.95960   0.94554  125.008
 5347.00    0.95918   0.94259  122.036
 5348.00    0.95965   0.94101   -1.000
 5349.00    0.95862   0.94197  120.304
 5350.00    0.96138   0.94586  119.308
 5351.00    0.97068   0.95140   -1.000
 5352.00    0.97154   0.95660  116.903
 5353.00    0.97616   0.96074  117.080
 5354.00    0.97555   0.96445  117.261
 5355.00    0.97671   0.96806  117.711
 5356.00    0.97419   0.97086  119.173
 5357.00    0.98010   0.97210  121.224
 5358.00    0.98434   0.97160  122.979
 5359.00    0.98288   0.96931  123.768
 5360.00    0.97880   0.96506  124.479
 5361.00    0.97611   0.95916   -1.000
 5362.00    0.96651   0.95268  124.748
 5363.00    0.96142   0.94702  124.787
 5364.00    0.95238   0.94322  126.175
 5365.00    0.95032   0.94153  129.492
 5366.00    0.95423   0.94099  133.473
 5367.00    0.95453   0.93937  133.533
 5368.00    0.95107   0.93441  128.210
 5369.00    0.94389   0.92586  122.228
 5370.00    0.93273   0.91719  119.485
 5371.00    0.92376   0.91441  118.767
 5372.00    0.92950   0.92119  119.215
 5373.00    0.94927   0.93484  119.229
 5374.00    0.97014   0.94858   -1.000
 5375.00    0.98090   0.95746   -1.000
 5376.00    0.97976   0.96102   -1.000
 5377.00    0.97656   0.96130  122.651
 5378.00    0.97571   0.95966  123.188
 5379.00    0.97172   0.95631  123.041
 5380.00    0.96781   0.95175  122.404
 5381.00    0.96505   0.94748   -1.000
 5382.00    0.95864   0.94516  120.919
 5383.00    0.95490   0.94565  121.542
 5384.00    0.95936   0.94876  122.789
 5385.00    0.96650   0.95323  124.724
 5386.00    0.97251   0.95699  126.054
 5387.00    0.97233   0.95814  126.534
 5388.00    0.96701   0.95606  126.563
 5389.00    0.96533   0.95163  126.999
 5390.00    0.96589   0.94645   -1.000
 5391.00    0.96207   0.94182   -1.000
 5392.00    0.95954   0.93824   -1.000
 5393.00    0.95045   0.93538  132.181
 5394.00    0.94818   0.93183  127.914
 5395.00    0.95058   0.92610   -1.000
 5396.00    0.93610   0.91952  123.891
 5397.00    0.92857   0.91660  124.214
 5398.00    0.93189   0.92038  125.356
 5399.00    0.95149   0.92866   -1.000
 5400.00    0.95675   0.93615   -1.000
 5401.00    0.96010   0.93869   -1.000
 5402.00    0.95694   0.93462   -1.000
 5403.00    0.94944   0.92476   -1.000
 5404.00    0.93268   0.91301   -1.000
 5405.00    0.91914   0.90541  130.986
 5406.00    0.92876   0.90565   -1.000
 5407.00    0.93657   0.91145   -1.000
 5408.00    0.94299   0.91717   -1.000
 5409.00    0.94359   0.92017   -1.000
 5410.00    0.93676   0.92276  122.659
 5411.00    0.94297   0.92758  122.663
 5412.00    0.95504   0.93336   -1.000
 5413.00    0.96225   0.93717   -1.000
 5414.00    0.95826   0.93859   -1.000
 5415.00    0.94950   0.93976  122.857
 5416.00    0.95312   0.94211  123.483
 5417.00    0.95705   0.94479  122.873
 5418.00    0.95914   0.94634  122.498
 5419.00    0.96035   0.94648  124.400
 5420.00    0.95965   0.94559  125.339
 5421.00    0.95932   0.94362  123.737
 5422.00    0.95703   0.94039  121.709
 5423.00    0.95150   0.93683  122.488
 5424.00    0.94470   0.93520  126.188
 5425.00    0.94661   0.93700  130.073
 5426.00    0.95606   0.94011   -1.000
 5427.00    0.95970   0.93989   -1.000
 5428.00    0.94962   0.93449  127.650
 5429.00    0.93496   0.92770  129.624
 5430.00    0.92990   0.92462  130.957
 5431.00    0.93347   0.92529  130.164
 5432.00    0.93728   0.92543  127.326
 5433.00    0.93776   0.92275  123.780
 5434.00    0.92729   0.92021  121.326
 5435.00    0.92869   0.92247  119.743
 5436.00    0.93538   0.93053  118.857
 5437.00    0.94816   0.94118  118.737
 5438.00    0.96039   0.95048  118.825
 5439.00    0.96822   0.95652  120.330
 5440.00    0.96746   0.95948  123.844
 5441.00    0.96496   0.96006  129.079
 5442.00    0.96625   0.95798  132.872
 5443.00    0.96319   0.95188  131.178
 5444.00    0.95258   0.94095  126.714
 5445.00    0.93950   0.92740  123.410
 5446.00    0.92583   0.91697  122.526
 5447.00    0.91829   0.91531  122.714
 5448.00    0.93186   0.92291  123.990
 5449.00    0.95449   0.93465   -1.000
 5450.00    0.96645   0.94413   -1.000
 5451.00    0.96637   0.94771   -1.000
 5452.00    0.96337   0.94466   -1.000
 5453.00    0.95441   0.93607   -1.000
 5454.00    0.94274   0.92538  122.776
 5455.00    0.92622   0.91857  122.495
 5456.00    0.92218   0.92056  124.194
 5457.00    0.93503   0.93057  126.560
 5458.00    0.95060   0.94237  128.119
 5459.00    0.95990   0.94979  128.537
 5460.00    0.96236   0.95074  126.732
 5461.00    0.95598   0.94683  125.357
 5462.00    0.94854   0.94134  124.776
 5463.00    0.94722   0.93777  123.372
 5464.00    0.94761   0.93793  123.093
 5465.00    0.95145   0.94087  124.422
 5466.00    0.95517   0.94436  125.647
 5467.00    0.95476   0.94708  126.026
 5468.00    0.95829   0.94895  126.760
 5469.00    0.96085   0.94993  128.167
 5470.00    0.95856   0.94949  130.123
 5471.00    0.95620   0.94732  132.937
 5472.00    0.95250   0.94361  134.622
 5473.00    0.94982   0.93826  132.802
 5474.00    0.94656   0.93087  128.631
 5475.00    0.93974   0.92231  126.675
 5476.00    0.92835   0.91602  128.020
 5477.00    0.92394   0.91594  129.466
 5478.00    0.93448   0.92205  128.834
 5479.00    0.94236   0.92965  126.358
 5480.00    0.95298   0.93442   -1.000
 5481.00    0.95473   0.93631  123.188
 5482.00    0.94728   0.93807  124.657
 5483.00    0.94470   0.94140  126.387
 5484.00    0.95177   0.94533  126.939
 5485.00    0.95422   0.94765  126.806
 5486.00    0.95352   0.94717  125.821
 5487.00    0.94743   0.94479  124.957
 5488.00    0.94551   0.94250  124.618
 5489.00    0.94639   0.94171  124.939
 5490.00    0.94634   0.94253  124.950
 5491.00    0.94913   0.94409  125.030
 5492.00    0.94772   0.94527  126.039
 5493.00    0.95164   0.94528  126.739
 5494.00    0.95296   0.94373  125.816
 5495.00    0.94960   0.94058  124.599
 5496.00    0.94045   0.93664  125.960
 5497.00    0.93530   0.93389  127.872
 5498.00    0.93241   0.93351  127.753
 5499.00    0.93636   0.93396  126.680
 5500.00    0.93983   0.93287  126.735
 5501.00    0.93364   0.93046  128.598
 5502.00    0.93026   0.92924  129.514
 5503.00    0.93811   0.93003  127.983
 5504.00    0.94371   0.93043  126.031
 5505.00    0.94168   0.92836  125.809
 5506.00    0.93440   0.92541  126.963
 5507.00    0.92929   0.92495  129.574
 5508.00    0.93516   0.92788  131.540
 5509.00    0.94422   0.93150  132.274
 5510.00    0.94476   0.93268  130.349
 5511.00    0.93998   0.93104  128.050
 5512.00    0.93654   0.92860  126.083
 5513.00    0.93290   0.92756  123.698
 5514.00    0.93321   0.92896  121.898
 5515.00    0.94053   0.93249  121.823
 5516.00    0.94884   0.93716  122.050
 5517.00    0.95341   0.94186  122.321
 5518.00    0.95372   0.94551  122.737
 5519.00    0.95478   0.94739  122.994
 5520.00    0.95302   0.94759  123.915
 5521.00    0.95372   0.94700  125.847
 5522.00    0.94958   0.94620  128.922
 5523.00    0.95101   0.94446  131.935
 5524.00    0.94563   0.94001  131.922
 5525.00    0.93833   0.93175  128.658
 5526.00    0.93253   0.92114  125.449
 5527.00    0.92234   0.91249  124.249
 5528.00    0.91646   0.91030  124.798
 5529.00    0.91822   0.91553  125.971
 5530.00    0.93460   0.92448  126.376
 5531.00    0.94218   0.93165  125.760
 5532.00    0.94467   0.93385  124.778
 5533.00    0.94371   0.93192  124.512
 5534.00    0.93896   0.92938  123.837
 5535.00    0.93508   0.92942  122.597
 5536.00    0.94088   0.93261  121.802
 5537.00    0.94328   0.93716  122.134
 5538.00    0.94366   0.94113  123.506
 5539.00    0.94379   0.94376  124.607
 5540.00    0.94683   0.94494  124.738
 5541.00    0.95100   0.94461  124.342
 5542.00    0.94925   0.94292  123.997
 5543.00    0.94338   0.94079  123.094
 5544.00    0.94188   0.93946  121.860
 5545.00    0.94242   0.93958  120.976
 5546.00    0.94400   0.94107  120.908
 5547.00    0.94753   0.94361  121.704
 5548.00    0.94963   0.94664  122.856
 5549.00    0.94682   0.94905  124.173
 5550.00    0.94610   0.94983  124.564
 5551.00    0.94536   0.94891  124.277
 5552.00    0.94591   0.94707  123.897
 5553.00    0.94498   0.94520  123.714
 5554.00    0.93910   0.94398  123.566
 5555.00    0.94110   0.94371  123.499
 5556.00    0.94291   0.94415  123.865
 5557.00    0.94026   0.94475  124.640
 5558.00    0.94337   0.94516  125.909
 5559.00    0.94592   0.94519  126.657
 5560.00    0.94550   0.94442  126.954
 5561.00    0.94218   0.94263  127.187
 5562.00    0.94012   0.94038  127.238
 5563.00    0.93607   0.93859  126.932
 5564.00    0.93185   0.93751  126.776
 5565.00    0.92943   0.93652  127.130
 5566.00    0.93248   0.93506  127.003
 5567.00    0.93501   0.93314  127.095
 5568.00    0.93928   0.93120  127.343
 5569.00    0.94153   0.92965  126.558
 5570.00    0.97276   0.92827   -1.000
 5571.00    1.05482   0.92655   -1.000
 5572.00    1.11122   0.92508   -1.000
 5573.00    1.06001   0.92524   -1.000
 5574.00    0.91100   0.92734  123.608
 5575.00    0.82002   0.93032   -1.000
 5576.00    0.84330   0.93310   -1.000
 5577.00    0.90607   0.93538  126.416
 5578.00    0.93241   0.93713  125.252
 5579.00    0.93571   0.93799  125.267
 5580.00    0.94232   0.93772  126.456
 5581.00    0.93783   0.93681  129.559
 5582.00    0.93426   0.93589  132.806
 5583.00    0.93694   0.93423  135.382
 5584.00    0.93521   0.92985  135.726
 5585.00    0.92733   0.92187  133.725
 5586.00    0.91550   0.91217  131.344
 5587.00    0.90207   0.90444  129.832
 5588.00    0.89660   0.90158  129.745
 5589.00    0.89948   0.90413  130.098
 5590.00    0.90639   0.91009  128.967
 5591.00    0.92010   0.91610  127.160
 5592.00    0.92591   0.91967  126.626
 5593.00    0.92161   0.92103  128.239
 5594.00    0.91886   0.92224  130.406
 5595.00    0.92068   0.92422  131.407
 5596.00    0.92267   0.92536  131.353
 5597.00    0.92301   0.92407  132.174
 5598.00    0.92140   0.92095  132.224
 5599.00    0.91649   0.91733  129.486
 5600.00    0.91494   0.91380  125.933
 5601.00    0.91303   0.91149  123.397
 5602.00    0.90971   0.91266  122.293
 5603.00    0.91536   0.91854  122.225
 5604.00    0.92241   0.92755  122.458
 5605.00    0.93027   0.93641  122.636
 5606.00    0.93918   0.94263  122.421
 5607.00    0.94320   0.94589  122.213
 5608.00    0.94281   0.94732  123.294
 5609.00    0.94192   0.94815  126.402
 5610.00    0.94558   0.94856  130.685
 5611.00    0.94357   0.94741  132.685
 5612.00    0.93985   0.94278  130.763
 5613.00    0.93082   0.93395  127.735
 5614.00    0.91792   0.92366  126.429
 5615.00    0.90924   0.91731  126.200
 5616.00    0.90930   0.91828  125.574
 5617.00    0.91914   0.92469  125.195
 5618.00    0.93175   0.93179  126.269
 5619.00    0.93584   0.93652  128.936
 5620.00    0.93891   0.93865  130.647
 5621.00    0.93735   0.93870  129.433
 5622.00    0.93034   0.93668  127.175
 5623.00    0.92769   0.93320  125.461
 5624.00    0.92240   0.93025  124.155
 5625.00    0.92354   0.92993  123.413
 5626.00    0.92946   0.93235  123.083
 5627.00    0.93647   0.93579  122.705
 5628.00    0.93948   0.93855  123.088
 5629.00    0.94220   0.94012  124.119
 5630.00    0.94321   0.94090  124.969
 5631.00    0.94091   0.94133  125.778
 5632.00    0.93951   0.94140  126.705
 5633.00    0.94165   0.94088  127.361
 5634.00    0.94034   0.93967  127.256
 5635.00    0.93899   0.93785  127.245
 5636.00    0.93284   0.93576  127.653
 5637.00    0.93103   0.93389  127.542
 5638.00    0.93270   0.93242  126.957
 5639.00    0.93324   0.93108  126.456
 5640.00    0.93225   0.92982  126.131
 5641.00    0.92659   0.92924  125.298
 5642.00    0.92529   0.92993  125.014
 5643.00    0.93113   0.93167  124.717
 5644.00    0.93454   0.93361  124.665
 5645.00    0.93691   0.93515  124.944
 5646.00    0.93772   0.93608  124.658
 5647.00    0.93610   0.93647  123.729
 5648.00    0.93608   0.93638  123.672
 5649.00    0.93864   0.93606  124.350
 5650.00    0.94073   0.93595  125.449
 5651.00    0.93822   0.93611  126.967
 5652.00    0.93796   0.93603  129.901
 5653.00    0.93631   0.93496  133.604
 5654.00    0.93256   0.93218  134.535
 5655.00    0.92887   0.92681  131.958
 5656.00    0.92206   0.91887  129.597
 5657.00    0.91333   0.91088  129.518
 5658.00    0.90516   0.90687  129.354
 5659.00    0.90763   0.90849  127.636
 5660.00    0.91818   0.91329  126.129
 5661.00    0.92077   0.91789  126.057
 5662.00    0.92024   0.92168  126.857
 5663.00    0.92190   0.92566  127.461
 5664.00    0.92921   0.92921  127.432
 5665.00    0.93325   0.93035  126.932
 5666.00    0.93147   0.92859  125.988
 5667.00    0.92789   0.92584  124.821
 5668.00    0.92456   0.92457  123.564
 5669.00    0.92710   0.92571  122.701
 5670.00    0.92919   0.92858  122.955
 5671.00    0.93287   0.93193  123.179
 5672.00    0.93790   0.93473  122.757
 5673.00    0.93989   0.93646  122.811
 5674.00    0.93985   0.93727  123.487
 5675.00    0.93890   0.93770  124.029
 5676.00    0.93447   0.93807  124.984
 5677.00    0.93103   0.93802  126.530
 5678.00    0.93418   0.93698  127.701
 5679.00    0.93628   0.93472  127.581
 5680.00    0.93282   0.93121  126.795
 5681.00    0.92820   0.92671  126.575
 5682.00    0.92525   0.92229  127.538
 5683.00    0.92199   0.91948  128.835
 5684.00    0.92310   0.91903  128.614
 5685.00    0.92229   0.92013  126.733
 5686.00    0.91652   0.92124  124.630
 5687.00    0.91694   0.92166  123.682
 5688.00    0.92094   0.92199  123.076
 5689.00    0.92504   0.92324  123.014
 5690.00    0.92920   0.92576  123.181
 5691.00    0.93153   0.92894  123.339
 5692.00    0.92953   0.93177  123.967
 5693.00    0.92942   0.93360  125.345
 5694.00    0.93376   0.93444  126.717
 5695.00    0.93592   0.93455  127.867
 5696.00    0.93437   0.93397  129.050
 5697.00    0.93110   0.93240  129.104
 5698.00    0.93053   0.92966  127.879
 5699.00    0.92834   0.92623  126.812
 5700.00    0.92483   0.92316  126.949
 5701.00    0.92060   0.92162  128.189
 5702.00    0.91667   0.92206  130.268
 5703.00    0.92220   0.92355  132.641
 5704.00    0.92661   0.92419  134.280
 5705.00    0.92692   0.92259  134.605
 5706.00    0.91956   0.91864  133.872
 5707.00    0.91425   0.91314  131.979
 5708.00    0.90657   0.90756  128.957
 5709.00    0.89979   0.90378  126.086
 5710.00    0.89904   0.90343  124.727
 5711.00    0.90290   0.90687  124.466
 5712.00    0.91297   0.91276  124.160
 5713.00    0.91860   0.91890  123.689
 5714.00    0.92502   0.92369  123.000
 5715.00    0.92904   0.92687  122.253
 5716.00    0.93024   0.92897  121.792
 5717.00    0.92883   0.93053  121.557
 5718.00    0.93034   0.93196  121.389
 5719.00    0.93256   0.93346  121.381
 5720.00    0.93365   0.93484  121.944
 5721.00    0.92955   0.93583  123.130
 5722.00    0.93038   0.93637  124.355
 5723.00    0.93310   0.93637  124.788
 5724.00    0.93298   0.93548  123.926
 5725.00    0.93131   0.93354  123.533
 5726.00    0.92877   0.93113  124.076
 5727.00    0.92784   0.92925  124.380
 5728.00    0.93077   0.92844  123.558
 5729.00    0.92990   0.92853  122.422
 5730.00    0.92742   0.92899  121.981
 5731.00    0.92677   0.92964  122.185
 5732.00    0.92953   0.93076  122.395
 5733.00    0.93121   0.93244  122.702
 5734.00    0.92945   0.93394  122.817
 5735.00    0.93249   0.93455  123.081
 5736.00    0.93541   0.93441  123.283
 5737.00    0.93517   0.93405  123.389
 5738.00    0.93207   0.93382  123.092
 5739.00    0.92752   0.93375  122.741
 5740.00    0.92770   0.93365  121.829
 5741.00    0.92987   0.93338  121.642
 5742.00    0.93237   0.93316  122.620
 5743.00    0.93384   0.93327  123.638
 5744.00    0.93261   0.93351  123.627
 5745.00    0.93100   0.93326  122.904
 5746.00    0.92888   0.93229  123.022
 5747.00    0.92736   0.93125  124.302
 5748.00    0.92623   0.93098  125.769
 5749.00    0.92844   0.93121  126.566
 5750.00    0.93183   0.93063  125.876
 5751.00    0.92695   0.92828  123.875
 5752.00    0.92129   0.92486  121.800
 5753.00    0.92065   0.92254  121.060
 5754.00    0.91979   0.92311  121.934
 5755.00    0.92105   0.92638  123.464
 5756.00    0.92409   0.93066  125.126
 5757.00    0.92725   0.93409  126.475
 5758.00    0.92966   0.93529  126.308
 5759.00    0.92863   0.93385  124.454
 5760.00    0.92796   0.93053  122.404
 5761.00    0.92504   0.92704  121.369
 5762.00    0.92247   0.92547  121.175
 5763.00    0.92410   0.92704  121.034
 5764.00    0.92517   0.93081  120.976
 5765.00    0.92528   0.93445  121.324
 5766.00    0.92929   0.93644  121.831
 5767.00    0.92787   0.93671  122.565
 5768.00    0.93129   0.93600  123.172
 5769.00    0.93116   0.93489  123.379
 5770.00    0.92980   0.93367  123.378
 5771.00    0.93208   0.93244  122.952
 5772.00    0.92814   0.93112  122.481
 5773.00    0.92597   0.92965  122.595
 5774.00    0.92560   0.92820  123.517
 5775.00    0.92511   0.92724  125.805
 5776.00    0.92879   0.92668  128.314
 5777.00    0.92896   0.92560  129.179
 5778.00    0.92702   0.92330  128.693
 5779.00    0.92686   0.91995  128.201
 5780.00    0.92380   0.91639  127.742
 5781.00    0.92530   0.91372  126.924
 5782.00    0.92739   0.91257  125.319
 5783.00    0.92512   0.91270  123.894
 5784.00    0.92344   0.91364  123.401
 5785.00    0.92466   0.91509  123.781
 5786.00    0.92493   0.91693  124.098
 5787.00    0.92806   0.91892  123.532
 5788.00    0.93197   0.92060  122.508
 5789.00    0.93220   0.92158  121.730
 5790.00    0.92975   0.92199  121.238
 5791.00    0.92698   0.92267  121.509
 5792.00    0.92657   0.92437  122.323
 5793.00    0.92983   0.92692  122.598
 5794.00    0.93108   0.92926  121.528
 5795.00    0.93165   0.93022  119.859
 5796.00    0.93446   0.92967  118.716
 5797.00    0.93373   0.92879  119.030
 5798.00    0.93441   0.92897  120.102
 5799.00    0.93600   0.93041  121.037
 5800.00    0.93544   0.93220  121.867
 5801.00    0.93676   0.93334  122.060
 5802.00    0.93732   0.93325  121.646
 5803.00    0.93718   0.93216  121.216
 5804.00    0.93728   0.93098  120.998
 5805.00    0.93411   0.93056  120.979
 5806.00    0.93333   0.93113  120.719
 5807.00    0.93760   0.93227  120.273
 5808.00    0.93907   0.93337  120.158
 5809.00    0.93624   0.93419  120.738
 5810.00    0.93959   0.93476  121.636
 5811.00    0.94241   0.93503  121.693
 5812.00    0.94070   0.93468  120.893
 5813.00    0.94290   0.93344  120.119
 5814.00    0.94279   0.93166  119.503
 5815.00    0.94201   0.93038  118.990
 5816.00    0.94208   0.93054  118.838
 5817.00    0.94044   0.93217  119.168
 5818.00    0.93936   0.93430  119.356
 5819.00    0.94103   0.93595  119.101
 5820.00    0.94462   0.93681  118.918
 5821.00    0.94467   0.93711  118.732
 5822.00    0.94135   0.93713  118.687
 5823.00    0.94196   0.93705  118.813
 5824.00    0.94161   0.93697  118.880
 5825.00    0.94224   0.93707  118.706
 5826.00    0.94091   0.93740  118.690
 5827.00    0.94309   0.93791  118.664
 5828.00    0.94520   0.93851  119.165
 5829.00    0.94565   0.93886  119.768
 5830.00    0.94131   0.93872  119.665
 5831.00    0.94170   0.93809  119.290
 5832.00    0.94445   0.93703  119.326
 5833.00    0.94563   0.93581  119.718
 5834.00    0.94376   0.93488  119.708
 5835.00    0.94275   0.93463  119.067
 5836.00    0.94443   0.93513  118.256
 5837.00    0.94217   0.93616  117.929
 5838.00    0.94145   0.93743  118.155
 5839.00    0.94193   0.93857  118.602
 5840.00    0.93940   0.93911  119.203
 5841.00    0.94158   0.93880  119.948
 5842.00    0.94675   0.93760  120.522
 5843.00    0.94501   0.93578  120.820
 5844.00    0.94098   0.93374  120.759
 5845.00    0.94289   0.93189  121.198
 5846.00    0.94568   0.93052   -1.000
 5847.00    0.94307   0.92971  122.907
 5848.00    0.94058   0.92910  123.903
 5849.00    0.94182   0.92798  124.277
 5850.00    0.94058   0.92573  124.434
 5851.00    0.93793   0.92217   -1.000
 5852.00    0.93553   0.91820   -1.000
 5853.00    0.92698   0.91514  126.661
 5854.00    0.92182   0.91310  125.316
 5855.00    0.92450   0.91079  123.931
 5856.00    0.92444   0.90774   -1.000
 5857.00    0.92647   0.90550   -1.000
 5858.00    0.92776   0.90589   -1.000
 5859.00    0.93034   0.90894   -1.000
 5860.00    0.93445   0.91300   -1.000
 5861.00    0.93748   0.91654   -1.000
 5862.00    0.93764   0.91901   -1.000
 5863.00    0.93375   0.92038  123.080
 5864.00    0.93464   0.92051  121.890
 5865.00    0.93468   0.91961  121.100
 5866.00    0.93411   0.91875  120.828
 5867.00    0.93560   0.91909   -1.000
 5868.00    0.93800   0.92066   -1.000
 5869.00    0.94133   0.92266   -1.000
 5870.00    0.93874   0.92413  121.150
 5871.00    0.93520   0.92453  121.627
 5872.00    0.93806   0.92386  122.008
 5873.00    0.94297   0.92250   -1.000
 5874.00    0.94134   0.92083   -1.000
 5875.00    0.93551   0.91924   -1.000
 5876.00    0.93594   0.91786   -1.000
 5877.00    0.93340   0.91630   -1.000
 5878.00    0.93076   0.91432   -1.000
 5879.00    0.93223   0.91217   -1.000
 5880.00    0.93433   0.91019   -1.000
 5881.00    0.93074   0.90822   -1.000
 5882.00    0.93152   0.90585   -1.000
 5883.00    0.93582   0.90302   -1.000
 5884.00    0.93426   0.89960   -1.000
 5885.00    0.91123   0.89420   -1.000
 5886.00    0.87081   0.88356  149.191
 5887.00    0.84387   0.86526  143.765
 5888.00    0.84470   0.84267  139.206
 5889.00    0.85886   0.82560   -1.000
 5890.00    0.86345   0.82195   -1.000
 5891.00    0.85902   0.83029   -1.000
 5892.00    0.85606   0.84087  141.303
 5893.00    0.85719   0.84442  136.516
 5894.00    0.86267   0.83971   -1.000
 5895.00    0.86423   0.83412   -1.000
 5896.00    0.86624   0.83614   -1.000
 5897.00    0.88180   0.84678   -1.000
 5898.00    0.90333   0.86125   -1.000
 5899.00    0.91964   0.87470   -1.000
 5900.00    0.92803   0.88512   -1.000
 5901.00    0.93078   0.89254   -1.000
 5902.00    0.93125   0.89759   -1.000
 5903.00    0.92974   0.90085   -1.000
 5904.00    0.92818   0.90285   -1.000
 5905.00    0.92686   0.90415   -1.000
 5906.00    0.92629   0.90510   -1.000
 5907.00    0.92864   0.90593   -1.000
 5908.00    0.92935   0.90676   -1.000
 5909.00    0.92759   0.90733   -1.000
 5910.00    0.92963   0.90711   -1.000
 5911.00    0.92886   0.90562   -1.000
 5912.00    0.92145   0.90269   -1.000
 5913.00    0.91503   0.89894  126.191
 5914.00    0.90979   0.89568  125.760
 5915.00    0.90980   0.89406  125.401
 5916.00    0.91793   0.89427   -1.000
 5917.00    0.92423   0.89590   -1.000
 5918.00    0.92475   0.89818   -1.000
 5919.00    0.92237   0.90023   -1.000
 5920.00    0.91740   0.90156  124.305
 5921.00    0.92077   0.90224   -1.000
 5922.00    0.92483   0.90265   -1.000
 5923.00    0.92516   0.90340   -1.000
 5924.00    0.92453   0.90467   -1.000
 5925.00    0.92460   0.90602   -1.000
 5926.00    0.92811   0.90671   -1.000
 5927.00    0.92899   0.90616   -1.000
 5928.00    0.92628   0.90447   -1.000
 5929.00    0.92125   0.90282   -1.000
 5930.00    0.91830   0.90241  126.261
 5931.00    0.92105   0.90309   -1.000
 5932.00    0.92273   0.90390   -1.000
 5933.00    0.92472   0.90407   -1.000
 5934.00    0.92348   0.90386   -1.000
 5935.00    0.91866   0.90399  125.106
 5936.00    0.91343   0.90463  126.160
 5937.00    0.91273   0.90501  126.398
 5938.00    0.91509   0.90428  125.922
 5939.00    0.91612   0.90246  125.135
 5940.00    0.91544   0.90034  124.532
 5941.00    0.91244   0.89876  124.490
 5942.00    0.91160   0.89817  125.303
 5943.00    0.91318   0.89876  126.590
 5944.00    0.91559   0.89993   -1.000
 5945.00    0.91991   0.90063   -1.000
 5946.00    0.91916   0.90022   -1.000
 5947.00    0.91703   0.89917   -1.000
 5948.00    0.91677   0.89872   -1.000
 5949.00    0.91562   0.89945   -1.000
 5950.00    0.91529   0.90063  126.299
 5951.00    0.91441   0.90152  126.606
 5952.00    0.91371   0.90187  126.990
 5953.00    0.91138   0.90178  126.784
 5954.00    0.91136   0.90113  125.731
 5955.00    0.91491   0.90002  124.334
 5956.00    0.91383   0.89916  123.541
 5957.00    0.91182   0.89935  123.290
 5958.00    0.91410   0.90086  123.396
 5959.00    0.91766   0.90311  123.926
 5960.00    0.92006   0.90535  124.498
 5961.00    0.92071   0.90694  124.907
 5962.00    0.92041   0.90739  124.976
 5963.00    0.91896   0.90660  124.268
 5964.00    0.91844   0.90497  123.618
 5965.00    0.91863   0.90335  123.521
 5966.00    0.91798   0.90252  123.371
 5967.00    0.91683   0.90272  123.151
 5968.00    0.91675   0.90364  123.461
 5969.00    0.91788   0.90489  124.365
 5970.00    0.91778   0.90608  125.350
 5971.00    0.91694   0.90682  126.268
 5972.00    0.91706   0.90681  126.987
 5973.00    0.91669   0.90596  126.914
 5974.00    0.91289   0.90417  125.977
 5975.00    0.90883   0.90185  125.196
 5976.00    0.91018   0.89994  125.192
 5977.00    0.91332   0.89922  125.940
 5978.00    0.91351   0.89996  127.064
 5979.00    0.91296   0.90150  127.914
 5980.00    0.91424   0.90259  127.913
 5981.00    0.91657   0.90221  126.891
 5982.00    0.91449   0.90037  125.816
 5983.00    0.91096   0.89809  125.298
 5984.00    0.90880   0.89672  124.788
 5985.00    0.90574   0.89687  124.601
 5986.00    0.90621   0.89811  124.914
 5987.00    0.91165   0.89960  124.700
 5988.00    0.91247   0.90065  123.776
 5989.00    0.91168   0.90096  123.098
 5990.00    0.91288   0.90095  123.474
 5991.00    0.91282   0.90151  124.420
 5992.00    0.91202   0.90306  125.095
 5993.00    0.91028   0.90502  125.462
 5994.00    0.91032   0.90618  125.435
 5995.00    0.91054   0.90588  125.369
 5996.00    0.91081   0.90457  125.874
 5997.00    0.90990   0.90330  126.482
 5998.00    0.90864   0.90278  126.608
 5999.00    0.91070   0.90272  126.364
 6000.00    0.91019   0.90240  126.241
 6001.00    0.90635   0.90157  126.828
 6002.00    0.90608   0.90056  128.010
 6003.00    0.90766   0.89975  128.586
 6004.00    0.90728   0.89887  127.639
 6005.00    0.90517   0.89737  126.162
 6006.00    0.90320   0.89535  125.652
 6007.00    0.90190   0.89387  126.324
 6008.00    0.90121   0.89414  127.176
 6009.00    0.90111   0.89604  127.070
 6010.00    0.90217   0.89807  126.698
 6011.00    0.90400   0.89900  127.070
 6012.00    0.90683   0.89894  127.484
 6013.00    0.90768   0.89877  127.373
 6014.00    0.90510   0.89891  127.417
 6015.00    0.90360   0.89889  128.112
 6016.00    0.90433   0.89832  128.198
 6017.00    0.90293   0.89720  127.388
 6018.00    0.90172   0.89576  126.851
 6019.00    0.90044   0.89442  126.687
 6020.00    0.89968   0.89360  126.176
 6021.00    0.89990   0.89341  125.596
 6022.00    0.89894   0.89377  125.011
 6023.00    0.89699   0.89477  124.326
 6024.00    0.89581   0.89642  124.024
 6025.00    0.89819   0.89840  123.994
 6026.00    0.90256   0.90025  124.189
 6027.00    0.90404   0.90178  124.194
 6028.00    0.90274   0.90290  123.735
 6029.00    0.90413   0.90365  123.306
 6030.00    0.90644   0.90424  123.165
 6031.00    0.90579   0.90475  123.021
 6032.00    0.90358   0.90525  122.991
 6033.00    0.90323   0.90583  123.491
 6034.00    0.90492   0.90652  123.965
 6035.00    0.90556   0.90690  124.263
 6036.00    0.90442   0.90641  124.283
 6037.00    0.90336   0.90503  124.026
 6038.00    0.90430   0.90312  123.593
 6039.00    0.90407   0.90091  122.710
 6040.00    0.90306   0.89846  122.338
 6041.00    0.90171   0.89555  122.460
 6042.00    0.90097   0.89303  122.335
 6043.00    0.90176   0.89339  122.313
 6044.00    0.90064   0.89694  122.644
 6045.00    0.90141   0.90132  122.999
 6046.00    0.90375   0.90435  123.162
 6047.00    0.90266   0.90552  123.340
 6048.00    0.90345   0.90529  123.749
 6049.00    0.90625   0.90439  124.196
 6050.00    0.90585   0.90348  124.753
 6051.00    0.90212   0.90268  125.281
 6052.00    0.90124   0.90188  125.276
 6053.00    0.90348   0.90087  124.753
 6054.00    0.89781   0.89965  124.079
 6055.00    0.88106   0.89850  123.922
 6056.00    0.88137   0.89782  124.202
 6057.00    0.90683   0.89775  125.395
 6058.00    0.84532   0.89818   -1.000
 6059.00    0.59088   0.89871   -1.000
 6060.00    0.64887   0.89861   -1.000
 6061.00    0.87707   0.89714   60.832
 6062.00    0.90136   0.89411   60.488
 6063.00    0.82558   0.89038   -1.000
 6064.00    0.43884   0.88759   -1.000
 6065.00    0.50309   0.88740   -1.000
 6066.00    0.86195   0.89017  119.800
 6067.00    0.89669   0.89441  120.875
 6068.00    0.89315   0.89820  122.659
 6069.00    0.89706   0.90072  122.912
 6070.00    0.89864   0.90216  123.193
 6071.00    0.89824   0.90307  123.771
 6072.00    0.89716   0.90367  124.466
 6073.00    0.89691   0.90370  125.342
 6074.00    0.89758   0.90292  126.205
 6075.00    0.89577   0.90136  126.525
 6076.00    0.89186   0.89944  126.583
 6077.00    0.88946   0.89773  126.864
 6078.00    0.89116   0.89655  127.010
 6079.00    0.89225   0.89579  126.924
 6080.00    0.89072   0.89504  126.803
 6081.00    0.88945   0.89404  126.520
 6082.00    0.88663   0.89305  126.048
 6083.00    0.88493   0.89257  126.005
 6084.00    0.88685   0.89278  126.625
 6085.00    0.89054   0.89344  127.274
 6086.00    0.89172   0.89429  127.417
 6087.00    0.88939   0.89499  126.844
 6088.00    0.89002   0.89512  126.104
 6089.00    0.88987   0.89449  125.437
 6090.00    0.88683   0.89339  124.823
 6091.00    0.88555   0.89266  124.663
 6092.00    0.88643   0.89289  124.909
 6093.00    0.88946   0.89406  125.086
 6094.00    0.89132   0.89572  125.106
 6095.00    0.89023   0.89736  126.054
 6096.00    0.88937   0.89871  128.656
 6097.00    0.88763   0.89939  131.216
 6098.00    0.88773   0.89861  131.304
 6099.00    0.88807   0.89550  129.198
 6100.00    0.88200   0.88993  126.997
 6101.00    0.87443   0.88342  126.059
 6102.00    0.86913   0.87899  126.284
 6103.00    0.86792   0.87881  126.697
 6104.00    0.87282   0.88246  126.760
 6105.00    0.87757   0.88751  126.547
 6106.00    0.87946   0.89197  126.080
 6107.00    0.88233   0.89520  125.851
 6108.00    0.88410   0.89734  125.440
 6109.00    0.88390   0.89841  124.967
 6110.00    0.88527   0.89840  125.198
 6111.00    0.88651   0.89769  125.947
 6112.00    0.88674   0.89703  126.370
 6113.00    0.88754   0.89678  126.791
 6114.00    0.88653   0.89681  128.231
 6115.00    0.88438   0.89675  130.033
 6116.00    0.88383   0.89614  131.412
 6117.00    0.88253   0.89422  131.898
 6118.00    0.88261   0.88990  130.475
 6119.00    0.88274   0.88341  128.536
 6120.00    0.87619   0.87638  127.972
 6121.00    0.86709   0.87141  128.525
 6122.00    0.86236   0.87133  128.708
 6123.00    0.86523   0.87592  128.415
 6124.00    0.87098   0.88205  127.628
 6125.00    0.87648   0.88677  126.436
 6126.00    0.87921   0.88883  125.852
 6127.00    0.87805   0.88881  125.970
 6128.00    0.87804   0.88862  126.860
 6129.00    0.88045   0.89005  129.212
 6130.00    0.87987   0.89277  132.827
 6131.00    0.87828   0.89498  136.420
 6132.00    0.87679   0.89477  137.810
 6133.00    0.87525   0.89060  135.484
 6134.00    0.87113   0.88218  131.624
 6135.00    0.86069   0.87170  129.407
 6136.00    0.84650   0.86365  129.190
 6137.00    0.83801   0.86133  129.474
 6138.00    0.84200   0.86388  128.654
 6139.00    0.85212   0.86741  127.116
 6140.00    0.86018   0.86964  126.481
 6141.00    0.85849   0.87181  126.876
 6142.00    0.85647   0.87561  127.642
 6143.00    0.86359   0.88054  128.539
 6144.00    0.87103   0.88453  129.354
 6145.00    0.87454   0.88609  129.597
 6146.00    0.87522   0.88533  129.241
 6147.00    0.87289   0.88339  128.455
 6148.00    0.87236   0.88168  128.040
 6149.00    0.87157   0.88118  128.769
 6150.00    0.86895   0.88197  129.627
 6151.00    0.86888   0.88333  129.873
 6152.00    0.87098   0.88425  130.248
 6153.00    0.87307   0.88404  131.394
 6154.00    0.87357   0.88277  133.592
 6155.00    0.87102   0.88105  137.226
 6156.00    0.87066   0.87921  141.348
 6157.00    0.87183   0.87689  143.559
 6158.00    0.86998   0.87297  142.388
 6159.00    0.86721   0.86619  138.859
 6160.00    0.86015   0.85706  136.139
 6161.00    0.85002   0.84893  135.179
 6162.00    0.84233   0.84562  135.301
 6163.00    0.84266   0.84797  136.672
 6164.00    0.85491   0.85342  138.245
 6165.00    0.86200   0.85856  137.933
 6166.00    0.86114   0.86137  135.639
 6167.00    0.85993   0.86156  133.461
 6168.00    0.85689   0.86018  133.030
 6169.00    0.85268   0.85934  133.229
 6170.00    0.85274   0.86077  133.015
 6171.00    0.85845   0.86429  132.722
 6172.00    0.85809   0.86845  132.400
 6173.00    0.85800   0.87206  131.824
 6174.00    0.86402   0.87475  131.282
 6175.00    0.86571   0.87642  130.856
 6176.00    0.86392   0.87726  130.302
 6177.00    0.86665   0.87764  129.883
 6178.00    0.86998   0.87779  129.988
 6179.00    0.86986   0.87797  130.416
 6180.00    0.86700   0.87842  131.297
 6181.00    0.86762   0.87906  132.655
 6182.00    0.87181   0.87952  134.066
 6183.00    0.87078   0.87954  135.368
 6184.00    0.86883   0.87899  136.430
 6185.00    0.87013   0.87768  137.984
 6186.00    0.87119   0.87549  139.171
 6187.00    0.86675   0.87231  138.246
 6188.00    0.86078   0.86788  135.218
 6189.00    0.85720   0.86267  132.624
 6190.00    0.85233   0.85846  131.497
 6191.00    0.84693   0.85757  131.182
 6192.00    0.84564   0.86077  131.771
 6193.00    0.85392   0.86639  133.171
 6194.00    0.86310   0.87190  134.409
 6195.00    0.86569   0.87566  134.589
 6196.00    0.86775   0.87717  133.502
 6197.00    0.86762   0.87663  131.861
 6198.00    0.86532   0.87495  131.140
 6199.00    0.86171   0.87381  131.109
 6200.00    0.85645   0.87444  130.954
 6201.00    0.85506   0.87668  130.880
 6202.00    0.85932   0.87941  131.267
 6203.00    0.86475   0.88154  131.413
 6204.00    0.86720   0.88271  131.812
 6205.00    0.86483   0.88315  132.893
 6206.00    0.86481   0.88320  134.002
 6207.00    0.86698   0.88293  135.236
 6208.00    0.86677   0.88220  137.130
 6209.00    0.86386   0.88072  138.729
 6210.00    0.85871   0.87828  139.322
 6211.00    0.85659   0.87482  138.009
 6212.00    0.85260   0.87073  136.967
 6213.00    0.84638   0.86701  137.644
 6214.00    0.85766   0.86458  137.589
 6215.00    0.79784   0.86353   -1.000
 6216.00    0.74167   0.86316   -1.000
 6217.00    0.81418   0.86266   -1.000
 6218.00    0.84925   0.86195  144.315
 6219.00    0.84360   0.86169  137.390
 6220.00    0.84590   0.86253  135.545
 6221.00    0.85160   0.86436  135.769
 6222.00    0.85580   0.86629  136.344
 6223.00    0.85778   0.86766  137.971
 6224.00    0.86111   0.86843  140.210
 6225.00    0.86294   0.86849  142.148
 6226.00    0.85823   0.86733  142.113
 6227.00    0.85439   0.86424  140.322
 6228.00    0.85026   0.85921  137.773
 6229.00    0.84319   0.85370  135.423
 6230.00    0.83744   0.85013  134.431
 6231.00    0.83609   0.85030  135.021
 6232.00    0.83786   0.85398  136.332
 6233.00    0.84331   0.85917  137.728
 6234.00    0.84810   0.86344  139.182
 6235.00    0.85066   0.86517  139.982
 6236.00    0.85197   0.86426  140.045
 6237.00    0.85067   0.86182  140.798
 6238.00    0.84802   0.85926  141.797
 6239.00    0.84603   0.85756  141.939
 6240.00    0.84816   0.85665  141.188
 6241.00    0.84998   0.85561  139.878
 6242.00    0.84927   0.85361  138.169
 6243.00    0.84430   0.85073  136.641
 6244.00    0.84005   0.84801  136.213
 6245.00    0.83771   0.84694  137.193
 6246.00    0.83407   0.84853  139.489
 6247.00    0.83350   0.85224  141.456
 6248.00    0.84136   0.85613  142.567
 6249.00    0.84357   0.85801  143.077
 6250.00    0.84351   0.85671  143.107
 6251.00    0.84044   0.85298  144.082
 6252.00    0.83221   0.84893  145.426
 6253.00    0.82128   0.84631  145.238
 6254.00    0.81985   0.84549  143.336
 6255.00    0.82061   0.84577  141.135
 6256.00    0.82213   0.84637  139.181
 6257.00    0.82757   0.84725  137.086
 6258.00    0.82988   0.84889  136.064
 6259.00    0.83533   0.85158  136.797
 6260.00    0.83940   0.85500  137.801
 6261.00    0.83875   0.85839  137.516
 6262.00    0.83753   0.86094  136.549
 6263.00    0.83871   0.86224  136.693
 6264.00    0.83788   0.86257  137.391
 6265.00    0.83587   0.86270  137.407
 6266.00    0.83717   0.86300  136.968
 6267.00    0.84105   0.86294  136.607
 6268.00    0.84074   0.86204  136.822
 6269.00    0.83525   0.86051  137.700
 6270.00    0.82530   0.85889   -1.000
 6271.00    0.81198   0.85728   -1.000
 6272.00    0.79602   0.85500   -1.000
 6273.00    0.78589   0.85120   -1.000
 6274.00    0.78925   0.84566   -1.000
 6275.00    0.80103   0.83926   -1.000
 6276.00    0.80758   0.83341  145.981
 6277.00    0.81115   0.82939  143.456
 6278.00    0.81335   0.82784  141.186
 6279.00    0.81851   0.82882  139.391
 6280.00    0.82359   0.83216  138.142
 6281.00    0.82905   0.83733  136.918
 6282.00    0.83137   0.84335  135.894
 6283.00    0.83042   0.84909  135.490
 6284.00    0.82862   0.85365  136.022
 6285.00    0.82643   0.85671   -1.000
 6286.00    0.82320   0.85835   -1.000
 6287.00    0.82632   0.85860   -1.000
 6288.00    0.83123   0.85745  138.758
 6289.00    0.83361   0.85537  138.985
 6290.00    0.84157   0.85320  139.896
 6291.00    0.86500   0.85161  140.878
 6292.00    0.90975   0.85057   -1.000
 6293.00    0.97815   0.84951   -1.000
 6294.00    1.05812   0.84788   -1.000
 6295.00    1.08118   0.84566   -1.000
 6296.00    0.99514   0.84347   -1.000
 6297.00    0.85747   0.84189   -1.000
 6298.00    0.78070   0.84105   -1.000
 6299.00    0.79251   0.84059   -1.000
 6300.00    0.81469   0.84047  137.766
 6301.00    0.81966   0.84138  136.502
 6302.00    0.82026   0.84377  135.284
 6303.00    0.82309   0.84714  134.860
 6304.00    0.82816   0.85040  135.321
 6305.00    0.83285   0.85282  136.200
 6306.00    0.83550   0.85453  136.811
 6307.00    0.83803   0.85577  137.356
 6308.00    0.84031   0.85659  137.572
 6309.00    0.83944   0.85689  138.611
 6310.00    0.83756   0.85648  139.296
 6311.00    0.83946   0.85540  139.292
 6312.00    0.83992   0.85379  139.153
 6313.00    0.84075   0.85186  139.285
 6314.00    0.83713   0.84987  138.918
 6315.00    0.83397   0.84803  137.436
 6316.00    0.83420   0.84657  136.002
 6317.00    0.83144   0.84601  135.336
 6318.00    0.83082   0.84709  134.889
 6319.00    0.82977   0.84971  134.208
 6320.00    0.83391   0.85292  133.722
 6321.00    0.83699   0.85594  133.593
 6322.00    0.84161   0.85857  133.038
 6323.00    0.84671   0.86080  133.002
 6324.00    0.84782   0.86233  133.123
 6325.00    0.84410   0.86288  133.213
 6326.00    0.84358   0.86271  132.833
 6327.00    0.83764   0.86223  132.551
 6328.00    0.84211   0.86177  132.813
 6329.00    0.85134   0.86157  133.165
 6330.00    0.85014   0.86152  135.772
 6331.00    0.84645   0.86109  136.681
 6332.00    0.85034   0.85940  135.717
 6333.00    0.84884   0.85612  134.351
 6334.00    0.84274   0.85208  132.884
 6335.00    0.83863   0.84923  132.087
 6336.00    0.83698   0.84901  131.458
 6337.00    0.83711   0.85112  131.424
 6338.00    0.84523   0.85418  132.443
 6339.00    0.85154   0.85679  132.836
 6340.00    0.85378   0.85827  132.541
 6341.00    0.85338   0.85853  131.873
 6342.00    0.85183   0.85770  130.975
 6343.00    0.85148   0.85619  130.400
 6344.00    0.85324   0.85468  130.347
 6345.00    0.85335   0.85389  130.125
 6346.00    0.85106   0.85442  130.168
 6347.00    0.85276   0.85641  130.665
 6348.00    0.85776   0.85931  131.269
 6349.00    0.86110   0.86210  132.630
 6350.00    0.86106   0.86379  133.864
 6351.00    0.85829   0.86392  134.100
 6352.00    0.85864   0.86272  134.413
 6353.00    0.85901   0.86089  135.770
 6354.00    0.85903   0.85915  136.539
 6355.00    0.87059   0.85772  136.156
 6356.00    0.88701   0.85637   -1.000
 6357.00    0.91542   0.85481   -1.000
 6358.00    0.93050   0.85310   -1.000
 6359.00    0.91426   0.85151   -1.000
 6360.00    0.87886   0.85018   -1.000
 6361.00    0.84822   0.84934  132.658
 6362.00    0.84409   0.84937  131.836
 6363.00    0.85050   0.85053  130.958
 6364.00    0.85013   0.85251  130.533
 6365.00    0.84711   0.85455  130.568
 6366.00    0.84848   0.85605  130.220
 6367.00    0.85024   0.85664  129.703
 6368.00    0.84803   0.85626  129.910
 6369.00    0.84580   0.85536  130.067
 6370.00    0.84619   0.85473  130.314
 6371.00    0.84645   0.85497  130.771
 6372.00    0.84583   0.85610  131.414
 6373.00    0.84329   0.85748  132.281
 6374.00    0.83926   0.85826  132.853
 6375.00    0.83952   0.85816  132.998
 6376.00    0.83882   0.85734  133.223
 6377.00    0.83430   0.85613  133.237
 6378.00    0.83177   0.85484  132.921
 6379.00    0.82843   0.85370  133.389
 6380.00    0.82623   0.85292  133.761
 6381.00    0.82522   0.85262  133.704
 6382.00    0.81942   0.85280   -1.000
 6383.00    0.81677   0.85340   -1.000
 6384.00    0.81802   0.85430   -1.000
 6385.00    0.81364   0.85540   -1.000
 6386.00    0.80792   0.85647   -1.000
 6387.00    0.80615   0.85704   -1.000
 6388.00    0.80260   0.85665   -1.000
 6389.00    0.79774   0.85494   -1.000
 6390.00    0.79379   0.85177   -1.000
 6391.00    0.78928   0.84778   -1.000
 6392.00    0.78142   0.84452   -1.000
 6393.00    0.77186   0.84365   -1.000
 6394.00    0.76785   0.84536   -1.000
 6395.00    0.76972   0.84796   -1.000
 6396.00    0.76911   0.84922   -1.000
 6397.00    0.76505   0.84803   -1.000
 6398.00    0.75689   0.84534   -1.000
 6399.00    0.74565   0.84347   -1.000
 6400.00    0.73773   0.84423   -1.000
 6401.00    0.73774   0.84744   -1.000
 6402.00    0.74211   0.85128   -1.000
 6403.00    0.74467   0.85377   -1.000
 6404.00    0.74157   0.85381   -1.000
 6405.00    0.73442   0.85138   -1.000
 6406.00    0.72870   0.84756   -1.000
 6407.00    0.72239   0.84392   -1.000
 6408.00    0.71613   0.84206   -1.000
 6409.00    0.70822   0.84256   -1.000
 6410.00    0.69990   0.84403   -1.000
 6411.00    0.69627   0.84540   -1.000
 6412.00    0.69246   0.84647   -1.000
 6413.00    0.68811   0.84734   -1.000
 6414.00    0.68535   0.84809   -1.000
 6415.00    0.67962   0.84880   -1.000
 6416.00    0.67255   0.84924   -1.000
 6417.00    0.66667   0.84874   -1.000
 6418.00    0.66161   0.84711   -1.000
 6419.00    0.65319   0.84510   -1.000
 6420.00    0.64227   0.84423   -1.000
 6421.00    0.63080   0.84553   -1.000
 6422.00    0.62458   0.84870   -1.000
 6423.00    0.62447   0.85248   -1.000
 6424.00    0.62069   0.85568   -1.000
 6425.00    0.61341   0.85761   -1.000
 6426.00    0.12457   0.85779   -1.000
 6427.00    0.00000   0.85584   -2.000
 6428.00    0.00000   0.85192   -2.000
