###################################################################
## OUTPUT of StarlightChains_v04.for    [Cid@UFSC - 01/Apr/2007] ##
###################################################################

## Some input info
NGC2808_a_1.cxt                          [arq_obs]
Base.BC03.S                              [arq_base]
NGC2808_a_1.msk                          [arq_masks]
StCv04.C99.config                        [arq_config]
  150                                    [N_base]
    0                                    [N_YAV_components = # of components with extra extinction!]
    0                                    [i_FitPowerLaw (1/0 = Yes/No)]
-9.99                                    [alpha_PowerLaw]
CCM                                      [red_law_option]
 1.458241                                [q_norm = A(l_norm)/A(V)]

## (Re)Sampling Parameters
 3359.00                                 [l_ini (A)]
 6428.00                                 [l_fin (A)]
    1.00                                 [dl    (A)]     (OBS: dl_cushion =    50.00 A)

## Normalization info
 4020.00                                 [l_norm (A) - for base]
 4010.00                                 [llow_norm (A) - window for f_obs]
 4060.00                                 [lupp_norm (A) - window for f_obs]
8.660000E-14                             [fobs_norm (in input units)]

## S/N
 4730.00                                 [llow_SN (A) - window for S/N]
 4780.00                                 [lupp_SN (A) - window for S/N]
  64.505                                 [S/N in S/N window]
  51.490                                 [S/N in norm. window]
 409.712                                 [S/N_err in S/N window]
 327.043                                 [S/N_err in norm. window]
  1.0000                                 [fscale_chi2]

## etc...
  2147483642                             [idum_orig]
  3066                                   [NOl_eff]
   655                                   [Nl_eff]
  2411    NSIGMA                         [Ntot_cliped & clip_method]
  3396960                                [Nglobal_steps]
   7                                     [N_chains]
  17                                     [NEX0s_base = N_base in EX0s-fits]
 0   0   1      258   2.0   6.881E+02    [Clip-Bug, RC-Crash & Burn-In warning-flags, n_censored_weights, wei_nsig_threshold & wei_limit]
   158    158.130    158.121      0.008  [idt_all, wdt_TotTime, wdt_UsrTime & wdt_SysTime (sec)]

## Synthesis Results - Best model ##

 2.95474E+00                             [chi2/Nl_eff]
     0.59392                             [adev (%)]

   100.95694                             [sum-of-x (%)]
 1.99428E-13                             [Flux_tot (units of input spectrum!)]
 4.69600E-09                             [Mini_tot (???)]
 2.36343E-09                             [Mcor_tot (???)]

 -11.22                                  [v0_min  (km/s)]
  51.94                                  [vd_min  (km/s)]
 0.6140                                  [AV_min  (mag)]
 0.0000                                  [YAV_min (mag)]

# j     x_j(%)      Mini_j(%)     Mcor_j(%)     age_j(yr)     Z_j      (L/M)_j    YAV?  Mstars   component_j        a/Fe...       SSP_chi2r SSP_adev(%)   SSP_AV   SSP_x(%)
  1      0.0000     0.0000E+00    0.0000E+00    1.000000E+06  0.00010  8.160E-03    0   1.0000   age020_m22            0.0000     2.2376E+03    13.8962   4.0000    81.3700
  2     17.7184     1.5661E-02    3.1118E-02    3.160000E+06  0.00010  4.759E-02    0   1.0000   age045_m22            0.0000     4.3404E+02     5.6459   2.1568    98.3569
  3      0.0000     0.0000E+00    0.0000E+00    5.010000E+06  0.00010  1.932E-02    0   0.9582   age055_m22            0.0000     2.0826E+03    13.0517   2.4332    85.3225
  4      0.0000     0.0000E+00    0.0000E+00    6.610000E+06  0.00010  9.973E-03    0   0.9297   age061_m22            0.0000     2.3058E+03    14.0681   4.0000    83.6082
  5      0.0000     0.0000E+00    0.0000E+00    8.710000E+06  0.00010  7.690E-03    0   0.9030   age067_m22            0.0000     2.1653E+03    13.7230   4.0000    83.9134
  6      0.0000     0.0000E+00    0.0000E+00    1.000000E+07  0.00010  6.375E-03    0   0.8902   age070_m22            0.0000     2.0878E+03    13.4778   4.0000    84.3905
  7      0.0000     0.0000E+00    0.0000E+00    1.445000E+07  0.00010  4.874E-03    0   0.8589   age078_m22            0.0000     1.4649E+03    11.6814   3.9320    84.9987
  8      0.0000     0.0000E+00    0.0000E+00    2.512000E+07  0.00010  4.103E-03    0   0.8174   age090_m22            0.0000     8.1237E+02     8.8585   3.5359    91.2922
  9      0.0000     0.0000E+00    0.0000E+00    4.000000E+07  0.00010  3.654E-03    0   0.7830   age104_m22            0.0000     7.9644E+02     7.5959   3.2491    95.9163
 10      0.0000     0.0000E+00    0.0000E+00    5.500000E+07  0.00010  3.093E-03    0   0.7597   age110_m22            0.0000     8.6675E+02     7.3984   3.1515    97.4718
 11      0.0000     0.0000E+00    0.0000E+00    1.015200E+08  0.00010  2.431E-03    0   0.7138   age116_m22            0.0000     1.1512E+03     7.8820   2.8041   100.4945
 12      0.0000     0.0000E+00    0.0000E+00    1.609000E+08  0.00010  1.319E-03    0   0.6775   age120_m22            0.0000     1.1430E+03     7.4456   2.3236   103.0046
 13      0.0000     0.0000E+00    0.0000E+00    2.861200E+08  0.00010  1.075E-03    0   0.6412   age125_m22            0.0000     2.6131E+03    10.8883   2.4140   106.1722
 14      0.0000     0.0000E+00    0.0000E+00    5.088000E+08  0.00010  7.183E-04    0   0.6083   age130_m22            0.0000     3.1196E+03    11.8489   2.1847   107.9846
 15      0.0000     0.0000E+00    0.0000E+00    9.047900E+08  0.00010  4.524E-04    0   0.5785   age135_m22            0.0000     3.1355E+03    11.8467   1.9778   109.3905
 16      0.0000     0.0000E+00    0.0000E+00    1.278050E+09  0.00010  3.018E-04    0   0.5588   age138_m22            0.0000     1.6016E+03     8.2989   1.4237   108.1387
 17      0.0000     0.0000E+00    0.0000E+00    1.434000E+09  0.00010  2.691E-04    0   0.5532   age139_m22            0.0000     1.3290E+03     7.5257   1.2624   107.7007
 18      0.0000     0.0000E+00    0.0000E+00    2.500000E+09  0.00010  1.582E-04    0   0.5296   age150_m22            0.0000     1.1716E+03     7.1070   1.1419   108.5609
 19      0.0000     0.0000E+00    0.0000E+00    4.250000E+09  0.00010  1.007E-04    0   0.5110   age158_m22            0.0000     6.8485E+02     5.4563   0.9835   106.9157
 20      0.0000     0.0000E+00    0.0000E+00    6.250000E+09  0.00010  6.869E-05    0   0.4985   age166_m22            0.0000     3.4467E+02     3.9064   0.9214   104.1385
 21      0.0000     0.0000E+00    0.0000E+00    7.500000E+09  0.00010  5.873E-05    0   0.4931   age171_m22            0.0000     3.1869E+02     3.8382   0.9076   103.6004
 22      0.0000     0.0000E+00    0.0000E+00    1.000000E+10  0.00010  4.481E-05    0   0.4854   age181_m22            0.0000     3.0218E+02     3.7554   0.8692   103.2290
 23      0.0000     0.0000E+00    0.0000E+00    1.300000E+10  0.00010  3.489E-05    0   0.4791   age193_m22            0.0000     2.6131E+02     3.4900   0.8116   102.6886
 24      0.0000     0.0000E+00    0.0000E+00    1.500000E+10  0.00010  3.035E-05    0   0.4766   age201_m22            0.0000     2.3795E+02     3.3365   0.7715   102.5222
 25      1.9044     3.1916E+00    3.0028E+00    1.800000E+10  0.00010  2.510E-05    0   0.4735   age213_m22            0.0000     1.8877E+02     2.9807   0.7012   101.9381
 26      0.0000     0.0000E+00    0.0000E+00    1.000000E+06  0.00040  8.458E-03    0   1.0000   age020_m32            0.0000     2.2813E+03    13.9220   4.0000    82.3766
 27      0.0000     0.0000E+00    0.0000E+00    3.160000E+06  0.00040  3.973E-02    0   1.0000   age045_m32            0.0000     8.7066E+02     9.1099   3.4309    91.3467
 28      0.0000     0.0000E+00    0.0000E+00    5.010000E+06  0.00040  1.935E-02    0   0.9532   age055_m32            0.0000     1.7516E+03    12.6217   3.6452    85.4895
 29      0.0000     0.0000E+00    0.0000E+00    6.610000E+06  0.00040  1.204E-02    0   0.9243   age061_m32            0.0000     1.8537E+03    12.8452   3.9616    83.5383
 30      0.0000     0.0000E+00    0.0000E+00    8.710000E+06  0.00040  9.433E-03    0   0.9001   age067_m32            0.0000     1.6654E+03    12.3173   3.9342    84.4624
 31      0.0000     0.0000E+00    0.0000E+00    1.000000E+07  0.00040  8.053E-03    0   0.8877   age070_m32            0.0000     1.5941E+03    12.1108   3.8995    84.9019
 32      0.0000     0.0000E+00    0.0000E+00    1.445000E+07  0.00040  7.027E-03    0   0.8578   age078_m32            0.0000     1.1051E+03    10.3677   3.3769    90.1207
 33      0.0000     0.0000E+00    0.0000E+00    2.512000E+07  0.00040  4.707E-03    0   0.8166   age090_m32            0.0000     8.1195E+02     8.6263   3.0853    94.0794
 34      0.0000     0.0000E+00    0.0000E+00    4.000000E+07  0.00040  3.714E-03    0   0.7827   age104_m32            0.0000     7.7174E+02     7.5131   2.8905    97.4164
 35      0.0000     0.0000E+00    0.0000E+00    5.500000E+07  0.00040  2.982E-03    0   0.7593   age110_m32            0.0000     8.4032E+02     7.3673   2.8329    98.5631
 36      0.0000     0.0000E+00    0.0000E+00    1.015200E+08  0.00040  2.188E-03    0   0.7143   age116_m32            0.0000     1.5081E+03     8.6141   2.5831   102.7944
 37      0.0000     0.0000E+00    0.0000E+00    1.609000E+08  0.00040  1.690E-03    0   0.6856   age120_m32            0.0000     2.1524E+03     9.9030   2.3866   105.4797
 38      0.0000     0.0000E+00    0.0000E+00    2.861200E+08  0.00040  1.152E-03    0   0.6509   age125_m32            0.0000     2.7283E+03    11.0487   2.1669   107.4110
 39      0.0000     0.0000E+00    0.0000E+00    5.088000E+08  0.00040  7.331E-04    0   0.6182   age130_m32            0.0000     2.9239E+03    11.4350   2.0015   108.2145
 40      0.0000     0.0000E+00    0.0000E+00    9.047900E+08  0.00040  3.960E-04    0   0.5890   age135_m32            0.0000     1.6517E+03     8.6137   1.5168   107.3902
 41      0.0000     0.0000E+00    0.0000E+00    1.278050E+09  0.00040  2.854E-04    0   0.5687   age138_m32            0.0000     1.3220E+03     7.5781   1.2113   109.5016
 42      0.0000     0.0000E+00    0.0000E+00    1.434000E+09  0.00040  2.531E-04    0   0.5632   age139_m32            0.0000     1.2891E+03     7.4650   1.1492   109.5216
 43      0.0000     0.0000E+00    0.0000E+00    2.500000E+09  0.00040  1.488E-04    0   0.5386   age150_m32            0.0000     9.1006E+02     6.2340   0.8887   107.8804
 44      0.0000     0.0000E+00    0.0000E+00    4.250000E+09  0.00040  9.082E-05    0   0.5199   age158_m32            0.0000     3.1008E+02     3.5953   0.7811   104.5479
 45     20.2172     1.3367E+01    1.3482E+01    6.250000E+09  0.00040  6.362E-05    0   0.5076   age166_m32            0.0000     9.1819E+01     2.0702   0.7331   101.0536
 46     10.8198     8.6054E+00    8.5954E+00    7.500000E+09  0.00040  5.289E-05    0   0.5027   age171_m32            0.0000     6.4857E+01     1.8257   0.6959    99.7688
 47     20.3686     2.1571E+01    2.1208E+01    1.000000E+10  0.00040  3.972E-05    0   0.4948   age181_m32            0.0000     4.6197E+01     1.6261   0.6324    98.4158
 48      0.9869     1.2646E+00    1.2236E+00    1.300000E+10  0.00040  3.283E-05    0   0.4870   age193_m32            0.0000     9.0107E+01     1.9709   0.5919   101.2287
 49      0.0000     0.0000E+00    0.0000E+00    1.500000E+10  0.00040  2.925E-05    0   0.4854   age201_m32            0.0000     1.5383E+02     2.5890   0.5761   102.8557
 50      0.0000     0.0000E+00    0.0000E+00    1.800000E+10  0.00040  2.469E-05    0   0.4819   age213_m32            0.0000     1.8235E+02     2.8263   0.5370   103.4065
 51      0.0000     0.0000E+00    0.0000E+00    1.000000E+06  0.00400  1.114E-02    0   1.0000   age020_m42            0.0000     2.0223E+03    13.3264   4.0000    81.4639
 52      0.0000     0.0000E+00    0.0000E+00    3.160000E+06  0.00400  4.073E-02    0   0.9999   age045_m42            0.0000     5.9356E+02     7.2436   3.1438    93.9124
 53      0.0000     0.0000E+00    0.0000E+00    5.010000E+06  0.00400  2.534E-02    0   0.9488   age055_m42            0.0000     1.0955E+03    10.3802   3.5322    87.6951
 54      0.0000     0.0000E+00    0.0000E+00    6.610000E+06  0.00400  2.583E-02    0   0.9220   age061_m42            0.0000     5.9963E+02     7.0926   2.9549    94.8758
 55      0.0000     0.0000E+00    0.0000E+00    8.710000E+06  0.00400  1.706E-02    0   0.8983   age067_m42            0.0000     7.8244E+02     8.8144   2.7643    93.1782
 56      0.0000     0.0000E+00    0.0000E+00    1.000000E+07  0.00400  1.271E-02    0   0.8862   age070_m42            0.0000     1.1046E+03    10.6586   2.7443    91.7301
 57      0.0000     0.0000E+00    0.0000E+00    1.445000E+07  0.00400  7.666E-03    0   0.8571   age078_m42            0.0000     1.3225E+03    11.5043   3.1438    88.4444
 58      0.0000     0.0000E+00    0.0000E+00    2.512000E+07  0.00400  5.070E-03    0   0.8174   age090_m42            0.0000     9.3762E+02     9.9439   2.6141    93.4480
 59      0.0000     0.0000E+00    0.0000E+00    4.000000E+07  0.00400  3.505E-03    0   0.7851   age104_m42            0.0000     5.8482E+02     7.7693   2.3008    96.4873
 60      0.0000     0.0000E+00    0.0000E+00    5.500000E+07  0.00400  3.059E-03    0   0.7629   age110_m42            0.0000     6.5094E+02     6.0243   2.3711   101.0897
 61      0.0000     0.0000E+00    0.0000E+00    1.015200E+08  0.00400  2.268E-03    0   0.7207   age116_m42            0.0000     1.8302E+03     8.9655   2.2980   106.2583
 62      0.0000     0.0000E+00    0.0000E+00    1.609000E+08  0.00400  1.720E-03    0   0.6930   age120_m42            0.0000     2.0167E+03     9.4975   2.1641   107.8612
 63      0.0000     0.0000E+00    0.0000E+00    2.861200E+08  0.00400  1.079E-03    0   0.6613   age125_m42            0.0000     1.9970E+03     9.4819   1.8011   108.7417
 64      0.0000     0.0000E+00    0.0000E+00    5.088000E+08  0.00400  6.261E-04    0   0.6313   age130_m42            0.0000     2.2537E+03     9.9299   1.5964   112.0819
 65      0.0000     0.0000E+00    0.0000E+00    9.047900E+08  0.00400  3.535E-04    0   0.6024   age135_m42            0.0000     1.3056E+03     7.6041   1.1803   112.7366
 66      0.0000     0.0000E+00    0.0000E+00    1.278050E+09  0.00400  2.677E-04    0   0.5837   age138_m42            0.0000     5.2094E+02     6.0669   0.4846   110.4596
 67      0.0000     0.0000E+00    0.0000E+00    1.434000E+09  0.00400  1.910E-04    0   0.5716   age139_m42            0.0000     6.5113E+02     6.1752   0.6625   111.0630
 68      0.0000     0.0000E+00    0.0000E+00    2.500000E+09  0.00400  9.818E-05    0   0.5463   age150_m42            0.0000     2.7070E+02     4.5936   0.3946   105.8511
 69      0.0000     0.0000E+00    0.0000E+00    4.250000E+09  0.00400  5.491E-05    0   0.5269   age158_m42            0.0000     2.6026E+02     4.3767   0.2700   102.9625
 70      0.0000     0.0000E+00    0.0000E+00    6.250000E+09  0.00400  3.857E-05    0   0.5151   age166_m42            0.0000     4.0803E+02     5.1571   0.1472   101.5076
 71      2.3217     3.0115E+00    3.0576E+00    7.500000E+09  0.00400  3.243E-05    0   0.5110   age171_m42            0.0000     5.2670E+02     5.7232   0.0713   100.9100
 72      2.0033     3.4765E+00    3.4732E+00    1.000000E+10  0.00400  2.424E-05    0   0.5028   age181_m42            0.0000     7.0263E+02     6.4855  -0.0062   100.2635
 73      0.0000     0.0000E+00    0.0000E+00    1.300000E+10  0.00400  1.883E-05    0   0.4927   age193_m42            0.0000     8.4521E+02     7.0579  -0.0458    99.9796
 74      0.0000     0.0000E+00    0.0000E+00    1.500000E+10  0.00400  1.685E-05    0   0.4919   age201_m42            0.0000     8.0334E+02     6.8704  -0.0400    99.9832
 75      0.0000     0.0000E+00    0.0000E+00    1.800000E+10  0.00400  1.452E-05    0   0.4874   age213_m42            0.0000     7.2791E+02     6.5483  -0.0235   100.2360
 76      0.0000     0.0000E+00    0.0000E+00    1.000000E+06  0.00800  1.286E-02    0   1.0000   age020_m52            0.0000     1.7985E+03    12.6529   4.0000    82.9014
 77      0.0000     0.0000E+00    0.0000E+00    3.160000E+06  0.00800  3.147E-02    0   0.9966   age045_m52            0.0000     1.7330E+03    12.4637   3.9763    83.1264
 78      0.0000     0.0000E+00    0.0000E+00    5.010000E+06  0.00800  2.664E-02    0   0.9443   age055_m52            0.0000     1.2755E+03    11.0550   3.6488    86.6420
 79      0.0000     0.0000E+00    0.0000E+00    6.610000E+06  0.00800  2.151E-02    0   0.9177   age061_m52            0.0000     7.7096E+02     8.7478   2.3400    93.5141
 80      0.0000     0.0000E+00    0.0000E+00    8.710000E+06  0.00800  1.628E-02    0   0.8948   age067_m52            0.0000     8.6198E+02     9.3833   2.7214    93.6278
 81      0.0000     0.0000E+00    0.0000E+00    1.000000E+07  0.00800  1.215E-02    0   0.8827   age070_m52            0.0000     1.0449E+03    10.3295   3.0652    91.6030
 82      0.0000     0.0000E+00    0.0000E+00    1.445000E+07  0.00800  8.739E-03    0   0.8552   age078_m52            0.0000     8.9070E+02     9.4146   3.1084    92.8990
 83      0.0000     0.0000E+00    0.0000E+00    2.512000E+07  0.00800  5.676E-03    0   0.8162   age090_m52            0.0000     8.1549E+02     8.0960   2.7155    97.7593
 84      0.0000     0.0000E+00    0.0000E+00    4.000000E+07  0.00800  3.939E-03    0   0.7841   age104_m52            0.0000     8.2169E+02     7.2013   2.5579   100.3165
 85      0.0000     0.0000E+00    0.0000E+00    5.500000E+07  0.00800  3.155E-03    0   0.7627   age110_m52            0.0000     9.5682E+02     7.0413   2.5278   102.1164
 86      0.0000     0.0000E+00    0.0000E+00    1.015200E+08  0.00800  2.206E-03    0   0.7226   age116_m52            0.0000     1.4288E+03     7.8834   2.3496   106.0544
 87      0.0000     0.0000E+00    0.0000E+00    1.609000E+08  0.00800  1.596E-03    0   0.6963   age120_m52            0.0000     1.6861E+03     8.5645   2.1382   107.8591
 88      0.0000     0.0000E+00    0.0000E+00    2.861200E+08  0.00800  1.002E-03    0   0.6665   age125_m52            0.0000     2.4365E+03    10.7078   1.8508   110.8904
 89      0.0000     0.0000E+00    0.0000E+00    5.088000E+08  0.00800  5.759E-04    0   0.6377   age130_m52            0.0000     2.5670E+03    11.2639   1.4987   115.3153
 90      0.0000     0.0000E+00    0.0000E+00    9.047900E+08  0.00800  2.972E-04    0   0.6086   age135_m52            0.0000     1.4408E+03     9.0032   0.9440   114.6881
 91      0.0000     0.0000E+00    0.0000E+00    1.278050E+09  0.00800  2.242E-04    0   0.5907   age138_m52            0.0000     6.8587E+02     6.8501   0.3176   113.4113
 92      0.0000     0.0000E+00    0.0000E+00    1.434000E+09  0.00800  1.645E-04    0   0.5787   age139_m52            0.0000     5.6565E+02     6.1681   0.4703   112.5478
 93      0.0000     0.0000E+00    0.0000E+00    2.500000E+09  0.00800  7.723E-05    0   0.5519   age150_m52            0.0000     5.3737E+02     6.2943   0.1341   108.4861
 94      8.4477     8.5607E+00    9.0491E+00    4.250000E+09  0.00800  4.151E-05    0   0.5320   age158_m52            0.0000     5.5979E+02     6.2588   0.0679   105.6979
 95      4.3272     6.0473E+00    6.2445E+00    6.250000E+09  0.00800  3.010E-05    0   0.5197   age166_m52            0.0000     8.6354E+02     7.4545  -0.1225   104.2559
 96      2.7110     4.6226E+00    4.7201E+00    7.500000E+09  0.00800  2.467E-05    0   0.5139   age171_m52            0.0000     9.5760E+02     7.8041  -0.1646   103.8825
 97      1.9331     4.3671E+00    4.3854E+00    1.000000E+10  0.00800  1.862E-05    0   0.5054   age181_m52            0.0000     1.2735E+03     8.9175  -0.2940   103.5322
 98      0.1730     5.0788E-01    5.0335E-01    1.300000E+10  0.00800  1.433E-05    0   0.4988   age193_m52            0.0000     1.6389E+03    10.0558  -0.3905   104.2655
 99      3.5892     1.2137E+01    1.1903E+01    1.500000E+10  0.00800  1.244E-05    0   0.4936   age201_m52            0.0000     1.7856E+03    10.4601  -0.4207   104.7962
100      2.1384     8.4066E+00    8.1646E+00    1.800000E+10  0.00800  1.070E-05    0   0.4888   age213_m52            0.0000     1.9031E+03    10.7836  -0.4542   104.6197
101      0.0000     0.0000E+00    0.0000E+00    1.000000E+06  0.02000  1.989E-02    0   1.0000   age020_m62            0.0000     1.9964E+03    13.1006   4.0000    81.4786
102      0.0000     0.0000E+00    0.0000E+00    3.160000E+06  0.02000  3.772E-02    0   0.9858   age045_m62            0.0000     1.8125E+03    12.7216   3.8995    82.9131
103      0.0000     0.0000E+00    0.0000E+00    5.010000E+06  0.02000  3.227E-02    0   0.9342   age055_m62            0.0000     8.2023E+02     9.0971   3.3865    90.7071
104      0.0000     0.0000E+00    0.0000E+00    6.610000E+06  0.02000  2.387E-02    0   0.9090   age061_m62            0.0000     1.2526E+03    11.2438   3.1303    90.2282
105      0.0000     0.0000E+00    0.0000E+00    8.710000E+06  0.02000  1.102E-02    0   0.8861   age067_m62            0.0000     3.4658E+03    17.3880   2.7657    85.3892
106      0.0000     0.0000E+00    0.0000E+00    1.000000E+07  0.02000  1.011E-02    0   0.8751   age070_m62            0.0000     2.3464E+03    14.6608   2.7863    87.9933
107      0.0000     0.0000E+00    0.0000E+00    1.445000E+07  0.02000  7.331E-03    0   0.8472   age078_m62            0.0000     1.5954E+03    12.3946   2.8027    89.5431
108      0.0000     0.0000E+00    0.0000E+00    2.512000E+07  0.02000  4.206E-03    0   0.8099   age090_m62            0.0000     1.6188E+03    12.4173   2.7146    88.9597
109      0.0000     0.0000E+00    0.0000E+00    4.000000E+07  0.02000  3.373E-03    0   0.7799   age104_m62            0.0000     7.0199E+02     7.6449   2.5232    98.0682
110      0.0000     0.0000E+00    0.0000E+00    5.500000E+07  0.02000  2.747E-03    0   0.7595   age110_m62            0.0000     8.4495E+02     6.8888   2.4597   101.7064
111      0.0000     0.0000E+00    0.0000E+00    1.015200E+08  0.02000  1.878E-03    0   0.7221   age116_m62            0.0000     1.6522E+03     8.4602   2.3282   106.6808
112      0.0000     0.0000E+00    0.0000E+00    1.609000E+08  0.02000  1.378E-03    0   0.6978   age120_m62            0.0000     2.2936E+03     9.8163   2.1788   109.3896
113      0.0000     0.0000E+00    0.0000E+00    2.861200E+08  0.02000  8.869E-04    0   0.6700   age125_m62            0.0000     3.3316E+03    11.9932   1.8152   113.9210
114      0.0000     0.0000E+00    0.0000E+00    5.088000E+08  0.02000  4.834E-04    0   0.6430   age130_m62            0.0000     2.8284E+03    11.6230   1.3666   116.9336
115      0.0000     0.0000E+00    0.0000E+00    9.047900E+08  0.02000  2.312E-04    0   0.6152   age135_m62            0.0000     1.3006E+03     8.3580   0.7458   116.5807
116      0.0000     0.0000E+00    0.0000E+00    1.278050E+09  0.02000  1.387E-04    0   0.5927   age138_m62            0.0000     6.2614E+02     6.4155   0.3728   111.7152
117      0.0000     0.0000E+00    0.0000E+00    1.434000E+09  0.02000  1.168E-04    0   0.5865   age139_m62            0.0000     5.5066E+02     6.1686   0.3463   110.0244
118      0.0000     0.0000E+00    0.0000E+00    2.500000E+09  0.02000  5.505E-05    0   0.5610   age150_m62            0.0000     7.7409E+02     7.2880  -0.0259   107.0501
119      0.2912     3.9901E-01    4.2868E-01    4.250000E+09  0.02000  3.070E-05    0   0.5407   age158_m62            0.0000     1.4346E+03     9.6395  -0.3229   107.2066
120      0.0000     0.0000E+00    0.0000E+00    6.250000E+09  0.02000  2.104E-05    0   0.5277   age166_m62            0.0000     1.8569E+03    10.8682  -0.4563   107.7899
121      0.0000     0.0000E+00    0.0000E+00    7.500000E+09  0.02000  1.770E-05    0   0.5223   age171_m62            0.0000     2.0975E+03    11.4996  -0.5449   108.2396
122      0.0000     0.0000E+00    0.0000E+00    1.000000E+10  0.02000  1.297E-05    0   0.5121   age181_m62            0.0000     2.6290E+03    12.7553  -0.7027   108.8339
123      0.0000     0.0000E+00    0.0000E+00    1.300000E+10  0.02000  9.691E-06    0   0.5047   age193_m62            0.0000     3.0023E+03    13.5200  -0.7864   109.3135
124      0.0000     0.0000E+00    0.0000E+00    1.500000E+10  0.02000  8.360E-06    0   0.4999   age201_m62            0.0000     3.3377E+03    14.2117  -0.8575   109.6294
125      0.0000     0.0000E+00    0.0000E+00    1.800000E+10  0.02000  6.911E-06    0   0.4946   age213_m62            0.0000     3.7719E+03    15.0919  -0.9318   109.9599
126      0.0000     0.0000E+00    0.0000E+00    1.000000E+06  0.05000  2.651E-02    0   0.9998   age020_m72            0.0000     1.8529E+03    12.5922   4.0000    82.4259
127      0.0000     0.0000E+00    0.0000E+00    3.160000E+06  0.05000  4.817E-02    0   0.9577   age045_m72            0.0000     1.3195E+03    11.1490   3.7561    86.2648
128      0.0000     0.0000E+00    0.0000E+00    5.010000E+06  0.05000  3.101E-02    0   0.9147   age055_m72            0.0000     1.2109E+03    10.7998   3.4176    88.9600
129      0.0000     0.0000E+00    0.0000E+00    6.610000E+06  0.05000  1.472E-02    0   0.8877   age061_m72            0.0000     2.5001E+03    14.3807   3.0133    86.9023
130      0.0000     0.0000E+00    0.0000E+00    8.710000E+06  0.05000  1.050E-02    0   0.8638   age067_m72            0.0000     1.6876E+03    12.2235   3.3851    87.5356
131      0.0000     0.0000E+00    0.0000E+00    1.000000E+07  0.05000  8.954E-03    0   0.8524   age070_m72            0.0000     1.2222E+03    10.6291   3.6499    87.6582
132      0.0000     0.0000E+00    0.0000E+00    1.445000E+07  0.05000  6.392E-03    0   0.8262   age078_m72            0.0000     1.0440E+03     9.9249   3.5957    88.7314
133      0.0000     0.0000E+00    0.0000E+00    2.512000E+07  0.05000  4.207E-03    0   0.7902   age090_m72            0.0000     6.8541E+02     7.9684   3.2262    93.3649
134      0.0000     0.0000E+00    0.0000E+00    4.000000E+07  0.05000  3.198E-03    0   0.7618   age104_m72            0.0000     1.0372E+03     7.1004   2.7302   101.5656
135      0.0000     0.0000E+00    0.0000E+00    5.500000E+07  0.05000  2.593E-03    0   0.7432   age110_m72            0.0000     1.3576E+03     7.9496   2.6356   103.6602
136      0.0000     0.0000E+00    0.0000E+00    1.015200E+08  0.05000  1.716E-03    0   0.7092   age116_m72            0.0000     2.0010E+03     9.4336   2.4428   106.5552
137      0.0000     0.0000E+00    0.0000E+00    1.609000E+08  0.05000  1.218E-03    0   0.6876   age120_m72            0.0000     2.6613E+03    10.6980   2.1678   109.5744
138      0.0000     0.0000E+00    0.0000E+00    2.861200E+08  0.05000  7.047E-04    0   0.6618   age125_m72            0.0000     3.2094E+03    12.1848   1.6283   113.9882
139      0.0000     0.0000E+00    0.0000E+00    5.088000E+08  0.05000  3.590E-04    0   0.6356   age130_m72            0.0000     2.4671E+03    11.0444   1.0323   117.4223
140      0.0000     0.0000E+00    0.0000E+00    9.047900E+08  0.05000  1.484E-04    0   0.6088   age135_m72            0.0000     9.7244E+02     8.1565   0.2768   111.3471
141      1.0059     4.4845E-01    5.2786E-01    1.278050E+09  0.05000  9.435E-05    0   0.5924   age138_m72            0.0000     1.2653E+03     9.4672  -0.1239   108.1617
142      0.0000     0.0000E+00    0.0000E+00    1.434000E+09  0.05000  7.827E-05    0   0.5847   age139_m72            0.0000     1.2338E+03     9.3104  -0.1081   107.4864
143      0.0000     0.0000E+00    0.0000E+00    2.500000E+09  0.05000  3.759E-05    0   0.5583   age150_m72            0.0000     1.8758E+03    11.0324  -0.4349   106.8351
144      0.0000     0.0000E+00    0.0000E+00    4.250000E+09  0.05000  1.842E-05    0   0.5374   age158_m72            0.0000     2.7297E+03    12.7951  -0.7307   106.3183
145      0.0000     0.0000E+00    0.0000E+00    6.250000E+09  0.05000  1.207E-05    0   0.5242   age166_m72            0.0000     3.5881E+03    14.5101  -0.9687   106.0570
146      0.0000     0.0000E+00    0.0000E+00    7.500000E+09  0.05000  9.993E-06    0   0.5183   age171_m72            0.0000     3.7270E+03    14.7505  -1.0000   105.6928
147      0.0000     0.0000E+00    0.0000E+00    1.000000E+10  0.05000  7.291E-06    0   0.5081   age181_m72            0.0000     4.4366E+03    16.1791  -1.0000   102.2168
148      0.0000     0.0000E+00    0.0000E+00    1.300000E+10  0.05000  5.316E-06    0   0.5018   age193_m72            0.0000     5.8360E+03    18.4546  -1.0000    97.0179
149      0.0000     0.0000E+00    0.0000E+00    1.500000E+10  0.05000  4.497E-06    0   0.4972   age201_m72            0.0000     6.5656E+03    19.4521  -1.0000    95.2043
150      0.0000     0.0000E+00    0.0000E+00    1.800000E+10  0.05000  3.739E-06    0   0.4924   age213_m72            0.0000     7.6234E+03    20.7367  -1.0000    92.3447


## Synthesis Results - Average & Chains ##

# j      x_j: min, <> & last-chain-values for 1 ...  7 chains
  1      0.0000      0.0041      0.0000      0.0000      0.0000      0.0000      0.0035      0.0000      0.0000
  2     17.7184     16.7104     16.9958     17.1209     17.1953     17.3995     16.9766     17.3601     17.3719
  3      0.0000      0.0142      0.0000      0.0345      0.0000      0.0000      0.0149      0.0000      0.0000
  4      0.0000      0.0073      0.0000      0.0000      0.0000      0.0563      0.0000      0.0000      0.0000
  5      0.0000      0.0051      0.0000      0.0000      0.0000      0.0000      0.0000      0.0000      0.0000
  6      0.0000      0.0042      0.0000      0.0136      0.0000      0.0000      0.0000      0.0000      0.0000
  7      0.0000      0.0094      0.1227      0.0000      0.0000      0.0000      0.0125      0.0000      0.0000
  8      0.0000      0.0045      0.0000      0.0018      0.0110      0.0000      0.0000      0.0000      0.0000
  9      0.0000      0.0051      0.0000      0.0000      0.0000      0.0000      0.0000      0.0000      0.0000
 10      0.0000      0.0066      0.0000      0.0000      0.0000      0.0000      0.0000      0.0000      0.0000
 11      0.0000      0.0090      0.0000      0.0000      0.0000      0.0000      0.0000      0.0000      0.0000
 12      0.0000      0.0056      0.0000      0.0000      0.0000      0.0000      0.0000      0.0000      0.0000
 13      0.0000      0.0062      0.0000      0.0000      0.0000      0.0000      0.0000      0.0000      0.0000
 14      0.0000      0.0071      0.0000      0.0000      0.0000      0.0000      0.0106      0.0000      0.0000
 15      0.0000      0.0093      0.0126      0.0011      0.0000      0.0000      0.0000      0.0000      0.0000
 16      0.0000      0.0096      0.0030      0.0000      0.0000      0.0000      0.0000      0.0000      0.0180
 17      0.0000      0.0132      0.0000      0.0000      0.0000      0.0672      0.0000      0.0235      0.0251
 18      0.0000      0.0189      0.0000      0.0000      0.0000      0.0000      0.0000      0.0000      0.0000
 19      0.0000      0.0323      0.0000      0.1954      0.0000      0.0158      0.0000      0.0000      0.0624
 20      0.0000      0.0663      0.0077      0.0525      0.0000      0.0000      0.3066      0.0135      0.1262
 21      0.0000      0.0891      0.0074      0.4004      0.1261      0.3088      0.0656      0.0854      0.1865
 22      0.0000      0.1067      0.0181      0.2527      0.2761      0.0000      0.0000      0.1110      0.1572
 23      0.0000      0.1362      0.0000      0.2236      0.0000      0.0139      0.3068      0.2457      0.0000
 24      0.0000      0.1696      0.1798      0.1603      0.2470      0.1220      0.2165      0.0000      0.0000
 25      1.9044      0.2737      0.9258      0.0000      0.1494      0.3720      0.3499      0.6488      0.1536
 26      0.0000      0.0062      0.0000      0.0013      0.0000      0.0000      0.0000      0.0000      0.0000
 27      0.0000      0.0093      0.0000      0.0000      0.0000      0.0000      0.0000      0.0204      0.0687
 28      0.0000      0.0083      0.0000      0.0000      0.0377      0.0000      0.0000      0.0000      0.0000
 29      0.0000      0.0054      0.0297      0.0000      0.0000      0.0000      0.0000      0.0000      0.0000
 30      0.0000      0.0033      0.0000      0.0000      0.0000      0.0000      0.0000      0.0000      0.0000
 31      0.0000      0.0084      0.0000      0.0156      0.0000      0.0000      0.0000      0.0000      0.0000
 32      0.0000      0.0060      0.0000      0.0000      0.0000      0.0000      0.0000      0.0000      0.0000
 33      0.0000      0.0104      0.0000      0.0000      0.0026      0.0000      0.0000      0.0000      0.0000
 34      0.0000      0.0075      0.0000      0.0000      0.0000      0.0000      0.0000      0.0000      0.0000
 35      0.0000      0.0092      0.0000      0.0008      0.0000      0.0000      0.0000      0.0409      0.0218
 36      0.0000      0.0076      0.0289      0.0000      0.0000      0.0000      0.0000      0.0000      0.0000
 37      0.0000      0.0081      0.0175      0.0000      0.0000      0.0000      0.0000      0.0000      0.0000
 38      0.0000      0.0055      0.0000      0.0139      0.0000      0.0000      0.0000      0.0000      0.0000
 39      0.0000      0.0067      0.0000      0.0000      0.0478      0.0020      0.0000      0.0000      0.0000
 40      0.0000      0.0085      0.0000      0.0000      0.0000      0.0000      0.0000      0.0000      0.0229
 41      0.0000      0.0178      0.1212      0.0000      0.0000      0.0000      0.0000      0.0000      0.0000
 42      0.0000      0.0195      0.0175      0.0000      0.0000      0.0680      0.0000      0.1129      0.0000
 43      0.0000      0.0522      0.0000      0.0951      0.0896      0.0000      0.0813      0.0000      0.0000
 44      0.0000      0.1388      0.3267      0.0000      0.1922      0.1064      0.1688      0.0000      0.5166
 45     20.2172     19.0631     18.8654     19.1019     19.1065     19.9694     19.1138     18.8119     19.1859
 46     10.8198     11.7211     11.8188     11.8025     11.5236     11.5892     11.5917     12.1775     11.0247
 47     20.3686     22.2068     22.0776     22.0362     22.0899     21.4370     22.2650     21.8913     22.1565
 48      0.9869      0.2631      0.0000      0.2845      0.2662      0.3901      0.1970      0.3277      0.3537
 49      0.0000      0.2196      0.0207      0.2061      0.4227      0.0781      0.1888      0.1009      0.0787
 50      0.0000      0.1958      0.3261      0.0000      0.3301      0.1141      0.4982      0.0789      0.3870
 51      0.0000      0.0073      0.0000      0.0000      0.0000      0.0000      0.0000      0.0000      0.0000
 52      0.0000      0.0102      0.0000      0.0247      0.0228      0.0000      0.0000      0.0000      0.0000
 53      0.0000      0.0085      0.0000      0.0000      0.0000      0.0000      0.0000      0.0000      0.0000
 54      0.0000      0.0109      0.0000      0.0698      0.0102      0.0229      0.0000      0.0253      0.0000
 55      0.0000      0.0102      0.0000      0.0000      0.0000      0.0000      0.0000      0.0000      0.0000
 56      0.0000      0.0099      0.0000      0.0000      0.0000      0.0000      0.0000      0.0042      0.0000
 57      0.0000      0.0077      0.0000      0.0000      0.0000      0.0000      0.0000      0.0000      0.0000
 58      0.0000      0.0055      0.0000      0.0000      0.0812      0.0000      0.0000      0.0000      0.0000
 59      0.0000      0.0062      0.0000      0.0000      0.0000      0.0079      0.0000      0.0000      0.0000
 60      0.0000      0.0062      0.0000      0.0000      0.0000      0.0000      0.0000      0.0000      0.0000
 61      0.0000      0.0045      0.0000      0.0000      0.0000      0.0000      0.0000      0.0000      0.0475
 62      0.0000      0.0072      0.0000      0.0000      0.0230      0.0000      0.0000      0.0003      0.0000
 63      0.0000      0.0080      0.0000      0.0000      0.0000      0.0379      0.0000      0.0176      0.0000
 64      0.0000      0.0114      0.0744      0.0000      0.0000      0.0000      0.0000      0.0000      0.0000
 65      0.0000      0.0205      0.0000      0.0000      0.0590      0.1001      0.0292      0.0000      0.1491
 66      0.0000      0.0257      0.0000      0.1272      0.0000      0.0000      0.0000      0.0000      0.0000
 67      0.0000      0.0388      0.1565      0.0000      0.0000      0.0138      0.0000      0.0000      0.0936
 68      0.0000      0.2985      0.0046      0.0244      0.1450      0.2276      0.3263      0.3123      0.0190
 69      0.0000      0.0757      0.0000      0.0434      0.0000      0.0457      0.0000      0.0283      0.0000
 70      0.0000      0.0827      0.1137      0.0000      0.0000      0.0000      0.1404      0.0000      0.1805
 71      2.3217      3.0293      3.1491      3.0233      2.9603      2.7320      3.0126      2.9270      3.0625
 72      2.0033      2.0776      2.1858      2.0638      2.1121      2.1552      1.9947      2.1048      2.0932
 73      0.0000      0.0403      0.0000      0.0000      0.0816      0.0000      0.0261      0.0588      0.0000
 74      0.0000      0.0590      0.0000      0.1720      0.0000      0.0000      0.0302      0.0000      0.0982
 75      0.0000      0.0266      0.0836      0.0664      0.0000      0.0000      0.0170      0.0000      0.0046
 76      0.0000      0.0049      0.0000      0.0000      0.0000      0.0000      0.0000      0.0000      0.0000
 77      0.0000      0.0036      0.0000      0.0000      0.0000      0.0000      0.0000      0.0000      0.0000
 78      0.0000      0.0044      0.0000      0.0000      0.0000      0.0000      0.0000      0.0259      0.0000
 79      0.0000      0.0122      0.0000      0.0000      0.0000      0.0090      0.0000      0.0114      0.0000
 80      0.0000      0.0084      0.0000      0.0000      0.0000      0.0000      0.0000      0.0000      0.0000
 81      0.0000      0.0091      0.0000      0.0000      0.0000      0.0000      0.0000      0.0000      0.0000
 82      0.0000      0.0072      0.0000      0.0381      0.0000      0.0000      0.0000      0.0000      0.0000
 83      0.0000      0.0069      0.0000      0.0000      0.0000      0.0000      0.0000      0.0000      0.0000
 84      0.0000      0.0062      0.0000      0.0000      0.0000      0.0000      0.0000      0.0000      0.0000
 85      0.0000      0.0064      0.0000      0.0000      0.0000      0.0000      0.0000      0.0000      0.0000
 86      0.0000      0.0078      0.0313      0.0000      0.0000      0.0000      0.0000      0.0000      0.0000
 87      0.0000      0.0096      0.0000      0.0000      0.0000      0.0000      0.0000      0.0000      0.0000
 88      0.0000      0.0047      0.0000      0.0000      0.0000      0.0115      0.0007      0.0000      0.0000
 89      0.0000      0.0061      0.0000      0.0000      0.0000      0.0000      0.0000      0.0000      0.0000
 90      0.0000      0.0148      0.0000      0.0000      0.0000      0.0000      0.0000      0.0000      0.0000
 91      0.0000      0.0207      0.0113      0.0000      0.0000      0.0000      0.0000      0.0000      0.0000
 92      0.0000      0.0252      0.0075      0.0149      0.0000      0.0000      0.0000      0.0000      0.0000
 93      0.0000      0.0636      0.2775      0.0000      0.0779      0.0000      0.0000      0.0000      0.0000
 94      8.4477      7.4937      7.7564      7.7728      7.4643      7.8028      7.2769      7.7112      7.6771
 95      4.3272      3.5096      3.6529      3.7694      3.7011      3.7534      3.5195      3.6407      3.8510
 96      2.7110      1.8706      2.1339      1.9874      2.2446      2.1681      1.9765      1.7676      1.6807
 97      1.9331      1.2603      1.2929      1.2633      1.2919      1.2602      1.3703      1.3289      1.4547
 98      0.1730      0.2854      0.2716      0.1240      0.2857      0.3527      0.2609      0.1900      0.2232
 99      3.5892      3.6319      3.4136      3.6419      3.7661      3.6539      3.5730      3.6833      3.6125
100      2.1384      2.4699      2.4305      2.4869      2.4877      2.5276      2.5662      2.6007      2.5218
101      0.0000      0.0059      0.0000      0.0000      0.0000      0.0000      0.0287      0.0000      0.0000
102      0.0000      0.0041      0.0000      0.0000      0.0000      0.0011      0.0000      0.0000      0.0248
103      0.0000      0.0067      0.0000      0.0000      0.0000      0.0000      0.0000      0.0000      0.0000
104      0.0000      0.0079      0.0000      0.0000      0.0000      0.0000      0.0764      0.0000      0.0000
105      0.0000      0.0076      0.0039      0.0000      0.0000      0.0000      0.0000      0.0000      0.0000
106      0.0000      0.0043      0.0000      0.0000      0.0000      0.0000      0.0000      0.0000      0.0000
107      0.0000      0.0073      0.0000      0.0000      0.0000      0.0000      0.0000      0.0000      0.0000
108      0.0000      0.0045      0.0000      0.0000      0.0000      0.0000      0.0000      0.0000      0.0000
109      0.0000      0.0044      0.0208      0.0000      0.0000      0.0000      0.0000      0.0000      0.0000
110      0.0000      0.0037      0.0000      0.0000      0.0000      0.0000      0.0000      0.0000      0.0000
111      0.0000      0.0043      0.0000      0.0000      0.0000      0.0000      0.0051      0.0000      0.0000
112      0.0000      0.0046      0.0013      0.0000      0.0000      0.0000      0.0000      0.0000      0.0000
113      0.0000      0.0059      0.0000      0.0000      0.0000      0.0065      0.0000      0.0000      0.0300
114      0.0000      0.0059      0.0000      0.0000      0.0000      0.0000      0.0000      0.0000      0.0000
115      0.0000      0.0211      0.0000      0.0000      0.0000      0.0000      0.0000      0.0000      0.0000
116      0.0000      0.0308      0.0000      0.1890      0.1362      0.0000      0.0000      0.0114      0.0000
117      0.0000      0.0416      0.0000      0.0167      0.0000      0.0000      0.0000      0.0000      0.0000
118      0.0000      0.0807      0.0421      0.0000      0.1952      0.0312      0.2602      0.1826      0.0090
119      0.2912      0.4913      0.4551      0.4679      0.3460      0.5008      0.5006      0.3780      0.5543
120      0.0000      0.0384      0.0495      0.0000      0.0000      0.0595      0.0000      0.0777      0.0000
121      0.0000      0.0324      0.0000      0.0537      0.0000      0.0510      0.0170      0.0000      0.0000
122      0.0000      0.0672      0.0000      0.1305      0.1035      0.0000      0.0000      0.0000      0.1514
123      0.0000      0.0186      0.0000      0.0000      0.0272      0.0003      0.0558      0.0000      0.0000
124      0.0000      0.0099      0.0000      0.0125      0.0000      0.0313      0.0000      0.0094      0.0000
125      0.0000      0.0112      0.0000      0.0000      0.0000      0.0319      0.0000      0.0220      0.0000
126      0.0000      0.0028      0.0000      0.0000      0.0008      0.0000      0.0000      0.0000      0.0000
127      0.0000      0.0057      0.0000      0.0113      0.0000      0.0000      0.0000      0.0000      0.0000
128      0.0000      0.0074      0.0000      0.0007      0.0000      0.0000      0.0333      0.0000      0.0401
129      0.0000      0.0052      0.0000      0.0000      0.0000      0.0065      0.0000      0.0000      0.0000
130      0.0000      0.0038      0.0000      0.0000      0.0000      0.0000      0.0000      0.0000      0.0000
131      0.0000      0.0062      0.0000      0.0000      0.0000      0.0011      0.0000      0.0000      0.0000
132      0.0000      0.0043      0.0029      0.0000      0.0056      0.0000      0.0000      0.0000      0.0000
133      0.0000      0.0061      0.0000      0.0000      0.0000      0.0000      0.0000      0.0000      0.0127
134      0.0000      0.0040      0.0000      0.0000      0.0000      0.0000      0.0000      0.0598      0.0000
135      0.0000      0.0052      0.0000      0.0000      0.0000      0.0000      0.0000      0.0000      0.0226
136      0.0000      0.0047      0.0050      0.0000      0.0000      0.0000      0.0000      0.0000      0.0123
137      0.0000      0.0055      0.0000      0.0000      0.0173      0.0000      0.0000      0.0000      0.0000
138      0.0000      0.0053      0.0000      0.0000      0.0000      0.0162      0.0000      0.0000      0.0000
139      0.0000      0.0101      0.0000      0.0000      0.0000      0.0000      0.0000      0.0000      0.0000
140      0.0000      0.0401      0.0000      0.0000      0.0000      0.0000      0.0000      0.0621      0.0050
141      1.0059      1.3138      1.1172      1.1186      1.1646      1.0403      1.2453      1.5076      1.0292
142      0.0000      0.0638      0.1216      0.0000      0.0000      0.0000      0.0000      0.0000      0.0000
143      0.0000      0.0235      0.0000      0.0000      0.0000      0.0000      0.0000      0.0299      0.2585
144      0.0000      0.0844      0.0740      0.2037      0.0000      0.0910      0.1557      0.1023      0.0537
145      0.0000      0.0150      0.0472      0.0000      0.0022      0.0000      0.0409      0.0000      0.0353
146      0.0000      0.0133      0.0217      0.0000      0.0000      0.0707      0.0000      0.0000      0.0000
147      0.0000      0.0056      0.0000      0.0000      0.0000      0.0000      0.0000      0.0000      0.0000
148      0.0000      0.0050      0.0000      0.0000      0.0000      0.0000      0.0000      0.0000      0.0146
149      0.0000      0.0052      0.0000      0.0000      0.0000      0.0000      0.0000      0.0000      0.0000
150      0.0000      0.0034      0.0000      0.0051      0.0000      0.0000      0.0000      0.0000      0.0000

# j      m_j: min, <> & last-chain-values for 1 ...  7 chains
  1  0.0000E+00  4.1923E-05  0.0000E+00  0.0000E+00  0.0000E+00  0.0000E+00  3.5828E-05  0.0000E+00  0.0000E+00
  2  3.1118E-02  2.9440E-02  2.9997E-02  3.0177E-02  3.0181E-02  3.0603E-02  2.9760E-02  3.0648E-02  3.0600E-02
  3  0.0000E+00  5.8869E-05  0.0000E+00  1.4354E-04  0.0000E+00  0.0000E+00  6.1798E-05  0.0000E+00  0.0000E+00
  4  0.0000E+00  5.6751E-05  0.0000E+00  0.0000E+00  0.0000E+00  4.3906E-04  0.0000E+00  0.0000E+00  0.0000E+00
  5  0.0000E+00  5.0101E-05  0.0000E+00  0.0000E+00  0.0000E+00  0.0000E+00  0.0000E+00  0.0000E+00  0.0000E+00
  6  0.0000E+00  4.8863E-05  0.0000E+00  1.5904E-04  0.0000E+00  0.0000E+00  0.0000E+00  0.0000E+00  0.0000E+00
  7  0.0000E+00  1.3858E-04  1.8154E-03  0.0000E+00  0.0000E+00  0.0000E+00  1.8350E-04  0.0000E+00  0.0000E+00
  8  0.0000E+00  7.5868E-05  0.0000E+00  3.0204E-05  1.8242E-04  0.0000E+00  0.0000E+00  0.0000E+00  0.0000E+00
  9  0.0000E+00  9.1268E-05  0.0000E+00  0.0000E+00  0.0000E+00  0.0000E+00  0.0000E+00  0.0000E+00  0.0000E+00
 10  0.0000E+00  1.3694E-04  0.0000E+00  0.0000E+00  0.0000E+00  0.0000E+00  0.0000E+00  0.0000E+00  0.0000E+00
 11  0.0000E+00  2.2274E-04  0.0000E+00  0.0000E+00  0.0000E+00  0.0000E+00  0.0000E+00  0.0000E+00  0.0000E+00
 12  0.0000E+00  2.4096E-04  0.0000E+00  0.0000E+00  0.0000E+00  0.0000E+00  0.0000E+00  0.0000E+00  0.0000E+00
 13  0.0000E+00  3.0957E-04  0.0000E+00  0.0000E+00  0.0000E+00  0.0000E+00  0.0000E+00  0.0000E+00  0.0000E+00
 14  0.0000E+00  5.0366E-04  0.0000E+00  0.0000E+00  0.0000E+00  0.0000E+00  7.5230E-04  0.0000E+00  0.0000E+00
 15  0.0000E+00  9.9647E-04  1.3541E-03  1.1354E-04  0.0000E+00  0.0000E+00  0.0000E+00  0.0000E+00  0.0000E+00
 16  0.0000E+00  1.4922E-03  4.6767E-04  0.0000E+00  0.0000E+00  0.0000E+00  0.0000E+00  0.0000E+00  2.7943E-03
 17  0.0000E+00  2.2797E-03  0.0000E+00  0.0000E+00  0.0000E+00  1.1571E-02  0.0000E+00  4.0512E-03  4.3299E-03
 18  0.0000E+00  5.3064E-03  0.0000E+00  0.0000E+00  0.0000E+00  0.0000E+00  0.0000E+00  0.0000E+00  0.0000E+00
 19  0.0000E+00  1.3725E-02  0.0000E+00  8.3174E-02  0.0000E+00  6.6991E-03  0.0000E+00  0.0000E+00  2.6525E-02
 20  0.0000E+00  4.0349E-02  4.6653E-03  3.1986E-02  0.0000E+00  0.0000E+00  1.8562E-01  8.2032E-03  7.6799E-02
 21  0.0000E+00  6.2698E-02  5.2445E-03  2.8201E-01  8.8449E-02  2.1702E-01  4.5923E-02  6.0234E-02  1.3127E-01
 22  0.0000E+00  9.6900E-02  1.6477E-02  2.2960E-01  2.4986E-01  0.0000E+00  0.0000E+00  1.0101E-01  1.4278E-01
 23  0.0000E+00  1.5676E-01  0.0000E+00  2.5750E-01  0.0000E+00  1.5966E-02  3.5152E-01  2.8352E-01  0.0000E+00
 24  0.0000E+00  2.2328E-01  2.3719E-01  2.1113E-01  3.2400E-01  1.6042E-01  2.8360E-01  0.0000E+00  0.0000E+00
 25  3.0028E+00  4.3290E-01  1.4670E+00  0.0000E+00  2.3538E-01  5.8746E-01  5.5067E-01  1.0283E+00  2.4284E-01
 26  0.0000E+00  6.1459E-05  0.0000E+00  1.3337E-05  0.0000E+00  0.0000E+00  0.0000E+00  0.0000E+00  0.0000E+00
 27  0.0000E+00  1.9618E-05  0.0000E+00  0.0000E+00  0.0000E+00  0.0000E+00  0.0000E+00  4.3069E-05  1.4489E-04
 28  0.0000E+00  3.4199E-05  0.0000E+00  0.0000E+00  1.5509E-04  0.0000E+00  0.0000E+00  0.0000E+00  0.0000E+00
 29  0.0000E+00  3.4764E-05  1.9178E-04  0.0000E+00  0.0000E+00  0.0000E+00  0.0000E+00  0.0000E+00  0.0000E+00
 30  0.0000E+00  2.6696E-05  0.0000E+00  0.0000E+00  0.0000E+00  0.0000E+00  0.0000E+00  0.0000E+00  0.0000E+00
 31  0.0000E+00  7.7905E-05  0.0000E+00  1.4446E-04  0.0000E+00  0.0000E+00  0.0000E+00  0.0000E+00  0.0000E+00
 32  0.0000E+00  6.0923E-05  0.0000E+00  0.0000E+00  0.0000E+00  0.0000E+00  0.0000E+00  0.0000E+00  0.0000E+00
 33  0.0000E+00  1.5154E-04  0.0000E+00  0.0000E+00  3.7789E-05  0.0000E+00  0.0000E+00  0.0000E+00  0.0000E+00
 34  0.0000E+00  1.3235E-04  0.0000E+00  0.0000E+00  0.0000E+00  0.0000E+00  0.0000E+00  0.0000E+00  0.0000E+00
 35  0.0000E+00  1.9645E-04  0.0000E+00  1.6759E-05  0.0000E+00  0.0000E+00  0.0000E+00  8.7468E-04  4.6505E-04
 36  0.0000E+00  2.0740E-04  7.9128E-04  0.0000E+00  0.0000E+00  0.0000E+00  0.0000E+00  0.0000E+00  0.0000E+00
 37  0.0000E+00  2.7534E-04  5.9551E-04  0.0000E+00  0.0000E+00  0.0000E+00  0.0000E+00  0.0000E+00  0.0000E+00
 38  0.0000E+00  2.5963E-04  0.0000E+00  6.5862E-04  0.0000E+00  0.0000E+00  0.0000E+00  0.0000E+00  0.0000E+00
 39  0.0000E+00  4.7108E-04  0.0000E+00  0.0000E+00  3.3645E-03  1.4183E-04  0.0000E+00  0.0000E+00  0.0000E+00
 40  0.0000E+00  1.0650E-03  0.0000E+00  0.0000E+00  0.0000E+00  0.0000E+00  0.0000E+00  0.0000E+00  2.8498E-03
 41  0.0000E+00  2.9796E-03  2.0287E-02  0.0000E+00  0.0000E+00  0.0000E+00  0.0000E+00  0.0000E+00  0.0000E+00
 42  0.0000E+00  3.6357E-03  3.2727E-03  0.0000E+00  0.0000E+00  1.2662E-02  0.0000E+00  2.1113E-02  0.0000E+00
 43  0.0000E+00  1.5853E-02  0.0000E+00  2.8867E-02  2.7078E-02  0.0000E+00  2.4565E-02  0.0000E+00  0.0000E+00
 44  0.0000E+00  6.6602E-02  1.5707E-01  0.0000E+00  9.1903E-02  5.0989E-02  8.0614E-02  0.0000E+00  2.4790E-01
 45  1.3482E+01  1.2752E+01  1.2643E+01  1.2784E+01  1.2733E+01  1.3336E+01  1.2723E+01  1.2610E+01  1.2832E+01
 46  8.5954E+00  9.3406E+00  9.4353E+00  9.4096E+00  9.1486E+00  9.2200E+00  9.1915E+00  9.7244E+00  8.7839E+00
 47  2.1208E+01  2.3194E+01  2.3100E+01  2.3026E+01  2.2985E+01  2.2353E+01  2.3139E+01  2.2912E+01  2.3137E+01
 48  1.2236E+00  3.2728E-01  0.0000E+00  3.5403E-01  3.2978E-01  4.8437E-01  2.4374E-01  4.0844E-01  4.3981E-01
 49  0.0000E+00  3.0552E-01  2.8792E-02  2.8686E-01  5.8597E-01  1.0843E-01  2.6144E-01  1.4072E-01  1.0950E-01
 50  0.0000E+00  3.2048E-01  5.3461E-01  0.0000E+00  5.3823E-01  1.8645E-01  8.1120E-01  1.2942E-01  6.3326E-01
 51  0.0000E+00  5.4929E-05  0.0000E+00  0.0000E+00  0.0000E+00  0.0000E+00  0.0000E+00  0.0000E+00  0.0000E+00
 52  0.0000E+00  2.1007E-05  0.0000E+00  5.0956E-05  4.6671E-05  0.0000E+00  0.0000E+00  0.0000E+00  0.0000E+00
 53  0.0000E+00  2.6589E-05  0.0000E+00  0.0000E+00  0.0000E+00  0.0000E+00  0.0000E+00  0.0000E+00  0.0000E+00
 54  0.0000E+00  3.2637E-05  0.0000E+00  2.0907E-04  3.0359E-05  6.8392E-05  0.0000E+00  7.5752E-05  0.0000E+00
 55  0.0000E+00  4.4848E-05  0.0000E+00  0.0000E+00  0.0000E+00  0.0000E+00  0.0000E+00  0.0000E+00  0.0000E+00
 56  0.0000E+00  5.7754E-05  0.0000E+00  0.0000E+00  0.0000E+00  0.0000E+00  0.0000E+00  2.4843E-05  0.0000E+00
 57  0.0000E+00  7.1850E-05  0.0000E+00  0.0000E+00  0.0000E+00  0.0000E+00  0.0000E+00  0.0000E+00  0.0000E+00
 58  0.0000E+00  7.4179E-05  0.0000E+00  0.0000E+00  1.0933E-03  0.0000E+00  0.0000E+00  0.0000E+00  0.0000E+00
 59  0.0000E+00  1.1736E-04  0.0000E+00  0.0000E+00  0.0000E+00  1.4740E-04  0.0000E+00  0.0000E+00  0.0000E+00
 60  0.0000E+00  1.3046E-04  0.0000E+00  0.0000E+00  0.0000E+00  0.0000E+00  0.0000E+00  0.0000E+00  0.0000E+00
 61  0.0000E+00  1.1899E-04  0.0000E+00  0.0000E+00  0.0000E+00  0.0000E+00  0.0000E+00  0.0000E+00  1.2666E-03
 62  0.0000E+00  2.4221E-04  0.0000E+00  0.0000E+00  7.7549E-04  0.0000E+00  0.0000E+00  8.4965E-06  0.0000E+00
 63  0.0000E+00  4.1278E-04  0.0000E+00  0.0000E+00  0.0000E+00  1.9453E-03  0.0000E+00  9.0373E-04  0.0000E+00
 64  0.0000E+00  9.6613E-04  6.3021E-03  0.0000E+00  0.0000E+00  0.0000E+00  0.0000E+00  0.0000E+00  0.0000E+00
 65  0.0000E+00  2.9247E-03  0.0000E+00  0.0000E+00  8.3957E-03  1.4273E-02  4.1472E-03  0.0000E+00  2.1299E-02
 66  0.0000E+00  4.7041E-03  0.0000E+00  2.3270E-02  0.0000E+00  0.0000E+00  0.0000E+00  0.0000E+00  0.0000E+00
 67  0.0000E+00  9.7399E-03  3.9346E-02  0.0000E+00  0.0000E+00  3.4529E-03  0.0000E+00  0.0000E+00  2.3475E-02
 68  0.0000E+00  1.3928E-01  2.1610E-03  1.1397E-02  6.7377E-02  1.0601E-01  1.5145E-01  1.4601E-01  8.8581E-03
 69  0.0000E+00  6.0896E-02  0.0000E+00  3.4921E-02  0.0000E+00  3.6734E-02  0.0000E+00  2.2803E-02  0.0000E+00
 70  0.0000E+00  9.2586E-02  1.2755E-01  0.0000E+00  0.0000E+00  0.0000E+00  1.5639E-01  0.0000E+00  2.0210E-01
 71  3.0576E+00  4.0021E+00  4.1678E+00  3.9959E+00  3.8962E+00  3.6033E+00  3.9602E+00  3.8750E+00  4.0451E+00
 72  3.4732E+00  3.6133E+00  3.8083E+00  3.5908E+00  3.6594E+00  3.7420E+00  3.4517E+00  3.6682E+00  3.6396E+00
 73  0.0000E+00  8.8507E-02  0.0000E+00  0.0000E+00  1.7845E-01  0.0000E+00  5.7073E-02  1.2931E-01  0.0000E+00
 74  0.0000E+00  1.4433E-01  0.0000E+00  4.2118E-01  0.0000E+00  0.0000E+00  7.3636E-02  0.0000E+00  2.4037E-01
 75  0.0000E+00  7.4806E-02  2.3560E-01  1.8689E-01  0.0000E+00  0.0000E+00  4.7585E-02  0.0000E+00  1.2857E-02
 76  0.0000E+00  3.1931E-05  0.0000E+00  0.0000E+00  0.0000E+00  0.0000E+00  0.0000E+00  0.0000E+00  0.0000E+00
 77  0.0000E+00  9.4581E-06  0.0000E+00  0.0000E+00  0.0000E+00  0.0000E+00  0.0000E+00  0.0000E+00  0.0000E+00
 78  0.0000E+00  1.3079E-05  0.0000E+00  0.0000E+00  0.0000E+00  0.0000E+00  0.0000E+00  7.7082E-05  0.0000E+00
 79  0.0000E+00  4.3779E-05  0.0000E+00  0.0000E+00  0.0000E+00  3.2244E-05  0.0000E+00  4.0724E-05  0.0000E+00
 80  0.0000E+00  3.8600E-05  0.0000E+00  0.0000E+00  0.0000E+00  0.0000E+00  0.0000E+00  0.0000E+00  0.0000E+00
 81  0.0000E+00  5.5514E-05  0.0000E+00  0.0000E+00  0.0000E+00  0.0000E+00  0.0000E+00  0.0000E+00  0.0000E+00
 82  0.0000E+00  5.9221E-05  0.0000E+00  3.1242E-04  0.0000E+00  0.0000E+00  0.0000E+00  0.0000E+00  0.0000E+00
 83  0.0000E+00  8.3305E-05  0.0000E+00  0.0000E+00  0.0000E+00  0.0000E+00  0.0000E+00  0.0000E+00  0.0000E+00
 84  0.0000E+00  1.0283E-04  0.0000E+00  0.0000E+00  0.0000E+00  0.0000E+00  0.0000E+00  0.0000E+00  0.0000E+00
 85  0.0000E+00  1.2985E-04  0.0000E+00  0.0000E+00  0.0000E+00  0.0000E+00  0.0000E+00  0.0000E+00  0.0000E+00
 86  0.0000E+00  2.1457E-04  8.6055E-04  0.0000E+00  0.0000E+00  0.0000E+00  0.0000E+00  0.0000E+00  0.0000E+00
 87  0.0000E+00  3.5076E-04  0.0000E+00  0.0000E+00  0.0000E+00  0.0000E+00  0.0000E+00  0.0000E+00  0.0000E+00
 88  0.0000E+00  2.6255E-04  0.0000E+00  0.0000E+00  0.0000E+00  6.3828E-04  4.0159E-05  0.0000E+00  0.0000E+00
 89  0.0000E+00  5.6502E-04  0.0000E+00  0.0000E+00  0.0000E+00  0.0000E+00  0.0000E+00  0.0000E+00  0.0000E+00
 90  0.0000E+00  2.5401E-03  0.0000E+00  0.0000E+00  0.0000E+00  0.0000E+00  0.0000E+00  0.0000E+00  0.0000E+00
 91  0.0000E+00  4.5673E-03  2.5063E-03  0.0000E+00  0.0000E+00  0.0000E+00  0.0000E+00  0.0000E+00  0.0000E+00
 92  0.0000E+00  7.4286E-03  2.2042E-03  4.3934E-03  0.0000E+00  0.0000E+00  0.0000E+00  0.0000E+00  0.0000E+00
 93  0.0000E+00  3.8123E-02  1.6656E-01  0.0000E+00  4.6517E-02  0.0000E+00  0.0000E+00  0.0000E+00  0.0000E+00
 94  9.0491E+00  8.0525E+00  8.3496E+00  8.3560E+00  7.9906E+00  8.3706E+00  7.7805E+00  8.3033E+00  8.2478E+00
 95  6.2445E+00  5.0806E+00  5.2975E+00  5.4590E+00  5.3377E+00  5.4244E+00  5.0695E+00  5.2814E+00  5.5737E+00
 96  4.7201E+00  3.2670E+00  3.7337E+00  3.4726E+00  3.9056E+00  3.7804E+00  3.4349E+00  3.0935E+00  2.9349E+00
 97  4.3854E+00  2.8681E+00  2.9477E+00  2.8763E+00  2.9289E+00  2.8631E+00  3.1029E+00  3.0305E+00  3.3098E+00
 98  5.0335E-01  8.3307E-01  7.9396E-01  3.6214E-01  8.3061E-01  1.0276E+00  7.5770E-01  5.5562E-01  6.5120E-01
 99  1.1903E+01  1.2082E+01  1.1377E+01  1.2121E+01  1.2482E+01  1.2135E+01  1.1828E+01  1.2279E+01  1.2016E+01
100  8.1646E+00  9.4602E+00  9.3260E+00  9.5294E+00  9.4923E+00  9.6648E+00  9.7801E+00  9.9818E+00  9.6569E+00
101  0.0000E+00  2.5044E-05  0.0000E+00  0.0000E+00  0.0000E+00  0.0000E+00  1.2040E-04  0.0000E+00  0.0000E+00
102  0.0000E+00  9.0143E-06  0.0000E+00  0.0000E+00  0.0000E+00  2.4431E-06  0.0000E+00  0.0000E+00  5.4245E-05
103  0.0000E+00  1.6162E-05  0.0000E+00  0.0000E+00  0.0000E+00  0.0000E+00  0.0000E+00  0.0000E+00  0.0000E+00
104  0.0000E+00  2.5104E-05  0.0000E+00  0.0000E+00  0.0000E+00  0.0000E+00  2.4282E-04  0.0000E+00  0.0000E+00
105  0.0000E+00  5.1151E-05  2.6583E-05  0.0000E+00  0.0000E+00  0.0000E+00  0.0000E+00  0.0000E+00  0.0000E+00
106  0.0000E+00  3.1057E-05  0.0000E+00  0.0000E+00  0.0000E+00  0.0000E+00  0.0000E+00  0.0000E+00  0.0000E+00
107  0.0000E+00  7.0893E-05  0.0000E+00  0.0000E+00  0.0000E+00  0.0000E+00  0.0000E+00  0.0000E+00  0.0000E+00
108  0.0000E+00  7.2756E-05  0.0000E+00  0.0000E+00  0.0000E+00  0.0000E+00  0.0000E+00  0.0000E+00  0.0000E+00
109  0.0000E+00  8.6103E-05  4.0302E-04  0.0000E+00  0.0000E+00  0.0000E+00  0.0000E+00  0.0000E+00  0.0000E+00
110  0.0000E+00  8.4639E-05  0.0000E+00  0.0000E+00  0.0000E+00  0.0000E+00  0.0000E+00  0.0000E+00  0.0000E+00
111  0.0000E+00  1.3981E-04  0.0000E+00  0.0000E+00  0.0000E+00  0.0000E+00  1.6227E-04  0.0000E+00  0.0000E+00
112  0.0000E+00  1.9492E-04  5.3531E-05  0.0000E+00  0.0000E+00  0.0000E+00  0.0000E+00  0.0000E+00  0.0000E+00
113  0.0000E+00  3.7546E-04  0.0000E+00  0.0000E+00  0.0000E+00  4.1004E-04  0.0000E+00  0.0000E+00  1.9014E-03
114  0.0000E+00  6.5291E-04  0.0000E+00  0.0000E+00  0.0000E+00  0.0000E+00  0.0000E+00  0.0000E+00  0.0000E+00
115  0.0000E+00  4.7084E-03  0.0000E+00  0.0000E+00  0.0000E+00  0.0000E+00  0.0000E+00  0.0000E+00  0.0000E+00
116  0.0000E+00  1.1022E-02  0.0000E+00  6.7732E-02  4.8615E-02  0.0000E+00  0.0000E+00  4.0900E-03  0.0000E+00
117  0.0000E+00  1.7524E-02  0.0000E+00  7.0548E-03  0.0000E+00  0.0000E+00  0.0000E+00  0.0000E+00  0.0000E+00
118  0.0000E+00  6.8955E-02  3.6010E-02  0.0000E+00  1.6613E-01  2.6608E-02  2.2120E-01  1.5638E-01  7.7241E-03
119  4.2868E-01  7.2557E-01  6.7319E-01  6.9119E-01  5.0894E-01  7.3833E-01  7.3560E-01  5.5934E-01  8.1831E-01
120  0.0000E+00  8.0765E-02  1.0421E-01  0.0000E+00  0.0000E+00  1.2486E-01  0.0000E+00  1.6370E-01  0.0000E+00
121  0.0000E+00  8.0138E-02  0.0000E+00  1.3300E-01  0.0000E+00  1.2609E-01  4.1960E-02  0.0000E+00  0.0000E+00
122  0.0000E+00  2.2256E-01  0.0000E+00  4.3218E-01  3.4125E-01  0.0000E+00  0.0000E+00  0.0000E+00  5.0109E-01
123  0.0000E+00  8.1288E-02  0.0000E+00  0.0000E+00  1.1811E-01  1.4779E-03  2.4248E-01  0.0000E+00  0.0000E+00
124  0.0000E+00  4.9671E-02  0.0000E+00  6.2657E-02  0.0000E+00  1.5654E-01  0.0000E+00  4.7107E-02  0.0000E+00
125  0.0000E+00  6.6960E-02  0.0000E+00  0.0000E+00  0.0000E+00  1.9114E-01  0.0000E+00  1.3229E-01  0.0000E+00
126  0.0000E+00  8.8321E-06  0.0000E+00  0.0000E+00  2.4708E-06  0.0000E+00  0.0000E+00  0.0000E+00  0.0000E+00
127  0.0000E+00  9.4700E-06  0.0000E+00  1.8878E-05  0.0000E+00  0.0000E+00  0.0000E+00  0.0000E+00  0.0000E+00
128  0.0000E+00  1.8283E-05  0.0000E+00  1.7554E-06  0.0000E+00  0.0000E+00  8.1947E-05  0.0000E+00  9.9130E-05
129  0.0000E+00  2.6464E-05  0.0000E+00  0.0000E+00  0.0000E+00  3.2748E-05  0.0000E+00  0.0000E+00  0.0000E+00
130  0.0000E+00  2.5871E-05  0.0000E+00  0.0000E+00  0.0000E+00  0.0000E+00  0.0000E+00  0.0000E+00  0.0000E+00
131  0.0000E+00  4.9135E-05  0.0000E+00  0.0000E+00  0.0000E+00  8.8778E-06  0.0000E+00  0.0000E+00  0.0000E+00
132  0.0000E+00  4.6384E-05  3.1913E-05  0.0000E+00  5.9981E-05  0.0000E+00  0.0000E+00  0.0000E+00  0.0000E+00
133  0.0000E+00  9.6529E-05  0.0000E+00  0.0000E+00  0.0000E+00  0.0000E+00  0.0000E+00  0.0000E+00  1.9957E-04
134  0.0000E+00  7.9778E-05  0.0000E+00  0.0000E+00  0.0000E+00  0.0000E+00  0.0000E+00  1.1970E-03  0.0000E+00
135  0.0000E+00  1.2470E-04  0.0000E+00  0.0000E+00  0.0000E+00  0.0000E+00  0.0000E+00  0.0000E+00  5.4392E-04
136  0.0000E+00  1.6245E-04  1.7241E-04  0.0000E+00  0.0000E+00  0.0000E+00  0.0000E+00  0.0000E+00  4.2691E-04
137  0.0000E+00  2.6041E-04  0.0000E+00  0.0000E+00  8.1442E-04  0.0000E+00  0.0000E+00  0.0000E+00  0.0000E+00
138  0.0000E+00  4.2053E-04  0.0000E+00  0.0000E+00  0.0000E+00  1.2728E-03  0.0000E+00  0.0000E+00  0.0000E+00
139  0.0000E+00  1.4999E-03  0.0000E+00  0.0000E+00  0.0000E+00  0.0000E+00  0.0000E+00  0.0000E+00  0.0000E+00
140  0.0000E+00  1.3799E-02  0.0000E+00  0.0000E+00  0.0000E+00  0.0000E+00  0.0000E+00  2.1402E-02  1.7229E-03
141  5.2786E-01  6.9163E-01  5.8919E-01  5.8912E-01  6.1076E-01  5.4671E-01  6.5230E-01  7.9531E-01  5.4169E-01
142  0.0000E+00  3.9946E-02  7.6298E-02  0.0000E+00  0.0000E+00  0.0000E+00  0.0000E+00  0.0000E+00  0.0000E+00
143  0.0000E+00  2.9274E-02  0.0000E+00  0.0000E+00  0.0000E+00  0.0000E+00  0.0000E+00  3.7357E-02  3.2184E-01
144  0.0000E+00  2.0649E-01  1.8140E-01  4.9838E-01  0.0000E+00  2.2219E-01  3.7886E-01  2.5083E-01  1.3142E-01
145  0.0000E+00  5.4439E-02  1.7218E-01  0.0000E+00  7.8702E-03  0.0000E+00  1.4832E-01  0.0000E+00  1.2837E-01
146  0.0000E+00  5.7719E-02  9.4346E-02  0.0000E+00  0.0000E+00  3.0714E-01  0.0000E+00  0.0000E+00  0.0000E+00
147  0.0000E+00  3.2703E-02  0.0000E+00  0.0000E+00  0.0000E+00  0.0000E+00  0.0000E+00  0.0000E+00  0.0000E+00
148  0.0000E+00  3.9915E-02  0.0000E+00  0.0000E+00  0.0000E+00  0.0000E+00  0.0000E+00  0.0000E+00  1.1537E-01
149  0.0000E+00  4.8165E-02  0.0000E+00  0.0000E+00  0.0000E+00  0.0000E+00  0.0000E+00  0.0000E+00  0.0000E+00
150  0.0000E+00  3.7295E-02  0.0000E+00  5.6233E-02  0.0000E+00  0.0000E+00  0.0000E+00  0.0000E+00  0.0000E+00

# AV, chi2 & Mass for <> & i_chain = 1 ...  7 solutions
AV       0.6140      0.6129      0.6134      0.6128      0.6139      0.6143      0.6123      0.6147      0.6144
chi2 2.9547E+00  3.0378E+00  3.0111E+00  3.0106E+00  3.0047E+00  2.9943E+00  3.0146E+00  3.0038E+00  3.0093E+00
Mass 2.3634E-09  2.3526E-09  2.3500E-09  2.3511E-09  2.3648E-09  2.3610E-09  2.3626E-09  2.3535E-09  2.3579E-09
 -11.13                                  [v0_min (km/s) before EX0s...]
  51.44                                  [vd_min (km/s) before EX0s...]


## Synthetic spectrum (Best Model) ##l_obs f_obs f_syn wei
 3070    [Nl_obs]
 3359.00    0.26280   0.45494   -1.000
 3360.00    0.25139   0.43377   -1.000
 3361.00    0.25340   0.44116   -1.000
 3362.00    0.26736   0.46961   -1.000
 3363.00    0.28505   0.50505   -1.000
 3364.00    0.29950   0.52752   -1.000
 3365.00    0.31361   0.52832   -1.000
 3366.00    0.31820   0.51839   -1.000
 3367.00    0.31138   0.50640   -1.000
 3368.00    0.30570   0.49415   -1.000
 3369.00    0.30425   0.48050   -1.000
 3370.00    0.30226   0.46147   -1.000
 3371.00    0.29959   0.44858   -1.000
 3372.00    0.29783   0.45198   -1.000
 3373.00    0.30724   0.47228   -1.000
 3374.00    0.32053   0.50196   -1.000
 3375.00    0.34002   0.53038   -1.000
 3376.00    0.35717   0.54403   -1.000
 3377.00    0.36053   0.53812   -1.000
 3378.00    0.36034   0.52017   -1.000
 3379.00    0.36207   0.50587   -1.000
 3380.00    0.35736   0.50406   -1.000
 3381.00    0.35479   0.51170   -1.000
 3382.00    0.36146   0.52199   -1.000
 3383.00    0.37245   0.53049   -1.000
 3384.00    0.37796   0.53825   -1.000
 3385.00    0.37949   0.54444   -1.000
 3386.00    0.38469   0.54071   -1.000
 3387.00    0.39313   0.52958   -1.000
 3388.00    0.39658   0.52387   -1.000
 3389.00    0.40085   0.53064   -1.000
 3390.00    0.40432   0.54094   -1.000
 3391.00    0.40767   0.54306   -1.000
 3392.00    0.40909   0.53243   -1.000
 3393.00    0.40853   0.52377   -1.000
 3394.00    0.41167   0.52930   -1.000
 3395.00    0.42064   0.54517   -1.000
 3396.00    0.43836   0.56383   -1.000
 3397.00    0.45512   0.57919   -1.000
 3398.00    0.46833   0.58997   -1.000
 3399.00    0.47846   0.59301   -1.000
 3400.00    0.48388   0.58770   -1.000
 3401.00    0.48365   0.57481   -1.000
 3402.00    0.47492   0.55631   -1.000
 3403.00    0.46723   0.54308   -1.000
 3404.00    0.46322   0.53741   -1.000
 3405.00    0.45685   0.53885   -1.000
 3406.00    0.44852   0.53841   -1.000
 3407.00    0.44530   0.53255   -1.000
 3408.00    0.44721   0.52693   -1.000
 3409.00    0.44894   0.53035   -1.000
 3410.00    0.45127   0.53918   -1.000
 3411.00    0.45753   0.53917   -1.000
 3412.00    0.46394   0.52981   -1.000
 3413.00    0.46608   0.51791   -1.000
 3414.00    0.46171   0.51622   -1.000
 3415.00    0.46309   0.52877   -1.000
 3416.00    0.46609   0.54596   -1.000
 3417.00    0.47575   0.56079   -1.000
 3418.00    0.49287   0.57249   -1.000
 3419.00    0.50679   0.58171   -1.000
 3420.00    0.51384   0.58618   -1.000
 3421.00    0.51661   0.58020   -1.000
 3422.00    0.51229   0.56267   -1.000
 3423.00    0.50498   0.54648   -1.000
 3424.00    0.50051   0.54263   -1.000
 3425.00    0.50465   0.54824   -1.000
 3426.00    0.51462   0.55685   -1.000
 3427.00    0.52211   0.56955   -1.000
 3428.00    0.53334   0.58815   -1.000
 3429.00    0.54004   0.60527   -1.000
 3430.00    0.54731   0.60792   -1.000
 3431.00    0.55126   0.59093   -1.000
 3432.00    0.54551   0.56968   87.969
 3433.00    0.53694   0.56140  121.680
 3434.00    0.53247   0.57187   -1.000
 3435.00    0.54220   0.58700   -1.000
 3436.00    0.54673   0.58857   -1.000
 3437.00    0.53812   0.57545   -1.000
 3438.00    0.52437   0.55529   99.542
 3439.00    0.50809   0.53248  106.290
 3440.00    0.48497   0.50976  109.230
 3441.00    0.46510   0.49175  109.170
 3442.00    0.46302   0.48509  107.425
 3443.00    0.47161   0.49008  102.585
 3444.00    0.48287   0.50208   96.930
 3445.00    0.49731   0.51824   92.216
 3446.00    0.51521   0.54030   -1.000
 3447.00    0.53148   0.56483   -1.000
 3448.00    0.54542   0.58549   -1.000
 3449.00    0.56011   0.59497   -1.000
 3450.00    0.56598   0.58612   -1.000
 3451.00    0.55903   0.56595   -1.000
 3452.00    0.55651   0.55016   -1.000
 3453.00    0.54926   0.54774  688.120
 3454.00    0.54719   0.55603   -1.000
 3455.00    0.56129   0.56547  688.120
 3456.00    0.56669   0.56690  688.120
 3457.00    0.56476   0.55970  223.749
 3458.00    0.55679   0.54821   88.169
 3459.00    0.54364   0.53590   88.788
 3460.00    0.53896   0.52497  124.347
 3461.00    0.53750   0.52400   -1.000
 3462.00    0.54252   0.53692   -1.000
 3463.00    0.55040   0.55194  688.120
 3464.00    0.56402   0.55690   -1.000
 3465.00    0.57019   0.55325   -1.000
 3466.00    0.56803   0.55447   -1.000
 3467.00    0.56932   0.56633  688.120
 3468.00    0.57423   0.58376   -1.000
 3469.00    0.58603   0.59773   -1.000
 3470.00    0.59731   0.60056  688.120
 3471.00    0.59270   0.59141  688.120
 3472.00    0.57940   0.57398   -1.000
 3473.00    0.56073   0.54952  222.148
 3474.00    0.53862   0.52659   89.594
 3475.00    0.52371   0.51419   91.188
 3476.00    0.51253   0.51793  127.046
 3477.00    0.52310   0.53622   -1.000
 3478.00    0.54990   0.55674   -1.000
 3479.00    0.57480   0.57293  688.120
 3480.00    0.59219   0.58362   -1.000
 3481.00    0.59899   0.58507   -1.000
 3482.00    0.59648   0.57870   -1.000
 3483.00    0.59102   0.57155   -1.000
 3484.00    0.58540   0.57154   -1.000
 3485.00    0.58745   0.58227   -1.000
 3486.00    0.60017   0.59462   -1.000
 3487.00    0.60490   0.59646   -1.000
 3488.00    0.59737   0.58435   -1.000
 3489.00    0.58361   0.56387   -1.000
 3490.00    0.56768   0.54897   -1.000
 3491.00    0.55344   0.54960  688.120
 3492.00    0.55226   0.55901   -1.000
 3493.00    0.55701   0.56425   -1.000
 3494.00    0.55769   0.56141  688.120
 3495.00    0.55590   0.55193   -1.000
 3496.00    0.54777   0.54439  688.120
 3497.00    0.54844   0.54796  688.120
 3498.00    0.56428   0.55946   -1.000
 3499.00    0.58584   0.57188   -1.000
 3500.00    0.60014   0.57760   -1.000
 3501.00    0.60511   0.58108   -1.000
 3502.00    0.61036   0.58814   -1.000
 3503.00    0.61398   0.59255   -1.000
 3504.00    0.60887   0.58898   -1.000
 3505.00    0.60017   0.57864   -1.000
 3506.00    0.59275   0.56924   -1.000
 3507.00    0.59197   0.56543   -1.000
 3508.00    0.59678   0.56493   -1.000
 3509.00    0.59750   0.56473   -1.000
 3510.00    0.59036   0.56194   -1.000
 3511.00    0.58478   0.55654   -1.000
 3512.00    0.57317   0.54771   -1.000
 3513.00    0.56185   0.53956   -1.000
 3514.00    0.55941   0.54127   -1.000
 3515.00    0.56913   0.55837   -1.000
 3516.00    0.58979   0.58631  688.120
 3517.00    0.60931   0.60761  688.120
 3518.00    0.61388   0.60956   -1.000
 3519.00    0.60573   0.59308   -1.000
 3520.00    0.59303   0.57264   -1.000
 3521.00    0.57860   0.55721   -1.000
 3522.00    0.56575   0.54597   -1.000
 3523.00    0.55241   0.53374   88.829
 3524.00    0.53631   0.51938   90.715
 3525.00    0.52454   0.51200  130.971
 3526.00    0.52219   0.52118  688.120
 3527.00    0.53227   0.54266   -1.000
 3528.00    0.55861   0.56818   -1.000
 3529.00    0.58247   0.58787   -1.000
 3530.00    0.59240   0.59759   -1.000
 3531.00    0.59766   0.59841  688.120
 3532.00    0.59806   0.59061   -1.000
 3533.00    0.59965   0.57858   -1.000
 3534.00    0.60761   0.57212   -1.000
 3535.00    0.61202   0.57639   -1.000
 3536.00    0.61184   0.59208   -1.000
 3537.00    0.61277   0.61096  688.120
 3538.00    0.61914   0.62455   -1.000
 3539.00    0.62563   0.62990  688.120
 3540.00    0.62917   0.62686  688.120
 3541.00    0.62399   0.62153  688.120
 3542.00    0.61999   0.62157  688.120
 3543.00    0.62597   0.62846  688.120
 3544.00    0.62785   0.63423   -1.000
 3545.00    0.62324   0.63306   -1.000
 3546.00    0.61862   0.62712   -1.000
 3547.00    0.61982   0.62112  688.120
 3548.00    0.62159   0.61967  688.120
 3549.00    0.62387   0.62364  688.120
 3550.00    0.62518   0.62935  688.120
 3551.00    0.62387   0.63013   -1.000
 3552.00    0.61346   0.62083   -1.000
 3553.00    0.60171   0.60649   -1.000
 3554.00    0.59598   0.59831  688.120
 3555.00    0.59715   0.60087  688.120
 3556.00    0.60203   0.60939   -1.000
 3557.00    0.60026   0.61806   -1.000
 3558.00    0.59946   0.62197   -1.000
 3559.00    0.59984   0.62172   -1.000
 3560.00    0.59962   0.62263   -1.000
 3561.00    0.60606   0.62602   -1.000
 3562.00    0.60993   0.62516   -1.000
 3563.00    0.60872   0.61144  205.409
 3564.00    0.59077   0.58540   89.934
 3565.00    0.55899   0.55954   91.887
 3566.00    0.54224   0.54702   90.995
 3567.00    0.53774   0.54652   91.798
 3568.00    0.53469   0.54672   94.444
 3569.00    0.52622   0.54014   94.404
 3570.00    0.51937   0.52998   90.924
 3571.00    0.52449   0.52559  131.263
 3572.00    0.53899   0.53007   -1.000
 3573.00    0.54885   0.53821   -1.000
 3574.00    0.55376   0.54675   -1.000
 3575.00    0.55948   0.55561  688.120
 3576.00    0.56621   0.56300  688.120
 3577.00    0.56640   0.56658  210.982
 3578.00    0.55900   0.56347   94.192
 3579.00    0.55011   0.55006  100.894
 3580.00    0.53212   0.53153  104.599
 3581.00    0.51031   0.51673  105.148
 3582.00    0.50251   0.51199  106.401
 3583.00    0.50813   0.51355  109.420
 3584.00    0.50673   0.50873  112.278
 3585.00    0.49328   0.49477  111.032
 3586.00    0.48093   0.48133  105.240
 3587.00    0.48381   0.48051   99.827
 3588.00    0.49998   0.49695   93.361
 3589.00    0.51878   0.52543  131.803
 3590.00    0.54151   0.55409   -1.000
 3591.00    0.56595   0.57238   -1.000
 3592.00    0.58158   0.57781  688.120
 3593.00    0.58469   0.57923   -1.000
 3594.00    0.58856   0.58629  688.120
 3595.00    0.59891   0.60048  688.120
 3596.00    0.60989   0.61501   -1.000
 3597.00    0.62292   0.62424  664.867
 3598.00    0.63178   0.62899  661.174
 3599.00    0.63803   0.63061   -1.000
 3600.00    0.63604   0.62483   -1.000
 3601.00    0.62164   0.60859   -1.000
 3602.00    0.60271   0.59049   -1.000
 3603.00    0.58758   0.57888   -1.000
 3604.00    0.57491   0.57735  688.120
 3605.00    0.56786   0.57950   -1.000
 3606.00    0.56840   0.57724   -1.000
 3607.00    0.57065   0.56897  688.120
 3608.00    0.56129   0.55893  688.120
 3609.00    0.55220   0.55443  688.120
 3610.00    0.55134   0.55779   -1.000
 3611.00    0.56164   0.56686   -1.000
 3612.00    0.57111   0.57727   -1.000
 3613.00    0.57688   0.58742   -1.000
 3614.00    0.59074   0.60109   -1.000
 3615.00    0.60047   0.61440   -1.000
 3616.00    0.59918   0.61222   -1.000
 3617.00    0.58436   0.59210  195.982
 3618.00    0.55807   0.56684  132.746
 3619.00    0.54135   0.55597   -1.000
 3620.00    0.55247   0.56765   -1.000
 3621.00    0.58206   0.59059   -1.000
 3622.00    0.60695   0.61067  685.278
 3623.00    0.61950   0.62373  670.098
 3624.00    0.62507   0.63661   -1.000
 3625.00    0.63340   0.65666   -1.000
 3626.00    0.65174   0.67999   -1.000
 3627.00    0.66516   0.69360   -1.000
 3628.00    0.65999   0.68296   -1.000
 3629.00    0.63589   0.64776   -1.000
 3630.00    0.59722   0.60348   -1.000
 3631.00    0.56613   0.57576   -1.000
 3632.00    0.55373   0.57512   -1.000
 3633.00    0.56196   0.59127   -1.000
 3634.00    0.57775   0.60624   -1.000
 3635.00    0.58788   0.61274   -1.000
 3636.00    0.59636   0.61883   -1.000
 3637.00    0.61170   0.63276   -1.000
 3638.00    0.62940   0.65002   -1.000
 3639.00    0.64546   0.66220   -1.000
 3640.00    0.65013   0.66455   -1.000
 3641.00    0.64163   0.65589   -1.000
 3642.00    0.62506   0.63964   -1.000
 3643.00    0.60903   0.62271   -1.000
 3644.00    0.59966   0.60963   -1.000
 3645.00    0.59195   0.60111   -1.000
 3646.00    0.58532   0.59515   -1.000
 3647.00    0.57997   0.59130   -1.000
 3648.00    0.57762   0.59120   -1.000
 3649.00    0.58512   0.59545   -1.000
 3650.00    0.59677   0.60513   -1.000
 3651.00    0.61172   0.62046   -1.000
 3652.00    0.63063   0.63908   -1.000
 3653.00    0.64344   0.65549   -1.000
 3654.00    0.64874   0.66894   -1.000
 3655.00    0.65545   0.68069   -1.000
 3656.00    0.66241   0.69059   -1.000
 3657.00    0.66693   0.69688   -1.000
 3658.00    0.67096   0.69845   -1.000
 3659.00    0.67388   0.69730   -1.000
 3660.00    0.67506   0.69304   -1.000
 3661.00    0.67333   0.68391   -1.000
 3662.00    0.66600   0.67258   -1.000
 3663.00    0.65856   0.66547   -1.000
 3664.00    0.65605   0.66620   -1.000
 3665.00    0.65753   0.67078   -1.000
 3666.00    0.65953   0.67264   -1.000
 3667.00    0.65886   0.66818   -1.000
 3668.00    0.64621   0.65823   -1.000
 3669.00    0.63387   0.65031   -1.000
 3670.00    0.63530   0.65192   -1.000
 3671.00    0.64836   0.66256   -1.000
 3672.00    0.66407   0.67462   -1.000
 3673.00    0.66894   0.68083   -1.000
 3674.00    0.66436   0.67921   -1.000
 3675.00    0.65998   0.67018   -1.000
 3676.00    0.65377   0.65388  664.847
 3677.00    0.63748   0.63469  683.698
 3678.00    0.62247   0.62043  688.120
 3679.00    0.61790   0.61695  684.068
 3680.00    0.62140   0.62267  665.124
 3681.00    0.63034   0.63193  651.299
 3682.00    0.63491   0.63952  654.428
 3683.00    0.63652   0.64192   -1.000
 3684.00    0.63348   0.63686  688.120
 3685.00    0.62061   0.62440  688.120
 3686.00    0.60400   0.61359   -1.000
 3687.00    0.59831   0.61576   -1.000
 3688.00    0.60905   0.63357   -1.000
 3689.00    0.62860   0.65860   -1.000
 3690.00    0.65282   0.67748   -1.000
 3691.00    0.66824   0.68525   -1.000
 3692.00    0.67186   0.68430   -1.000
 3693.00    0.66641   0.67973   -1.000
 3694.00    0.66539   0.67682   -1.000
 3695.00    0.66719   0.67567   -1.000
 3696.00    0.66076   0.67379   -1.000
 3697.00    0.66388   0.67686   -1.000
 3698.00    0.68249   0.69176   -1.000
 3699.00    0.70164   0.71300   -1.000
 3700.00    0.71248   0.72639   -1.000
 3701.00    0.70897   0.71595   -1.000
 3702.00    0.68311   0.67982  688.120
 3703.00    0.64396   0.63258   -1.000
 3704.00    0.61002   0.59509   -1.000
 3705.00    0.59053   0.57920   -1.000
 3706.00    0.58893   0.58396   -1.000
 3707.00    0.59751   0.59841  688.120
 3708.00    0.60894   0.61164  688.120
 3709.00    0.62113   0.61651   -1.000
 3710.00    0.62937   0.61569   -1.000
 3711.00    0.63698   0.61908   -1.000
 3712.00    0.65245   0.63544   -1.000
 3713.00    0.68100   0.66494   -1.000
 3714.00    0.71014   0.69655   -1.000
 3715.00    0.72647   0.71801   -1.000
 3716.00    0.72626   0.72384  633.244
 3717.00    0.71181   0.71121  688.120
 3718.00    0.67752   0.67476  688.120
 3719.00    0.62274   0.61625  185.058
 3720.00    0.56810   0.55507  142.902
 3721.00    0.53687   0.52250   -1.000
 3722.00    0.54573   0.53182   -1.000
 3723.00    0.58818   0.57590   -1.000
 3724.00    0.64333   0.63392   -1.000
 3725.00    0.68302   0.67581   -1.000
 3726.00    0.69556   0.68941   -1.000
 3727.00    0.68781   0.68970  660.206
 3728.00    0.68443   0.69221   -1.000
 3729.00    0.68853   0.69629   -1.000
 3730.00    0.68263   0.68865   -1.000
 3731.00    0.65582   0.65417  177.896
 3732.00    0.61021   0.59355   91.694
 3733.00    0.55698   0.53034   99.601
 3734.00    0.51448   0.48633   99.418
 3735.00    0.49656   0.47754   92.385
 3736.00    0.51073   0.50613  140.872
 3737.00    0.55029   0.55971   -1.000
 3738.00    0.60263   0.62078   -1.000
 3739.00    0.65617   0.67603   -1.000
 3740.00    0.69472   0.70872   -1.000
 3741.00    0.70620   0.71265   -1.000
 3742.00    0.69666   0.69414  688.120
 3743.00    0.67437   0.66777   -1.000
 3744.00    0.64590   0.64150   -1.000
 3745.00    0.61884   0.61732  180.607
 3746.00    0.59363   0.59138   91.104
 3747.00    0.56437   0.55820   94.901
 3748.00    0.53285   0.52281  155.134
 3749.00    0.50918   0.50067   -1.000
 3750.00    0.52058   0.51002   -1.000
 3751.00    0.57112   0.55321   -1.000
 3752.00    0.63206   0.61480   -1.000
 3753.00    0.68628   0.67621   -1.000
 3754.00    0.72973   0.72097   -1.000
 3755.00    0.75488   0.73838   -1.000
 3756.00    0.74569   0.72554   -1.000
 3757.00    0.70354   0.69061   -1.000
 3758.00    0.66164   0.65662   -1.000
 3759.00    0.64943   0.64344   -1.000
 3760.00    0.66441   0.65104   -1.000
 3761.00    0.68693   0.66809   -1.000
 3762.00    0.70164   0.68216   -1.000
 3763.00    0.70834   0.68850   -1.000
 3764.00    0.70848   0.68767   -1.000
 3765.00    0.70060   0.67962   -1.000
 3766.00    0.68707   0.66364   -1.000
 3767.00    0.66945   0.64056   -1.000
 3768.00    0.65453   0.61168   -1.000
 3769.00    0.63813   0.58374   -1.000
 3770.00    0.62567   0.57094   -1.000
 3771.00    0.63458   0.58686   -1.000
 3772.00    0.66553   0.62650   -1.000
 3773.00    0.70205   0.66966   -1.000
 3774.00    0.72708   0.69853   -1.000
 3775.00    0.73770   0.71338   -1.000
 3776.00    0.74908   0.72490   -1.000
 3777.00    0.76542   0.74197   -1.000
 3778.00    0.78196   0.76512   -1.000
 3779.00    0.79977   0.78822   -1.000
 3780.00    0.81525   0.80600   -1.000
 3781.00    0.82314   0.81378   -1.000
 3782.00    0.82707   0.81273   -1.000
 3783.00    0.82476   0.80690   -1.000
 3784.00    0.81576   0.79548   -1.000
 3785.00    0.79052   0.77505   -1.000
 3786.00    0.76022   0.74914   -1.000
 3787.00    0.74011   0.72525   -1.000
 3788.00    0.72900   0.71202   -1.000
 3789.00    0.72573   0.71177   -1.000
 3790.00    0.72850   0.71761   -1.000
 3791.00    0.72753   0.71993   -1.000
 3792.00    0.71711   0.71068   -1.000
 3793.00    0.69681   0.68636   -1.000
 3794.00    0.66562   0.65098   -1.000
 3795.00    0.63450   0.60952   -1.000
 3796.00    0.60337   0.56670   -1.000
 3797.00    0.56781   0.53104   -1.000
 3798.00    0.55320   0.52168   -1.000
 3799.00    0.58027   0.55352   -1.000
 3800.00    0.63128   0.61690   -1.000
 3801.00    0.68255   0.68282  626.556
 3802.00    0.72657   0.73255   -1.000
 3803.00    0.75862   0.75969  620.259
 3804.00    0.77499   0.76880   -1.000
 3805.00    0.77562   0.76474   -1.000
 3806.00    0.76723   0.75734   -1.000
 3807.00    0.76453   0.75936   -1.000
 3808.00    0.77625   0.77449  615.993
 3809.00    0.79503   0.79553  618.121
 3810.00    0.80762   0.80850  640.310
 3811.00    0.80384   0.79997   -1.000
 3812.00    0.78226   0.76920   -1.000
 3813.00    0.75135   0.73148   -1.000
 3814.00    0.72053   0.70379   -1.000
 3815.00    0.70533   0.69839   -1.000
 3816.00    0.71298   0.71260  688.120
 3817.00    0.73234   0.72896  688.120
 3818.00    0.73575   0.72814   -1.000
 3819.00    0.71049   0.70791  688.120
 3820.00    0.68568   0.68836  688.120
 3821.00    0.68509   0.68707  688.120
 3822.00    0.70140   0.69837  688.120
 3823.00    0.70332   0.69728  176.786
 3824.00    0.67786   0.67523   92.587
 3825.00    0.64935   0.64996   93.240
 3826.00    0.63430   0.63443   92.064
 3827.00    0.63427   0.62795   90.552
 3828.00    0.63957   0.62547   90.297
 3829.00    0.64411   0.62180   92.859
 3830.00    0.63974   0.61091   98.637
 3831.00    0.61541   0.58639   -1.000
 3832.00    0.57889   0.54759   -1.000
 3833.00    0.54040   0.50328   -1.000
 3834.00    0.51209   0.47088   -1.000
 3835.00    0.50879   0.46206   -1.000
 3836.00    0.52498   0.47529   -1.000
 3837.00    0.54399   0.50129   -1.000
 3838.00    0.55935   0.53087   97.246
 3839.00    0.57583   0.56141  161.332
 3840.00    0.60395   0.59665   -1.000
 3841.00    0.64613   0.63955   -1.000
 3842.00    0.68987   0.68403   -1.000
 3843.00    0.72690   0.72227   -1.000
 3844.00    0.74881   0.74706  688.120
 3845.00    0.75840   0.76059  688.120
 3846.00    0.76473   0.77053   -1.000
 3847.00    0.76790   0.77705   -1.000
 3848.00    0.76550   0.77480   -1.000
 3849.00    0.75523   0.76585   -1.000
 3850.00    0.74666   0.76209   -1.000
 3851.00    0.75305   0.77211   -1.000
 3852.00    0.76978   0.78844   -1.000
 3853.00    0.78056   0.79720   -1.000
 3854.00    0.77595   0.79141   -1.000
 3855.00    0.76163   0.77584   -1.000
 3856.00    0.74770   0.75870  163.808
 3857.00    0.73451   0.74249   89.380
 3858.00    0.71516   0.72688   91.314
 3859.00    0.69703   0.71983   -1.000
 3860.00    0.69843   0.72996   -1.000
 3861.00    0.72747   0.75516   -1.000
 3862.00    0.76961   0.78125   -1.000
 3863.00    0.79669   0.79471  688.120
 3864.00    0.80147   0.79483   -1.000
 3865.00    0.79562   0.79025   -1.000
 3866.00    0.78944   0.78943  688.120
 3867.00    0.78489   0.79357   -1.000
 3868.00    0.77512   0.79641   -1.000
 3869.00    0.76276   0.78970   -1.000
 3870.00    0.74570   0.77130   -1.000
 3871.00    0.72078   0.74780   -1.000
 3872.00    0.70620   0.73052   -1.000
 3873.00    0.71643   0.73196   -1.000
 3874.00    0.74621   0.74957  686.698
 3875.00    0.76989   0.76438   -1.000
 3876.00    0.76519   0.75879   -1.000
 3877.00    0.74086   0.73642   -1.000
 3878.00    0.71563   0.71799  688.120
 3879.00    0.70647   0.71627   -1.000
 3880.00    0.71207   0.72401   -1.000
 3881.00    0.70758   0.72603   -1.000
 3882.00    0.69796   0.71878   -1.000
 3883.00    0.70090   0.70794   -1.000
 3884.00    0.70157   0.68823   -1.000
 3885.00    0.67979   0.65092   -1.000
 3886.00    0.64037   0.60067   -1.000
 3887.00    0.60459   0.55235   -1.000
 3888.00    0.58268   0.52594   -1.000
 3889.00    0.58480   0.53454   -1.000
 3890.00    0.62146   0.57711   -1.000
 3891.00    0.67879   0.63592   -1.000
 3892.00    0.72350   0.68512   -1.000
 3893.00    0.74334   0.71052   -1.000
 3894.00    0.75198   0.72095   -1.000
 3895.00    0.75919   0.73052   -1.000
 3896.00    0.77172   0.74425   -1.000
 3897.00    0.78433   0.75766   -1.000
 3898.00    0.78589   0.76350   -1.000
 3899.00    0.78548   0.76413   -1.000
 3900.00    0.79527   0.76892   -1.000
 3901.00    0.80680   0.77725   -1.000
 3902.00    0.81139   0.78006   -1.000
 3903.00    0.80511   0.77381   -1.000
 3904.00    0.79065   0.76246   -1.000
 3905.00    0.77809   0.75605   -1.000
 3906.00    0.77712   0.76426   -1.000
 3907.00    0.79421   0.78992  548.629
 3908.00    0.82294   0.82218  540.018
 3909.00    0.85131   0.84727  535.101
 3910.00    0.87062   0.86023   -1.000
 3911.00    0.87818   0.86367   -1.000
 3912.00    0.87448   0.85915   -1.000
 3913.00    0.86222   0.84767   -1.000
 3914.00    0.85011   0.83461   -1.000
 3915.00    0.84262   0.82712   -1.000
 3916.00    0.83329   0.82389   -1.000
 3917.00    0.82142   0.81860  604.849
 3918.00    0.80746   0.80766  632.964
 3919.00    0.79287   0.79250  654.598
 3920.00    0.78238   0.77966  657.837
 3921.00    0.77552   0.77397  648.387
 3922.00    0.77248   0.77614  645.040
 3923.00    0.77569   0.78128   -1.000
 3924.00    0.77530   0.78085   -1.000
 3925.00    0.75706   0.76729   -1.000
 3926.00    0.72151   0.73676  173.843
 3927.00    0.67336   0.69269  104.814
 3928.00    0.61542   0.63871  122.785
 3929.00    0.55189   0.57743   -1.000
 3930.00    0.48219   0.50539   -1.000
 3931.00    0.40633   0.42226  192.480
 3932.00    0.33976   0.34391  196.684
 3933.00    0.30170   0.29668  178.554
 3934.00    0.30600   0.30350  150.741
 3935.00    0.35049   0.36228  124.106
 3936.00    0.41854   0.44785  103.233
 3937.00    0.49310   0.53543   -1.000
 3938.00    0.56553   0.61437   -1.000
 3939.00    0.62876   0.67540   -1.000
 3940.00    0.67345   0.71683   -1.000
 3941.00    0.69876   0.73923   -1.000
 3942.00    0.71062   0.74664   -1.000
 3943.00    0.71412   0.74926   -1.000
 3944.00    0.72621   0.75866   -1.000
 3945.00    0.75754   0.77726   -1.000
 3946.00    0.79072   0.79649  595.724
 3947.00    0.80610   0.80662  582.067
 3948.00    0.80634   0.80817  561.675
 3949.00    0.81119   0.80879  554.220
 3950.00    0.82415   0.81054   -1.000
 3951.00    0.82824   0.81095   -1.000
 3952.00    0.82660   0.81420   -1.000
 3953.00    0.83399   0.82351   -1.000
 3954.00    0.84187   0.82974   -1.000
 3955.00    0.83650   0.82520   -1.000
 3956.00    0.81739   0.81364  569.937
 3957.00    0.80393   0.80537  571.749
 3958.00    0.80667   0.80423  609.433
 3959.00    0.80132   0.79596   -1.000
 3960.00    0.76753   0.76747  688.120
 3961.00    0.71404   0.72655   -1.000
 3962.00    0.66742   0.68539  161.046
 3963.00    0.62993   0.64779   98.903
 3964.00    0.58319   0.60142  118.958
 3965.00    0.51554   0.53193  146.296
 3966.00    0.42821   0.44255  170.312
 3967.00    0.34546   0.35270  171.715
 3968.00    0.29692   0.29545  149.008
 3969.00    0.29867   0.29243  122.484
 3970.00    0.34609   0.34210  101.657
 3971.00    0.42028   0.42387  172.801
 3972.00    0.50194   0.51249   -1.000
 3973.00    0.58205   0.58976   -1.000
 3974.00    0.65210   0.65436  616.264
 3975.00    0.70610   0.70711  574.581
 3976.00    0.75040   0.75040  542.857
 3977.00    0.78785   0.78734  513.960
 3978.00    0.82119   0.81924  497.783
 3979.00    0.85367   0.84305   -1.000
 3980.00    0.87558   0.85234   -1.000
 3981.00    0.87706   0.85037   -1.000
 3982.00    0.86909   0.84781   -1.000
 3983.00    0.87289   0.85355   -1.000
 3984.00    0.89095   0.86816   -1.000
 3985.00    0.90864   0.88372   -1.000
 3986.00    0.91955   0.89584   -1.000
 3987.00    0.92409   0.90614   -1.000
 3988.00    0.92715   0.91394   -1.000
 3989.00    0.93318   0.91756   -1.000
 3990.00    0.93957   0.92143   -1.000
 3991.00    0.95027   0.92969   -1.000
 3992.00    0.96210   0.94042   -1.000
 3993.00    0.96511   0.94688   -1.000
 3994.00    0.95397   0.94263   -1.000
 3995.00    0.93493   0.92707   -1.000
 3996.00    0.91836   0.90830   -1.000
 3997.00    0.91196   0.89947   -1.000
 3998.00    0.91860   0.90694   -1.000
 3999.00    0.93820   0.92592   -1.000
 4000.00    0.96459   0.94485   -1.000
 4001.00    0.98296   0.95640   -1.000
 4002.00    0.99433   0.95709   -1.000
 4003.00    0.98594   0.94486   -1.000
 4004.00    0.95241   0.92192   -1.000
 4005.00    0.92043   0.90335   -1.000
 4006.00    0.92022   0.90651   -1.000
 4007.00    0.94684   0.92910   -1.000
 4008.00    0.97147   0.95470   -1.000
 4009.00    0.98554   0.97059   -1.000
 4010.00    0.99228   0.97663   -1.000
 4011.00    0.99317   0.97676   -1.000
 4012.00    0.99238   0.97490   -1.000
 4013.00    0.99446   0.97558   -1.000
 4014.00    0.99818   0.98031   -1.000
 4015.00    1.00000   0.98592   -1.000
 4016.00    1.00520   0.98915   -1.000
 4017.00    1.00564   0.99166   -1.000
 4018.00    1.00619   0.99711   -1.000
 4019.00    1.00886   1.00367  420.202
 4020.00    1.00757   1.00633  424.426
 4021.00    1.00313   1.00199  427.022
 4022.00    0.99727   0.99292  430.135
 4023.00    0.99280   0.98247   -1.000
 4024.00    0.99084   0.97577   -1.000
 4025.00    0.99910   0.98054   -1.000
 4026.00    1.01886   0.99707   -1.000
 4027.00    1.03342   1.01164   -1.000
 4028.00    1.02964   1.00897   -1.000
 4029.00    1.00586   0.98716   -1.000
 4030.00    0.96795   0.95668   -1.000
 4031.00    0.93868   0.93297   -1.000
 4032.00    0.93315   0.92408   -1.000
 4033.00    0.94429   0.93011   -1.000
 4034.00    0.96009   0.94874   -1.000
 4035.00    0.98295   0.97671  398.025
 4036.00    1.01746   1.00811   -1.000
 4037.00    1.04439   1.03349   -1.000
 4038.00    1.05482   1.04258   -1.000
 4039.00    1.04915   1.03650   -1.000
 4040.00    1.02842   1.02540  414.210
 4041.00    1.01930   1.01685  426.142
 4042.00    1.01846   1.00498   -1.000
 4043.00    0.99493   0.97696   -1.000
 4044.00    0.94719   0.93605   -1.000
 4045.00    0.90443   0.90667  465.489
 4046.00    0.90749   0.91215  429.620
 4047.00    0.95343   0.94881  411.596
 4048.00    1.00366   0.98973   -1.000
 4049.00    1.03126   1.01546   -1.000
 4050.00    1.03904   1.02390   -1.000
 4051.00    1.03445   1.02126   -1.000
 4052.00    1.02287   1.01066   -1.000
 4053.00    1.00912   0.99708   -1.000
 4054.00    0.99885   0.98716   -1.000
 4055.00    0.99225   0.98235   -1.000
 4056.00    0.98905   0.98017   -1.000
 4057.00    0.98937   0.98136   -1.000
 4058.00    0.99409   0.99124  418.241
 4059.00    1.00871   1.00621  418.808
 4060.00    1.02509   1.01014   -1.000
 4061.00    1.01857   0.99147   -1.000
 4062.00    0.97992   0.95718   -1.000
 4063.00    0.94221   0.92892   -1.000
 4064.00    0.93542   0.92031   -1.000
 4065.00    0.95786   0.92869   -1.000
 4066.00    0.97959   0.94434   -1.000
 4067.00    0.99219   0.95931   -1.000
 4068.00    1.00884   0.97012   -1.000
 4069.00    1.01886   0.97070   -1.000
 4070.00    1.00558   0.95593   -1.000
 4071.00    0.98072   0.93738   -1.000
 4072.00    0.97092   0.93402   -1.000
 4073.00    0.98269   0.94479   -1.000
 4074.00    0.99288   0.95032   -1.000
 4075.00    0.97485   0.93518   -1.000
 4076.00    0.93800   0.90629   -1.000
 4077.00    0.90821   0.88632   -1.000
 4078.00    0.91441   0.89265   -1.000
 4079.00    0.94868   0.92484   -1.000
 4080.00    0.98719   0.96222   -1.000
 4081.00    1.01333   0.98449   -1.000
 4082.00    1.00965   0.98521   -1.000
 4083.00    0.99436   0.97214   -1.000
 4084.00    0.98345   0.95975   -1.000
 4085.00    0.98367   0.95949   -1.000
 4086.00    0.99996   0.97353   -1.000
 4087.00    1.02518   0.99408   -1.000
 4088.00    1.04408   1.00977   -1.000
 4089.00    1.05173   1.01311   -1.000
 4090.00    1.04486   1.00627   -1.000
 4091.00    1.03110   0.99748   -1.000
 4092.00    1.01817   0.98959   -1.000
 4093.00    1.00978   0.97805   -1.000
 4094.00    0.99852   0.95959   -1.000
 4095.00    0.97755   0.93421   -1.000
 4096.00    0.94855   0.90657   -1.000
 4097.00    0.92133   0.87783   -1.000
 4098.00    0.89769   0.84049   -1.000
 4099.00    0.85572   0.78644   -1.000
 4100.00    0.78547   0.72253   -1.000
 4101.00    0.72291   0.67752   -1.000
 4102.00    0.71600   0.68024   -1.000
 4103.00    0.76996   0.73308   -1.000
 4104.00    0.84295   0.80595   -1.000
 4105.00    0.90294   0.86812   -1.000
 4106.00    0.93622   0.90650   -1.000
 4107.00    0.95154   0.92568   -1.000
 4108.00    0.95634   0.93318   -1.000
 4109.00    0.95437   0.93601   -1.000
 4110.00    0.95588   0.94104   -1.000
 4111.00    0.96483   0.95145   -1.000
 4112.00    0.97886   0.96659   -1.000
 4113.00    0.99340   0.98356   -1.000
 4114.00    1.00735   0.99975   -1.000
 4115.00    1.02090   1.01066   -1.000
 4116.00    1.02596   1.00999   -1.000
 4117.00    1.01470   0.99762   -1.000
 4118.00    0.99561   0.98130   -1.000
 4119.00    0.98421   0.97127   -1.000
 4120.00    0.98705   0.97219   -1.000
 4121.00    0.99371   0.97796   -1.000
 4122.00    0.99596   0.98298   -1.000
 4123.00    1.00117   0.98860   -1.000
 4124.00    1.01353   0.99648   -1.000
 4125.00    1.01998   1.00238   -1.000
 4126.00    1.01534   1.00024   -1.000
 4127.00    1.00423   0.99142   -1.000
 4128.00    0.99199   0.98399   -1.000
 4129.00    0.98556   0.98043  453.714
 4130.00    0.98214   0.97356   -1.000
 4131.00    0.96894   0.96019   -1.000
 4132.00    0.95264   0.94932  465.708
 4133.00    0.95051   0.95350  445.010
 4134.00    0.96558   0.97320   -1.000
 4135.00    0.99276   0.99829  417.671
 4136.00    1.02050   1.02040  411.151
 4137.00    1.03853   1.03762  407.619
 4138.00    1.05068   1.05071  412.067
 4139.00    1.05959   1.05587  428.608
 4140.00    1.04841   1.04538  459.619
 4141.00    1.01533   1.01731  490.281
 4142.00    0.97185   0.98165   -1.000
 4143.00    0.93846   0.95864   -1.000
 4144.00    0.94259   0.96268   -1.000
 4145.00    0.97677   0.98713   -1.000
 4146.00    1.01052   1.01130  435.979
 4147.00    1.02359   1.02064  446.895
 4148.00    1.01537   1.01820  455.318
 4149.00    1.00354   1.01407   -1.000
 4150.00    0.99985   1.01336   -1.000
 4151.00    1.00103   1.01372   -1.000
 4152.00    0.99846   1.01012   -1.000
 4153.00    0.99101   1.00209   -1.000
 4154.00    0.97932   0.99436   -1.000
 4155.00    0.98058   0.99313   -1.000
 4156.00    1.01712   1.00061   -1.000
 4157.00    1.02508   1.01403   -1.000
 4158.00    1.00160   1.02853   -1.000
 4159.00    1.00106   1.03875   -1.000
 4160.00    1.01991   1.04360   -1.000
 4161.00    1.03366   1.04606   -1.000
 4162.00    1.03997   1.04973   -1.000
 4163.00    1.04298   1.05465   -1.000
 4164.00    1.04232   1.05780   -1.000
 4165.00    1.03678   1.05504   -1.000
 4166.00    1.03034   1.04551   -1.000
 4167.00    1.02157   1.03717   -1.000
 4168.00    1.02011   1.03491   -1.000
 4169.00    1.02049   1.03240   -1.000
 4170.00    1.00805   1.01738   -1.000
 4171.00    0.97446   0.98754   -1.000
 4172.00    0.93741   0.95969   -1.000
 4173.00    0.92167   0.95121   -1.000
 4174.00    0.93702   0.96410   -1.000
 4175.00    0.96081   0.98390   -1.000
 4176.00    0.97023   0.99395   -1.000
 4177.00    0.96815   0.99512   -1.000
 4178.00    0.97131   0.99811   -1.000
 4179.00    0.98608   1.00770   -1.000
 4180.00    0.99785   1.01688   -1.000
 4181.00    0.99737   1.01731   -1.000
 4182.00    0.99228   1.01578   -1.000
 4183.00    0.99587   1.02098   -1.000
 4184.00    1.00396   1.02758   -1.000
 4185.00    1.00467   1.02619   -1.000
 4186.00    0.99344   1.01481   -1.000
 4187.00    0.97764   1.00395   -1.000
 4188.00    0.97822   1.00457   -1.000
 4189.00    0.99063   1.01254   -1.000
 4190.00    0.99996   1.01955   -1.000
 4191.00    1.00442   1.02539   -1.000
 4192.00    1.01560   1.03280   -1.000
 4193.00    1.03226   1.03920   -1.000
 4194.00    1.03005   1.03559  466.767
 4195.00    1.00810   1.01764   -1.000
 4196.00    0.98154   0.99335   -1.000
 4197.00    0.95716   0.97254   -1.000
 4198.00    0.94227   0.96050   -1.000
 4199.00    0.94523   0.95814   -1.000
 4200.00    0.95617   0.96216  465.278
 4201.00    0.96102   0.96664  459.461
 4202.00    0.96315   0.97206   -1.000
 4203.00    0.96835   0.98357   -1.000
 4204.00    0.97471   0.99945   -1.000
 4205.00    0.98321   1.01453   -1.000
 4206.00    0.99549   1.02787   -1.000
 4207.00    1.01070   1.03780   -1.000
 4208.00    1.02112   1.04089   -1.000
 4209.00    1.02083   1.03972   -1.000
 4210.00    1.02015   1.04091   -1.000
 4211.00    1.02244   1.04712   -1.000
 4212.00    1.02614   1.05110   -1.000
 4213.00    1.02305   1.04069   -1.000
 4214.00    1.00176   1.01799   -1.000
 4215.00    0.97528   0.99916   -1.000
 4216.00    0.97270   0.99885   -1.000
 4217.00    0.99729   1.01875   -1.000
 4218.00    1.02575   1.04375   -1.000
 4219.00    1.04327   1.06135   -1.000
 4220.00    1.04997   1.06863   -1.000
 4221.00    1.04919   1.06421   -1.000
 4222.00    1.03393   1.04442   -1.000
 4223.00    1.00070   1.00589  524.249
 4224.00    0.95345   0.95206  577.974
 4225.00    0.89081   0.90038   -1.000
 4226.00    0.83882   0.87549   -1.000
 4227.00    0.84675   0.89667   -1.000
 4228.00    0.91350   0.95611   -1.000
 4229.00    0.98453   1.01993   -1.000
 4230.00    1.02453   1.05404   -1.000
 4231.00    1.03772   1.05435   -1.000
 4232.00    1.02362   1.03730   -1.000
 4233.00    1.00252   1.01780   -1.000
 4234.00    0.99327   1.00510   -1.000
 4235.00    0.98465   1.00146   -1.000
 4236.00    0.97639   1.00251   -1.000
 4237.00    0.97759   1.00739   -1.000
 4238.00    0.98462   1.01710   -1.000
 4239.00    0.99480   1.02989   -1.000
 4240.00    1.00998   1.04418   -1.000
 4241.00    1.02503   1.05691   -1.000
 4242.00    1.03467   1.06587   -1.000
 4243.00    1.04254   1.07140   -1.000
 4244.00    1.04657   1.07145   -1.000
 4245.00    1.03814   1.06025   -1.000
 4246.00    1.01148   1.03716   -1.000
 4247.00    0.98483   1.01308   -1.000
 4248.00    0.97233   0.99755   -1.000
 4249.00    0.96856   0.99206   -1.000
 4250.00    0.96876   0.99675   -1.000
 4251.00    0.98132   1.01040   -1.000
 4252.00    1.00128   1.02227   -1.000
 4253.00    1.00524   1.02433   -1.000
 4254.00    0.99605   1.02261   -1.000
 4255.00    0.99938   1.02819   -1.000
 4256.00    1.01635   1.04002   -1.000
 4257.00    1.02760   1.04201   -1.000
 4258.00    1.01024   1.02545   -1.000
 4259.00    0.98027   1.00228   -1.000
 4260.00    0.96242   0.99238   -1.000
 4261.00    0.96940   1.00664   -1.000
 4262.00    1.00226   1.03787   -1.000
 4263.00    1.03729   1.06883   -1.000
 4264.00    1.05936   1.08580   -1.000
 4265.00    1.06774   1.08743   -1.000
 4266.00    1.06117   1.07999   -1.000
 4267.00    1.04359   1.06573   -1.000
 4268.00    1.02558   1.04341   -1.000
 4269.00    1.00596   1.01294   -1.000
 4270.00    0.97127   0.97873   -1.000
 4271.00    0.93218   0.95231   -1.000
 4272.00    0.91949   0.94319   -1.000
 4273.00    0.92793   0.95188   -1.000
 4274.00    0.94660   0.97174   -1.000
 4275.00    0.97335   0.99909   -1.000
 4276.00    1.00657   1.03154   -1.000
 4277.00    1.03512   1.05760   -1.000
 4278.00    1.04269   1.06466   -1.000
 4279.00    1.02502   1.05415   -1.000
 4280.00    1.00302   1.03739   -1.000
 4281.00    0.99415   1.02770   -1.000
 4282.00    0.99285   1.02723   -1.000
 4283.00    0.99755   1.02882   -1.000
 4284.00    0.99820   1.02685   -1.000
 4285.00    0.98581   1.01813   -1.000
 4286.00    0.96925   1.00260   -1.000
 4287.00    0.95631   0.98104   -1.000
 4288.00    0.93366   0.95481   -1.000
 4289.00    0.90265   0.93267   -1.000
 4290.00    0.88807   0.92994   -1.000
 4291.00    0.91348   0.94967   -1.000
 4292.00    0.95647   0.97491   -1.000
 4293.00    0.97617   0.98548   -1.000
 4294.00    0.97577   0.98067  463.743
 4295.00    0.96772   0.97161  483.049
 4296.00    0.95537   0.95788  519.515
 4297.00    0.92959   0.93265  560.977
 4298.00    0.88867   0.89764   -1.000
 4299.00    0.84711   0.86309   -1.000
 4300.00    0.82799   0.84214   -1.000
 4301.00    0.83265   0.83878   -1.000
 4302.00    0.84295   0.84765  541.851
 4303.00    0.85589   0.86230   -1.000
 4304.00    0.87036   0.87529  555.021
 4305.00    0.87743   0.87616  581.959
 4306.00    0.86419   0.86295  602.258
 4307.00    0.83459   0.84563   -1.000
 4308.00    0.81636   0.83817   -1.000
 4309.00    0.82657   0.84831   -1.000
 4310.00    0.85705   0.87080   -1.000
 4311.00    0.88788   0.89458   -1.000
 4312.00    0.90749   0.91335  459.099
 4313.00    0.92184   0.93425   -1.000
 4314.00    0.94515   0.96909   -1.000
 4315.00    0.99134   1.01941   -1.000
 4316.00    1.04788   1.07203   -1.000
 4317.00    1.08367   1.10626   -1.000
 4318.00    1.09059   1.11525   -1.000
 4319.00    1.08030   1.10580   -1.000
 4320.00    1.06444   1.08773   -1.000
 4321.00    1.04868   1.06475   -1.000
 4322.00    1.02734   1.03398   -1.000
 4323.00    0.99220   0.99354  499.009
 4324.00    0.94765   0.95412   -1.000
 4325.00    0.91645   0.93997   -1.000
 4326.00    0.92788   0.96541   -1.000
 4327.00    0.97752   1.01435   -1.000
 4328.00    1.02851   1.05624   -1.000
 4329.00    1.05206   1.07291   -1.000
 4330.00    1.05030   1.07190   -1.000
 4331.00    1.04553   1.06969   -1.000
 4332.00    1.04700   1.07166   -1.000
 4333.00    1.04918   1.07128   -1.000
 4334.00    1.04998   1.05963   -1.000
 4335.00    1.03607   1.02884  430.203
 4336.00    0.99129   0.97359   -1.000
 4337.00    0.92471   0.89651   -1.000
 4338.00    0.84922   0.81405   -1.000
 4339.00    0.77523   0.75324   -1.000
 4340.00    0.73672   0.73574  460.685
 4341.00    0.76362   0.77118   -1.000
 4342.00    0.83805   0.84411  410.243
 4343.00    0.91110   0.92038   -1.000
 4344.00    0.96139   0.97627   -1.000
 4345.00    0.99620   1.01397   -1.000
 4346.00    1.01644   1.04262   -1.000
 4347.00    1.03269   1.06574   -1.000
 4348.00    1.05159   1.07743   -1.000
 4349.00    1.05333   1.06730   -1.000
 4350.00    1.02814   1.03694   -1.000
 4351.00    0.98890   1.00691   -1.000
 4352.00    0.97200   0.99977   -1.000
 4353.00    0.99942   1.02122   -1.000
 4354.00    1.04050   1.05511   -1.000
 4355.00    1.06649   1.08266   -1.000
 4356.00    1.08275   1.09615   -1.000
 4357.00    1.08550   1.09668   -1.000
 4358.00    1.07252   1.09025   -1.000
 4359.00    1.05871   1.08763   -1.000
 4360.00    1.06252   1.09561   -1.000
 4361.00    1.08370   1.11028   -1.000
 4362.00    1.09951   1.12471   -1.000
 4363.00    1.10405   1.13462   -1.000
 4364.00    1.11214   1.13815   -1.000
 4365.00    1.11400   1.13232   -1.000
 4366.00    1.09800   1.11548   -1.000
 4367.00    1.07262   1.09499   -1.000
 4368.00    1.05773   1.08194   -1.000
 4369.00    1.05730   1.07791   -1.000
 4370.00    1.06699   1.07730   -1.000
 4371.00    1.07638   1.07289  401.784
 4372.00    1.06987   1.05845   -1.000
 4373.00    1.04584   1.03429   -1.000
 4374.00    1.01543   1.01294  410.159
 4375.00    1.00696   1.01307  390.182
 4376.00    1.03075   1.03861   -1.000
 4377.00    1.06711   1.07323  379.630
 4378.00    1.09167   1.09507  385.332
 4379.00    1.10083   1.09627  400.424
 4380.00    1.09320   1.07801   -1.000
 4381.00    1.06289   1.03874   -1.000
 4382.00    1.00475   0.98417   -1.000
 4383.00    0.93506   0.93917  472.941
 4384.00    0.90848   0.92904   -1.000
 4385.00    0.94539   0.95676   -1.000
 4386.00    1.00451   0.99980  403.486
 4387.00    1.04168   1.03127   -1.000
 4388.00    1.05080   1.04435  409.251
 4389.00    1.04500   1.04662  403.740
 4390.00    1.04382   1.04782  394.787
 4391.00    1.05294   1.05298  394.251
 4392.00    1.06270   1.05767  401.616
 4393.00    1.06322   1.05325   -1.000
 4394.00    1.05038   1.04361  388.827
 4395.00    1.04936   1.04575  375.458
 4396.00    1.06849   1.06315  376.423
 4397.00    1.09014   1.07845   -1.000
 4398.00    1.09170   1.07645   -1.000
 4399.00    1.06845   1.06125  400.595
 4400.00    1.04745   1.05085  393.685
 4401.00    1.05092   1.05225  401.732
 4402.00    1.06541   1.05387   -1.000
 4403.00    1.05557   1.04447   -1.000
 4404.00    1.02496   1.02955  422.425
 4405.00    1.01352   1.02494   -1.000
 4406.00    1.02694   1.03402   -1.000
 4407.00    1.03260   1.04634   -1.000
 4408.00    1.03238   1.05834   -1.000
 4409.00    1.04660   1.07691   -1.000
 4410.00    1.07800   1.10213   -1.000
 4411.00    1.10844   1.12158   -1.000
 4412.00    1.12278   1.12218  384.668
 4413.00    1.11022   1.10169   -1.000
 4414.00    1.07500   1.06928  403.047
 4415.00    1.04087   1.04304  391.623
 4416.00    1.02930   1.03969   -1.000
 4417.00    1.04641   1.05982   -1.000
 4418.00    1.07272   1.09165   -1.000
 4419.00    1.09600   1.11824   -1.000
 4420.00    1.10421   1.12741   -1.000
 4421.00    1.09312   1.11994   -1.000
 4422.00    1.07947   1.11001   -1.000
 4423.00    1.07683   1.10735   -1.000
 4424.00    1.08147   1.10866   -1.000
 4425.00    1.07970   1.10827   -1.000
 4426.00    1.07197   1.10691   -1.000
 4427.00    1.06937   1.10859   -1.000
 4428.00    1.07395   1.11290   -1.000
 4429.00    1.07854   1.11610   -1.000
 4430.00    1.07868   1.11743   -1.000
 4431.00    1.08316   1.11811   -1.000
 4432.00    1.08842   1.11407   -1.000
 4433.00    1.07123   1.10011   -1.000
 4434.00    1.04148   1.08235   -1.000
 4435.00    1.03091   1.07726   -1.000
 4436.00    1.05171   1.09677   -1.000
 4437.00    1.09490   1.13176   -1.000
 4438.00    1.13072   1.15966   -1.000
 4439.00    1.14108   1.16396   -1.000
 4440.00    1.12742   1.14230   -1.000
 4441.00    1.09719   1.10815   -1.000
 4442.00    1.06099   1.08074   -1.000
 4443.00    1.04309   1.07639   -1.000
 4444.00    1.05762   1.09701   -1.000
 4445.00    1.08745   1.12851   -1.000
 4446.00    1.11289   1.15154   -1.000
 4447.00    1.12194   1.15954   -1.000
 4448.00    1.12073   1.15905   -1.000
 4449.00    1.11593   1.15555   -1.000
 4450.00    1.11128   1.15164   -1.000
 4451.00    1.10985   1.14861   -1.000
 4452.00    1.10804   1.14175   -1.000
 4453.00    1.09518   1.12366   -1.000
 4454.00    1.06836   1.09847   -1.000
 4455.00    1.04939   1.08289   -1.000
 4456.00    1.05419   1.08489   -1.000
 4457.00    1.06867   1.09542   -1.000
 4458.00    1.07367   1.10171   -1.000
 4459.00    1.06867   1.10070   -1.000
 4460.00    1.06168   1.09739   -1.000
 4461.00    1.05657   1.09868   -1.000
 4462.00    1.06892   1.10847   -1.000
 4463.00    1.08930   1.12294   -1.000
 4464.00    1.10689   1.13406   -1.000
 4465.00    1.11202   1.13729   -1.000
 4466.00    1.10771   1.13192   -1.000
 4467.00    1.09774   1.11983   -1.000
 4468.00    1.08350   1.10819   -1.000
 4469.00    1.08177   1.10659   -1.000
 4470.00    1.09170   1.12012   -1.000
 4471.00    1.11337   1.14434   -1.000
 4472.00    1.14150   1.16897   -1.000
 4473.00    1.16422   1.18687   -1.000
 4474.00    1.17240   1.19566   -1.000
 4475.00    1.17314   1.19927   -1.000
 4476.00    1.17386   1.20247   -1.000
 4477.00    1.18282   1.20298   -1.000
 4478.00    1.18332   1.19184   -1.000
 4479.00    1.16223   1.16544  377.351
 4480.00    1.12867   1.13520  376.515
 4481.00    1.10423   1.11941   -1.000
 4482.00    1.10382   1.12868   -1.000
 4483.00    1.12553   1.15789   -1.000
 4484.00    1.15681   1.19016   -1.000
 4485.00    1.18016   1.21042   -1.000
 4486.00    1.18636   1.21215   -1.000
 4487.00    1.17623   1.19651   -1.000
 4488.00    1.15051   1.17335   -1.000
 4489.00    1.12309   1.15826   -1.000
 4490.00    1.12164   1.16015   -1.000
 4491.00    1.14319   1.17328   -1.000
 4492.00    1.16171   1.18180   -1.000
 4493.00    1.15729   1.17600   -1.000
 4494.00    1.13842   1.16323   -1.000
 4495.00    1.12368   1.15699   -1.000
 4496.00    1.12424   1.16274   -1.000
 4497.00    1.14112   1.17589   -1.000
 4498.00    1.16662   1.18669   -1.000
 4499.00    1.17518   1.18704   -1.000
 4500.00    1.16365   1.17930   -1.000
 4501.00    1.15520   1.17764   -1.000
 4502.00    1.16775   1.19114   -1.000
 4503.00    1.19754   1.21357   -1.000
 4504.00    1.22178   1.23124   -1.000
 4505.00    1.22479   1.23622   -1.000
 4506.00    1.21501   1.23016   -1.000
 4507.00    1.20380   1.22071   -1.000
 4508.00    1.19902   1.21632   -1.000
 4509.00    1.20259   1.21940   -1.000
 4510.00    1.20826   1.22415   -1.000
 4511.00    1.20771   1.22302   -1.000
 4512.00    1.19663   1.21529   -1.000
 4513.00    1.18458   1.20530   -1.000
 4514.00    1.17722   1.19630   -1.000
 4515.00    1.17239   1.19067   -1.000
 4516.00    1.17101   1.18834   -1.000
 4517.00    1.16877   1.18604   -1.000
 4518.00    1.16344   1.18350   -1.000
 4519.00    1.16556   1.18434   -1.000
 4520.00    1.17635   1.18794   -1.000
 4521.00    1.17823   1.18810   -1.000
 4522.00    1.16347   1.18125   -1.000
 4523.00    1.14834   1.17133   -1.000
 4524.00    1.14361   1.16332   -1.000
 4525.00    1.13892   1.15505   -1.000
 4526.00    1.12408   1.14174   -1.000
 4527.00    1.10665   1.12391   -1.000
 4528.00    1.09430   1.10943   -1.000
 4529.00    1.09182   1.10669   -1.000
 4530.00    1.10203   1.11498   -1.000
 4531.00    1.11689   1.12449   -1.000
 4532.00    1.11837   1.12314  392.686
 4533.00    1.10108   1.10998   -1.000
 4534.00    1.08226   1.09952   -1.000
 4535.00    1.07979   1.10766   -1.000
 4536.00    1.11191   1.13639   -1.000
 4537.00    1.16175   1.17172   -1.000
 4538.00    1.19266   1.19599  346.655
 4539.00    1.19224   1.20172   -1.000
 4540.00    1.18304   1.19546   -1.000
 4541.00    1.17796   1.18911   -1.000
 4542.00    1.17616   1.18820   -1.000
 4543.00    1.20057   1.18895   -2.000
 4544.00    1.05686   1.18618   -2.000
 4545.00    0.30617   1.18125   -2.000
 4546.00   -0.01492   1.17669    0.000
 4547.00    0.14146   1.16823   -1.000
 4548.00    0.73446   1.15203   -1.000
 4549.00    0.39911   1.13654   -1.000
 4550.00    0.79591   1.13547   -1.000
 4551.00    1.13001   1.14770   -1.000
 4552.00    1.14988   1.15591  369.283
 4553.00    1.13489   1.15046   -1.000
 4554.00    1.12270   1.14074   -1.000
 4555.00    1.12239   1.14170   -1.000
 4556.00    1.14562   1.15939   -1.000
 4557.00    1.17772   1.18531  332.296
 4558.00    1.19883   1.20642  332.631
 4559.00    1.20484   1.21879   -1.000
 4560.00    1.20373   1.22494   -1.000
 4561.00    1.20224   1.22325   -1.000
 4562.00    1.19327   1.21045   -1.000
 4563.00    1.17179   1.19125   -1.000
 4564.00    1.15420   1.17852   -1.000
 4565.00    1.15944   1.18143   -1.000
 4566.00    1.18022   1.19714   -1.000
 4567.00    1.20149   1.21480   -1.000
 4568.00    1.21317   1.22366   -1.000
 4569.00    1.21109   1.21909   -1.000
 4570.00    1.19240   1.20400   -1.000
 4571.00    1.16828   1.18739   -1.000
 4572.00    1.16415   1.18271   -1.000
 4573.00    1.18488   1.19507   -1.000
 4574.00    1.20555   1.21185  334.359
 4575.00    1.20964   1.21943   -1.000
 4576.00    1.20779   1.21751   -1.000
 4577.00    1.20085   1.21089   -1.000
 4578.00    1.18858   1.19989   -1.000
 4579.00    1.17109   1.18403   -1.000
 4580.00    1.15723   1.16810   -1.000
 4581.00    1.15352   1.15838  351.771
 4582.00    1.15611   1.15489  352.114
 4583.00    1.16014   1.15455  354.153
 4584.00    1.15765   1.15847  350.691
 4585.00    1.16035   1.16718  342.220
 4586.00    1.17324   1.17848  334.548
 4587.00    1.18989   1.19068  332.743
 4588.00    1.20330   1.20065  336.630
 4589.00    1.20405   1.20470  342.727
 4590.00    1.19634   1.20264  348.846
 4591.00    1.18354   1.19615   -1.000
 4592.00    1.17314   1.18898   -1.000
 4593.00    1.17272   1.18678   -1.000
 4594.00    1.17919   1.19000   -1.000
 4595.00    1.18705   1.19486   -1.000
 4596.00    1.19216   1.19992   -1.000
 4597.00    1.19520   1.20419   -1.000
 4598.00    1.19701   1.20527   -1.000
 4599.00    1.19347   1.20197   -1.000
 4600.00    1.18480   1.19587   -1.000
 4601.00    1.17811   1.19109   -1.000
 4602.00    1.17731   1.19070   -1.000
 4603.00    1.18350   1.19403   -1.000
 4604.00    1.19132   1.19863  338.674
 4605.00    1.19861   1.20339  332.501
 4606.00    1.20471   1.21035  325.428
 4607.00    1.21883   1.22136  320.985
 4608.00    1.23187   1.23353  321.451
 4609.00    1.24328   1.24186  325.382
 4610.00    1.24095   1.24218  329.208
 4611.00    1.22917   1.23560  331.626
 4612.00    1.21845   1.22845   -1.000
 4613.00    1.21854   1.22523  327.931
 4614.00    1.21894   1.22616  326.295
 4615.00    1.21990   1.22773  327.841
 4616.00    1.21400   1.22680   -1.000
 4617.00    1.21595   1.22345  330.495
 4618.00    1.21672   1.21946  327.825
 4619.00    1.21802   1.21839  322.945
 4620.00    1.22471   1.22357  321.878
 4621.00    1.23186   1.23347  322.588
 4622.00    1.24443   1.24176  323.265
 4623.00    1.24751   1.24322  325.810
 4624.00    1.23940   1.23928  327.049
 4625.00    1.23030   1.23504  327.027
 4626.00    1.23253   1.23267  328.716
 4627.00    1.23297   1.23129  329.712
 4628.00    1.22482   1.22891  328.468
 4629.00    1.21905   1.22708   -1.000
 4630.00    1.22123   1.22963   -1.000
 4631.00    1.23281   1.23480  329.731
 4632.00    1.23507   1.23620  333.634
 4633.00    1.22736   1.23142  334.036
 4634.00    1.22348   1.22479  336.154
 4635.00    1.22485   1.22134  340.355
 4636.00    1.22059   1.21959  342.339
 4637.00    1.20867   1.21680   -1.000
 4638.00    1.20371   1.21449   -1.000
 4639.00    1.20768   1.21610   -1.000
 4640.00    1.22306   1.22362  324.168
 4641.00    1.24152   1.23446  324.504
 4642.00    1.25288   1.24226   -1.000
 4643.00    1.25260   1.24180   -1.000
 4644.00    1.23744   1.23256  348.089
 4645.00    1.21544   1.21765  351.016
 4646.00    1.19554   1.20148  346.029
 4647.00    1.18601   1.19241  338.159
 4648.00    1.19280   1.19662  332.932
 4649.00    1.20850   1.21082  331.696
 4650.00    1.22096   1.22614  331.072
 4651.00    1.22469   1.23516   -1.000
 4652.00    1.22335   1.23530   -1.000
 4653.00    1.21686   1.22815   -1.000
 4654.00    1.20586   1.21742   -1.000
 4655.00    1.19670   1.20954   -1.000
 4656.00    1.19386   1.21060   -1.000
 4657.00    1.20960   1.22351   -1.000
 4658.00    1.24180   1.24531  312.407
 4659.00    1.26828   1.26566  315.661
 4660.00    1.27618   1.27392  322.836
 4661.00    1.26493   1.26815  329.529
 4662.00    1.25087   1.25478  331.246
 4663.00    1.24137   1.24087  335.836
 4664.00    1.23363   1.22745  348.853
 4665.00    1.22324   1.20975   -1.000
 4666.00    1.20096   1.18680   -1.000
 4667.00    1.16840   1.16727  356.917
 4668.00    1.15577   1.16311   -1.000
 4669.00    1.17371   1.17644  332.311
 4670.00    1.19958   1.19781  329.237
 4671.00    1.22115   1.21671  329.209
 4672.00    1.23527   1.22774  328.985
 4673.00    1.23693   1.23237  325.323
 4674.00    1.23695   1.23656  320.472
 4675.00    1.24444   1.24312  321.026
 4676.00    1.25541   1.24806  327.221
 4677.00    1.25576   1.24438   -1.000
 4678.00    1.24401   1.23185   -1.000
 4679.00    1.22404   1.21708  343.223
 4680.00    1.21518   1.20592  340.125
 4681.00    1.20956   1.20221  332.109
 4682.00    1.21584   1.20697  327.063
 4683.00    1.23145   1.21690   -1.000
 4684.00    1.24573   1.22595   -1.000
 4685.00    1.25202   1.23016   -1.000
 4686.00    1.24953   1.23022   -1.000
 4687.00    1.24706   1.22872   -1.000
 4688.00    1.24389   1.22752   -1.000
 4689.00    1.24271   1.22673   -1.000
 4690.00    1.23979   1.22544   -1.000
 4691.00    1.23849   1.22440   -1.000
 4692.00    1.24689   1.22640   -1.000
 4693.00    1.26044   1.23203   -1.000
 4694.00    1.27177   1.23871   -1.000
 4695.00    1.27911   1.24342   -1.000
 4696.00    1.27929   1.24243   -1.000
 4697.00    1.26745   1.23270   -1.000
 4698.00    1.24557   1.21768   -1.000
 4699.00    1.23642   1.20539   -1.000
 4700.00    1.23852   1.19802   -1.000
 4701.00    1.23408   1.19125   -1.000
 4702.00    1.22179   1.18434   -1.000
 4703.00    1.21212   1.18269   -1.000
 4704.00    1.21703   1.18941   -1.000
 4705.00    1.22581   1.19844   -1.000
 4706.00    1.22143   1.20047   -1.000
 4707.00    1.20682   1.19384   -1.000
 4708.00    1.19388   1.18627  337.156
 4709.00    1.19395   1.18718  327.716
 4710.00    1.21393   1.19818   -1.000
 4711.00    1.23995   1.21211   -1.000
 4712.00    1.25507   1.21980   -1.000
 4713.00    1.25295   1.21781   -1.000
 4714.00    1.23650   1.21308   -1.000
 4715.00    1.23053   1.21531   -1.000
 4716.00    1.24398   1.22637   -1.000
 4717.00    1.26090   1.24031   -1.000
 4718.00    1.26733   1.25090   -1.000
 4719.00    1.27145   1.25673   -1.000
 4720.00    1.27053   1.25838   -1.000
 4721.00    1.26721   1.25665   -1.000
 4722.00    1.26456   1.25431  315.587
 4723.00    1.26076   1.25553  315.498
 4724.00    1.26735   1.25893  322.185
 4725.00    1.27248   1.25738   -1.000
 4726.00    1.26056   1.24662   -1.000
 4727.00    1.23956   1.22872   -1.000
 4728.00    1.22271   1.21172   -1.000
 4729.00    1.22291   1.20298   -1.000
 4730.00    1.22927   1.20200   -1.000
 4731.00    1.23269   1.20636   -1.000
 4732.00    1.23443   1.21547   -1.000
 4733.00    1.24100   1.22584   -1.000
 4734.00    1.24678   1.23203   -1.000
 4735.00    1.24853   1.23190   -1.000
 4736.00    1.23900   1.22854   -1.000
 4737.00    1.23752   1.22757  324.870
 4738.00    1.24891   1.23107   -1.000
 4739.00    1.25941   1.23566   -1.000
 4740.00    1.25379   1.23763   -1.000
 4741.00    1.24628   1.23842  321.528
 4742.00    1.25335   1.24158   -1.000
 4743.00    1.26259   1.24646   -1.000
 4744.00    1.26620   1.25045   -1.000
 4745.00    1.26270   1.25332  316.767
 4746.00    1.26516   1.25674  315.752
 4747.00    1.27305   1.26227   -1.000
 4748.00    1.27704   1.26818  316.366
 4749.00    1.28025   1.27210  318.394
 4750.00    1.28147   1.27438  321.869
 4751.00    1.27703   1.27423  324.713
 4752.00    1.26919   1.26973  326.995
 4753.00    1.26115   1.26195  326.783
 4754.00    1.25615   1.25488  327.790
 4755.00    1.24960   1.25146  330.099
 4756.00    1.24376   1.25236   -1.000
 4757.00    1.24407   1.25641   -1.000
 4758.00    1.24348   1.26132   -1.000
 4759.00    1.24599   1.26443   -1.000
 4760.00    1.24816   1.26245   -1.000
 4761.00    1.23939   1.25238   -1.000
 4762.00    1.21964   1.23631   -1.000
 4763.00    1.20095   1.22150   -1.000
 4764.00    1.20379   1.21397   -1.000
 4765.00    1.21855   1.21454  338.495
 4766.00    1.22566   1.22168  331.139
 4767.00    1.23597   1.23415  326.144
 4768.00    1.25157   1.25028  326.080
 4769.00    1.26129   1.26533  328.622
 4770.00    1.26489   1.27272  331.543
 4771.00    1.25879   1.27093   -1.000
 4772.00    1.25196   1.26708   -1.000
 4773.00    1.26084   1.26935  319.012
 4774.00    1.27280   1.27823  319.006
 4775.00    1.28135   1.28707  319.882
 4776.00    1.28249   1.29075  321.840
 4777.00    1.28036   1.28976   -1.000
 4778.00    1.27444   1.28541   -1.000
 4779.00    1.26583   1.27860   -1.000
 4780.00    1.26313   1.27291   -1.000
 4781.00    1.26270   1.27087  332.445
 4782.00    1.25797   1.26960   -1.000
 4783.00    1.25452   1.26623   -1.000
 4784.00    1.25214   1.26185   -1.000
 4785.00    1.24475   1.25739   -1.000
 4786.00    1.23776   1.25230   -1.000
 4787.00    1.23086   1.24847   -1.000
 4788.00    1.23102   1.24828   -1.000
 4789.00    1.23585   1.25103   -1.000
 4790.00    1.24323   1.25642   -1.000
 4791.00    1.25125   1.26582   -1.000
 4792.00    1.26146   1.27881   -1.000
 4793.00    1.27489   1.29313   -1.000
 4794.00    1.28389   1.30553   -1.000
 4795.00    1.29127   1.31138   -1.000
 4796.00    1.28780   1.30832   -1.000
 4797.00    1.27745   1.29734   -1.000
 4798.00    1.26516   1.28304   -1.000
 4799.00    1.25117   1.27372   -1.000
 4800.00    1.25339   1.27539   -1.000
 4801.00    1.26735   1.28606   -1.000
 4802.00    1.28076   1.29759   -1.000
 4803.00    1.28526   1.30020   -1.000
 4804.00    1.27179   1.29115   -1.000
 4805.00    1.25703   1.27905   -1.000
 4806.00    1.25727   1.27241   -1.000
 4807.00    1.26225   1.27272   -1.000
 4808.00    1.26414   1.27741   -1.000
 4809.00    1.26661   1.28314   -1.000
 4810.00    1.27217   1.28736   -1.000
 4811.00    1.27399   1.29008   -1.000
 4812.00    1.27721   1.29288   -1.000
 4813.00    1.28349   1.29679   -1.000
 4814.00    1.28507   1.30173   -1.000
 4815.00    1.28830   1.30707   -1.000
 4816.00    1.29313   1.31243   -1.000
 4817.00    1.29424   1.31703   -1.000
 4818.00    1.29570   1.31958   -1.000
 4819.00    1.29815   1.31984   -1.000
 4820.00    1.29807   1.31767   -1.000
 4821.00    1.29370   1.30980   -1.000
 4822.00    1.27854   1.29356   -1.000
 4823.00    1.25729   1.27441   -1.000
 4824.00    1.25239   1.26383   -1.000
 4825.00    1.26340   1.26753  319.268
 4826.00    1.27543   1.27899  322.847
 4827.00    1.27830   1.28680  325.068
 4828.00    1.27567   1.28653   -1.000
 4829.00    1.27211   1.28153   -1.000
 4830.00    1.26718   1.27622   -1.000
 4831.00    1.26067   1.27186   -1.000
 4832.00    1.25803   1.26936   -1.000
 4833.00    1.26492   1.27093  318.085
 4834.00    1.27712   1.27627  318.455
 4835.00    1.28265   1.28181  319.888
 4836.00    1.28493   1.28415  323.990
 4837.00    1.28515   1.28339  329.691
 4838.00    1.27559   1.27955  330.486
 4839.00    1.26050   1.27260   -1.000
 4840.00    1.25167   1.26619   -1.000
 4841.00    1.25401   1.26362   -1.000
 4842.00    1.26032   1.26338  322.704
 4843.00    1.26274   1.26414  317.799
 4844.00    1.26446   1.26736  315.811
 4845.00    1.27607   1.27293  321.443
 4846.00    1.27934   1.27577  326.491
 4847.00    1.26390   1.27033  326.941
 4848.00    1.25263   1.25999  322.757
 4849.00    1.24681   1.25441  321.596
 4850.00    1.24973   1.25591  323.204
 4851.00    1.25802   1.25834  325.889
 4852.00    1.25926   1.25547  334.962
 4853.00    1.24744   1.24270  344.588
 4854.00    1.21951   1.21865  344.865
 4855.00    1.19141   1.19128  341.549
 4856.00    1.17953   1.17145  349.610
 4857.00    1.17551   1.15518   -1.000
 4858.00    1.14967   1.12234   -1.000
 4859.00    1.07044   1.05349   -1.000
 4860.00    0.95882   0.96010  422.141
 4861.00    0.89015   0.89060  385.296
 4862.00    0.91848   0.88828   -1.000
 4863.00    1.01266   0.95347   -1.000
 4864.00    1.09588   1.04195   -1.000
 4865.00    1.14415   1.11349   -1.000
 4866.00    1.17496   1.16000   -1.000
 4867.00    1.19615   1.18965  337.490
 4868.00    1.20841   1.20744  346.430
 4869.00    1.21017   1.21092  355.118
 4870.00    1.19478   1.19860  353.208
 4871.00    1.16869   1.17989   -1.000
 4872.00    1.16982   1.17189  337.320
 4873.00    1.19059   1.18379  334.418
 4874.00    1.21423   1.20629  332.534
 4875.00    1.22284   1.22442  331.361
 4876.00    1.22459   1.23420   -1.000
 4877.00    1.22655   1.24129   -1.000
 4878.00    1.23317   1.25195   -1.000
 4879.00    1.24787   1.26556   -1.000
 4880.00    1.25621   1.27559   -1.000
 4881.00    1.24482   1.27577   -1.000
 4882.00    1.23891   1.26734   -1.000
 4883.00    1.23945   1.25803   -1.000
 4884.00    1.23936   1.25126   -1.000
 4885.00    1.23450   1.24609   -1.000
 4886.00    1.22571   1.24325   -1.000
 4887.00    1.22346   1.24317   -1.000
 4888.00    1.22595   1.24130   -1.000
 4889.00    1.21618   1.23218   -1.000
 4890.00    1.19729   1.21792   -1.000
 4891.00    1.19036   1.21158   -1.000
 4892.00    1.21911   1.22703  310.636
 4893.00    1.26274   1.26121  304.525
 4894.00    1.30022   1.29754  302.680
 4895.00    1.31775   1.32339  303.159
 4896.00    1.32101   1.33571   -1.000
 4897.00    1.32082   1.33680   -1.000
 4898.00    1.31077   1.32936   -1.000
 4899.00    1.29173   1.31664   -1.000
 4900.00    1.28148   1.30469   -1.000
 4901.00    1.28004   1.29785   -1.000
 4902.00    1.27553   1.29396   -1.000
 4903.00    1.26924   1.29087   -1.000
 4904.00    1.27420   1.29318   -1.000
 4905.00    1.28993   1.30436   -1.000
 4906.00    1.30056   1.31635   -1.000
 4907.00    1.30320   1.31714   -1.000
 4908.00    1.29187   1.30503   -1.000
 4909.00    1.26767   1.28645   -1.000
 4910.00    1.24953   1.27008   -1.000
 4911.00    1.25125   1.26411   -1.000
 4912.00    1.26741   1.27088  316.072
 4913.00    1.28114   1.28514  313.158
 4914.00    1.29367   1.29943  314.279
 4915.00    1.30437   1.30825  324.486
 4916.00    1.30184   1.30506  341.832
 4917.00    1.28189   1.28355  358.459
 4918.00    1.23970   1.24570  363.746
 4919.00    1.19426   1.20524   -1.000
 4920.00    1.17345   1.18008  340.373
 4921.00    1.18406   1.18037  334.692
 4922.00    1.21241   1.19763   -1.000
 4923.00    1.23076   1.21468   -1.000
 4924.00    1.23344   1.22640  321.774
 4925.00    1.24730   1.24151  315.772
 4926.00    1.27217   1.26451  312.590
 4927.00    1.29056   1.28827  310.391
 4928.00    1.30387   1.30616  308.495
 4929.00    1.31144   1.31807  311.130
 4930.00    1.31665   1.32297  319.212
 4931.00    1.31199   1.31675  330.670
 4932.00    1.29051   1.29742  332.455
 4933.00    1.25802   1.27167   -1.000
 4934.00    1.24339   1.25474   -1.000
 4935.00    1.25557   1.25423  335.114
 4936.00    1.26819   1.25840  344.499
 4937.00    1.25303   1.25243  342.526
 4938.00    1.23051   1.23844   -1.000
 4939.00    1.22329   1.23308   -1.000
 4940.00    1.25047   1.24727  314.427
 4941.00    1.28181   1.27556  311.328
 4942.00    1.30056   1.30329  311.319
 4943.00    1.31151   1.31919  313.408
 4944.00    1.31441   1.32238  314.219
 4945.00    1.30662   1.31829   -1.000
 4946.00    1.29871   1.31457   -1.000
 4947.00    1.30003   1.31625   -1.000
 4948.00    1.31215   1.32312   -1.000
 4949.00    1.31820   1.33065   -1.000
 4950.00    1.32409   1.33419   -1.000
 4951.00    1.32332   1.33300   -1.000
 4952.00    1.31765   1.32884   -1.000
 4953.00    1.30983   1.32342   -1.000
 4954.00    1.30666   1.31423  340.782
 4955.00    1.29234   1.29320  354.920
 4956.00    1.24829   1.25698   -1.000
 4957.00    1.20401   1.22143   -1.000
 4958.00    1.20132   1.21369   -1.000
 4959.00    1.24244   1.24043  315.076
 4960.00    1.29015   1.28075   -1.000
 4961.00    1.31199   1.31095  318.756
 4962.00    1.31110   1.32282   -1.000
 4963.00    1.30730   1.32134   -1.000
 4964.00    1.29677   1.31168   -1.000
 4965.00    1.28250   1.29721   -1.000
 4966.00    1.27168   1.28423   -1.000
 4967.00    1.26495   1.27843   -1.000
 4968.00    1.26797   1.27867   -1.000
 4969.00    1.27449   1.28229  323.721
 4970.00    1.28242   1.28919  319.871
 4971.00    1.28834   1.29891   -1.000
 4972.00    1.29699   1.30957   -1.000
 4973.00    1.31075   1.31848  317.346
 4974.00    1.31432   1.32260  320.632
 4975.00    1.31542   1.32120  324.934
 4976.00    1.31249   1.31536  330.195
 4977.00    1.29623   1.30588   -1.000
 4978.00    1.28810   1.29522  339.052
 4979.00    1.27386   1.28474   -1.000
 4980.00    1.25884   1.27010   -1.000
 4981.00    1.23207   1.24757   -1.000
 4982.00    1.20475   1.22132   -1.000
 4983.00    1.18926   1.20340   -1.000
 4984.00    1.20116   1.20408  334.915
 4985.00    1.22033   1.22187  326.448
 4986.00    1.24737   1.24796  326.183
 4987.00    1.27647   1.27317  330.740
 4988.00    1.28343   1.28852  334.262
 4989.00    1.27579   1.28867   -1.000
 4990.00    1.25948   1.27924   -1.000
 4991.00    1.25506   1.27132   -1.000
 4992.00    1.26267   1.27082  330.078
 4993.00    1.26991   1.27575  328.469
 4994.00    1.27643   1.28239  326.823
 4995.00    1.28251   1.28981  328.586
 4996.00    1.28894   1.29584  332.859
 4997.00    1.28860   1.29506  339.483
 4998.00    1.27154   1.28372   -1.000
 4999.00    1.25409   1.26423   -1.000
 5000.00    1.24604   1.24605  341.325
 5001.00    1.24345   1.23863  339.000
 5002.00    1.24943   1.24114  343.448
 5003.00    1.25715   1.24480   -1.000
 5004.00    1.25126   1.24022   -1.000
 5005.00    1.22949   1.22613  346.353
 5006.00    1.21265   1.21365  335.853
 5007.00    1.22436   1.21731  331.872
 5008.00    1.25586   1.23723   -1.000
 5009.00    1.27901   1.25694   -1.000
 5010.00    1.27656   1.26175   -1.000
 5011.00    1.25121   1.24899  367.167
 5012.00    1.22181   1.22655  365.966
 5013.00    1.19707   1.20676   -1.000
 5014.00    1.18815   1.19928   -1.000
 5015.00    1.20643   1.20466  348.812
 5016.00    1.22495   1.21280   -1.000
 5017.00    1.22713   1.21424   -1.000
 5018.00    1.22771   1.21153   -1.000
 5019.00    1.23610   1.21578   -1.000
 5020.00    1.25071   1.22896   -1.000
 5021.00    1.25354   1.24157   -1.000
 5022.00    1.25189   1.24913  338.879
 5023.00    1.25456   1.25628  336.533
 5024.00    1.26523   1.26633  337.953
 5025.00    1.27409   1.27465  339.590
 5026.00    1.26777   1.27563  336.711
 5027.00    1.26283   1.27188   -1.000
 5028.00    1.26477   1.27117  325.694
 5029.00    1.27924   1.27627  320.426
 5030.00    1.29100   1.28485  316.654
 5031.00    1.29986   1.29550  316.982
 5032.00    1.30982   1.30626  326.737
 5033.00    1.31253   1.31088  339.690
 5034.00    1.29744   1.30270  345.702
 5035.00    1.26537   1.28360   -1.000
 5036.00    1.24616   1.26534   -1.000
 5037.00    1.24412   1.25561   -1.000
 5038.00    1.23833   1.24649   -1.000
 5039.00    1.21591   1.22686   -1.000
 5040.00    1.17236   1.19980   -1.000
 5041.00    1.15600   1.18429   -1.000
 5042.00    1.18683   1.19681   -1.000
 5043.00    1.23989   1.23287  319.119
 5044.00    1.28271   1.27429  307.070
 5045.00    1.30791   1.30592  315.730
 5046.00    1.30249   1.32076   94.314
 5047.00    1.41397   1.31697   -1.000
 5048.00    0.69777   1.29810   -1.000
 5049.00    0.49821   1.27392   -1.000
 5050.00    1.27073   1.25474   -1.000
 5051.00    1.25023   1.24585  325.861
 5052.00    1.27067   1.25099   -1.000
 5053.00    1.29685   1.27100   -1.000
 5054.00    1.31544   1.29663   -1.000
 5055.00    1.32543   1.31521   -1.000
 5056.00    1.32884   1.32380  316.737
 5057.00    1.33249   1.32695  316.635
 5058.00    1.32999   1.32902  314.531
 5059.00    1.32439   1.33208  314.633
 5060.00    1.32420   1.33615   -1.000
 5061.00    1.32604   1.33874   -1.000
 5062.00    1.33051   1.33433  339.630
 5063.00    1.30974   1.31864   -1.000
 5064.00    1.27624   1.29550   -1.000
 5065.00    1.25650   1.27699   -1.000
 5066.00    1.26544   1.27132  333.511
 5067.00    1.27751   1.27446  331.946
 5068.00    1.28247   1.27921  329.764
 5069.00    1.28888   1.28371  332.318
 5070.00    1.30132   1.28770   -1.000
 5071.00    1.29976   1.28832   -1.000
 5072.00    1.29207   1.28472  328.354
 5073.00    1.28965   1.28125  327.869
 5074.00    1.29112   1.28157   -1.000
 5075.00    1.29270   1.28439  330.727
 5076.00    1.29592   1.28543   -1.000
 5077.00    1.29145   1.27907   -1.000
 5078.00    1.26656   1.26148  362.876
 5079.00    1.22896   1.23754   -1.000
 5080.00    1.21313   1.22216   -1.000
 5081.00    1.22813   1.22446  343.079
 5082.00    1.24812   1.23696   -1.000
 5083.00    1.26164   1.25041   -1.000
 5084.00    1.27767   1.26461   -1.000
 5085.00    1.29744   1.27999   -1.000
 5086.00    1.30996   1.29228   -1.000
 5087.00    1.31243   1.29865   -1.000
 5088.00    1.31344   1.30163   -1.000
 5089.00    1.31860   1.30520   -1.000
 5090.00    1.31993   1.31018   -1.000
 5091.00    1.32091   1.31591  313.932
 5092.00    1.32694   1.32269  316.734
 5093.00    1.33804   1.32909   -1.000
 5094.00    1.34271   1.33053   -1.000
 5095.00    1.33069   1.32252  338.355
 5096.00    1.31166   1.30457  345.473
 5097.00    1.28603   1.28178  346.639
 5098.00    1.26371   1.26244  338.195
 5099.00    1.26082   1.25560  328.360
 5100.00    1.28097   1.26556   -1.000
 5101.00    1.30689   1.28508   -1.000
 5102.00    1.31834   1.30119   -1.000
 5103.00    1.32067   1.30653   -1.000
 5104.00    1.31400   1.30292   -1.000
 5105.00    1.30237   1.29392   -1.000
 5106.00    1.28344   1.28067  343.731
 5107.00    1.26615   1.26648  341.523
 5108.00    1.25856   1.25711  339.069
 5109.00    1.26072   1.25536  334.185
 5110.00    1.26495   1.26173  330.087
 5111.00    1.28182   1.27562  326.062
 5112.00    1.30631   1.29309   -1.000
 5113.00    1.31799   1.30786   -1.000
 5114.00    1.32420   1.31727  317.984
 5115.00    1.32795   1.32346  315.320
 5116.00    1.33474   1.32937  316.257
 5117.00    1.34622   1.33489   -1.000
 5118.00    1.35021   1.33702   -1.000
 5119.00    1.34005   1.33297  330.639
 5120.00    1.33451   1.32241   -1.000
 5121.00    1.31392   1.30675  349.454
 5122.00    1.28733   1.28790  351.868
 5123.00    1.26580   1.26949  348.703
 5124.00    1.24933   1.25748  347.001
 5125.00    1.25648   1.25471  344.923
 5126.00    1.26663   1.25706   -1.000
 5127.00    1.27000   1.25851   -1.000
 5128.00    1.26849   1.25807   -1.000
 5129.00    1.27048   1.25927   -1.000
 5130.00    1.27510   1.26519   -1.000
 5131.00    1.28787   1.27497   -1.000
 5132.00    1.29570   1.28510   -1.000
 5133.00    1.30145   1.29380  325.157
 5134.00    1.30875   1.30055  331.101
 5135.00    1.31559   1.30306   -1.000
 5136.00    1.30763   1.29747   -1.000
 5137.00    1.28204   1.28279  345.025
 5138.00    1.26214   1.26551  341.869
 5139.00    1.25145   1.25519  344.490
 5140.00    1.25905   1.25439  350.179
 5141.00    1.26427   1.25733  348.028
 5142.00    1.25251   1.25871  342.085
 5143.00    1.25030   1.26111   -1.000
 5144.00    1.26743   1.26786  344.244
 5145.00    1.28137   1.27384  345.059
 5146.00    1.27807   1.27344  340.721
 5147.00    1.27854   1.27040  338.842
 5148.00    1.28633   1.27050   -1.000
 5149.00    1.29283   1.27220   -1.000
 5150.00    1.28302   1.26965   -1.000
 5151.00    1.26428   1.26180  349.859
 5152.00    1.25302   1.25456  343.062
 5153.00    1.26668   1.25354   -1.000
 5154.00    1.28317   1.26027   -1.000
 5155.00    1.30032   1.27464   -1.000
 5156.00    1.31790   1.29364   -1.000
 5157.00    1.33675   1.31099   -1.000
 5158.00    1.34828   1.32190   -1.000
 5159.00    1.34940   1.32582   -1.000
 5160.00    1.34744   1.32370   -1.000
 5161.00    1.33696   1.31656   -1.000
 5162.00    1.32529   1.30617   -1.000
 5163.00    1.31623   1.29205   -1.000
 5164.00    1.30363   1.26677   -1.000
 5165.00    1.25511   1.22052   -1.000
 5166.00    1.17580   1.15571   -1.000
 5167.00    1.11091   1.09775   -1.000
 5168.00    1.09757   1.07716   -1.000
 5169.00    1.13721   1.09525   -1.000
 5170.00    1.17547   1.11859   -1.000
 5171.00    1.16091   1.11433   -1.000
 5172.00    1.11753   1.09300   -1.000
 5173.00    1.11966   1.09550   -1.000
 5174.00    1.18221   1.14149   -1.000
 5175.00    1.26010   1.20884   -1.000
 5176.00    1.30815   1.26223   -1.000
 5177.00    1.32547   1.28949   -1.000
 5178.00    1.32719   1.29875   -1.000
 5179.00    1.32434   1.29628   -1.000
 5180.00    1.31290   1.27756   -1.000
 5181.00    1.27498   1.23352   -1.000
 5182.00    1.20679   1.16811   -1.000
 5183.00    1.13601   1.10902   -1.000
 5184.00    1.12938   1.09333   -1.000
 5185.00    1.19214   1.13325   -1.000
 5186.00    1.26277   1.19753   -1.000
 5187.00    1.29287   1.24604   -1.000
 5188.00    1.29577   1.26752   -1.000
 5189.00    1.29380   1.27179   -1.000
 5190.00    1.28320   1.26531   -1.000
 5191.00    1.25989   1.24901   -1.000
 5192.00    1.22902   1.23121  351.063
 5193.00    1.22617   1.22504  345.913
 5194.00    1.24631   1.23203   -1.000
 5195.00    1.26815   1.24319   -1.000
 5196.00    1.27995   1.25417   -1.000
 5197.00    1.29152   1.26685   -1.000
 5198.00    1.30334   1.28171   -1.000
 5199.00    1.31753   1.29550   -1.000
 5200.00    1.32398   1.30385   -1.000
 5201.00    1.32064   1.30334   -1.000
 5202.00    1.30812   1.29189   -1.000
 5203.00    1.28740   1.26985   -1.000
 5204.00    1.26056   1.24181   -1.000
 5205.00    1.23636   1.21679   -1.000
 5206.00    1.22727   1.20248   -1.000
 5207.00    1.22699   1.19863   -1.000
 5208.00    1.22548   1.20040   -1.000
 5209.00    1.23416   1.20882   -1.000
 5210.00    1.26146   1.22990   -1.000
 5211.00    1.29319   1.26142   -1.000
 5212.00    1.32678   1.29140   -1.000
 5213.00    1.34376   1.30796   -1.000
 5214.00    1.33606   1.30600   -1.000
 5215.00    1.31382   1.29141   -1.000
 5216.00    1.29535   1.27824   -1.000
 5217.00    1.30026   1.27881   -1.000
 5218.00    1.32081   1.29384   -1.000
 5219.00    1.33955   1.31395   -1.000
 5220.00    1.34992   1.32979   -1.000
 5221.00    1.35817   1.33670   -1.000
 5222.00    1.35735   1.33293   -1.000
 5223.00    1.33855   1.31667   -1.000
 5224.00    1.30216   1.28603   -1.000
 5225.00    1.24872   1.24466  359.269
 5226.00    1.20821   1.20842  338.502
 5227.00    1.20903   1.19827   -1.000
 5228.00    1.24707   1.22101   -1.000
 5229.00    1.29864   1.26084   -1.000
 5230.00    1.32908   1.29227   -1.000
 5231.00    1.33482   1.29996   -1.000
 5232.00    1.32077   1.28727   -1.000
 5233.00    1.29771   1.26999   -1.000
 5234.00    1.29361   1.26536   -1.000
 5235.00    1.31097   1.27888   -1.000
 5236.00    1.33574   1.30239   -1.000
 5237.00    1.36152   1.32368   -1.000
 5238.00    1.36432   1.33558   -1.000
 5239.00    1.36388   1.33940   -1.000
 5240.00    1.36571   1.33975   -1.000
 5241.00    1.36482   1.33903   -1.000
 5242.00    1.36457   1.33841   -1.000
 5243.00    1.36585   1.33941   -1.000
 5244.00    1.36715   1.34077   -1.000
 5245.00    1.36073   1.33666   -1.000
 5246.00    1.33657   1.32317   -1.000
 5247.00    1.31059   1.30588  335.135
 5248.00    1.30181   1.29352  337.381
 5249.00    1.29870   1.28731   -1.000
 5250.00    1.29466   1.28473  330.626
 5251.00    1.28950   1.28665  327.481
 5252.00    1.30316   1.29252   -1.000
 5253.00    1.31548   1.29735   -1.000
 5254.00    1.31557   1.29926   -1.000
 5255.00    1.31957   1.30363   -1.000
 5256.00    1.33923   1.31677   -1.000
 5257.00    1.36372   1.33610   -1.000
 5258.00    1.38003   1.35052   -1.000
 5259.00    1.37625   1.35072   -1.000
 5260.00    1.35264   1.33391   -1.000
 5261.00    1.31704   1.30319   -1.000
 5262.00    1.27324   1.26625  367.088
 5263.00    1.23642   1.23129  367.555
 5264.00    1.21738   1.20516   -1.000
 5265.00    1.21076   1.19347   -1.000
 5266.00    1.22295   1.19587   -1.000
 5267.00    1.24603   1.20094   -1.000
 5268.00    1.23864   1.19298   -1.000
 5269.00    1.20176   1.17403   -1.000
 5270.00    1.18920   1.16767   -1.000
 5271.00    1.23153   1.19097   -1.000
 5272.00    1.28381   1.23161   -1.000
 5273.00    1.29992   1.26189   -1.000
 5274.00    1.29783   1.27209   -1.000
 5275.00    1.30261   1.27574   -1.000
 5276.00    1.31894   1.28830   -1.000
 5277.00    1.34448   1.31170   -1.000
 5278.00    1.37572   1.33382   -1.000
 5279.00    1.37499   1.34105   -1.000
 5280.00    1.36178   1.33088   -1.000
 5281.00    1.33500   1.31128   -1.000
 5282.00    1.31249   1.29225   -1.000
 5283.00    1.30508   1.28280   -1.000
 5284.00    1.31390   1.29030   -1.000
 5285.00    1.33943   1.31441   -1.000
 5286.00    1.38015   1.34345   -1.000
 5287.00    1.39261   1.36360   -1.000
 5288.00    1.39025   1.37246   -1.000
 5289.00    1.38778   1.37579   -1.000
 5290.00    1.39177   1.37675   -1.000
 5291.00    1.38786   1.37489   -1.000
 5292.00    1.38069   1.37058  311.014
 5293.00    1.37915   1.36509   -1.000
 5294.00    1.37374   1.35688   -1.000
 5295.00    1.35854   1.34121   -1.000
 5296.00    1.32359   1.31728  337.619
 5297.00    1.29011   1.29368  328.671
 5298.00    1.28500   1.28314  322.845
 5299.00    1.30377   1.28991   -1.000
 5300.00    1.32887   1.30467   -1.000
 5301.00    1.33584   1.31722   -1.000
 5302.00    1.33766   1.32805  302.643
 5303.00    1.35854   1.34193   -1.000
 5304.00    1.38229   1.35738   -1.000
 5305.00    1.38755   1.36690   -1.000
 5306.00    1.38336   1.36685   -1.000
 5307.00    1.37528   1.36264   -1.000
 5308.00    1.37578   1.36218   -1.000
 5309.00    1.39086   1.36791   -1.000
 5310.00    1.40004   1.37503   -1.000
 5311.00    1.40201   1.37764   -1.000
 5312.00    1.39802   1.37492   -1.000
 5313.00    1.39534   1.36860   -1.000
 5314.00    1.39136   1.35895   -1.000
 5315.00    1.37617   1.34646   -1.000
 5316.00    1.35763   1.33508   -1.000
 5317.00    1.35274   1.33142   -1.000
 5318.00    1.36740   1.33775   -1.000
 5319.00    1.37482   1.34792   -1.000
 5320.00    1.37343   1.35362   -1.000
 5321.00    1.36643   1.35067   -1.000
 5322.00    1.35394   1.33883   -1.000
 5323.00    1.33858   1.32184   -1.000
 5324.00    1.33141   1.30651   -1.000
 5325.00    1.33071   1.29326   -1.000
 5326.00    1.31163   1.27236   -1.000
 5327.00    1.26393   1.24013   -1.000
 5328.00    1.22374   1.21369   -1.000
 5329.00    1.23784   1.21843   -1.000
 5330.00    1.29589   1.25589   -1.000
 5331.00    1.33984   1.29889   -1.000
 5332.00    1.35575   1.32535   -1.000
 5333.00    1.35688   1.33655   -1.000
 5334.00    1.36884   1.34212   -1.000
 5335.00    1.37865   1.34550   -1.000
 5336.00    1.37178   1.34517   -1.000
 5337.00    1.36555   1.34002   -1.000
 5338.00    1.36085   1.32951   -1.000
 5339.00    1.34331   1.31399   -1.000
 5340.00    1.32009   1.29967   -1.000
 5341.00    1.31654   1.29789   -1.000
 5342.00    1.34180   1.31161   -1.000
 5343.00    1.36769   1.32926   -1.000
 5344.00    1.37648   1.33834   -1.000
 5345.00    1.36599   1.33694   -1.000
 5346.00    1.36043   1.33038   -1.000
 5347.00    1.35682   1.32344   -1.000
 5348.00    1.34987   1.31809   -1.000
 5349.00    1.34674   1.31735   -1.000
 5350.00    1.35605   1.32511   -1.000
 5351.00    1.37835   1.33920   -1.000
 5352.00    1.38708   1.35288   -1.000
 5353.00    1.38688   1.36272   -1.000
 5354.00    1.39507   1.37066   -1.000
 5355.00    1.40720   1.37926   -1.000
 5356.00    1.41273   1.38699   -1.000
 5357.00    1.41599   1.39094   -1.000
 5358.00    1.42006   1.39085   -1.000
 5359.00    1.41557   1.38728   -1.000
 5360.00    1.40160   1.37973   -1.000
 5361.00    1.38796   1.36848   -1.000
 5362.00    1.37252   1.35568   -1.000
 5363.00    1.36490   1.34392   -1.000
 5364.00    1.35637   1.33514   -1.000
 5365.00    1.35322   1.33048   -1.000
 5366.00    1.35347   1.32971   -1.000
 5367.00    1.35455   1.32918   -1.000
 5368.00    1.35022   1.32165   -1.000
 5369.00    1.33282   1.30307   -1.000
 5370.00    1.30580   1.27986   -1.000
 5371.00    1.29181   1.26768   -1.000
 5372.00    1.31060   1.27936   -1.000
 5373.00    1.35072   1.31068   -1.000
 5374.00    1.39146   1.34412   -1.000
 5375.00    1.41156   1.36552   -1.000
 5376.00    1.40904   1.37295   -1.000
 5377.00    1.40547   1.37290   -1.000
 5378.00    1.40849   1.37058   -1.000
 5379.00    1.39935   1.36627   -1.000
 5380.00    1.38502   1.35904   -1.000
 5381.00    1.37954   1.35020   -1.000
 5382.00    1.37186   1.34338   -1.000
 5383.00    1.36645   1.34204   -1.000
 5384.00    1.37553   1.34713   -1.000
 5385.00    1.38689   1.35613   -1.000
 5386.00    1.39357   1.36385   -1.000
 5387.00    1.39251   1.36570   -1.000
 5388.00    1.38852   1.36056   -1.000
 5389.00    1.37639   1.35032   -1.000
 5390.00    1.36187   1.33882   -1.000
 5391.00    1.35845   1.32943   -1.000
 5392.00    1.35480   1.32313   -1.000
 5393.00    1.34642   1.31928   -1.000
 5394.00    1.34266   1.31504   -1.000
 5395.00    1.33197   1.30569   -1.000
 5396.00    1.31119   1.29127   -1.000
 5397.00    1.30421   1.28205   -1.000
 5398.00    1.32276   1.28825   -1.000
 5399.00    1.35252   1.30694   -1.000
 5400.00    1.37047   1.32589   -1.000
 5401.00    1.37368   1.33550   -1.000
 5402.00    1.36643   1.33150   -1.000
 5403.00    1.34328   1.31266   -1.000
 5404.00    1.31028   1.28453   -1.000
 5405.00    1.28623   1.26222   -1.000
 5406.00    1.29564   1.25975   -1.000
 5407.00    1.32027   1.27420   -1.000
 5408.00    1.33198   1.28928   -1.000
 5409.00    1.32591   1.29488   -1.000
 5410.00    1.32064   1.29744   -1.000
 5411.00    1.34114   1.30850   -1.000
 5412.00    1.36845   1.32615   -1.000
 5413.00    1.38267   1.33890   -1.000
 5414.00    1.37677   1.34310   -1.000
 5415.00    1.37248   1.34540   -1.000
 5416.00    1.37940   1.35163   -1.000
 5417.00    1.38513   1.35914   -1.000
 5418.00    1.38447   1.36191   -1.000
 5419.00    1.37859   1.35955   -1.000
 5420.00    1.37749   1.35599   -1.000
 5421.00    1.38016   1.35288   -1.000
 5422.00    1.37801   1.34812   -1.000
 5423.00    1.36783   1.34052   -1.000
 5424.00    1.35525   1.33554   -1.000
 5425.00    1.36087   1.34073   -1.000
 5426.00    1.37700   1.35292   -1.000
 5427.00    1.38547   1.35729   -1.000
 5428.00    1.36490   1.34369   -1.000
 5429.00    1.33186   1.32148   -1.000
 5430.00    1.31867   1.30929   -1.000
 5431.00    1.33189   1.31181   -1.000
 5432.00    1.34382   1.31663   -1.000
 5433.00    1.33457   1.31215   -1.000
 5434.00    1.31870   1.30260   -1.000
 5435.00    1.31779   1.30162   -1.000
 5436.00    1.33781   1.31578   -1.000
 5437.00    1.36575   1.34001   -1.000
 5438.00    1.39018   1.36409   -1.000
 5439.00    1.40958   1.38072   -1.000
 5440.00    1.41902   1.38918   -1.000
 5441.00    1.41425   1.39234   -1.000
 5442.00    1.41038   1.39136   -1.000
 5443.00    1.40365   1.38304   -1.000
 5444.00    1.37718   1.36278   -1.000
 5445.00    1.34294   1.33214   -1.000
 5446.00    1.30905   1.30425  320.361
 5447.00    1.30845   1.29575   -1.000
 5448.00    1.33535   1.31122   -1.000
 5449.00    1.37559   1.33901   -1.000
 5450.00    1.39406   1.36207   -1.000
 5451.00    1.39653   1.37118   -1.000
 5452.00    1.39441   1.36623   -1.000
 5453.00    1.37764   1.34926   -1.000
 5454.00    1.34248   1.32437   -1.000
 5455.00    1.31514   1.30402   -1.000
 5456.00    1.32050   1.30363   -1.000
 5457.00    1.35531   1.32594   -1.000
 5458.00    1.39045   1.35517   -1.000
 5459.00    1.40117   1.37252   -1.000
 5460.00    1.39041   1.37227   -1.000
 5461.00    1.37669   1.35989   -1.000
 5462.00    1.36199   1.34454   -1.000
 5463.00    1.35750   1.33569   -1.000
 5464.00    1.36188   1.33823   -1.000
 5465.00    1.37836   1.34824   -1.000
 5466.00    1.38291   1.35821   -1.000
 5467.00    1.38633   1.36473   -1.000
 5468.00    1.39574   1.36816   -1.000
 5469.00    1.39310   1.36874   -1.000
 5470.00    1.38415   1.36604   -1.000
 5471.00    1.38230   1.36063   -1.000
 5472.00    1.37685   1.35389   -1.000
 5473.00    1.36667   1.34573   -1.000
 5474.00    1.35823   1.33356   -1.000
 5475.00    1.34017   1.31617   -1.000
 5476.00    1.31663   1.29925   -1.000
 5477.00    1.31488   1.29538   -1.000
 5478.00    1.33852   1.30953   -1.000
 5479.00    1.36533   1.32912   -1.000
 5480.00    1.37016   1.33852   -1.000
 5481.00    1.35781   1.33684   -1.000
 5482.00    1.35182   1.33541   -1.000
 5483.00    1.36133   1.34307   -1.000
 5484.00    1.37748   1.35678   -1.000
 5485.00    1.38220   1.36661   -1.000
 5486.00    1.37809   1.36641   -1.000
 5487.00    1.36970   1.35900   -1.000
 5488.00    1.37222   1.35192   -1.000
 5489.00    1.37340   1.35045   -1.000
 5490.00    1.37752   1.35427   -1.000
 5491.00    1.38215   1.35959   -1.000
 5492.00    1.38376   1.36288   -1.000
 5493.00    1.38583   1.36335   -1.000
 5494.00    1.38865   1.36210   -1.000
 5495.00    1.38660   1.35909   -1.000
 5496.00    1.37573   1.35326   -1.000
 5497.00    1.36425   1.34778   -1.000
 5498.00    1.36815   1.34813   -1.000
 5499.00    1.37943   1.35201   -1.000
 5500.00    1.37860   1.35085   -1.000
 5501.00    1.36887   1.34267   -1.000
 5502.00    1.36037   1.33528   -1.000
 5503.00    1.36619   1.33502   -1.000
 5504.00    1.37505   1.33720   -1.000
 5505.00    1.36738   1.33401   -1.000
 5506.00    1.35211   1.32721   -1.000
 5507.00    1.34826   1.32558   -1.000
 5508.00    1.36416   1.33321   -1.000
 5509.00    1.38194   1.34327   -1.000
 5510.00    1.38205   1.34572   -1.000
 5511.00    1.36774   1.33841   -1.000
 5512.00    1.35195   1.32737   -1.000
 5513.00    1.34408   1.32050   -1.000
 5514.00    1.35086   1.32213   -1.000
 5515.00    1.36593   1.33128   -1.000
 5516.00    1.38421   1.34421   -1.000
 5517.00    1.39742   1.35785   -1.000
 5518.00    1.40701   1.36985   -1.000
 5519.00    1.41182   1.37773   -1.000
 5520.00    1.40892   1.38002   -1.000
 5521.00    1.40625   1.37874   -1.000
 5522.00    1.40780   1.37725   -1.000
 5523.00    1.40785   1.37580   -1.000
 5524.00    1.40285   1.37093   -1.000
 5525.00    1.38987   1.35834   -1.000
 5526.00    1.36756   1.33808   -1.000
 5527.00    1.34522   1.31741   -1.000
 5528.00    1.33693   1.30787   -1.000
 5529.00    1.35089   1.31616   -1.000
 5530.00    1.37321   1.33675   -1.000
 5531.00    1.38731   1.35550   -1.000
 5532.00    1.39026   1.36224   -1.000
 5533.00    1.38394   1.35797   -1.000
 5534.00    1.37522   1.35053   -1.000
 5535.00    1.37276   1.34727   -1.000
 5536.00    1.37665   1.35051   -1.000
 5537.00    1.38956   1.35756   -1.000
 5538.00    1.39646   1.36497   -1.000
 5539.00    1.40491   1.37185   -1.000
 5540.00    1.41118   1.37764   -1.000
 5541.00    1.41356   1.37985   -1.000
 5542.00    1.40536   1.37658   -1.000
 5543.00    1.39221   1.37014   -1.000
 5544.00    1.39248   1.36536   -1.000
 5545.00    1.39405   1.36475   -1.000
 5546.00    1.39764   1.36767   -1.000
 5547.00    1.40329   1.37353   -1.000
 5548.00    1.40895   1.38174   -1.000
 5549.00    1.41656   1.38933   -1.000
 5550.00    1.41948   1.39295   -1.000
 5551.00    1.42073   1.39173   -1.000
 5552.00    1.41599   1.38697   -1.000
 5553.00    1.40741   1.38078   -1.000
 5554.00    1.39612   1.37621   -1.000
 5555.00    1.40060   1.37509   -1.000
 5556.00    1.40695   1.37661   -1.000
 5557.00    1.40897   1.37847   -1.000
 5558.00    1.40886   1.37955   -1.000
 5559.00    1.40752   1.38028   -1.000
 5560.00    1.40898   1.38009   -1.000
 5561.00    1.40493   1.37711   -1.000
 5562.00    1.39508   1.37142   -1.000
 5563.00    1.38853   1.36562   -1.000
 5564.00    1.38484   1.36194   -1.000
 5565.00    1.38010   1.35993   -1.000
 5566.00    1.38053   1.35799   -1.000
 5567.00    1.38385   1.35576   -1.000
 5568.00    1.37870   1.35380   -1.000
 5569.00    1.37322   1.35280   -1.000
 5570.00    1.37478   1.35224   -1.000
 5571.00    1.38301   1.35029   -1.000
 5572.00    1.40094   1.34775   -1.000
 5573.00    1.45656   1.34835   -1.000
 5574.00    1.57819   1.35373   -1.000
 5575.00    1.67240   1.36109   -1.000
 5576.00    1.64149   1.36695   -1.000
 5577.00    1.52922   1.37107   -1.000
 5578.00    1.43841   1.37500   -1.000
 5579.00    1.41051   1.37835   -1.000
 5580.00    1.40429   1.37932   -1.000
 5581.00    1.40096   1.37767   -1.000
 5582.00    1.39313   1.37524   -1.000
 5583.00    1.39145   1.37297   -1.000
 5584.00    1.38957   1.36724   -1.000
 5585.00    1.37744   1.35246   -1.000
 5586.00    1.35260   1.32923   -1.000
 5587.00    1.32422   1.30654   -1.000
 5588.00    1.31438   1.29489   -1.000
 5589.00    1.32095   1.29799   -1.000
 5590.00    1.33734   1.31179   -1.000
 5591.00    1.35877   1.32733   -1.000
 5592.00    1.36778   1.33701   -1.000
 5593.00    1.36146   1.34013   -1.000
 5594.00    1.35812   1.34298   -1.000
 5595.00    1.36980   1.35072   -1.000
 5596.00    1.38192   1.35871   -1.000
 5597.00    1.38124   1.35835   -1.000
 5598.00    1.36673   1.34962   -1.000
 5599.00    1.35765   1.33922   -1.000
 5600.00    1.35552   1.33016   -1.000
 5601.00    1.34764   1.32282   -1.000
 5602.00    1.33868   1.32164   -1.000
 5603.00    1.34883   1.33243   -1.000
 5604.00    1.37541   1.35440   -1.000
 5605.00    1.40204   1.37850   -1.000
 5606.00    1.41762   1.39564   -1.000
 5607.00    1.42331   1.40351   -1.000
 5608.00    1.42258   1.40532   -1.000
 5609.00    1.42229   1.40537   -1.000
 5610.00    1.42582   1.40629   -1.000
 5611.00    1.42583   1.40658   -1.000
 5612.00    1.41921   1.40064   -1.000
 5613.00    1.40542   1.38299   -1.000
 5614.00    1.37757   1.35542   -1.000
 5615.00    1.34808   1.33197   -1.000
 5616.00    1.34607   1.32736   -1.000
 5617.00    1.37017   1.34136   -1.000
 5618.00    1.39262   1.35988   -1.000
 5619.00    1.40301   1.37199   -1.000
 5620.00    1.40696   1.37790   -1.000
 5621.00    1.40646   1.38084   -1.000
 5622.00    1.40422   1.37877   -1.000
 5623.00    1.38966   1.36963   -1.000
 5624.00    1.37137   1.35787   -1.000
 5625.00    1.37001   1.35252   -1.000
 5626.00    1.38319   1.35798   -1.000
 5627.00    1.39674   1.36980   -1.000
 5628.00    1.40953   1.38156   -1.000
 5629.00    1.42284   1.39067   -1.000
 5630.00    1.42503   1.39662   -1.000
 5631.00    1.42843   1.39870   -1.000
 5632.00    1.42267   1.39691   -1.000
 5633.00    1.41922   1.39253   -1.000
 5634.00    1.41387   1.38676   -1.000
 5635.00    1.40588   1.37990   -1.000
 5636.00    1.40116   1.37258   -1.000
 5637.00    1.39516   1.36712   -1.000
 5638.00    1.39393   1.36520   -1.000
 5639.00    1.39477   1.36508   -1.000
 5640.00    1.39199   1.36385   -1.000
 5641.00    1.38999   1.36193   -1.000
 5642.00    1.39331   1.36242   -1.000
 5643.00    1.39767   1.36626   -1.000
 5644.00    1.40075   1.37106   -1.000
 5645.00    1.40521   1.37487   -1.000
 5646.00    1.40873   1.37732   -1.000
 5647.00    1.41206   1.37823   -1.000
 5648.00    1.41196   1.37731   -1.000
 5649.00    1.41126   1.37572   -1.000
 5650.00    1.41587   1.37581   -1.000
 5651.00    1.41735   1.37843   -1.000
 5652.00    1.41456   1.38110   -1.000
 5653.00    1.41275   1.38046   -1.000
 5654.00    1.40972   1.37563   -1.000
 5655.00    1.39975   1.36643   -1.000
 5656.00    1.38085   1.35110   -1.000
 5657.00    1.35546   1.33162   -1.000
 5658.00    1.33574   1.31734   -1.000
 5659.00    1.33960   1.31720   -1.000
 5660.00    1.36135   1.32882   -1.000
 5661.00    1.37707   1.34035   -1.000
 5662.00    1.37895   1.34694   -1.000
 5663.00    1.38371   1.35465   -1.000
 5664.00    1.39551   1.36581   -1.000
 5665.00    1.40378   1.37337   -1.000
 5666.00    1.40369   1.37174   -1.000
 5667.00    1.39404   1.36434   -1.000
 5668.00    1.39160   1.35897   -1.000
 5669.00    1.39345   1.35983   -1.000
 5670.00    1.39565   1.36589   -1.000
 5671.00    1.40650   1.37444   -1.000
 5672.00    1.41663   1.38316   -1.000
 5673.00    1.42457   1.38959   -1.000
 5674.00    1.42816   1.39242   -1.000
 5675.00    1.42212   1.39275   -1.000
 5676.00    1.42498   1.39262   -1.000
 5677.00    1.42704   1.39232   -1.000
 5678.00    1.42415   1.39050   -1.000
 5679.00    1.42049   1.38625   -1.000
 5680.00    1.41584   1.37953   -1.000
 5681.00    1.40951   1.37038   -1.000
 5682.00    1.39801   1.36000   -1.000
 5683.00    1.39351   1.35270   -1.000
 5684.00    1.39230   1.35183   -1.000
 5685.00    1.39334   1.35501   -1.000
 5686.00    1.39213   1.35694   -1.000
 5687.00    1.38529   1.35614   -1.000
 5688.00    1.38547   1.35577   -1.000
 5689.00    1.39415   1.35938   -1.000
 5690.00    1.40443   1.36713   -1.000
 5691.00    1.41423   1.37619   -1.000
 5692.00    1.42145   1.38341   -1.000
 5693.00    1.42513   1.38714   -1.000
 5694.00    1.42533   1.38804   -1.000
 5695.00    1.42078   1.38746   -1.000
 5696.00    1.41403   1.38568   -1.000
 5697.00    1.40746   1.38188   -1.000
 5698.00    1.39761   1.37586   -1.000
 5699.00    1.39180   1.36867   -1.000
 5700.00    1.38845   1.36160   -1.000
 5701.00    1.38212   1.35660   -1.000
 5702.00    1.37706   1.35643   -1.000
 5703.00    1.38155   1.36076   -1.000
 5704.00    1.38624   1.36457   -1.000
 5705.00    1.38616   1.36282   -1.000
 5706.00    1.38113   1.35444   -1.000
 5707.00    1.36499   1.34214   -1.000
 5708.00    1.34449   1.32953   -1.000
 5709.00    1.33475   1.32009   -1.000
 5710.00    1.33774   1.31711   -1.000
 5711.00    1.34601   1.32252   -1.000
 5712.00    1.36261   1.33588   -1.000
 5713.00    1.38573   1.35350   -1.000
 5714.00    1.40269   1.36898   -1.000
 5715.00    1.40983   1.37852   -1.000
 5716.00    1.41489   1.38374   -1.000
 5717.00    1.41506   1.38768   -1.000
 5718.00    1.41641   1.39174   -1.000
 5719.00    1.42157   1.39620   -1.000
 5720.00    1.43081   1.40067   -1.000
 5721.00    1.43354   1.40430   -1.000
 5722.00    1.43667   1.40687   -1.000
 5723.00    1.44008   1.40823   -1.000
 5724.00    1.43708   1.40717   -1.000
 5725.00    1.43030   1.40211   -1.000
 5726.00    1.41736   1.39443   -1.000
 5727.00    1.41133   1.38879   -1.000
 5728.00    1.41773   1.38820   -1.000
 5729.00    1.42203   1.39024   -1.000
 5730.00    1.42173   1.39087   -1.000
 5731.00    1.41613   1.39011   -1.000
 5732.00    1.41938   1.39137   -1.000
 5733.00    1.42699   1.39665   -1.000
 5734.00    1.43127   1.40296   -1.000
 5735.00    1.43035   1.40600   -1.000
 5736.00    1.42912   1.40541   -1.000
 5737.00    1.42783   1.40359   -1.000
 5738.00    1.42594   1.40232   -1.000
 5739.00    1.42561   1.40179   -1.000
 5740.00    1.42572   1.40133   -1.000
 5741.00    1.42296   1.40017   -1.000
 5742.00    1.42158   1.39911   -1.000
 5743.00    1.42112   1.40007   -1.000
 5744.00    1.42541   1.40342   -1.000
 5745.00    1.43151   1.40606   -1.000
 5746.00    1.42904   1.40450   -1.000
 5747.00    1.42292   1.39972   -1.000
 5748.00    1.41933   1.39716   -1.000
 5749.00    1.42051   1.39912   -1.000
 5750.00    1.42584   1.40108   -1.000
 5751.00    1.42341   1.39664   -1.000
 5752.00    1.40781   1.38521   -1.000
 5753.00    1.39436   1.37421   -1.000
 5754.00    1.39345   1.37241   -1.000
 5755.00    1.40653   1.38193   -1.000
 5756.00    1.42556   1.39646   -1.000
 5757.00    1.43586   1.40803   -1.000
 5758.00    1.43713   1.41192   -1.000
 5759.00    1.43245   1.40764   -1.000
 5760.00    1.42241   1.39766   -1.000
 5761.00    1.41140   1.38675   -1.000
 5762.00    1.40422   1.38080   -1.000
 5763.00    1.40674   1.38449   -1.000
 5764.00    1.41780   1.39679   -1.000
 5765.00    1.43021   1.41006   -1.000
 5766.00    1.43718   1.41775   -1.000
 5767.00    1.43979   1.41957   -1.000
 5768.00    1.44034   1.41854   -1.000
 5769.00    1.43677   1.41643   -1.000
 5770.00    1.43289   1.41364   -1.000
 5771.00    1.42818   1.41018   -1.000
 5772.00    1.42649   1.40615   -1.000
 5773.00    1.42144   1.40214   -1.000
 5774.00    1.41759   1.39908   -1.000
 5775.00    1.41745   1.39820   -1.000
 5776.00    1.40906   1.39935   -1.000
 5777.00    1.39688   1.39951  317.469
 5778.00    1.38420   1.39484   -1.000
 5779.00    1.37010   1.38413   -1.000
 5780.00    1.37269   1.37046  325.668
 5781.00    1.37882   1.35898   -1.000
 5782.00    1.38425   1.35356   -1.000
 5783.00    1.39157   1.35367   -1.000
 5784.00    1.39406   1.35619   -1.000
 5785.00    1.39797   1.36027   -1.000
 5786.00    1.40682   1.36780   -1.000
 5787.00    1.41630   1.37785   -1.000
 5788.00    1.42522   1.38634   -1.000
 5789.00    1.42580   1.39010   -1.000
 5790.00    1.42293   1.38973   -1.000
 5791.00    1.42107   1.38912   -1.000
 5792.00    1.42362   1.39238   -1.000
 5793.00    1.42509   1.39966   -1.000
 5794.00    1.42388   1.40727   -1.000
 5795.00    1.42430   1.41091   -1.000
 5796.00    1.42455   1.40878   -1.000
 5797.00    1.42249   1.40393   -1.000
 5798.00    1.42663   1.40256   -1.000
 5799.00    1.44101   1.40766   -1.000
 5800.00    1.45408   1.41590   -1.000
 5801.00    1.45749   1.42156   -1.000
 5802.00    1.45374   1.42140   -1.000
 5803.00    1.44630   1.41583   -1.000
 5804.00    1.43646   1.40877   -1.000
 5805.00    1.43287   1.40460   -1.000
 5806.00    1.43477   1.40508   -1.000
 5807.00    1.43584   1.40857   -1.000
 5808.00    1.43801   1.41242   -1.000
 5809.00    1.44141   1.41547   -1.000
 5810.00    1.44904   1.41811   -1.000
 5811.00    1.45722   1.42017   -1.000
 5812.00    1.45766   1.42039   -1.000
 5813.00    1.45315   1.41762   -1.000
 5814.00    1.44758   1.41221   -1.000
 5815.00    1.44388   1.40658   -1.000
 5816.00    1.44160   1.40488   -1.000
 5817.00    1.44443   1.40928   -1.000
 5818.00    1.45305   1.41719   -1.000
 5819.00    1.46012   1.42383   -1.000
 5820.00    1.46402   1.42696   -1.000
 5821.00    1.46430   1.42738   -1.000
 5822.00    1.46266   1.42653   -1.000
 5823.00    1.46153   1.42542   -1.000
 5824.00    1.45950   1.42461   -1.000
 5825.00    1.46054   1.42459   -1.000
 5826.00    1.46308   1.42550   -1.000
 5827.00    1.46420   1.42725   -1.000
 5828.00    1.46585   1.42943   -1.000
 5829.00    1.46564   1.43101   -1.000
 5830.00    1.47055   1.43099   -1.000
 5831.00    1.46892   1.42953   -1.000
 5832.00    1.46719   1.42719   -1.000
 5833.00    1.46495   1.42420   -1.000
 5834.00    1.46440   1.42123   -1.000
 5835.00    1.45877   1.42006   -1.000
 5836.00    1.45932   1.42103   -1.000
 5837.00    1.45917   1.42276   -1.000
 5838.00    1.46276   1.42464   -1.000
 5839.00    1.46311   1.42740   -1.000
 5840.00    1.46476   1.43061   -1.000
 5841.00    1.46615   1.43258   -1.000
 5842.00    1.46858   1.43197   -1.000
 5843.00    1.46608   1.42890   -1.000
 5844.00    1.46613   1.42433   -1.000
 5845.00    1.46612   1.41929   -1.000
 5846.00    1.45749   1.41454   -1.000
 5847.00    1.44822   1.41133   -1.000
 5848.00    1.44760   1.41057   -1.000
 5849.00    1.44905   1.41108   -1.000
 5850.00    1.44980   1.40942   -1.000
 5851.00    1.44612   1.40297   -1.000
 5852.00    1.43453   1.39326   -1.000
 5853.00    1.42601   1.38531   -1.000
 5854.00    1.42404   1.38173   -1.000
 5855.00    1.42212   1.37876   -1.000
 5856.00    1.41745   1.37156   -1.000
 5857.00    1.40962   1.36287   -1.000
 5858.00    1.40822   1.36079   -1.000
 5859.00    1.42048   1.36857   -1.000
 5860.00    1.43307   1.38068   -1.000
 5861.00    1.43911   1.39040   -1.000
 5862.00    1.44324   1.39588   -1.000
 5863.00    1.44644   1.39884   -1.000
 5864.00    1.44842   1.39971   -1.000
 5865.00    1.44545   1.39771   -1.000
 5866.00    1.43762   1.39430   -1.000
 5867.00    1.43515   1.39391   -1.000
 5868.00    1.44212   1.39888   -1.000
 5869.00    1.45283   1.40646   -1.000
 5870.00    1.45850   1.41198   -1.000
 5871.00    1.45815   1.41326   -1.000
 5872.00    1.45666   1.41149   -1.000
 5873.00    1.45711   1.40896   -1.000
 5874.00    1.45628   1.40684   -1.000
 5875.00    1.45703   1.40501   -1.000
 5876.00    1.45246   1.40294   -1.000
 5877.00    1.44586   1.39961   -1.000
 5878.00    1.44092   1.39437   -1.000
 5879.00    1.43223   1.38826   -1.000
 5880.00    1.42617   1.38350   -1.000
 5881.00    1.42690   1.38106   -1.000
 5882.00    1.42635   1.37930   -1.000
 5883.00    1.42226   1.37629   -1.000
 5884.00    1.41530   1.37247   -1.000
 5885.00    1.40187   1.36765   -1.000
 5886.00    1.37776   1.35473   -1.000
 5887.00    1.32054   1.32221  378.703
 5888.00    1.25143   1.26839   -1.000
 5889.00    1.21370   1.21475  365.934
 5890.00    1.23147   1.19242   -1.000
 5891.00    1.27486   1.21110   -1.000
 5892.00    1.30748   1.24655   -1.000
 5893.00    1.29934   1.26558   -1.000
 5894.00    1.26697   1.25585   -1.000
 5895.00    1.24809   1.23360   -1.000
 5896.00    1.26942   1.22778   -1.000
 5897.00    1.31459   1.25069   -1.000
 5898.00    1.36216   1.28831   -1.000
 5899.00    1.38977   1.32112   -1.000
 5900.00    1.40863   1.34364   -1.000
 5901.00    1.42604   1.35883   -1.000
 5902.00    1.43346   1.36882   -1.000
 5903.00    1.43382   1.37445   -1.000
 5904.00    1.43403   1.37709   -1.000
 5905.00    1.42539   1.37859   -1.000
 5906.00    1.42307   1.38048   -1.000
 5907.00    1.42805   1.38330   -1.000
 5908.00    1.43096   1.38631   -1.000
 5909.00    1.42927   1.38867   -1.000
 5910.00    1.43027   1.38970   -1.000
 5911.00    1.43268   1.38810   -1.000
 5912.00    1.42596   1.38226   -1.000
 5913.00    1.41427   1.37279   -1.000
 5914.00    1.40292   1.36367   -1.000
 5915.00    1.39314   1.35956   -1.000
 5916.00    1.39090   1.36157   -1.000
 5917.00    1.39708   1.36762   -1.000
 5918.00    1.40845   1.37473   -1.000
 5919.00    1.41862   1.38057   -1.000
 5920.00    1.41896   1.38378   -1.000
 5921.00    1.41384   1.38464   -1.000
 5922.00    1.41268   1.38475   -1.000
 5923.00    1.42307   1.38603   -1.000
 5924.00    1.43884   1.38913   -1.000
 5925.00    1.44193   1.39268   -1.000
 5926.00    1.43792   1.39450   -1.000
 5927.00    1.43504   1.39274   -1.000
 5928.00    1.43049   1.38733   -1.000
 5929.00    1.42517   1.38146   -1.000
 5930.00    1.42168   1.37985   -1.000
 5931.00    1.42640   1.38336   -1.000
 5932.00    1.43406   1.38739   -1.000
 5933.00    1.43318   1.38737   -1.000
 5934.00    1.42787   1.38418   -1.000
 5935.00    1.42540   1.38268   -1.000
 5936.00    1.42494   1.38563   -1.000
 5937.00    1.42607   1.39050   -1.000
 5938.00    1.41794   1.39268   -1.000
 5939.00    1.40931   1.38995   -1.000
 5940.00    1.40753   1.38400   -1.000
 5941.00    1.40469   1.37857   -1.000
 5942.00    1.40909   1.37695   -1.000
 5943.00    1.41103   1.37980   -1.000
 5944.00    1.41486   1.38485   -1.000
 5945.00    1.42036   1.38853   -1.000
 5946.00    1.42406   1.38815   -1.000
 5947.00    1.41783   1.38381   -1.000
 5948.00    1.40974   1.37928   -1.000
 5949.00    1.41351   1.37882   -1.000
 5950.00    1.42135   1.38163   -1.000
 5951.00    1.42667   1.38340   -1.000
 5952.00    1.42289   1.38264   -1.000
 5953.00    1.41505   1.38177   -1.000
 5954.00    1.41153   1.38184   -1.000
 5955.00    1.40837   1.38118   -1.000
 5956.00    1.40853   1.37925   -1.000
 5957.00    1.41171   1.37886   -1.000
 5958.00    1.42276   1.38267   -1.000
 5959.00    1.43367   1.38964   -1.000
 5960.00    1.44220   1.39657   -1.000
 5961.00    1.44495   1.40110   -1.000
 5962.00    1.44421   1.40259   -1.000
 5963.00    1.43889   1.40122   -1.000
 5964.00    1.42743   1.39778   -1.000
 5965.00    1.42002   1.39403   -1.000
 5966.00    1.41774   1.39242   -1.000
 5967.00    1.42548   1.39389   -1.000
 5968.00    1.43732   1.39703   -1.000
 5969.00    1.44206   1.40022   -1.000
 5970.00    1.44361   1.40285   -1.000
 5971.00    1.44537   1.40442   -1.000
 5972.00    1.44107   1.40420   -1.000
 5973.00    1.43585   1.40172   -1.000
 5974.00    1.42956   1.39646   -1.000
 5975.00    1.41854   1.38894   -1.000
 5976.00    1.41357   1.38210   -1.000
 5977.00    1.41643   1.37945   -1.000
 5978.00    1.42161   1.38223   -1.000
 5979.00    1.42855   1.38842   -1.000
 5980.00    1.43307   1.39387   -1.000
 5981.00    1.43316   1.39424   -1.000
 5982.00    1.42493   1.38821   -1.000
 5983.00    1.41320   1.37911   -1.000
 5984.00    1.40505   1.37299   -1.000
 5985.00    1.40447   1.37364   -1.000
 5986.00    1.41505   1.37944   -1.000
 5987.00    1.42232   1.38623   -1.000
 5988.00    1.42393   1.39125   -1.000
 5989.00    1.42858   1.39345   -1.000
 5990.00    1.42899   1.39311   -1.000
 5991.00    1.42680   1.39295   -1.000
 5992.00    1.43000   1.39627   -1.000
 5993.00    1.43484   1.40223   -1.000
 5994.00    1.44108   1.40616   -1.000
 5995.00    1.44084   1.40480   -1.000
 5996.00    1.43644   1.39953   -1.000
 5997.00    1.43391   1.39452   -1.000
 5998.00    1.43078   1.39309   -1.000
 5999.00    1.42928   1.39487   -1.000
 6000.00    1.43196   1.39653   -1.000
 6001.00    1.43089   1.39552   -1.000
 6002.00    1.42569   1.39239   -1.000
 6003.00    1.42272   1.38996   -1.000
 6004.00    1.42083   1.38915   -1.000
 6005.00    1.41932   1.38707   -1.000
 6006.00    1.41096   1.38126   -1.000
 6007.00    1.40208   1.37451   -1.000
 6008.00    1.40082   1.37301   -1.000
 6009.00    1.40595   1.37924   -1.000
 6010.00    1.41634   1.38782   -1.000
 6011.00    1.42496   1.39161   -1.000
 6012.00    1.42398   1.38982   -1.000
 6013.00    1.41959   1.38700   -1.000
 6014.00    1.41923   1.38632   -1.000
 6015.00    1.42242   1.38678   -1.000
 6016.00    1.42185   1.38654   -1.000
 6017.00    1.42070   1.38538   -1.000
 6018.00    1.42148   1.38315   -1.000
 6019.00    1.41369   1.37944   -1.000
 6020.00    1.40772   1.37587   -1.000
 6021.00    1.40804   1.37485   -1.000
 6022.00    1.40829   1.37675   -1.000
 6023.00    1.41147   1.38049   -1.000
 6024.00    1.41518   1.38557   -1.000
 6025.00    1.42056   1.39140   -1.000
 6026.00    1.42676   1.39646   -1.000
 6027.00    1.43010   1.40025   -1.000
 6028.00    1.43506   1.40362   -1.000
 6029.00    1.43772   1.40665   -1.000
 6030.00    1.44031   1.40886   -1.000
 6031.00    1.44224   1.41065   -1.000
 6032.00    1.44237   1.41263   -1.000
 6033.00    1.44279   1.41469   -1.000
 6034.00    1.44424   1.41657   -1.000
 6035.00    1.44235   1.41786   -1.000
 6036.00    1.44141   1.41766   -1.000
 6037.00    1.44345   1.41540   -1.000
 6038.00    1.44075   1.41148   -1.000
 6039.00    1.43433   1.40721   -1.000
 6040.00    1.43343   1.40432   -1.000
 6041.00    1.43562   1.40334   -1.000
 6042.00    1.43606   1.40374   -1.000
 6043.00    1.43781   1.40622   -1.000
 6044.00    1.44179   1.41113   -1.000
 6045.00    1.44400   1.41636   -1.000
 6046.00    1.44448   1.41976   -1.000
 6047.00    1.44420   1.42138   -1.000
 6048.00    1.44539   1.42164   -1.000
 6049.00    1.44532   1.42066   -1.000
 6050.00    1.44573   1.41887   -1.000
 6051.00    1.44558   1.41649   -1.000
 6052.00    1.44172   1.41346   -1.000
 6053.00    1.44098   1.40984   -1.000
 6054.00    1.43881   1.40586   -1.000
 6055.00    1.43137   1.40222   -1.000
 6056.00    1.42793   1.40038   -1.000
 6057.00    1.43125   1.40126   -1.000
 6058.00    1.43539   1.40416   -1.000
 6059.00    1.43779   1.40742   -1.000
 6060.00    1.44014   1.40904   -1.000
 6061.00    1.44430   1.40700   -1.000
 6062.00    1.43168   1.40005   -1.000
 6063.00    1.41619   1.38943   -1.000
 6064.00    1.27709   1.37980   -1.000
 6065.00    0.80889   1.37722   -1.000
 6066.00    0.80115   1.38431   -1.000
 6067.00    1.39570   1.39729  311.253
 6068.00    1.43842   1.40924   -1.000
 6069.00    1.44271   1.41651   -1.000
 6070.00    1.44556   1.41990   -1.000
 6071.00    1.44207   1.42110   -1.000
 6072.00    1.44723   1.42066   -1.000
 6073.00    1.44592   1.41988   -1.000
 6074.00    1.44446   1.41935   -1.000
 6075.00    1.43988   1.41724   -1.000
 6076.00    1.43280   1.41190   -1.000
 6077.00    1.42970   1.40494   -1.000
 6078.00    1.42629   1.39955   -1.000
 6079.00    1.42240   1.39701   -1.000
 6080.00    1.41951   1.39570   -1.000
 6081.00    1.41744   1.39378   -1.000
 6082.00    1.41635   1.39169   -1.000
 6083.00    1.41433   1.39069   -1.000
 6084.00    1.41521   1.39105   -1.000
 6085.00    1.41352   1.39263   -1.000
 6086.00    1.41649   1.39539   -1.000
 6087.00    1.42387   1.39824   -1.000
 6088.00    1.42422   1.39896   -1.000
 6089.00    1.41908   1.39649   -1.000
 6090.00    1.41194   1.39268   -1.000
 6091.00    1.41074   1.39070   -1.000
 6092.00    1.41689   1.39215   -1.000
 6093.00    1.42492   1.39637   -1.000
 6094.00    1.43129   1.40148   -1.000
 6095.00    1.43045   1.40555   -1.000
 6096.00    1.43021   1.40807   -1.000
 6097.00    1.42944   1.40983   -1.000
 6098.00    1.42609   1.41052   -1.000
 6099.00    1.42348   1.40706   -1.000
 6100.00    1.41394   1.39565   -1.000
 6101.00    1.39560   1.37736   -1.000
 6102.00    1.37720   1.36169   -1.000
 6103.00    1.37619   1.35906   -1.000
 6104.00    1.39374   1.36987   -1.000
 6105.00    1.41171   1.38472   -1.000
 6106.00    1.42042   1.39548   -1.000
 6107.00    1.41812   1.40121   -1.000
 6108.00    1.41209   1.40486  319.259
 6109.00    1.41289   1.40753  318.310
 6110.00    1.41838   1.40840   -1.000
 6111.00    1.42012   1.40773   -1.000
 6112.00    1.41958   1.40754   -1.000
 6113.00    1.42182   1.40871   -1.000
 6114.00    1.42309   1.40981   -1.000
 6115.00    1.42286   1.40963   -1.000
 6116.00    1.41799   1.40878   -1.000
 6117.00    1.41613   1.40681   -1.000
 6118.00    1.41244   1.40031   -1.000
 6119.00    1.40102   1.38754   -1.000
 6120.00    1.38639   1.37138   -1.000
 6121.00    1.37395   1.35800   -1.000
 6122.00    1.36998   1.35461   -1.000
 6123.00    1.38016   1.36346   -1.000
 6124.00    1.39538   1.37755   -1.000
 6125.00    1.40051   1.38775   -1.000
 6126.00    1.40145   1.39090   -1.000
 6127.00    1.40217   1.38922   -1.000
 6128.00    1.40125   1.38775   -1.000
 6129.00    1.40464   1.39142   -1.000
 6130.00    1.41245   1.39998   -1.000
 6131.00    1.41692   1.40808  325.022
 6132.00    1.41528   1.41065  333.661
 6133.00    1.40605   1.40424  343.164
 6134.00    1.38972   1.38610  348.615
 6135.00    1.36363   1.35865  345.047
 6136.00    1.33155   1.33424  335.181
 6137.00    1.31993   1.32715  327.995
 6138.00    1.33726   1.33894  326.538
 6139.00    1.36546   1.35585   -1.000
 6140.00    1.38122   1.36474   -1.000
 6141.00    1.38076   1.36699   -1.000
 6142.00    1.38079   1.37222  319.932
 6143.00    1.38979   1.38327  320.538
 6144.00    1.40316   1.39419  322.379
 6145.00    1.40976   1.39923   -1.000
 6146.00    1.40621   1.39783  326.774
 6147.00    1.40044   1.39269  327.878
 6148.00    1.39580   1.38705  327.242
 6149.00    1.39115   1.38361  325.508
 6150.00    1.38902   1.38383  323.902
 6151.00    1.39203   1.38706  324.963
 6152.00    1.39779   1.39066  327.552
 6153.00    1.40185   1.39142   -1.000
 6154.00    1.40147   1.38847   -1.000
 6155.00    1.39489   1.38423   -1.000
 6156.00    1.39157   1.38135   -1.000
 6157.00    1.38865   1.37940   -1.000
 6158.00    1.38194   1.37432  355.122
 6159.00    1.36999   1.36036   -1.000
 6160.00    1.34777   1.33618   -1.000
 6161.00    1.31802   1.31040  353.772
 6162.00    1.29996   1.29692  345.478
 6163.00    1.30582   1.30212  342.183
 6164.00    1.32598   1.31960  341.960
 6165.00    1.34409   1.33733  344.497
 6166.00    1.35352   1.34705  348.901
 6167.00    1.34985   1.34652  349.757
 6168.00    1.33808   1.33892  344.888
 6169.00    1.32812   1.33237  338.666
 6170.00    1.33097   1.33492  336.246
 6171.00    1.34561   1.34643  336.973
 6172.00    1.35855   1.35941  336.709
 6173.00    1.36345   1.36823  335.868
 6174.00    1.36711   1.37304  335.147
 6175.00    1.37053   1.37576  333.891
 6176.00    1.37089   1.37761  332.357
 6177.00    1.37329   1.37957  331.266
 6178.00    1.37740   1.38171  330.008
 6179.00    1.37923   1.38348  328.717
 6180.00    1.38053   1.38554  328.588
 6181.00    1.38184   1.38867  329.589
 6182.00    1.38571   1.39179  331.402
 6183.00    1.38958   1.39309  334.609
 6184.00    1.39059   1.39177  338.269
 6185.00    1.38564   1.38765  341.614
 6186.00    1.37898   1.38136  344.511
 6187.00    1.37182   1.37412  347.798
 6188.00    1.36303   1.36551  351.590
 6189.00    1.35172   1.35403  350.923
 6190.00    1.33785   1.34206  344.389
 6191.00    1.32850   1.33707  336.725
 6192.00    1.33310   1.34427   -1.000
 6193.00    1.35371   1.36001  331.909
 6194.00    1.37649   1.37551  332.661
 6195.00    1.38616   1.38526  335.812
 6196.00    1.38489   1.38864  339.352
 6197.00    1.37981   1.38615  340.650
 6198.00    1.36953   1.37930   -1.000
 6199.00    1.35687   1.37304   -1.000
 6200.00    1.34935   1.37275   -1.000
 6201.00    1.35383   1.37877   -1.000
 6202.00    1.36558   1.38684   -1.000
 6203.00    1.37616   1.39300   -1.000
 6204.00    1.38301   1.39634   -1.000
 6205.00    1.38581   1.39810   -1.000
 6206.00    1.38832   1.39948   -1.000
 6207.00    1.39289   1.40027  335.306
 6208.00    1.39007   1.39945  338.314
 6209.00    1.38658   1.39632   -1.000
 6210.00    1.38187   1.39047  345.431
 6211.00    1.37247   1.38119  350.101
 6212.00    1.35923   1.36875   -1.000
 6213.00    1.34565   1.35659   -1.000
 6214.00    1.34010   1.34949   -1.000
 6215.00    1.34460   1.34899  347.318
 6216.00    1.35079   1.35174  348.583
 6217.00    1.35341   1.35291  346.279
 6218.00    1.35255   1.35076  345.740
 6219.00    1.34699   1.34806  358.420
 6220.00    1.34547   1.34893  370.206
 6221.00    1.35492   1.35397  351.857
 6222.00    1.36570   1.35998  342.436
 6223.00    1.36883   1.36420  343.439
 6224.00    1.36804   1.36671  344.283
 6225.00    1.36716   1.36822  347.640
 6226.00    1.36647   1.36758  353.084
 6227.00    1.36406   1.36186  358.420
 6228.00    1.35380   1.34928  360.144
 6229.00    1.33702   1.33294  356.445
 6230.00    1.32270   1.32080  350.336
 6231.00    1.32179   1.31997  344.013
 6232.00    1.33355   1.33086  340.304
 6233.00    1.34981   1.34748  340.786
 6234.00    1.36500   1.36212  343.893
 6235.00    1.37258   1.36920  347.448
 6236.00    1.37153   1.36744  351.050
 6237.00    1.36543   1.35985  353.797
 6238.00    1.35645   1.35119  354.337
 6239.00    1.34687   1.34505  355.317
 6240.00    1.34098   1.34220  358.078
 6241.00    1.33625   1.34033  359.208
 6242.00    1.33004   1.33651  357.834
 6243.00    1.32621   1.33065  354.830
 6244.00    1.32523   1.32537  350.765
 6245.00    1.32678   1.32398  346.585
 6246.00    1.33197   1.32891  344.517
 6247.00    1.34177   1.33951  346.023
 6248.00    1.35124   1.35089  350.949
 6249.00    1.35537   1.35657  356.734
 6250.00    1.35067   1.35276  360.019
 6251.00    1.33658   1.34118  361.694
 6252.00    1.32034   1.32838  362.075
 6253.00    1.31026   1.32044   -1.000
 6254.00    1.31006   1.31811  366.987
 6255.00    1.31281   1.31776  368.018
 6256.00    1.31054   1.31655  364.238
 6257.00    1.30532   1.31575   -1.000
 6258.00    1.30825   1.31910   -1.000
 6259.00    1.31803   1.32810   -1.000
 6260.00    1.32848   1.34033   -1.000
 6261.00    1.34039   1.35203   -1.000
 6262.00    1.35033   1.36025   -1.000
 6263.00    1.35517   1.36347  348.442
 6264.00    1.35136   1.36280   -1.000
 6265.00    1.34385   1.36207   -1.000
 6266.00    1.34484   1.36374   -1.000
 6267.00    1.34980   1.36600   -1.000
 6268.00    1.35071   1.36583   -1.000
 6269.00    1.34883   1.36350   -1.000
 6270.00    1.34976   1.36177   -1.000
 6271.00    1.34608   1.36185   -1.000
 6272.00    1.33962   1.36171   -1.000
 6273.00    1.32652   1.35829   -1.000
 6274.00    1.30317   1.35050   -1.000
 6275.00    1.28443   1.33983   -1.000
 6276.00    1.27707   1.32864   -1.000
 6277.00    1.27601   1.31883   -1.000
 6278.00    1.27861   1.31156   -1.000
 6279.00    1.27609   1.30810   -1.000
 6280.00    1.26960   1.31025   -1.000
 6281.00    1.26918   1.31883   -1.000
 6282.00    1.27997   1.33186   -1.000
 6283.00    1.30060   1.34554   -1.000
 6284.00    1.32005   1.35669   -1.000
 6285.00    1.33359   1.36441   -1.000
 6286.00    1.34060   1.36943   -1.000
 6287.00    1.34509   1.37192   -1.000
 6288.00    1.34818   1.37099   -1.000
 6289.00    1.34841   1.36664   -1.000
 6290.00    1.34669   1.36099   -1.000
 6291.00    1.34292   1.35673   -1.000
 6292.00    1.34264   1.35481   -1.000
 6293.00    1.34964   1.35391  355.706
 6294.00    1.35956   1.35150  357.162
 6295.00    1.37642   1.34626   -1.000
 6296.00    1.40095   1.33978   -1.000
 6297.00    1.43110   1.33523   -1.000
 6298.00    1.44458   1.33375   -1.000
 6299.00    1.42189   1.33307   -1.000
 6300.00    1.37073   1.33102   -1.000
 6301.00    1.33332   1.32963  354.853
 6302.00    1.32679   1.33284  349.685
 6303.00    1.33264   1.34114  346.113
 6304.00    1.34348   1.35115  343.142
 6305.00    1.35313   1.35987  341.190
 6306.00    1.35905   1.36651  341.787
 6307.00    1.36138   1.37086  343.807
 6308.00    1.36351   1.37239  345.720
 6309.00    1.36220   1.37139  347.013
 6310.00    1.35517   1.36905   -1.000
 6311.00    1.35107   1.36618   -1.000
 6312.00    1.34442   1.36250   -1.000
 6313.00    1.33929   1.35736   -1.000
 6314.00    1.33371   1.35133   -1.000
 6315.00    1.32717   1.34601   -1.000
 6316.00    1.32400   1.34208   -1.000
 6317.00    1.32515   1.33991   -1.000
 6318.00    1.32937   1.34154   -1.000
 6319.00    1.33467   1.34813   -1.000
 6320.00    1.34269   1.35691   -1.000
 6321.00    1.34849   1.36437   -1.000
 6322.00    1.35091   1.37032   -1.000
 6323.00    1.35557   1.37615   -1.000
 6324.00    1.36191   1.38147   -1.000
 6325.00    1.36813   1.38461   -1.000
 6326.00    1.36934   1.38512   -1.000
 6327.00    1.36957   1.38423   -1.000
 6328.00    1.36934   1.38325   -1.000
 6329.00    1.36785   1.38293   -1.000
 6330.00    1.36574   1.38387   -1.000
 6331.00    1.36688   1.38556   -1.000
 6332.00    1.36585   1.38499   -1.000
 6333.00    1.35699   1.37875   -1.000
 6334.00    1.34450   1.36750   -1.000
 6335.00    1.33612   1.35704   -1.000
 6336.00    1.33296   1.35361   -1.000
 6337.00    1.33652   1.35825   -1.000
 6338.00    1.34806   1.36722   -1.000
 6339.00    1.35937   1.37618   -1.000
 6340.00    1.36587   1.38220   -1.000
 6341.00    1.36719   1.38358   -1.000
 6342.00    1.36454   1.38071   -1.000
 6343.00    1.36267   1.37648   -1.000
 6344.00    1.35999   1.37435   -1.000
 6345.00    1.35990   1.37568   -1.000
 6346.00    1.36425   1.37978   -1.000
 6347.00    1.37135   1.38564   -1.000
 6348.00    1.37705   1.39213   -1.000
 6349.00    1.37765   1.39756   -1.000
 6350.00    1.37711   1.40022   -1.000
 6351.00    1.37283   1.39930   -1.000
 6352.00    1.36806   1.39495   -1.000
 6353.00    1.36357   1.38845   -1.000
 6354.00    1.35502   1.38223   -1.000
 6355.00    1.34963   1.37802   -1.000
 6356.00    1.34938   1.37477   -1.000
 6357.00    1.35032   1.37040   -1.000
 6358.00    1.35008   1.36523   -1.000
 6359.00    1.35172   1.36126   -1.000
 6360.00    1.36153   1.35886  342.143
 6361.00    1.37037   1.35723   -1.000
 6362.00    1.37166   1.35703   -1.000
 6363.00    1.36385   1.35966  336.120
 6364.00    1.35480   1.36511   -1.000
 6365.00    1.35136   1.37189   -1.000
 6366.00    1.35352   1.37833   -1.000
 6367.00    1.35924   1.38301   -1.000
 6368.00    1.36260   1.38478   -1.000
 6369.00    1.36349   1.38402   -1.000
 6370.00    1.36208   1.38314   -1.000
 6371.00    1.36061   1.38470   -1.000
 6372.00    1.36169   1.38886   -1.000
 6373.00    1.36153   1.39339   -1.000
 6374.00    1.35975   1.39585   -1.000
 6375.00    1.35531   1.39561   -1.000
 6376.00    1.35111   1.39341   -1.000
 6377.00    1.34850   1.39022   -1.000
 6378.00    1.34451   1.38681   -1.000
 6379.00    1.34022   1.38390   -1.000
 6380.00    1.33610   1.38205   -1.000
 6381.00    1.33545   1.38155   -1.000
 6382.00    1.33811   1.38210   -1.000
 6383.00    1.33813   1.38316   -1.000
 6384.00    1.33347   1.38467   -1.000
 6385.00    1.32699   1.38689   -1.000
 6386.00    1.32351   1.38934   -1.000
 6387.00    1.32164   1.39094   -1.000
 6388.00    1.31461   1.39097   -1.000
 6389.00    1.30615   1.38870   -1.000
 6390.00    1.30022   1.38275   -1.000
 6391.00    1.28878   1.37278   -1.000
 6392.00    1.27482   1.36241   -1.000
 6393.00    1.26617   1.35830   -1.000
 6394.00    1.26325   1.36377   -1.000
 6395.00    1.26701   1.37447   -1.000
 6396.00    1.27194   1.38167   -1.000
 6397.00    1.26591   1.37934   -1.000
 6398.00    1.24862   1.36864   -1.000
 6399.00    1.22933   1.35795   -1.000
 6400.00    1.21815   1.35668   -1.000
 6401.00    1.22279   1.36682   -1.000
 6402.00    1.23504   1.38164   -1.000
 6403.00    1.24261   1.39272   -1.000
 6404.00    1.24296   1.39593   -1.000
 6405.00    1.23608   1.39175   -1.000
 6406.00    1.22176   1.38377   -1.000
 6407.00    1.20623   1.37694   -1.000
 6408.00    1.19705   1.37437   -1.000
 6409.00    1.19102   1.37497   -1.000
 6410.00    1.18295   1.37554   -1.000
 6411.00    1.17298   1.37548   -1.000
 6412.00    1.16683   1.37649   -1.000
 6413.00    1.16558   1.37870   -1.000
 6414.00    1.16332   1.38071   -1.000
 6415.00    1.15753   1.38203   -1.000
 6416.00    1.14924   1.38244   -1.000
 6417.00    1.13853   1.38033   -1.000
 6418.00    1.12504   1.37433   -1.000
 6419.00    1.10828   1.36637   -1.000
 6420.00    1.09138   1.36185   -1.000
 6421.00    1.07956   1.36535   -1.000
 6422.00    1.07565   1.37600   -1.000
 6423.00    1.07739   1.38826   -1.000
 6424.00    1.07805   1.39743   -1.000
 6425.00    1.07261   1.40261   -1.000
 6426.00    1.06284   1.40417   -1.000
 6427.00    1.05072   1.40086   -1.000
 6428.00    0.56619   1.39142   -1.000
