###################################################################
## OUTPUT of StarlightChains_v04.for    [Cid@UFSC - 01/Apr/2007] ##
###################################################################

## Some input info
NGC2298_b_1.cxt                          [arq_obs]
Base.BC03.S                              [arq_base]
NGC2298_b_1.msk                          [arq_masks]
StCv04.C99.config                        [arq_config]
  150                                    [N_base]
    0                                    [N_YAV_components = # of components with extra extinction!]
    0                                    [i_FitPowerLaw (1/0 = Yes/No)]
-9.99                                    [alpha_PowerLaw]
CCM                                      [red_law_option]
 1.458241                                [q_norm = A(l_norm)/A(V)]

## (Re)Sampling Parameters
 3359.00                                 [l_ini (A)]
 6428.00                                 [l_fin (A)]
    1.00                                 [dl    (A)]     (OBS: dl_cushion =    50.00 A)

## Normalization info
 4020.00                                 [l_norm (A) - for base]
 4010.00                                 [llow_norm (A) - window for f_obs]
 4060.00                                 [lupp_norm (A) - window for f_obs]
6.358602E-15                             [fobs_norm (in input units)]

## S/N
 4730.00                                 [llow_SN (A) - window for S/N]
 4780.00                                 [lupp_SN (A) - window for S/N]
 100.550                                 [S/N in S/N window]
  93.926                                 [S/N in norm. window]
 257.092                                 [S/N_err in S/N window]
 240.154                                 [S/N_err in norm. window]
  1.0000                                 [fscale_chi2]

## etc...
  2147483643                             [idum_orig]
  3063                                   [NOl_eff]
  1058                                   [Nl_eff]
  2005    NSIGMA                         [Ntot_cliped & clip_method]
  3450440                                [Nglobal_steps]
   7                                     [N_chains]
  19                                     [NEX0s_base = N_base in EX0s-fits]
 0   0   1      257   2.0   5.054E+02    [Clip-Bug, RC-Crash & Burn-In warning-flags, n_censored_weights, wei_nsig_threshold & wei_limit]
   156    156.469    156.457      0.012  [idt_all, wdt_TotTime, wdt_UsrTime & wdt_SysTime (sec)]

## Synthesis Results - Best model ##

 2.61228E+00                             [chi2/Nl_eff]
     0.65038                             [adev (%)]

   100.56947                             [sum-of-x (%)]
 1.69963E-14                             [Flux_tot (units of input spectrum!)]
 1.88135E-10                             [Mini_tot (???)]
 9.43216E-11                             [Mcor_tot (???)]

 -19.20                                  [v0_min  (km/s)]
  68.53                                  [vd_min  (km/s)]
 0.7278                                  [AV_min  (mag)]
 0.0000                                  [YAV_min (mag)]

# j     x_j(%)      Mini_j(%)     Mcor_j(%)     age_j(yr)     Z_j      (L/M)_j    YAV?  Mstars   component_j        a/Fe...       SSP_chi2r SSP_adev(%)   SSP_AV   SSP_x(%)
  1      0.0000     0.0000E+00    0.0000E+00    1.000000E+06  0.00010  8.160E-03    0   1.0000   age020_m22            0.0000     1.1889E+03    10.9579   3.7383    77.2069
  2     17.1168     3.2309E-02    6.4444E-02    3.160000E+06  0.00010  4.759E-02    0   1.0000   age045_m22            0.0000     1.1011E+02     3.3409   1.7367    96.4658
  3      0.0000     0.0000E+00    0.0000E+00    5.010000E+06  0.00010  1.932E-02    0   0.9582   age055_m22            0.0000     1.0352E+03    10.7858   2.0445    83.5996
  4      0.0000     0.0000E+00    0.0000E+00    6.610000E+06  0.00010  9.973E-03    0   0.9297   age061_m22            0.0000     1.1355E+03    11.1529   3.7014    80.1025
  5      0.0000     0.0000E+00    0.0000E+00    8.710000E+06  0.00010  7.690E-03    0   0.9030   age067_m22            0.0000     1.0722E+03    10.8311   3.6938    80.5032
  6      0.0000     0.0000E+00    0.0000E+00    1.000000E+07  0.00010  6.375E-03    0   0.8902   age070_m22            0.0000     1.0234E+03    10.5608   3.7081    80.6430
  7      0.0000     0.0000E+00    0.0000E+00    1.445000E+07  0.00010  4.874E-03    0   0.8589   age078_m22            0.0000     7.3648E+02     8.9822   3.5263    83.3861
  8      0.0000     0.0000E+00    0.0000E+00    2.512000E+07  0.00010  4.103E-03    0   0.8174   age090_m22            0.0000     2.7461E+02     5.7303   3.1208    89.5648
  9      0.0000     0.0000E+00    0.0000E+00    4.000000E+07  0.00010  3.654E-03    0   0.7830   age104_m22            0.0000     1.1405E+02     3.5485   2.8233    94.2059
 10      0.8071     2.3440E-02    3.5519E-02    5.500000E+07  0.00010  3.093E-03    0   0.7597   age110_m22            0.0000     9.9189E+01     3.1362   2.7214    95.7474
 11      5.3954     1.9937E-01    2.8385E-01    1.015200E+08  0.00010  2.431E-03    0   0.7138   age116_m22            0.0000     1.3591E+02     3.1658   2.3739    98.6634
 12      0.0000     0.0000E+00    0.0000E+00    1.609000E+08  0.00010  1.319E-03    0   0.6775   age120_m22            0.0000     1.3162E+02     2.8566   1.9002   100.7842
 13      0.0338     2.8203E-03    3.6070E-03    2.861200E+08  0.00010  1.075E-03    0   0.6412   age125_m22            0.0000     5.7823E+02     6.7479   1.9659   104.3665
 14      0.0000     0.0000E+00    0.0000E+00    5.088000E+08  0.00010  7.183E-04    0   0.6083   age130_m22            0.0000     7.7502E+02     7.9936   1.7348   106.0891
 15      0.0000     0.0000E+00    0.0000E+00    9.047900E+08  0.00010  4.524E-04    0   0.5785   age135_m22            0.0000     7.9498E+02     8.1777   1.5320   107.3065
 16      0.0000     0.0000E+00    0.0000E+00    1.278050E+09  0.00010  3.018E-04    0   0.5588   age138_m22            0.0000     3.0087E+02     5.1799   0.9976   105.5186
 17      0.0006     2.0142E-04    2.2226E-04    1.434000E+09  0.00010  2.691E-04    0   0.5532   age139_m22            0.0000     2.2784E+02     4.5824   0.8409   104.9398
 18      0.0000     0.0000E+00    0.0000E+00    2.500000E+09  0.00010  1.582E-04    0   0.5296   age150_m22            0.0000     1.6831E+02     3.7896   0.7298   105.5909
 19      0.0000     0.0000E+00    0.0000E+00    4.250000E+09  0.00010  1.007E-04    0   0.5110   age158_m22            0.0000     5.8018E+01     2.3817   0.5769   103.8267
 20      0.0283     3.7020E-02    3.6810E-02    6.250000E+09  0.00010  6.869E-05    0   0.4985   age166_m22            0.0000     1.3443E+01     1.3000   0.5178   101.0305
 21      0.6134     9.3828E-01    9.2284E-01    7.500000E+09  0.00010  5.873E-05    0   0.4931   age171_m22            0.0000     9.9021E+00     1.0774   0.5064   100.4851
 22      1.5442     3.0956E+00    2.9971E+00    1.000000E+10  0.00010  4.481E-05    0   0.4854   age181_m22            0.0000     1.0463E+01     1.0996   0.4682   100.1128
 23      0.1374     3.5375E-01    3.3805E-01    1.300000E+10  0.00010  3.489E-05    0   0.4791   age193_m22            0.0000     1.3167E+01     1.2185   0.4112    99.5483
 24      0.6402     1.8947E+00    1.8012E+00    1.500000E+10  0.00010  3.035E-05    0   0.4766   age201_m22            0.0000     1.4630E+01     1.2659   0.3723    99.3396
 25      9.0571     3.2414E+01    3.0613E+01    1.800000E+10  0.00010  2.510E-05    0   0.4735   age213_m22            0.0000     2.0243E+01     1.4111   0.3038    98.7017
 26      0.0000     0.0000E+00    0.0000E+00    1.000000E+06  0.00040  8.458E-03    0   1.0000   age020_m32            0.0000     1.1623E+03    10.9459   3.7538    77.8832
 27      0.0000     0.0000E+00    0.0000E+00    3.160000E+06  0.00040  3.973E-02    0   1.0000   age045_m32            0.0000     3.1651E+02     6.1203   3.0156    89.6743
 28      0.0000     0.0000E+00    0.0000E+00    5.010000E+06  0.00040  1.935E-02    0   0.9532   age055_m32            0.0000     8.2812E+02     9.7641   3.2468    83.9047
 29      0.0000     0.0000E+00    0.0000E+00    6.610000E+06  0.00040  1.204E-02    0   0.9243   age061_m32            0.0000     9.2880E+02    10.1390   3.5610    81.9947
 30      0.0000     0.0000E+00    0.0000E+00    8.710000E+06  0.00040  9.433E-03    0   0.9001   age067_m32            0.0000     8.2358E+02     9.5593   3.5322    82.8624
 31      0.0000     0.0000E+00    0.0000E+00    1.000000E+07  0.00040  8.053E-03    0   0.8877   age070_m32            0.0000     7.8259E+02     9.3187   3.4952    83.3222
 32      0.0000     0.0000E+00    0.0000E+00    1.445000E+07  0.00040  7.027E-03    0   0.8578   age078_m32            0.0000     4.2885E+02     7.1573   2.9704    88.4077
 33      0.0000     0.0000E+00    0.0000E+00    2.512000E+07  0.00040  4.707E-03    0   0.8166   age090_m32            0.0000     2.1516E+02     5.1953   2.6762    92.1951
 34      0.0000     0.0000E+00    0.0000E+00    4.000000E+07  0.00040  3.714E-03    0   0.7827   age104_m32            0.0000     1.0031E+02     3.3897   2.4744    95.4849
 35      0.0000     0.0000E+00    0.0000E+00    5.500000E+07  0.00040  2.982E-03    0   0.7593   age110_m32            0.0000     8.7063E+01     2.9151   2.4131    96.6538
 36      0.0000     0.0000E+00    0.0000E+00    1.015200E+08  0.00040  2.188E-03    0   0.7143   age116_m32            0.0000     2.3105E+02     4.0114   2.1486   100.9193
 37      0.1506     8.0036E-03    1.0945E-02    1.609000E+08  0.00040  1.690E-03    0   0.6856   age120_m32            0.0000     4.1752E+02     5.4095   1.9440   103.6227
 38      0.0000     0.0000E+00    0.0000E+00    2.861200E+08  0.00040  1.152E-03    0   0.6509   age125_m32            0.0000     6.2950E+02     7.1098   1.7184   105.5382
 39      0.0000     0.0000E+00    0.0000E+00    5.088000E+08  0.00040  7.331E-04    0   0.6182   age130_m32            0.0000     7.1932E+02     7.7677   1.5529   106.2566
 40      0.0000     0.0000E+00    0.0000E+00    9.047900E+08  0.00040  3.960E-04    0   0.5890   age135_m32            0.0000     3.3916E+02     5.7906   1.0871   104.7887
 41      0.0000     0.0000E+00    0.0000E+00    1.278050E+09  0.00040  2.854E-04    0   0.5687   age138_m32            0.0000     2.2161E+02     4.4873   0.7966   106.5043
 42      0.0000     0.0000E+00    0.0000E+00    1.434000E+09  0.00040  2.531E-04    0   0.5632   age139_m32            0.0000     2.1113E+02     4.3213   0.7357   106.4930
 43     27.4420     1.6566E+01    1.7797E+01    2.500000E+09  0.00040  1.488E-04    0   0.5386   age150_m32            0.0000     1.2429E+02     3.4419   0.4776   104.7836
 44     25.5693     2.5290E+01    2.6226E+01    4.250000E+09  0.00040  9.082E-05    0   0.5199   age158_m32            0.0000     2.6457E+01     1.8414   0.3780   101.3133
 45      6.2872     8.8773E+00    8.9880E+00    6.250000E+09  0.00040  6.362E-05    0   0.5076   age166_m32            0.0000     5.8762E+01     2.0067   0.3382    97.7477
 46      0.0000     0.0000E+00    0.0000E+00    7.500000E+09  0.00040  5.289E-05    0   0.5027   age171_m32            0.0000     8.2296E+01     2.3290   0.3018    96.4682
 47      0.0000     0.0000E+00    0.0000E+00    1.000000E+10  0.00040  3.972E-05    0   0.4948   age181_m32            0.0000     1.0599E+02     2.6821   0.2383    95.1263
 48      0.0000     0.0000E+00    0.0000E+00    1.300000E+10  0.00040  3.283E-05    0   0.4870   age193_m32            0.0000     5.3292E+01     2.2107   0.1957    97.8395
 49      0.0000     0.0000E+00    0.0000E+00    1.500000E+10  0.00040  2.925E-05    0   0.4854   age201_m32            0.0000     3.8583E+01     2.0772   0.1783    99.4220
 50      2.8174     1.0251E+01    9.8529E+00    1.800000E+10  0.00040  2.469E-05    0   0.4819   age213_m32            0.0000     3.9101E+01     2.1630   0.1390    99.9214
 51      0.0000     0.0000E+00    0.0000E+00    1.000000E+06  0.00400  1.114E-02    0   1.0000   age020_m42            0.0000     1.1140E+03    10.6423   3.6825    78.2967
 52      0.0000     0.0000E+00    0.0000E+00    3.160000E+06  0.00400  4.073E-02    0   0.9999   age045_m42            0.0000     1.9269E+02     4.6120   2.7169    92.3471
 53      0.4486     1.5903E-03    3.0097E-03    5.010000E+06  0.00400  2.534E-02    0   0.9488   age055_m42            0.0000     5.3303E+02     7.6366   3.1219    86.0503
 54      2.0286     7.0547E-03    1.2974E-02    6.610000E+06  0.00400  2.583E-02    0   0.9220   age061_m42            0.0000     1.3243E+02     3.8801   2.5314    93.1412
 55      0.0000     0.0000E+00    0.0000E+00    8.710000E+06  0.00400  1.706E-02    0   0.8983   age067_m42            0.0000     2.8037E+02     5.7997   2.3578    91.2144
 56      0.0000     0.0000E+00    0.0000E+00    1.000000E+07  0.00400  1.271E-02    0   0.8862   age070_m42            0.0000     4.5239E+02     7.5673   2.3460    89.7252
 57      0.0000     0.0000E+00    0.0000E+00    1.445000E+07  0.00400  7.666E-03    0   0.8571   age078_m42            0.0000     6.2944E+02     8.4269   2.7466    86.5013
 58      0.0000     0.0000E+00    0.0000E+00    2.512000E+07  0.00400  5.070E-03    0   0.8174   age090_m42            0.0000     3.7967E+02     6.8659   2.2158    91.2777
 59      0.0000     0.0000E+00    0.0000E+00    4.000000E+07  0.00400  3.505E-03    0   0.7851   age104_m42            0.0000     2.0924E+02     4.8569   1.8965    94.1853
 60      0.0000     0.0000E+00    0.0000E+00    5.500000E+07  0.00400  3.059E-03    0   0.7629   age110_m42            0.0000     6.3638E+01     2.2918   1.9513    98.8151
 61      0.0000     0.0000E+00    0.0000E+00    1.015200E+08  0.00400  2.268E-03    0   0.7207   age116_m42            0.0000     3.5543E+02     5.2604   1.8618   104.0219
 62      0.0000     0.0000E+00    0.0000E+00    1.609000E+08  0.00400  1.720E-03    0   0.6930   age120_m42            0.0000     4.2453E+02     6.0222   1.7198   105.6860
 63      0.0000     0.0000E+00    0.0000E+00    2.861200E+08  0.00400  1.079E-03    0   0.6613   age125_m42            0.0000     4.4669E+02     6.1990   1.3694   105.9792
 64      0.0000     0.0000E+00    0.0000E+00    5.088000E+08  0.00400  6.261E-04    0   0.6313   age130_m42            0.0000     5.4141E+02     6.7305   1.1780   108.7031
 65      0.0000     0.0000E+00    0.0000E+00    9.047900E+08  0.00400  3.535E-04    0   0.6024   age135_m42            0.0000     2.9050E+02     5.3169   0.7779   108.6952
 66      0.0000     0.0000E+00    0.0000E+00    1.278050E+09  0.00400  2.677E-04    0   0.5837   age138_m42            0.0000     2.6745E+02     5.9209   0.1012   105.3186
 67      0.0000     0.0000E+00    0.0000E+00    1.434000E+09  0.00400  1.910E-04    0   0.5716   age139_m42            0.0000     2.3786E+02     5.6132   0.2633   106.5473
 68      0.0000     0.0000E+00    0.0000E+00    2.500000E+09  0.00400  9.818E-05    0   0.5463   age150_m42            0.0000     3.0495E+02     5.7628  -0.0019   101.3433
 69      0.0000     0.0000E+00    0.0000E+00    4.250000E+09  0.00400  5.491E-05    0   0.5269   age158_m42            0.0000     3.8929E+02     6.1300  -0.1193    98.3115
 70      0.0000     0.0000E+00    0.0000E+00    6.250000E+09  0.00400  3.857E-05    0   0.5151   age166_m42            0.0000     5.1320E+02     6.9184  -0.2392    96.6822
 71      0.0000     0.0000E+00    0.0000E+00    7.500000E+09  0.00400  3.243E-05    0   0.5110   age171_m42            0.0000     5.9556E+02     7.4156  -0.3128    95.9474
 72      0.0000     0.0000E+00    0.0000E+00    1.000000E+10  0.00400  2.424E-05    0   0.5028   age181_m42            0.0000     7.0976E+02     8.0345  -0.3858    95.0817
 73      0.0000     0.0000E+00    0.0000E+00    1.300000E+10  0.00400  1.883E-05    0   0.4927   age193_m42            0.0000     7.9697E+02     8.4685  -0.4207    94.6000
 74      0.0000     0.0000E+00    0.0000E+00    1.500000E+10  0.00400  1.685E-05    0   0.4919   age201_m42            0.0000     7.7208E+02     8.3388  -0.4164    94.6686
 75      0.0000     0.0000E+00    0.0000E+00    1.800000E+10  0.00400  1.452E-05    0   0.4874   age213_m42            0.0000     7.2597E+02     8.1131  -0.4023    95.0172
 76      0.0000     0.0000E+00    0.0000E+00    1.000000E+06  0.00800  1.286E-02    0   1.0000   age020_m52            0.0000     9.6569E+02    10.0138   3.6612    80.0435
 77      0.0000     0.0000E+00    0.0000E+00    3.160000E+06  0.00800  3.147E-02    0   0.9966   age045_m52            0.0000     9.0614E+02     9.8233   3.5729    81.5833
 78      0.0000     0.0000E+00    0.0000E+00    5.010000E+06  0.00800  2.664E-02    0   0.9443   age055_m52            0.0000     6.3271E+02     8.1874   3.2431    84.9297
 79      0.0000     0.0000E+00    0.0000E+00    6.610000E+06  0.00800  2.151E-02    0   0.9177   age061_m52            0.0000     3.9920E+02     6.3809   1.9394    91.2016
 80      0.0000     0.0000E+00    0.0000E+00    8.710000E+06  0.00800  1.628E-02    0   0.8948   age067_m52            0.0000     3.3743E+02     6.2911   2.3163    91.5608
 81      0.0000     0.0000E+00    0.0000E+00    1.000000E+07  0.00800  1.215E-02    0   0.8827   age070_m52            0.0000     4.2624E+02     7.0643   2.6593    89.7053
 82      0.0000     0.0000E+00    0.0000E+00    1.445000E+07  0.00800  8.739E-03    0   0.8552   age078_m52            0.0000     3.1720E+02     6.0617   2.6977    91.0350
 83      0.4515     7.1458E-03    1.1633E-02    2.512000E+07  0.00800  5.676E-03    0   0.8162   age090_m52            0.0000     1.6398E+02     4.4415   2.3016    95.7735
 84      0.0000     0.0000E+00    0.0000E+00    4.000000E+07  0.00800  3.939E-03    0   0.7841   age104_m52            0.0000     1.0581E+02     3.1006   2.1404    98.2554
 85      0.0000     0.0000E+00    0.0000E+00    5.500000E+07  0.00800  3.155E-03    0   0.7627   age110_m52            0.0000     1.1320E+02     2.5647   2.1071    99.9673
 86      0.0000     0.0000E+00    0.0000E+00    1.015200E+08  0.00800  2.206E-03    0   0.7226   age116_m52            0.0000     2.3624E+02     4.2301   1.9166   103.8323
 87      0.0000     0.0000E+00    0.0000E+00    1.609000E+08  0.00800  1.596E-03    0   0.6963   age120_m52            0.0000     3.2422E+02     5.2320   1.7023   105.4668
 88      0.0000     0.0000E+00    0.0000E+00    2.861200E+08  0.00800  1.002E-03    0   0.6665   age125_m52            0.0000     6.2089E+02     7.5862   1.4123   108.1031
 89      0.0000     0.0000E+00    0.0000E+00    5.088000E+08  0.00800  5.759E-04    0   0.6377   age130_m52            0.0000     7.4020E+02     8.6037   1.0656   111.8605
 90      0.0000     0.0000E+00    0.0000E+00    9.047900E+08  0.00800  2.972E-04    0   0.6086   age135_m52            0.0000     5.1021E+02     7.7864   0.5251   110.4438
 91      0.0000     0.0000E+00    0.0000E+00    1.278050E+09  0.00800  2.242E-04    0   0.5907   age138_m52            0.0000     4.5438E+02     7.3775  -0.0757   108.1731
 92      0.0000     0.0000E+00    0.0000E+00    1.434000E+09  0.00800  1.645E-04    0   0.5787   age139_m52            0.0000     3.7773E+02     6.7464   0.0715   107.6785
 93      0.0000     0.0000E+00    0.0000E+00    2.500000E+09  0.00800  7.723E-05    0   0.5519   age150_m52            0.0000     5.4049E+02     7.4877  -0.2547   103.2479
 94      0.0000     0.0000E+00    0.0000E+00    4.250000E+09  0.00800  4.151E-05    0   0.5320   age158_m52            0.0000     6.0010E+02     7.6001  -0.3196   100.5350
 95      0.0000     0.0000E+00    0.0000E+00    6.250000E+09  0.00800  3.010E-05    0   0.5197   age166_m52            0.0000     8.0977E+02     8.6617  -0.5025    98.7004
 96      0.0000     0.0000E+00    0.0000E+00    7.500000E+09  0.00800  2.467E-05    0   0.5139   age171_m52            0.0000     8.6717E+02     8.9510  -0.5418    98.2032
 97      0.0000     0.0000E+00    0.0000E+00    1.000000E+10  0.00800  1.862E-05    0   0.5054   age181_m52            0.0000     1.0476E+03     9.8492  -0.6661    97.5519
 98      0.0000     0.0000E+00    0.0000E+00    1.300000E+10  0.00800  1.433E-05    0   0.4988   age193_m52            0.0000     1.2556E+03    10.7476  -0.7531    97.7903
 99      0.0000     0.0000E+00    0.0000E+00    1.500000E+10  0.00800  1.244E-05    0   0.4936   age201_m52            0.0000     1.3392E+03    11.0719  -0.7787    98.0927
100      0.0000     0.0000E+00    0.0000E+00    1.800000E+10  0.00800  1.070E-05    0   0.4888   age213_m52            0.0000     1.3979E+03    11.3279  -0.8108    97.8505
101      0.0000     0.0000E+00    0.0000E+00    1.000000E+06  0.02000  1.989E-02    0   1.0000   age020_m62            0.0000     1.1063E+03    10.5783   3.6411    79.0969
102      0.0000     0.0000E+00    0.0000E+00    3.160000E+06  0.02000  3.772E-02    0   0.9858   age045_m62            0.0000     9.6877E+02     9.9971   3.5026    81.2750
103      0.0000     0.0000E+00    0.0000E+00    5.010000E+06  0.02000  3.227E-02    0   0.9342   age055_m62            0.0000     3.2606E+02     6.0591   2.9741    88.9410
104      0.0000     0.0000E+00    0.0000E+00    6.610000E+06  0.02000  2.387E-02    0   0.9090   age061_m62            0.0000     5.4718E+02     8.0906   2.7288    88.3342
105      0.0000     0.0000E+00    0.0000E+00    8.710000E+06  0.02000  1.102E-02    0   0.8861   age067_m62            0.0000     1.6629E+03    14.6188   2.3711    83.6494
106      0.0000     0.0000E+00    0.0000E+00    1.000000E+07  0.02000  1.011E-02    0   0.8751   age070_m62            0.0000     1.1381E+03    11.9369   2.3866    86.1430
107      0.0000     0.0000E+00    0.0000E+00    1.445000E+07  0.02000  7.331E-03    0   0.8472   age078_m62            0.0000     7.8315E+02     9.6604   2.3999    87.5934
108      0.0000     0.0000E+00    0.0000E+00    2.512000E+07  0.02000  4.206E-03    0   0.8099   age090_m62            0.0000     8.0203E+02     9.6444   2.3104    87.0434
109      0.0000     0.0000E+00    0.0000E+00    4.000000E+07  0.02000  3.373E-03    0   0.7799   age104_m62            0.0000     1.6231E+02     4.3161   2.1071    95.8640
110      0.0000     0.0000E+00    0.0000E+00    5.500000E+07  0.02000  2.747E-03    0   0.7595   age110_m62            0.0000     1.0455E+02     2.8987   2.0385    99.3951
111      0.0000     0.0000E+00    0.0000E+00    1.015200E+08  0.02000  1.878E-03    0   0.7221   age116_m62            0.0000     2.8678E+02     4.3609   1.8974   104.3379
112      0.0000     0.0000E+00    0.0000E+00    1.609000E+08  0.02000  1.378E-03    0   0.6978   age120_m62            0.0000     4.9590E+02     6.1226   1.7412   107.0204
113      0.0000     0.0000E+00    0.0000E+00    2.861200E+08  0.02000  8.869E-04    0   0.6700   age125_m62            0.0000     8.9679E+02     8.5217   1.3717   111.3372
114      0.0000     0.0000E+00    0.0000E+00    5.088000E+08  0.02000  4.834E-04    0   0.6430   age130_m62            0.0000     8.3968E+02     9.0271   0.9304   113.5223
115      0.0000     0.0000E+00    0.0000E+00    9.047900E+08  0.02000  2.312E-04    0   0.6152   age135_m62            0.0000     4.6466E+02     7.6744   0.3248   112.4406
116      0.0000     0.0000E+00    0.0000E+00    1.278050E+09  0.02000  1.387E-04    0   0.5927   age138_m62            0.0000     3.8991E+02     6.8758  -0.0427   107.3620
117      0.0000     0.0000E+00    0.0000E+00    1.434000E+09  0.02000  1.168E-04    0   0.5865   age139_m62            0.0000     4.0874E+02     6.8841  -0.0659   105.6043
118      0.0000     0.0000E+00    0.0000E+00    2.500000E+09  0.02000  5.505E-05    0   0.5610   age150_m62            0.0000     7.0208E+02     8.4575  -0.4212   101.8502
119      0.0000     0.0000E+00    0.0000E+00    4.250000E+09  0.02000  3.070E-05    0   0.5407   age158_m62            0.0000     1.1139E+03    10.5077  -0.7024   101.1299
120      0.0000     0.0000E+00    0.0000E+00    6.250000E+09  0.02000  2.104E-05    0   0.5277   age166_m62            0.0000     1.3565E+03    11.4929  -0.8259   101.1749
121      0.0000     0.0000E+00    0.0000E+00    7.500000E+09  0.02000  1.770E-05    0   0.5223   age171_m62            0.0000     1.4816E+03    12.0047  -0.9103   101.3781
122      0.0000     0.0000E+00    0.0000E+00    1.000000E+10  0.02000  1.297E-05    0   0.5121   age181_m62            0.0000     1.7605E+03    12.8619  -1.0000   100.0388
123      0.0000     0.0000E+00    0.0000E+00    1.300000E+10  0.02000  9.691E-06    0   0.5047   age193_m62            0.0000     1.9780E+03    13.3321  -1.0000    98.2532
124      0.0000     0.0000E+00    0.0000E+00    1.500000E+10  0.02000  8.360E-06    0   0.4999   age201_m62            0.0000     2.1838E+03    13.7691  -1.0000    96.6500
125      0.0000     0.0000E+00    0.0000E+00    1.800000E+10  0.02000  6.911E-06    0   0.4946   age213_m62            0.0000     2.4483E+03    14.3588  -1.0000    94.9439
126      0.0000     0.0000E+00    0.0000E+00    1.000000E+06  0.05000  2.651E-02    0   0.9998   age020_m72            0.0000     1.0362E+03    10.1475   3.6411    79.9265
127      0.0000     0.0000E+00    0.0000E+00    3.160000E+06  0.05000  4.817E-02    0   0.9577   age045_m72            0.0000     6.7369E+02     8.3498   3.3518    84.4740
128      0.0000     0.0000E+00    0.0000E+00    5.010000E+06  0.05000  3.101E-02    0   0.9147   age055_m72            0.0000     6.0161E+02     7.9898   3.0037    87.1038
129      0.0000     0.0000E+00    0.0000E+00    6.610000E+06  0.05000  1.472E-02    0   0.8877   age061_m72            0.0000     1.2927E+03    12.2093   2.5876    85.0344
130      0.0000     0.0000E+00    0.0000E+00    8.710000E+06  0.05000  1.050E-02    0   0.8638   age067_m72            0.0000     8.9007E+02     9.6833   2.9667    85.5961
131      0.0000     0.0000E+00    0.0000E+00    1.000000E+07  0.05000  8.954E-03    0   0.8524   age070_m72            0.0000     6.6406E+02     8.1554   3.2358    85.6716
132      0.0000     0.0000E+00    0.0000E+00    1.445000E+07  0.05000  6.392E-03    0   0.8262   age078_m72            0.0000     5.5719E+02     7.4590   3.1811    86.7151
133      0.0000     0.0000E+00    0.0000E+00    2.512000E+07  0.05000  4.207E-03    0   0.7902   age090_m72            0.0000     2.7669E+02     5.3161   2.7991    91.3357
134      0.0000     0.0000E+00    0.0000E+00    4.000000E+07  0.05000  3.198E-03    0   0.7618   age104_m72            0.0000     1.5912E+02     3.4194   2.2793    99.7083
135      0.0000     0.0000E+00    0.0000E+00    5.500000E+07  0.05000  2.593E-03    0   0.7432   age110_m72            0.0000     2.2557E+02     4.0154   2.1833   101.7993
136      0.0000     0.0000E+00    0.0000E+00    1.015200E+08  0.05000  1.716E-03    0   0.7092   age116_m72            0.0000     3.9562E+02     5.3380   1.9897   104.5596
137      0.0000     0.0000E+00    0.0000E+00    1.609000E+08  0.05000  1.218E-03    0   0.6876   age120_m72            0.0000     6.3399E+02     7.0833   1.7161   107.4047
138      0.0000     0.0000E+00    0.0000E+00    2.861200E+08  0.05000  7.047E-04    0   0.6618   age125_m72            0.0000     9.0893E+02     9.0920   1.1693   111.5046
139      0.0000     0.0000E+00    0.0000E+00    5.088000E+08  0.05000  3.590E-04    0   0.6356   age130_m72            0.0000     7.8366E+02     9.1977   0.5823   114.1623
140      0.0000     0.0000E+00    0.0000E+00    9.047900E+08  0.05000  1.484E-04    0   0.6088   age135_m72            0.0000     5.7090E+02     8.3189  -0.1378   106.6420
141      0.0000     0.0000E+00    0.0000E+00    1.278050E+09  0.05000  9.435E-05    0   0.5924   age138_m72            0.0000     9.0020E+02     9.9636  -0.5259   102.8035
142      0.0000     0.0000E+00    0.0000E+00    1.434000E+09  0.05000  7.827E-05    0   0.5847   age139_m72            0.0000     9.1019E+02     9.8857  -0.5082   102.0497
143      0.0000     0.0000E+00    0.0000E+00    2.500000E+09  0.05000  3.759E-05    0   0.5583   age150_m72            0.0000     1.3256E+03    11.4829  -0.8142   100.4610
144      0.0000     0.0000E+00    0.0000E+00    4.250000E+09  0.05000  1.842E-05    0   0.5374   age158_m72            0.0000     1.7543E+03    12.6962  -1.0000    96.8724
145      0.0000     0.0000E+00    0.0000E+00    6.250000E+09  0.05000  1.207E-05    0   0.5242   age166_m72            0.0000     2.3670E+03    14.1912  -1.0000    90.6120
146      0.0000     0.0000E+00    0.0000E+00    7.500000E+09  0.05000  9.993E-06    0   0.5183   age171_m72            0.0000     2.4846E+03    14.4999  -1.0000    89.4843
147      0.0000     0.0000E+00    0.0000E+00    1.000000E+10  0.05000  7.291E-06    0   0.5081   age181_m72            0.0000     2.9567E+03    15.7355  -1.0000    86.2710
148      0.0000     0.0000E+00    0.0000E+00    1.300000E+10  0.05000  5.316E-06    0   0.5018   age193_m72            0.0000     3.7549E+03    17.7040  -1.0000    81.5331
149      0.0000     0.0000E+00    0.0000E+00    1.500000E+10  0.05000  4.497E-06    0   0.4972   age201_m72            0.0000     4.1288E+03    18.5313  -1.0000    79.8864
150      0.0000     0.0000E+00    0.0000E+00    1.800000E+10  0.05000  3.739E-06    0   0.4924   age213_m72            0.0000     4.6624E+03    19.5701  -1.0000    77.3480


## Synthesis Results - Average & Chains ##

# j      x_j: min, <> & last-chain-values for 1 ...  7 chains
  1      0.0000      0.0061      0.0000      0.0000      0.0000      0.0000      0.0000      0.0000      0.0000
  2     17.1168     16.1951     16.3816     16.6398     16.3424     16.1564     16.2360     16.7078     16.3074
  3      0.0000      0.0439      0.0910      0.0236      0.0000      0.0000      0.0631      0.0386      0.1205
  4      0.0000      0.0203      0.0000      0.0769      0.0000      0.0065      0.0000      0.0000      0.0000
  5      0.0000      0.0145      0.0000      0.0000      0.0000      0.0428      0.0000      0.0483      0.0000
  6      0.0000      0.0168      0.0677      0.0000      0.0000      0.0480      0.0000      0.0000      0.0000
  7      0.0000      0.0238      0.0000      0.0000      0.0000      0.0091      0.1255      0.0000      0.0000
  8      0.0000      0.0334      0.1529      0.0000      0.0773      0.0241      0.2360      0.1094      0.0000
  9      0.0000      0.0462      0.1340      0.0000      0.0000      0.1006      0.0356      0.1571      0.0000
 10      0.8071      0.1564      0.1303      0.0789      0.2207      0.1834      0.3419      0.1895      0.0000
 11      5.3954      5.0194      5.1526      5.1900      5.0713      5.1186      5.1889      5.2991      5.2278
 12      0.0000      0.0720      0.0511      0.1334      0.0787      0.0000      0.0497      0.0000      0.0000
 13      0.0338      0.0419      0.1918      0.0000      0.1547      0.0958      0.0000      0.0000      0.0000
 14      0.0000      0.0284      0.1132      0.1207      0.0991      0.0634      0.0000      0.0178      0.0586
 15      0.0000      0.0341      0.0000      0.0000      0.0461      0.0000      0.0377      0.0000      0.0000
 16      0.0000      0.0368      0.0000      0.0000      0.0000      0.0000      0.0000      0.0000      0.0000
 17      0.0006      0.0463      0.0000      0.0000      0.2338      0.0000      0.0000      0.0000      0.0000
 18      0.0000      0.1696      0.0000      0.1900      0.0180      0.0043      0.2456      0.2845      0.0000
 19      0.0000      0.2120      0.2873      0.1964      0.0000      0.0000      0.0748      0.1739      0.2608
 20      0.0283      0.1594      0.0527      0.0111      0.2856      0.0000      0.1977      0.0730      0.0655
 21      0.6134      0.5337      0.3841      0.2518      0.5488      0.4828      0.1345      0.2729      0.5549
 22      1.5442      0.7382      1.1813      0.7359      1.0296      0.7847      0.5900      0.6859      0.8352
 23      0.1374      0.3150      0.5517      0.3465      0.3281      0.1715      0.1345      0.3317      0.5133
 24      0.6402      0.5544      0.4085      0.6855      0.5744      0.4645      0.6869      0.6096      0.6663
 25      9.0571      9.2913      8.4576      9.4159      9.3280      9.3196      9.1854      9.3659      9.6345
 26      0.0000      0.0158      0.0000      0.0175      0.0000      0.0000      0.0000      0.0000      0.0000
 27      0.0000      0.0357      0.0332      0.0300      0.0538      0.2085      0.0000      0.1078      0.0000
 28      0.0000      0.0154      0.0000      0.0697      0.1499      0.0829      0.0000      0.0606      0.0797
 29      0.0000      0.0197      0.0000      0.0000      0.0000      0.0599      0.0000      0.0483      0.0046
 30      0.0000      0.0138      0.0000      0.0000      0.0000      0.0000      0.0000      0.0000      0.0685
 31      0.0000      0.0218      0.0135      0.0366      0.0000      0.0000      0.0000      0.0170      0.0000
 32      0.0000      0.0540      0.0240      0.0000      0.0889      0.2130      0.0012      0.0000      0.0547
 33      0.0000      0.0474      0.1348      0.0369      0.0755      0.1132      0.1809      0.0000      0.0581
 34      0.0000      0.0963      0.0167      0.4235      0.0173      0.0000      0.0000      0.0000      0.1217
 35      0.0000      0.0513      0.0430      0.0670      0.1285      0.0516      0.0000      0.1191      0.0261
 36      0.0000      0.0751      0.0416      0.0381      0.0000      0.0833      0.0609      0.0794      0.1621
 37      0.1506      0.1801      0.2702      0.2216      0.3317      0.1517      0.3035      0.0757      0.2552
 38      0.0000      0.0476      0.0759      0.0010      0.0000      0.0000      0.0000      0.0142      0.0000
 39      0.0000      0.0299      0.0000      0.0608      0.0000      0.1046      0.0000      0.0000      0.0000
 40      0.0000      0.0185      0.0000      0.0000      0.0000      0.0000      0.0004      0.0149      0.0000
 41      0.0000      0.0693      0.0000      0.0000      0.0000      0.0000      0.0000      0.0000      0.0962
 42      0.0000      0.0901      0.0974      0.0000      0.0000      0.2254      0.0000      0.0000      0.3066
 43     27.4420     26.5977     26.7249     26.5119     26.9827     27.5230     26.9452     26.6404     26.4447
 44     25.5693     26.2408     26.1585     26.5659     26.1299     26.4042     26.8395     26.6152     25.9131
 45      6.2872      6.2788      6.5608      5.9260      6.2218      6.3316      6.3051      6.4144      6.3796
 46      0.0000      0.0966      0.1136      0.2154      0.0000      0.0000      0.0751      0.0000      0.0194
 47      0.0000      0.0414      0.0000      0.0000      0.0262      0.0258      0.0000      0.0000      0.0000
 48      0.0000      0.0751      0.0972      0.1043      0.0000      0.0000      0.0705      0.0000      0.0233
 49      0.0000      0.1774      0.1367      0.1737      0.0704      0.1980      0.0000      0.3062      0.2490
 50      2.8174      2.4122      2.5215      2.4136      2.2102      2.5399      2.4571      2.3516      2.4395
 51      0.0000      0.0088      0.0189      0.0000      0.0000      0.0000      0.0162      0.0000      0.0000
 52      0.0000      0.0675      0.0027      0.0000      0.1218      0.1001      0.0000      0.0000      0.3009
 53      0.4486      0.0277      0.0000      0.0000      0.1635      0.0000      0.0000      0.0000      0.0000
 54      2.0286      2.2552      2.4094      2.1008      2.2968      2.0763      2.2426      2.2356      2.2548
 55      0.0000      0.0355      0.0020      0.0480      0.1156      0.0036      0.0000      0.0111      0.0000
 56      0.0000      0.0378      0.0000      0.0000      0.0257      0.0000      0.0921      0.0000      0.0000
 57      0.0000      0.0175      0.0000      0.0000      0.0000      0.0000      0.0377      0.0000      0.0000
 58      0.0000      0.0273      0.1608      0.0806      0.0000      0.0000      0.0000      0.0000      0.0000
 59      0.0000      0.0174      0.0717      0.0000      0.0000      0.0192      0.0000      0.0079      0.0000
 60      0.0000      0.0210      0.0000      0.0000      0.0000      0.0000      0.0244      0.0000      0.0000
 61      0.0000      0.0317      0.0054      0.0000      0.0000      0.0000      0.0000      0.0461      0.0000
 62      0.0000      0.0552      0.0568      0.0112      0.0000      0.0000      0.1136      0.0000      0.1384
 63      0.0000      0.0268      0.0000      0.0000      0.0000      0.0000      0.0000      0.0000      0.0000
 64      0.0000      0.0572      0.0000      0.1587      0.0000      0.0955      0.1757      0.1453      0.0538
 65      0.0000      0.0700      0.0349      0.1847      0.1317      0.0000      0.0000      0.0000      0.0000
 66      0.0000      0.0146      0.0353      0.0000      0.0000      0.0000      0.0000      0.0436      0.0000
 67      0.0000      0.0155      0.0000      0.0000      0.0000      0.0039      0.0000      0.0000      0.0000
 68      0.0000      0.0060      0.0000      0.0000      0.0170      0.0000      0.0000      0.0000      0.0000
 69      0.0000      0.0095      0.0000      0.0000      0.0039      0.0056      0.0000      0.0000      0.0000
 70      0.0000      0.0055      0.0228      0.0000      0.0000      0.0000      0.0301      0.0000      0.0000
 71      0.0000      0.0063      0.0000      0.0000      0.0000      0.0000      0.0000      0.0000      0.0000
 72      0.0000      0.0052      0.0000      0.0000      0.0000      0.0000      0.0000      0.0000      0.0000
 73      0.0000      0.0046      0.0000      0.0000      0.0000      0.0000      0.0000      0.0000      0.0000
 74      0.0000      0.0067      0.0007      0.0000      0.0000      0.0000      0.0000      0.0000      0.0000
 75      0.0000      0.0111      0.0000      0.0223      0.0127      0.0000      0.0000      0.0000      0.0000
 76      0.0000      0.0116      0.0000      0.0000      0.0000      0.0000      0.0375      0.0000      0.0000
 77      0.0000      0.0091      0.0000      0.0000      0.0034      0.0260      0.0000      0.0000      0.0000
 78      0.0000      0.0110      0.0038      0.0000      0.0000      0.0000      0.0000      0.0384      0.0146
 79      0.0000      0.0091      0.0000      0.0000      0.0000      0.0000      0.0000      0.0000      0.0000
 80      0.0000      0.0155      0.0496      0.0458      0.0172      0.0000      0.0000      0.0000      0.0000
 81      0.0000      0.0162      0.0076      0.0000      0.0072      0.0203      0.1047      0.1517      0.0000
 82      0.0000      0.0209      0.0000      0.0000      0.0000      0.1198      0.0000      0.0000      0.0000
 83      0.4515      0.1034      0.0000      0.1319      0.2040      0.1232      0.2769      0.0503      0.3996
 84      0.0000      0.0579      0.1549      0.0181      0.0043      0.1443      0.0807      0.0480      0.0927
 85      0.0000      0.0822      0.2084      0.1394      0.0739      0.0518      0.0000      0.0146      0.0000
 86      0.0000      0.0216      0.0531      0.0000      0.0000      0.0014      0.0000      0.0000      0.0000
 87      0.0000      0.0257      0.0000      0.0120      0.0000      0.0000      0.0000      0.0000      0.0000
 88      0.0000      0.0164      0.0000      0.0000      0.0000      0.0109      0.0000      0.0000      0.0000
 89      0.0000      0.0091      0.0000      0.0000      0.0107      0.0000      0.0000      0.0000      0.0077
 90      0.0000      0.0039      0.0000      0.0000      0.0000      0.0000      0.0000      0.0000      0.0000
 91      0.0000      0.0039      0.0000      0.0000      0.0000      0.0004      0.0000      0.0000      0.0000
 92      0.0000      0.0051      0.0000      0.0000      0.0000      0.0000      0.0000      0.0031      0.0000
 93      0.0000      0.0044      0.0000      0.0000      0.0000      0.0000      0.0000      0.0000      0.0100
 94      0.0000      0.0038      0.0000      0.0000      0.0000      0.0000      0.0000      0.0000      0.0000
 95      0.0000      0.0036      0.0000      0.0000      0.0000      0.0000      0.0000      0.0000      0.0000
 96      0.0000      0.0034      0.0000      0.0000      0.0000      0.0000      0.0000      0.0000      0.0000
 97      0.0000      0.0023      0.0000      0.0000      0.0000      0.0000      0.0000      0.0000      0.0000
 98      0.0000      0.0024      0.0000      0.0000      0.0000      0.0000      0.0000      0.0000      0.0000
 99      0.0000      0.0024      0.0000      0.0000      0.0000      0.0000      0.0000      0.0000      0.0000
100      0.0000      0.0021      0.0000      0.0000      0.0000      0.0000      0.0000      0.0000      0.0000
101      0.0000      0.0066      0.0061      0.0000      0.0000      0.0000      0.0000      0.0000      0.0000
102      0.0000      0.0110      0.0000      0.0000      0.0000      0.0000      0.0000      0.0057      0.0918
103      0.0000      0.0262      0.0000      0.0557      0.0000      0.0000      0.1145      0.0000      0.0000
104      0.0000      0.0278      0.0000      0.0000      0.0935      0.1077      0.0343      0.0000      0.0000
105      0.0000      0.0532      0.1169      0.0000      0.0000      0.0011      0.0174      0.0000      0.0000
106      0.0000      0.0448      0.0156      0.1426      0.0640      0.0000      0.0000      0.0102      0.0004
107      0.0000      0.0253      0.0000      0.0000      0.0000      0.0000      0.0000      0.0000      0.0000
108      0.0000      0.0124      0.0000      0.0045      0.0000      0.0000      0.0000      0.0039      0.0000
109      0.0000      0.0314      0.0235      0.0000      0.0000      0.0078      0.0000      0.0000      0.0713
110      0.0000      0.0179      0.0064      0.0124      0.0000      0.0000      0.0000      0.0182      0.0000
111      0.0000      0.0356      0.0000      0.0000      0.0000      0.0349      0.0510      0.1023      0.0000
112      0.0000      0.0238      0.0087      0.0000      0.0000      0.0312      0.0000      0.0000      0.0000
113      0.0000      0.0154      0.0092      0.0000      0.0000      0.0041      0.0000      0.0000      0.0000
114      0.0000      0.0078      0.0000      0.0288      0.0000      0.0000      0.0390      0.0000      0.0000
115      0.0000      0.0040      0.0000      0.0000      0.0000      0.0000      0.0000      0.0000      0.0000
116      0.0000      0.0043      0.0000      0.0000      0.0000      0.0000      0.0000      0.0000      0.0000
117      0.0000      0.0038      0.0000      0.0000      0.0000      0.0000      0.0000      0.0000      0.0000
118      0.0000      0.0031      0.0000      0.0000      0.0000      0.0000      0.0000      0.0000      0.0000
119      0.0000      0.0022      0.0000      0.0000      0.0000      0.0122      0.0000      0.0000      0.0000
120      0.0000      0.0020      0.0000      0.0000      0.0000      0.0000      0.0010      0.0000      0.0000
121      0.0000      0.0026      0.0000      0.0000      0.0000      0.0000      0.0000      0.0020      0.0032
122      0.0000      0.0031      0.0000      0.0008      0.0001      0.0000      0.0000      0.0000      0.0000
123      0.0000      0.0025      0.0000      0.0000      0.0000      0.0000      0.0000      0.0000      0.0000
124      0.0000      0.0030      0.0115      0.0000      0.0000      0.0000      0.0000      0.0000      0.0000
125      0.0000      0.0026      0.0000      0.0000      0.0000      0.0000      0.0000      0.0000      0.0000
126      0.0000      0.0064      0.0000      0.0000      0.0000      0.0000      0.0000      0.0046      0.0000
127      0.0000      0.0133      0.0000      0.0000      0.0000      0.0000      0.0000      0.0000      0.0108
128      0.0000      0.0195      0.0000      0.0576      0.0000      0.0000      0.0047      0.0154      0.0000
129      0.0000      0.0371      0.0000      0.1120      0.0000      0.0000      0.0687      0.0000      0.0000
130      0.0000      0.0114      0.0000      0.0000      0.0000      0.0000      0.0000      0.0304      0.0351
131      0.0000      0.0062      0.0000      0.0000      0.0000      0.0000      0.0000      0.0000      0.0000
132      0.0000      0.0118      0.0000      0.0090      0.0000      0.0000      0.0000      0.0000      0.0000
133      0.0000      0.0149      0.0000      0.0000      0.0311      0.0910      0.0000      0.0805      0.0000
134      0.0000      0.0132      0.0000      0.0000      0.0439      0.0048      0.0001      0.0000      0.0802
135      0.0000      0.0265      0.0000      0.0000      0.0000      0.0000      0.0000      0.0000      0.0000
136      0.0000      0.0423      0.0647      0.0846      0.0000      0.0000      0.0000      0.1826      0.0000
137      0.0000      0.0209      0.0000      0.0000      0.0377      0.0000      0.0377      0.0415      0.0000
138      0.0000      0.0116      0.0000      0.0000      0.0000      0.0000      0.0000      0.0000      0.0000
139      0.0000      0.0056      0.0000      0.0000      0.0000      0.0000      0.0245      0.0000      0.0000
140      0.0000      0.0036      0.0000      0.0000      0.0000      0.0000      0.0000      0.0002      0.0000
141      0.0000      0.0021      0.0000      0.0000      0.0000      0.0000      0.0000      0.0000      0.0000
142      0.0000      0.0019      0.0000      0.0000      0.0000      0.0000      0.0000      0.0000      0.0089
143      0.0000      0.0026      0.0000      0.0000      0.0000      0.0000      0.0000      0.0000      0.0000
144      0.0000      0.0066      0.0000      0.0000      0.0119      0.0217      0.0000      0.0016      0.0000
145      0.0000      0.0091      0.0000      0.0000      0.0000      0.0000      0.0000      0.0000      0.0000
146      0.0000      0.0142      0.0000      0.0000      0.1281      0.0000      0.0548      0.0290      0.0000
147      0.0000      0.0122      0.0000      0.0522      0.0000      0.0000      0.0000      0.0000      0.0239
148      0.0000      0.0096      0.1554      0.0273      0.0000      0.0645      0.0000      0.0000      0.0000
149      0.0000      0.0096      0.0000      0.0447      0.0000      0.0223      0.0615      0.0120      0.0000
150      0.0000      0.0104      0.0295      0.0012      0.0524      0.0000      0.0429      0.0261      0.0319

# j      m_j: min, <> & last-chain-values for 1 ...  7 chains
  1  0.0000E+00  1.3299E-04  0.0000E+00  0.0000E+00  0.0000E+00  0.0000E+00  0.0000E+00  0.0000E+00  0.0000E+00
  2  6.4444E-02  6.0307E-02  6.0723E-02  6.1445E-02  6.0601E-02  6.0080E-02  6.0297E-02  6.2366E-02  5.9964E-02
  3  0.0000E+00  3.8573E-04  7.9575E-04  2.0570E-04  0.0000E+00  0.0000E+00  5.5352E-04  3.3975E-04  1.0458E-03
  4  0.0000E+00  3.3589E-04  0.0000E+00  1.2604E-03  0.0000E+00  1.0741E-04  0.0000E+00  0.0000E+00  0.0000E+00
  5  0.0000E+00  3.0077E-04  0.0000E+00  0.0000E+00  0.0000E+00  8.8862E-04  0.0000E+00  1.0082E-03  0.0000E+00
  6  0.0000E+00  4.1543E-04  1.6673E-03  0.0000E+00  0.0000E+00  1.1865E-03  0.0000E+00  0.0000E+00  0.0000E+00
  7  0.0000E+00  7.4445E-04  0.0000E+00  0.0000E+00  0.0000E+00  2.8309E-04  3.9101E-03  0.0000E+00  0.0000E+00
  8  0.0000E+00  1.1782E-03  5.3723E-03  0.0000E+00  2.7180E-03  8.5107E-04  8.3095E-03  3.8700E-03  0.0000E+00
  9  0.0000E+00  1.7536E-03  5.0637E-03  0.0000E+00  0.0000E+00  3.8157E-03  1.3464E-03  5.9791E-03  0.0000E+00
 10  3.5519E-02  6.8071E-03  5.6446E-03  3.4063E-03  9.5653E-03  7.9731E-03  1.4842E-02  8.2666E-03  0.0000E+00
 11  2.8385E-01  2.6118E-01  2.6689E-01  2.6780E-01  2.6278E-01  2.6598E-01  2.6928E-01  2.7640E-01  2.6861E-01
 12  0.0000E+00  6.5531E-03  4.6260E-03  1.2039E-02  7.1361E-03  0.0000E+00  4.5080E-03  0.0000E+00  0.0000E+00
 13  3.6070E-03  4.4319E-03  2.0182E-02  0.0000E+00  1.6282E-02  1.0117E-02  0.0000E+00  0.0000E+00  0.0000E+00
 14  0.0000E+00  4.2650E-03  1.6911E-02  1.7967E-02  1.4805E-02  9.4947E-03  0.0000E+00  2.6705E-03  8.6775E-03
 15  0.0000E+00  7.7223E-03  0.0000E+00  0.0000E+00  1.0404E-02  0.0000E+00  8.5307E-03  0.0000E+00  0.0000E+00
 16  0.0000E+00  1.2075E-02  0.0000E+00  0.0000E+00  0.0000E+00  0.0000E+00  0.0000E+00  0.0000E+00  0.0000E+00
 17  2.2226E-04  1.6882E-02  0.0000E+00  0.0000E+00  8.4818E-02  0.0000E+00  0.0000E+00  0.0000E+00  0.0000E+00
 18  0.0000E+00  1.0060E-01  0.0000E+00  1.1176E-01  1.0622E-02  2.5244E-03  1.4530E-01  1.6920E-01  0.0000E+00
 19  0.0000E+00  1.9068E-01  2.5715E-01  1.7513E-01  0.0000E+00  0.0000E+00  6.7098E-02  1.5680E-01  2.3156E-01
 20  3.6810E-02  2.0502E-01  6.7421E-02  1.4133E-02  3.6581E-01  0.0000E+00  2.5356E-01  9.4146E-02  8.3196E-02
 21  9.2284E-01  7.9406E-01  5.6891E-01  3.7150E-01  8.1318E-01  7.1742E-01  1.9955E-01  4.0706E-01  8.1523E-01
 22  2.9971E+00  1.4171E+00  2.2573E+00  1.4008E+00  1.9682E+00  1.5043E+00  1.1296E+00  1.3200E+00  1.5832E+00
 23  3.3805E-01  7.6644E-01  1.3364E+00  8.3627E-01  7.9509E-01  4.1684E-01  3.2635E-01  8.0919E-01  1.2335E+00
 24  1.8012E+00  1.5430E+00  1.1316E+00  1.8917E+00  1.5917E+00  1.2910E+00  1.9063E+00  1.7006E+00  1.8310E+00
 25  3.0613E+01  3.1061E+01  2.8145E+01  3.1215E+01  3.1054E+01  3.1113E+01  3.0625E+01  3.1386E+01  3.1805E+01
 26  0.0000E+00  3.3184E-04  0.0000E+00  3.6442E-04  0.0000E+00  0.0000E+00  0.0000E+00  0.0000E+00  0.0000E+00
 27  0.0000E+00  1.5924E-04  1.4753E-04  1.3259E-04  2.3919E-04  9.2865E-04  0.0000E+00  4.8195E-04  0.0000E+00
 28  0.0000E+00  1.3458E-04  0.0000E+00  6.0354E-04  1.3030E-03  7.2265E-04  0.0000E+00  5.3050E-04  6.8747E-04
 29  0.0000E+00  2.6786E-04  0.0000E+00  0.0000E+00  0.0000E+00  8.1322E-04  0.0000E+00  6.5818E-04  6.1660E-05
 30  0.0000E+00  2.3420E-04  0.0000E+00  0.0000E+00  0.0000E+00  0.0000E+00  0.0000E+00  0.0000E+00  1.1438E-03
 31  0.0000E+00  4.2509E-04  2.6269E-04  7.0961E-04  0.0000E+00  0.0000E+00  0.0000E+00  3.3345E-04  0.0000E+00
 32  0.0000E+00  1.1678E-03  5.1655E-04  0.0000E+00  1.9150E-03  4.6019E-03  2.5004E-05  0.0000E+00  1.1674E-03
 33  0.0000E+00  1.4574E-03  4.1241E-03  1.1241E-03  2.3117E-03  3.4755E-03  5.5480E-03  0.0000E+00  1.7642E-03
 34  0.0000E+00  3.5965E-03  6.2172E-04  1.5685E-02  6.4476E-04  0.0000E+00  0.0000E+00  0.0000E+00  4.4881E-03
 35  0.0000E+00  2.3128E-03  1.9302E-03  2.9994E-03  5.7745E-03  2.3249E-03  0.0000E+00  5.3861E-03  1.1611E-03
 36  0.0000E+00  4.3470E-03  2.3935E-03  2.1871E-03  0.0000E+00  4.8144E-03  3.5163E-03  4.6059E-03  9.2579E-03
 37  1.0945E-02  1.2950E-02  1.9337E-02  1.5797E-02  2.3750E-02  1.0892E-02  2.1761E-02  5.4552E-03  1.8118E-02
 38  0.0000E+00  4.7627E-03  7.5637E-03  1.0255E-04  0.0000E+00  0.0000E+00  0.0000E+00  1.4237E-03  0.0000E+00
 39  0.0000E+00  4.4722E-03  0.0000E+00  9.0141E-03  0.0000E+00  1.5615E-02  0.0000E+00  0.0000E+00  0.0000E+00
 40  0.0000E+00  4.8659E-03  0.0000E+00  0.0000E+00  0.0000E+00  0.0000E+00  9.9182E-05  3.9483E-03  0.0000E+00
 41  0.0000E+00  2.4458E-02  0.0000E+00  0.0000E+00  0.0000E+00  0.0000E+00  0.0000E+00  0.0000E+00  3.3532E-02
 42  0.0000E+00  3.5512E-02  3.8244E-02  0.0000E+00  0.0000E+00  8.8781E-02  0.0000E+00  0.0000E+00  1.1939E-01
 43  1.7797E+01  1.7061E+01  1.7065E+01  1.6864E+01  1.7236E+01  1.7630E+01  1.7238E+01  1.7130E+01  1.6750E+01
 44  2.6226E+01  2.6621E+01  2.6416E+01  2.6725E+01  2.6397E+01  2.6749E+01  2.7155E+01  2.7065E+01  2.5959E+01
 45  8.9880E+00  8.8778E+00  9.2341E+00  8.3090E+00  8.7604E+00  8.9401E+00  8.8910E+00  9.0914E+00  8.9073E+00
 46  0.0000E+00  1.6265E-01  1.9040E-01  3.5980E-01  0.0000E+00  0.0000E+00  1.2622E-01  0.0000E+00  3.2223E-02
 47  0.0000E+00  9.1364E-02  0.0000E+00  0.0000E+00  5.7672E-02  5.6768E-02  0.0000E+00  0.0000E+00  0.0000E+00
 48  0.0000E+00  1.9751E-01  2.5448E-01  2.7182E-01  0.0000E+00  0.0000E+00  1.8481E-01  0.0000E+00  6.0427E-02
 49  0.0000E+00  5.2181E-01  4.0017E-01  5.0658E-01  2.0628E-01  5.8152E-01  0.0000E+00  9.0271E-01  7.2323E-01
 50  9.8529E+00  8.3435E+00  8.6818E+00  8.2786E+00  7.6130E+00  8.7732E+00  8.4761E+00  8.1535E+00  8.3321E+00
 51  0.0000E+00  1.3968E-04  2.9933E-04  0.0000E+00  0.0000E+00  0.0000E+00  2.5780E-04  0.0000E+00  0.0000E+00
 52  0.0000E+00  2.9361E-04  1.1750E-05  0.0000E+00  5.2750E-04  4.3504E-04  0.0000E+00  0.0000E+00  1.2926E-03
 53  3.0097E-03  1.8411E-04  0.0000E+00  0.0000E+00  1.0803E-03  0.0000E+00  0.0000E+00  0.0000E+00  0.0000E+00
 54  1.2974E-02  1.4265E-02  1.5172E-02  1.3178E-02  1.4468E-02  1.3116E-02  1.4148E-02  1.4176E-02  1.4084E-02
 55  0.0000E+00  3.3102E-04  1.8838E-05  4.4413E-04  1.0741E-03  3.3780E-05  0.0000E+00  1.0398E-04  0.0000E+00
 56  0.0000E+00  4.6670E-04  0.0000E+00  0.0000E+00  3.1644E-04  0.0000E+00  1.1353E-03  0.0000E+00  0.0000E+00
 57  0.0000E+00  3.4615E-04  0.0000E+00  0.0000E+00  0.0000E+00  0.0000E+00  7.4537E-04  0.0000E+00  0.0000E+00
 58  0.0000E+00  7.8042E-04  4.5739E-03  2.2827E-03  0.0000E+00  0.0000E+00  0.0000E+00  0.0000E+00  0.0000E+00
 59  0.0000E+00  6.9165E-04  2.8348E-03  0.0000E+00  0.0000E+00  7.6036E-04  0.0000E+00  3.1571E-04  0.0000E+00
 60  0.0000E+00  9.2699E-04  0.0000E+00  0.0000E+00  0.0000E+00  0.0000E+00  1.0743E-03  0.0000E+00  0.0000E+00
 61  0.0000E+00  1.7836E-03  3.0147E-04  0.0000E+00  0.0000E+00  0.0000E+00  0.0000E+00  2.6040E-03  0.0000E+00
 62  0.0000E+00  3.9419E-03  4.0369E-03  7.9346E-04  0.0000E+00  0.0000E+00  8.0885E-03  0.0000E+00  9.7592E-03
 63  0.0000E+00  2.9142E-03  0.0000E+00  0.0000E+00  0.0000E+00  0.0000E+00  0.0000E+00  0.0000E+00  0.0000E+00
 64  0.0000E+00  1.0225E-02  0.0000E+00  2.8125E-02  0.0000E+00  1.7048E-02  3.1314E-02  2.6022E-02  9.4857E-03
 65  0.0000E+00  2.1136E-02  1.0492E-02  5.5299E-02  3.9614E-02  0.0000E+00  0.0000E+00  0.0000E+00  0.0000E+00
 66  0.0000E+00  5.6382E-03  1.3567E-02  0.0000E+00  0.0000E+00  0.0000E+00  0.0000E+00  1.6904E-02  0.0000E+00
 67  0.0000E+00  8.2131E-03  0.0000E+00  0.0000E+00  0.0000E+00  2.0614E-03  0.0000E+00  0.0000E+00  0.0000E+00
 68  0.0000E+00  5.9555E-03  0.0000E+00  0.0000E+00  1.6686E-02  0.0000E+00  0.0000E+00  0.0000E+00  0.0000E+00
 69  0.0000E+00  1.6216E-02  0.0000E+00  0.0000E+00  6.6017E-03  9.5512E-03  0.0000E+00  0.0000E+00  0.0000E+00
 70  0.0000E+00  1.2969E-02  5.3823E-02  0.0000E+00  0.0000E+00  0.0000E+00  7.1122E-02  0.0000E+00  0.0000E+00
 71  0.0000E+00  1.7553E-02  0.0000E+00  0.0000E+00  0.0000E+00  0.0000E+00  0.0000E+00  0.0000E+00  0.0000E+00
 72  0.0000E+00  1.9137E-02  0.0000E+00  0.0000E+00  0.0000E+00  0.0000E+00  0.0000E+00  0.0000E+00  0.0000E+00
 73  0.0000E+00  2.1443E-02  0.0000E+00  0.0000E+00  0.0000E+00  0.0000E+00  0.0000E+00  0.0000E+00  0.0000E+00
 74  0.0000E+00  3.4819E-02  3.5245E-03  0.0000E+00  0.0000E+00  0.0000E+00  0.0000E+00  0.0000E+00  0.0000E+00
 75  0.0000E+00  6.5875E-02  0.0000E+00  1.3155E-01  7.5490E-02  0.0000E+00  0.0000E+00  0.0000E+00  0.0000E+00
 76  0.0000E+00  1.5941E-04  0.0000E+00  0.0000E+00  0.0000E+00  0.0000E+00  5.1587E-04  0.0000E+00  0.0000E+00
 77  0.0000E+00  5.1243E-05  0.0000E+00  0.0000E+00  1.9032E-05  1.4563E-04  0.0000E+00  0.0000E+00  0.0000E+00
 78  0.0000E+00  6.9116E-05  2.3546E-05  0.0000E+00  0.0000E+00  0.0000E+00  0.0000E+00  2.4159E-04  9.0597E-05
 79  0.0000E+00  6.8693E-05  0.0000E+00  0.0000E+00  0.0000E+00  0.0000E+00  0.0000E+00  0.0000E+00  0.0000E+00
 80  0.0000E+00  1.5081E-04  4.8129E-04  4.4225E-04  1.6662E-04  0.0000E+00  0.0000E+00  0.0000E+00  0.0000E+00
 81  0.0000E+00  2.0799E-04  9.6991E-05  0.0000E+00  9.2845E-05  2.6059E-04  1.3441E-03  1.9573E-03  0.0000E+00
 82  0.0000E+00  3.6248E-04  0.0000E+00  0.0000E+00  0.0000E+00  2.0744E-03  0.0000E+00  0.0000E+00  0.0000E+00
 83  1.1633E-02  2.6356E-03  0.0000E+00  3.3326E-03  5.1760E-03  3.1340E-03  7.0378E-03  1.2846E-03  1.0055E-02
 84  0.0000E+00  2.0426E-03  5.4399E-03  6.3454E-04  1.5051E-04  5.0834E-03  2.8401E-03  1.6985E-03  3.2308E-03
 85  0.0000E+00  3.5198E-03  8.8892E-03  5.9222E-03  3.1521E-03  2.2140E-03  0.0000E+00  6.2592E-04  0.0000E+00
 86  0.0000E+00  1.2526E-03  3.0684E-03  0.0000E+00  0.0000E+00  7.8464E-05  0.0000E+00  0.0000E+00  0.0000E+00
 87  0.0000E+00  1.9868E-03  0.0000E+00  9.2162E-04  0.0000E+00  0.0000E+00  0.0000E+00  0.0000E+00  0.0000E+00
 88  0.0000E+00  1.9355E-03  0.0000E+00  0.0000E+00  0.0000E+00  1.2855E-03  0.0000E+00  0.0000E+00  0.0000E+00
 89  0.0000E+00  1.7791E-03  0.0000E+00  0.0000E+00  2.0910E-03  0.0000E+00  0.0000E+00  0.0000E+00  1.4934E-03
 90  0.0000E+00  1.4312E-03  0.0000E+00  0.0000E+00  0.0000E+00  0.0000E+00  0.0000E+00  0.0000E+00  0.0000E+00
 91  0.0000E+00  1.8266E-03  0.0000E+00  0.0000E+00  0.0000E+00  1.9616E-04  0.0000E+00  0.0000E+00  0.0000E+00
 92  0.0000E+00  3.1505E-03  0.0000E+00  0.0000E+00  0.0000E+00  0.0000E+00  0.0000E+00  1.9215E-03  0.0000E+00
 93  0.0000E+00  5.5951E-03  0.0000E+00  0.0000E+00  0.0000E+00  0.0000E+00  0.0000E+00  0.0000E+00  1.2461E-02
 94  0.0000E+00  8.5413E-03  0.0000E+00  0.0000E+00  0.0000E+00  0.0000E+00  0.0000E+00  0.0000E+00  0.0000E+00
 95  0.0000E+00  1.0905E-02  0.0000E+00  0.0000E+00  0.0000E+00  0.0000E+00  0.0000E+00  0.0000E+00  0.0000E+00
 96  0.0000E+00  1.2653E-02  0.0000E+00  0.0000E+00  0.0000E+00  0.0000E+00  0.0000E+00  0.0000E+00  0.0000E+00
 97  0.0000E+00  1.1250E-02  0.0000E+00  0.0000E+00  0.0000E+00  0.0000E+00  0.0000E+00  0.0000E+00  0.0000E+00
 98  0.0000E+00  1.4507E-02  0.0000E+00  0.0000E+00  0.0000E+00  0.0000E+00  0.0000E+00  0.0000E+00  0.0000E+00
 99  0.0000E+00  1.6669E-02  0.0000E+00  0.0000E+00  0.0000E+00  0.0000E+00  0.0000E+00  0.0000E+00  0.0000E+00
100  0.0000E+00  1.7267E-02  0.0000E+00  0.0000E+00  0.0000E+00  0.0000E+00  0.0000E+00  0.0000E+00  0.0000E+00
101  0.0000E+00  5.8884E-05  5.4052E-05  0.0000E+00  0.0000E+00  0.0000E+00  0.0000E+00  0.0000E+00  0.0000E+00
102  0.0000E+00  5.0887E-05  0.0000E+00  0.0000E+00  0.0000E+00  0.0000E+00  0.0000E+00  2.6444E-05  4.1962E-04
103  0.0000E+00  1.3435E-04  0.0000E+00  2.8335E-04  0.0000E+00  0.0000E+00  5.8581E-04  0.0000E+00  0.0000E+00
104  0.0000E+00  1.8767E-04  0.0000E+00  0.0000E+00  6.2837E-04  7.2551E-04  2.3114E-04  0.0000E+00  0.0000E+00
105  0.0000E+00  7.5830E-04  1.6578E-03  0.0000E+00  0.0000E+00  1.5695E-05  2.4657E-04  0.0000E+00  0.0000E+00
106  0.0000E+00  6.8674E-04  2.3850E-04  2.1691E-03  9.7694E-04  0.0000E+00  0.0000E+00  1.5746E-04  5.4568E-06
107  0.0000E+00  5.1754E-04  0.0000E+00  0.0000E+00  0.0000E+00  0.0000E+00  0.0000E+00  0.0000E+00  0.0000E+00
108  0.0000E+00  4.2436E-04  0.0000E+00  1.5110E-04  0.0000E+00  0.0000E+00  0.0000E+00  1.3373E-04  0.0000E+00
109  0.0000E+00  1.2849E-03  9.5766E-04  0.0000E+00  0.0000E+00  3.1721E-04  0.0000E+00  0.0000E+00  2.8833E-03
110  0.0000E+00  8.7538E-04  3.1278E-04  6.0074E-04  0.0000E+00  0.0000E+00  0.0000E+00  8.9270E-04  0.0000E+00
111  0.0000E+00  2.4280E-03  0.0000E+00  0.0000E+00  0.0000E+00  2.3767E-03  3.4643E-03  6.9856E-03  0.0000E+00
112  0.0000E+00  2.1313E-03  7.7956E-04  0.0000E+00  0.0000E+00  2.7921E-03  0.0000E+00  0.0000E+00  0.0000E+00
113  0.0000E+00  2.0598E-03  1.2299E-03  0.0000E+00  0.0000E+00  5.5133E-04  0.0000E+00  0.0000E+00  0.0000E+00
114  0.0000E+00  1.8388E-03  0.0000E+00  6.7373E-03  0.0000E+00  0.0000E+00  9.1715E-03  0.0000E+00  0.0000E+00
115  0.0000E+00  1.9088E-03  0.0000E+00  0.0000E+00  0.0000E+00  0.0000E+00  0.0000E+00  0.0000E+00  0.0000E+00
116  0.0000E+00  3.2463E-03  0.0000E+00  0.0000E+00  0.0000E+00  0.0000E+00  0.0000E+00  0.0000E+00  0.0000E+00
117  0.0000E+00  3.3743E-03  0.0000E+00  0.0000E+00  0.0000E+00  0.0000E+00  0.0000E+00  0.0000E+00  0.0000E+00
118  0.0000E+00  5.6571E-03  0.0000E+00  0.0000E+00  0.0000E+00  0.0000E+00  0.0000E+00  0.0000E+00  0.0000E+00
119  0.0000E+00  7.0183E-03  0.0000E+00  0.0000E+00  0.0000E+00  3.8017E-02  0.0000E+00  0.0000E+00  0.0000E+00
120  0.0000E+00  9.0127E-03  0.0000E+00  0.0000E+00  0.0000E+00  0.0000E+00  4.5884E-03  0.0000E+00  0.0000E+00
121  0.0000E+00  1.3408E-02  0.0000E+00  0.0000E+00  0.0000E+00  0.0000E+00  0.0000E+00  1.0471E-02  1.6484E-02
122  0.0000E+00  2.1958E-02  0.0000E+00  5.6526E-03  5.1266E-04  0.0000E+00  0.0000E+00  0.0000E+00  0.0000E+00
123  0.0000E+00  2.3126E-02  0.0000E+00  0.0000E+00  0.0000E+00  0.0000E+00  0.0000E+00  0.0000E+00  0.0000E+00
124  0.0000E+00  3.1700E-02  1.2163E-01  0.0000E+00  0.0000E+00  0.0000E+00  0.0000E+00  0.0000E+00  0.0000E+00
125  0.0000E+00  3.3538E-02  0.0000E+00  0.0000E+00  0.0000E+00  0.0000E+00  0.0000E+00  0.0000E+00  0.0000E+00
126  0.0000E+00  4.2600E-05  0.0000E+00  0.0000E+00  0.0000E+00  0.0000E+00  0.0000E+00  3.0617E-05  0.0000E+00
127  0.0000E+00  4.6748E-05  0.0000E+00  0.0000E+00  0.0000E+00  0.0000E+00  0.0000E+00  0.0000E+00  3.7743E-05
128  0.0000E+00  1.0203E-04  0.0000E+00  2.9841E-04  0.0000E+00  0.0000E+00  2.4474E-05  8.0685E-05  0.0000E+00
129  0.0000E+00  3.9666E-04  0.0000E+00  1.1866E-03  0.0000E+00  0.0000E+00  7.3208E-04  0.0000E+00  0.0000E+00
130  0.0000E+00  1.6643E-04  0.0000E+00  0.0000E+00  0.0000E+00  0.0000E+00  0.0000E+00  4.4356E-04  5.0530E-04
131  0.0000E+00  1.0461E-04  0.0000E+00  0.0000E+00  0.0000E+00  0.0000E+00  0.0000E+00  0.0000E+00  0.0000E+00
132  0.0000E+00  2.6960E-04  0.0000E+00  2.0391E-04  0.0000E+00  0.0000E+00  0.0000E+00  0.0000E+00  0.0000E+00
133  0.0000E+00  4.9648E-04  0.0000E+00  0.0000E+00  1.0313E-03  3.0242E-03  0.0000E+00  2.6871E-03  0.0000E+00
134  0.0000E+00  5.5540E-04  0.0000E+00  0.0000E+00  1.8448E-03  2.0274E-04  5.5401E-06  0.0000E+00  3.3425E-03
135  0.0000E+00  1.3459E-03  0.0000E+00  0.0000E+00  0.0000E+00  0.0000E+00  0.0000E+00  0.0000E+00  0.0000E+00
136  0.0000E+00  3.0949E-03  4.7203E-03  6.1436E-03  0.0000E+00  0.0000E+00  0.0000E+00  1.3405E-02  0.0000E+00
137  0.0000E+00  2.0951E-03  0.0000E+00  0.0000E+00  3.7601E-03  0.0000E+00  3.7628E-03  4.1635E-03  0.0000E+00
138  0.0000E+00  1.9271E-03  0.0000E+00  0.0000E+00  0.0000E+00  0.0000E+00  0.0000E+00  0.0000E+00  0.0000E+00
139  0.0000E+00  1.7678E-03  0.0000E+00  0.0000E+00  0.0000E+00  0.0000E+00  7.6733E-03  0.0000E+00  0.0000E+00
140  0.0000E+00  2.6116E-03  0.0000E+00  0.0000E+00  0.0000E+00  0.0000E+00  0.0000E+00  1.7861E-04  0.0000E+00
141  0.0000E+00  2.3207E-03  0.0000E+00  0.0000E+00  0.0000E+00  0.0000E+00  0.0000E+00  0.0000E+00  0.0000E+00
142  0.0000E+00  2.5255E-03  0.0000E+00  0.0000E+00  0.0000E+00  0.0000E+00  0.0000E+00  0.0000E+00  1.1632E-02
143  0.0000E+00  6.9031E-03  0.0000E+00  0.0000E+00  0.0000E+00  0.0000E+00  0.0000E+00  0.0000E+00  0.0000E+00
144  0.0000E+00  3.4198E-02  0.0000E+00  0.0000E+00  6.1382E-02  1.1192E-01  0.0000E+00  8.0641E-03  0.0000E+00
145  0.0000E+00  7.0088E-02  0.0000E+00  0.0000E+00  0.0000E+00  0.0000E+00  0.0000E+00  0.0000E+00  0.0000E+00
146  0.0000E+00  1.3066E-01  0.0000E+00  0.0000E+00  1.1727E+00  0.0000E+00  5.0242E-01  2.6693E-01  0.0000E+00
147  0.0000E+00  1.5066E-01  0.0000E+00  6.3973E-01  0.0000E+00  0.0000E+00  0.0000E+00  0.0000E+00  2.9114E-01
148  0.0000E+00  1.6071E-01  2.5880E+00  4.5363E-01  0.0000E+00  1.0767E+00  0.0000E+00  0.0000E+00  0.0000E+00
149  0.0000E+00  1.8859E-01  0.0000E+00  8.6775E-01  0.0000E+00  4.3571E-01  1.2025E+00  2.3652E-01  0.0000E+00
150  0.0000E+00  2.4314E-01  6.8525E-01  2.8635E-02  1.2170E+00  0.0000E+00  9.9910E-01  6.1121E-01  7.3563E-01

# AV, chi2 & Mass for <> & i_chain = 1 ...  7 solutions
AV       0.7278      0.7202      0.7214      0.7211      0.7217      0.7196      0.7221      0.7225      0.7204
chi2 2.6123E+00  2.6418E+00  2.6253E+00  2.6236E+00  2.6220E+00  2.6240E+00  2.6220E+00  2.6230E+00  2.6260E+00
Mass 9.4322E-11  9.4398E-11  9.4975E-11  9.5306E-11  9.4986E-11  9.4443E-11  9.4889E-11  9.4455E-11  9.5622E-11
 -19.29                                  [v0_min (km/s) before EX0s...]
  68.37                                  [vd_min (km/s) before EX0s...]


## Synthetic spectrum (Best Model) ##l_obs f_obs f_syn wei
 3070    [Nl_obs]
 3359.00    0.27666   0.44329   -1.000
 3360.00    0.26890   0.43701   -1.000
 3361.00    0.26614   0.44760   -1.000
 3362.00    0.27359   0.46813   -1.000
 3363.00    0.29860   0.48889   -1.000
 3364.00    0.28461   0.49930   -1.000
 3365.00    0.29166   0.49701   -1.000
 3366.00    0.33225   0.49019   -1.000
 3367.00    0.33662   0.48385   -1.000
 3368.00    0.32895   0.47752   -1.000
 3369.00    0.31916   0.46891   -1.000
 3370.00    0.30202   0.45739   -1.000
 3371.00    0.30661   0.44977   -1.000
 3372.00    0.31927   0.45277   -1.000
 3373.00    0.30221   0.46641   -1.000
 3374.00    0.31978   0.48461   -1.000
 3375.00    0.36004   0.50047   -1.000
 3376.00    0.36297   0.50752   -1.000
 3377.00    0.35897   0.50456   -1.000
 3378.00    0.39011   0.49656   -1.000
 3379.00    0.36054   0.49149   -1.000
 3380.00    0.35099   0.49298   -1.000
 3381.00    0.37684   0.49827   -1.000
 3382.00    0.39137   0.50358   -1.000
 3383.00    0.38651   0.50771   -1.000
 3384.00    0.37665   0.51097   -1.000
 3385.00    0.38537   0.51193   -1.000
 3386.00    0.41295   0.50737   -1.000
 3387.00    0.40959   0.50059   -1.000
 3388.00    0.39222   0.49909   -1.000
 3389.00    0.41670   0.50450   -1.000
 3390.00    0.42425   0.51168   -1.000
 3391.00    0.42368   0.51457   -1.000
 3392.00    0.41992   0.51149   -1.000
 3393.00    0.42232   0.50949   -1.000
 3394.00    0.44440   0.51399   -1.000
 3395.00    0.43766   0.52344   -1.000
 3396.00    0.42276   0.53386   -1.000
 3397.00    0.43468   0.54181   -1.000
 3398.00    0.44030   0.54546   -1.000
 3399.00    0.45260   0.54333   -1.000
 3400.00    0.45833   0.53645   -1.000
 3401.00    0.44356   0.52551   -1.000
 3402.00    0.45254   0.51351   -1.000
 3403.00    0.44031   0.50665   -1.000
 3404.00    0.41128   0.50579   -1.000
 3405.00    0.42133   0.50812   -1.000
 3406.00    0.42792   0.50775   -1.000
 3407.00    0.41366   0.50377   -1.000
 3408.00    0.39747   0.50046   -1.000
 3409.00    0.40540   0.50233   -1.000
 3410.00    0.43739   0.50658   -1.000
 3411.00    0.45351   0.50678   -1.000
 3412.00    0.45811   0.50374   -1.000
 3413.00    0.43775   0.50154   -1.000
 3414.00    0.43160   0.50483   -1.000
 3415.00    0.44340   0.51315   -1.000
 3416.00    0.44139   0.52182   -1.000
 3417.00    0.44099   0.52897   -1.000
 3418.00    0.46621   0.53501   -1.000
 3419.00    0.45360   0.54012   -1.000
 3420.00    0.45659   0.54294   -1.000
 3421.00    0.47332   0.53999   -1.000
 3422.00    0.45850   0.53074   -1.000
 3423.00    0.45796   0.52124   -1.000
 3424.00    0.46217   0.51778   -1.000
 3425.00    0.44345   0.52065   -1.000
 3426.00    0.45644   0.52690   -1.000
 3427.00    0.47891   0.53598   -1.000
 3428.00    0.48551   0.54733   -1.000
 3429.00    0.47176   0.55646   -1.000
 3430.00    0.48253   0.55602   -1.000
 3431.00    0.48335   0.54512   -1.000
 3432.00    0.49385   0.53366   -1.000
 3433.00    0.50261   0.53153   -1.000
 3434.00    0.48369   0.54018   -1.000
 3435.00    0.48585   0.55038   -1.000
 3436.00    0.49007   0.55213   -1.000
 3437.00    0.48145   0.54459   -1.000
 3438.00    0.48317   0.53263   -1.000
 3439.00    0.47040   0.51953   -1.000
 3440.00    0.45955   0.50647   -1.000
 3441.00    0.45944   0.49559   78.683
 3442.00    0.46353   0.49068   75.064
 3443.00    0.45346   0.49288   70.924
 3444.00    0.46064   0.50079   67.564
 3445.00    0.46857   0.51318   -1.000
 3446.00    0.47875   0.52924   -1.000
 3447.00    0.50961   0.54556   -1.000
 3448.00    0.51451   0.55691   -1.000
 3449.00    0.50831   0.55713   -1.000
 3450.00    0.51281   0.54431   -1.000
 3451.00    0.49334   0.52733   -1.000
 3452.00    0.49525   0.51669   -1.000
 3453.00    0.49669   0.51565   -1.000
 3454.00    0.49617   0.52091   -1.000
 3455.00    0.50838   0.52698   -1.000
 3456.00    0.53483   0.52996  143.216
 3457.00    0.51691   0.52858   64.795
 3458.00    0.50963   0.52350   65.163
 3459.00    0.51147   0.51640   99.514
 3460.00    0.50414   0.50979  505.363
 3461.00    0.50827   0.50898  505.363
 3462.00    0.51442   0.51579  505.363
 3463.00    0.52294   0.52386  505.363
 3464.00    0.52781   0.52649  505.363
 3465.00    0.52220   0.52517  505.363
 3466.00    0.51237   0.52683   -1.000
 3467.00    0.52347   0.53445   -1.000
 3468.00    0.54775   0.54537  505.363
 3469.00    0.56583   0.55426   -1.000
 3470.00    0.56972   0.55684   -1.000
 3471.00    0.56227   0.55237   -1.000
 3472.00    0.55736   0.54221  141.140
 3473.00    0.54239   0.52832   65.955
 3474.00    0.52488   0.51615   66.847
 3475.00    0.51688   0.51051  102.368
 3476.00    0.50938   0.51334  505.363
 3477.00    0.51031   0.52270   -1.000
 3478.00    0.51846   0.53314   -1.000
 3479.00    0.53036   0.54238   -1.000
 3480.00    0.54740   0.54912  505.363
 3481.00    0.54929   0.55046  505.363
 3482.00    0.52493   0.54701   -1.000
 3483.00    0.52516   0.54336   -1.000
 3484.00    0.53247   0.54461   -1.000
 3485.00    0.52754   0.55176   -1.000
 3486.00    0.53478   0.55862   -1.000
 3487.00    0.55616   0.55907  505.363
 3488.00    0.55777   0.55241   -1.000
 3489.00    0.53612   0.54194  505.363
 3490.00    0.50478   0.53499   -1.000
 3491.00    0.51698   0.53647   -1.000
 3492.00    0.53476   0.54187  505.363
 3493.00    0.53266   0.54327   -1.000
 3494.00    0.52756   0.53850   -1.000
 3495.00    0.52364   0.53027  505.363
 3496.00    0.51276   0.52502   -1.000
 3497.00    0.51347   0.52666   -1.000
 3498.00    0.53470   0.53201  505.363
 3499.00    0.56888   0.53652   -1.000
 3500.00    0.57398   0.53702   -1.000
 3501.00    0.54867   0.53660   -1.000
 3502.00    0.54595   0.53860   -1.000
 3503.00    0.54589   0.54052   -1.000
 3504.00    0.54448   0.53942  505.363
 3505.00    0.55655   0.53504   -1.000
 3506.00    0.55692   0.53027   -1.000
 3507.00    0.56186   0.52753   -1.000
 3508.00    0.55055   0.52740   -1.000
 3509.00    0.53557   0.52866   -1.000
 3510.00    0.53952   0.52854   -1.000
 3511.00    0.53869   0.52604   -1.000
 3512.00    0.53818   0.52191   -1.000
 3513.00    0.53426   0.51929   -1.000
 3514.00    0.53082   0.52199   -1.000
 3515.00    0.54121   0.53196   -1.000
 3516.00    0.56807   0.54636   -1.000
 3517.00    0.58460   0.55669   -1.000
 3518.00    0.58506   0.55653   -1.000
 3519.00    0.57078   0.54731   -1.000
 3520.00    0.54874   0.53675   -1.000
 3521.00    0.55218   0.52963   -1.000
 3522.00    0.55446   0.52500   65.420
 3523.00    0.52784   0.51968   66.568
 3524.00    0.51104   0.51323  108.136
 3525.00    0.50814   0.51056  505.363
 3526.00    0.51238   0.51543  505.363
 3527.00    0.52603   0.52585  505.363
 3528.00    0.54702   0.53866   -1.000
 3529.00    0.56747   0.55024   -1.000
 3530.00    0.56300   0.55799  505.363
 3531.00    0.56534   0.56044  505.363
 3532.00    0.56462   0.55602   -1.000
 3533.00    0.55609   0.54710   -1.000
 3534.00    0.56277   0.54060   -1.000
 3535.00    0.56048   0.54211   -1.000
 3536.00    0.55893   0.55156   -1.000
 3537.00    0.56792   0.56282  505.363
 3538.00    0.57015   0.57090  505.363
 3539.00    0.56740   0.57472   -1.000
 3540.00    0.55926   0.57491   -1.000
 3541.00    0.55649   0.57371   -1.000
 3542.00    0.54791   0.57438   -1.000
 3543.00    0.55934   0.57784   -1.000
 3544.00    0.57358   0.58057   -1.000
 3545.00    0.55600   0.58001   -1.000
 3546.00    0.56460   0.57746   -1.000
 3547.00    0.56735   0.57506   -1.000
 3548.00    0.54793   0.57443   -1.000
 3549.00    0.55042   0.57629   -1.000
 3550.00    0.55346   0.57990   -1.000
 3551.00    0.54358   0.58163   -1.000
 3552.00    0.54744   0.57783   -1.000
 3553.00    0.55032   0.57051   -1.000
 3554.00    0.54165   0.56567   -1.000
 3555.00    0.53490   0.56677   -1.000
 3556.00    0.53216   0.57279   -1.000
 3557.00    0.54490   0.58001   -1.000
 3558.00    0.54638   0.58398   -1.000
 3559.00    0.54164   0.58422   -1.000
 3560.00    0.54445   0.58337   -1.000
 3561.00    0.54273   0.58253   -1.000
 3562.00    0.54897   0.57919   -1.000
 3563.00    0.56951   0.57050   66.294
 3564.00    0.57469   0.55736   67.388
 3565.00    0.54183   0.54462   66.777
 3566.00    0.51736   0.53731   67.629
 3567.00    0.50642   0.53598   69.469
 3568.00    0.51033   0.53629   69.092
 3569.00    0.52149   0.53297   66.456
 3570.00    0.51219   0.52525  111.163
 3571.00    0.50804   0.51806   -1.000
 3572.00    0.51712   0.51561  505.363
 3573.00    0.52063   0.51736  505.363
 3574.00    0.51254   0.52204   -1.000
 3575.00    0.51812   0.52885   -1.000
 3576.00    0.53711   0.53614  128.124
 3577.00    0.54415   0.54208   69.701
 3578.00    0.54891   0.54388   74.482
 3579.00    0.54264   0.53962   76.848
 3580.00    0.52592   0.53141   77.237
 3581.00    0.51403   0.52336   78.329
 3582.00    0.51206   0.51937   80.612
 3583.00    0.51757   0.51848   82.557
 3584.00    0.50462   0.51376   81.079
 3585.00    0.48978   0.50242   76.830
 3586.00    0.49246   0.49096   72.918
 3587.00    0.49280   0.48824   67.870
 3588.00    0.50502   0.49703  112.543
 3589.00    0.53080   0.51269   -1.000
 3590.00    0.53964   0.52750   -1.000
 3591.00    0.52663   0.53679   -1.000
 3592.00    0.52485   0.54085   -1.000
 3593.00    0.54912   0.54335   -1.000
 3594.00    0.56474   0.54809   -1.000
 3595.00    0.57180   0.55562   -1.000
 3596.00    0.57343   0.56303   -1.000
 3597.00    0.56972   0.56800  486.117
 3598.00    0.58743   0.57043   -1.000
 3599.00    0.58596   0.57058   -1.000
 3600.00    0.56698   0.56671  505.363
 3601.00    0.56062   0.55858  505.363
 3602.00    0.56326   0.55027   -1.000
 3603.00    0.56333   0.54604   -1.000
 3604.00    0.55437   0.54718   -1.000
 3605.00    0.55533   0.54957   -1.000
 3606.00    0.55125   0.54917  505.363
 3607.00    0.55019   0.54623  505.363
 3608.00    0.54851   0.54300   -1.000
 3609.00    0.54509   0.54118  505.363
 3610.00    0.55226   0.54108   -1.000
 3611.00    0.55466   0.54325   -1.000
 3612.00    0.55370   0.54734   -1.000
 3613.00    0.55073   0.55273  505.363
 3614.00    0.55568   0.56082  505.363
 3615.00    0.56565   0.56925  505.363
 3616.00    0.56423   0.57119  117.007
 3617.00    0.54697   0.56442  115.334
 3618.00    0.52584   0.55348   -1.000
 3619.00    0.52850   0.54753   -1.000
 3620.00    0.53448   0.55161   -1.000
 3621.00    0.54168   0.56151   -1.000
 3622.00    0.56115   0.57084   -1.000
 3623.00    0.56682   0.57724   -1.000
 3624.00    0.57755   0.58393  457.071
 3625.00    0.59962   0.59447  458.110
 3626.00    0.60165   0.60696  476.552
 3627.00    0.60345   0.61385   -1.000
 3628.00    0.60719   0.60785  505.363
 3629.00    0.59220   0.58981  505.363
 3630.00    0.55098   0.56859   -1.000
 3631.00    0.52164   0.55567   -1.000
 3632.00    0.53013   0.55623   -1.000
 3633.00    0.55368   0.56579   -1.000
 3634.00    0.56300   0.57449   -1.000
 3635.00    0.55344   0.57744   -1.000
 3636.00    0.55546   0.57890   -1.000
 3637.00    0.56915   0.58402   -1.000
 3638.00    0.58737   0.59138  471.390
 3639.00    0.58618   0.59602   -1.000
 3640.00    0.57499   0.59520   -1.000
 3641.00    0.58296   0.58916   -1.000
 3642.00    0.57540   0.58044  505.363
 3643.00    0.55797   0.57263   -1.000
 3644.00    0.55972   0.56750   -1.000
 3645.00    0.55210   0.56449   -1.000
 3646.00    0.54364   0.56289   -1.000
 3647.00    0.55604   0.56276   -1.000
 3648.00    0.56248   0.56342  505.363
 3649.00    0.55745   0.56443   -1.000
 3650.00    0.55959   0.56688   -1.000
 3651.00    0.58250   0.57235   -1.000
 3652.00    0.59409   0.58098   -1.000
 3653.00    0.58323   0.59070   -1.000
 3654.00    0.58697   0.60010   -1.000
 3655.00    0.60864   0.60817  445.363
 3656.00    0.61750   0.61348  442.035
 3657.00    0.60576   0.61536   -1.000
 3658.00    0.59953   0.61445   -1.000
 3659.00    0.60067   0.61174   -1.000
 3660.00    0.60927   0.60742  456.215
 3661.00    0.61444   0.60199   -1.000
 3662.00    0.60387   0.59738  460.276
 3663.00    0.59389   0.59568  457.761
 3664.00    0.59459   0.59711  463.161
 3665.00    0.59007   0.59951   -1.000
 3666.00    0.59483   0.60052  479.172
 3667.00    0.61310   0.59904   -1.000
 3668.00    0.60264   0.59578  471.397
 3669.00    0.57912   0.59310   -1.000
 3670.00    0.58304   0.59319   -1.000
 3671.00    0.60168   0.59702  452.320
 3672.00    0.60242   0.60252  452.854
 3673.00    0.59925   0.60551   -1.000
 3674.00    0.60232   0.60380  475.472
 3675.00    0.60662   0.59763   -1.000
 3676.00    0.60329   0.58839   -1.000
 3677.00    0.58849   0.57916   -1.000
 3678.00    0.57986   0.57401  500.471
 3679.00    0.58192   0.57493   -1.000
 3680.00    0.58223   0.57933  477.648
 3681.00    0.58610   0.58327  482.112
 3682.00    0.58916   0.58474  498.481
 3683.00    0.59341   0.58347   -1.000
 3684.00    0.59594   0.57976   -1.000
 3685.00    0.57921   0.57461  505.363
 3686.00    0.57207   0.57233  502.787
 3687.00    0.58520   0.57847   -1.000
 3688.00    0.59429   0.59288  447.643
 3689.00    0.59899   0.60692   -1.000
 3690.00    0.60518   0.61290   -1.000
 3691.00    0.60943   0.61274  461.334
 3692.00    0.61013   0.61333  462.896
 3693.00    0.61627   0.61739  459.598
 3694.00    0.62044   0.62126  454.608
 3695.00    0.61287   0.61980   -1.000
 3696.00    0.59715   0.61346   -1.000
 3697.00    0.59146   0.61148   -1.000
 3698.00    0.60423   0.62233   -1.000
 3699.00    0.62573   0.64226   -1.000
 3700.00    0.64437   0.65614   -1.000
 3701.00    0.64902   0.64870  505.363
 3702.00    0.63016   0.61971   -1.000
 3703.00    0.60344   0.58412   -1.000
 3704.00    0.57665   0.56007   -1.000
 3705.00    0.55670   0.55677  505.363
 3706.00    0.56041   0.57077   -1.000
 3707.00    0.58299   0.59018   -1.000
 3708.00    0.60802   0.60118   -1.000
 3709.00    0.61176   0.59634   -1.000
 3710.00    0.59360   0.58079   -1.000
 3711.00    0.57459   0.56825  422.382
 3712.00    0.57320   0.57152  417.271
 3713.00    0.59683   0.59495  423.100
 3714.00    0.63557   0.63035  438.939
 3715.00    0.67286   0.66298   -1.000
 3716.00    0.67765   0.68250  505.363
 3717.00    0.65982   0.68356   -1.000
 3718.00    0.65228   0.66112  106.941
 3719.00    0.60967   0.61593  132.546
 3720.00    0.55811   0.56340  505.363
 3721.00    0.53762   0.52790   -1.000
 3722.00    0.54299   0.52493   -1.000
 3723.00    0.56828   0.55538   -1.000
 3724.00    0.60659   0.60449  477.685
 3725.00    0.65479   0.64831   -1.000
 3726.00    0.68305   0.67451   -1.000
 3727.00    0.68461   0.68725  482.976
 3728.00    0.68091   0.69367   -1.000
 3729.00    0.68558   0.69414   -1.000
 3730.00    0.66987   0.68080  102.975
 3731.00    0.63760   0.64467   68.488
 3732.00    0.59490   0.58984   73.526
 3733.00    0.54903   0.53468   72.428
 3734.00    0.51096   0.49863   66.830
 3735.00    0.49245   0.49546  131.768
 3736.00    0.51400   0.52574   -1.000
 3737.00    0.56148   0.57621   -1.000
 3738.00    0.60780   0.63179   -1.000
 3739.00    0.65433   0.68063   -1.000
 3740.00    0.69617   0.71173   -1.000
 3741.00    0.70505   0.72159   -1.000
 3742.00    0.69166   0.71496   -1.000
 3743.00    0.67629   0.69955   -1.000
 3744.00    0.66444   0.67902  103.709
 3745.00    0.63990   0.65330   67.546
 3746.00    0.60442   0.62080   69.790
 3747.00    0.56818   0.58163  146.599
 3748.00    0.53420   0.54061  505.363
 3749.00    0.51400   0.51019  505.363
 3750.00    0.51448   0.50728   -1.000
 3751.00    0.54739   0.53823   -1.000
 3752.00    0.59883   0.59183  430.680
 3753.00    0.66354   0.64867   -1.000
 3754.00    0.71174   0.69311   -1.000
 3755.00    0.72062   0.71871  505.363
 3756.00    0.71896   0.72404  505.363
 3757.00    0.71340   0.71300  505.363
 3758.00    0.69327   0.69726  505.363
 3759.00    0.69691   0.68803   -1.000
 3760.00    0.71763   0.68977   -1.000
 3761.00    0.72854   0.70004   -1.000
 3762.00    0.72924   0.71095   -1.000
 3763.00    0.73351   0.71511   -1.000
 3764.00    0.72675   0.70972   -1.000
 3765.00    0.71078   0.69524   -1.000
 3766.00    0.69492   0.67194   -1.000
 3767.00    0.66700   0.63813   -1.000
 3768.00    0.63049   0.59620   -1.000
 3769.00    0.59437   0.55660   -1.000
 3770.00    0.55613   0.53503   -1.000
 3771.00    0.56850   0.54404   -1.000
 3772.00    0.61932   0.58041   -1.000
 3773.00    0.64869   0.62662   -1.000
 3774.00    0.67288   0.66587   -1.000
 3775.00    0.70399   0.69421   -1.000
 3776.00    0.73426   0.71754   -1.000
 3777.00    0.75500   0.74261   -1.000
 3778.00    0.76678   0.76932  409.850
 3779.00    0.79643   0.79373  407.311
 3780.00    0.81903   0.81232  406.525
 3781.00    0.83184   0.82201   -1.000
 3782.00    0.83175   0.82306   -1.000
 3783.00    0.83406   0.81881   -1.000
 3784.00    0.82399   0.81155   -1.000
 3785.00    0.80201   0.80057  501.071
 3786.00    0.77809   0.78571   -1.000
 3787.00    0.76703   0.77051  498.249
 3788.00    0.77317   0.76028   -1.000
 3789.00    0.76741   0.75567   -1.000
 3790.00    0.76623   0.75208   -1.000
 3791.00    0.77063   0.74362   -1.000
 3792.00    0.75091   0.72615   -1.000
 3793.00    0.72380   0.69730   -1.000
 3794.00    0.68362   0.65662   -1.000
 3795.00    0.64994   0.60811   -1.000
 3796.00    0.61235   0.55941   -1.000
 3797.00    0.56424   0.52261   -1.000
 3798.00    0.54084   0.51410   -1.000
 3799.00    0.55761   0.54306   -1.000
 3800.00    0.61114   0.60029   -1.000
 3801.00    0.66841   0.66377  453.084
 3802.00    0.71826   0.71570  456.660
 3803.00    0.75952   0.75002   -1.000
 3804.00    0.77800   0.76956   -1.000
 3805.00    0.78601   0.77879   -1.000
 3806.00    0.78771   0.78518  461.244
 3807.00    0.78856   0.79563  451.471
 3808.00    0.79826   0.81188   -1.000
 3809.00    0.82430   0.82979  474.551
 3810.00    0.83691   0.84080  502.941
 3811.00    0.82892   0.83692   -1.000
 3812.00    0.82002   0.81860  505.363
 3813.00    0.79872   0.79642  505.363
 3814.00    0.79016   0.78266   -1.000
 3815.00    0.79170   0.78330   -1.000
 3816.00    0.79626   0.79416  505.363
 3817.00    0.81899   0.80455   -1.000
 3818.00    0.81646   0.80403   -1.000
 3819.00    0.79523   0.79193  505.363
 3820.00    0.79758   0.77880   -1.000
 3821.00    0.80422   0.77460   -1.000
 3822.00    0.80671   0.77679   -1.000
 3823.00    0.79408   0.77199   68.236
 3824.00    0.77404   0.75496   68.348
 3825.00    0.75070   0.73446   67.400
 3826.00    0.74601   0.71854   66.292
 3827.00    0.73880   0.70689   66.457
 3828.00    0.72764   0.69549   68.742
 3829.00    0.71180   0.68135   73.455
 3830.00    0.69688   0.66048   77.009
 3831.00    0.67294   0.62834   -1.000
 3832.00    0.63225   0.58327   -1.000
 3833.00    0.57635   0.53220   -1.000
 3834.00    0.53590   0.49173   -1.000
 3835.00    0.52546   0.47557   -1.000
 3836.00    0.53249   0.48692   -1.000
 3837.00    0.56384   0.52013   -1.000
 3838.00    0.59660   0.56353   -1.000
 3839.00    0.62831   0.60707   -1.000
 3840.00    0.66994   0.64867   -1.000
 3841.00    0.70822   0.68903   -1.000
 3842.00    0.73709   0.72737   -1.000
 3843.00    0.76949   0.76120   -1.000
 3844.00    0.79112   0.78713  505.363
 3845.00    0.80556   0.80572  505.363
 3846.00    0.81917   0.81959  505.363
 3847.00    0.83182   0.82909  505.363
 3848.00    0.82704   0.83259  505.363
 3849.00    0.81597   0.83187   -1.000
 3850.00    0.81127   0.83432   -1.000
 3851.00    0.83274   0.84485   -1.000
 3852.00    0.85742   0.85925  505.363
 3853.00    0.85904   0.86874   -1.000
 3854.00    0.86201   0.86816  505.363
 3855.00    0.84412   0.85952   91.446
 3856.00    0.82703   0.84901   66.400
 3857.00    0.82903   0.84074   66.740
 3858.00    0.82301   0.83573  161.158
 3859.00    0.82630   0.83614   -1.000
 3860.00    0.83133   0.84362   -1.000
 3861.00    0.84450   0.85499   -1.000
 3862.00    0.87594   0.86415   -1.000
 3863.00    0.88536   0.86814   -1.000
 3864.00    0.89294   0.86818   -1.000
 3865.00    0.89475   0.86754   -1.000
 3866.00    0.89323   0.86971   -1.000
 3867.00    0.88636   0.87492   -1.000
 3868.00    0.88337   0.87844   91.725
 3869.00    0.88615   0.87397  162.122
 3870.00    0.85920   0.85964  505.363
 3871.00    0.82617   0.83925   -1.000
 3872.00    0.81243   0.82097   -1.000
 3873.00    0.81122   0.81316  505.363
 3874.00    0.82345   0.81605   -1.000
 3875.00    0.84822   0.82019   -1.000
 3876.00    0.84230   0.81467   -1.000
 3877.00    0.80966   0.79937   -1.000
 3878.00    0.78696   0.78456  505.363
 3879.00    0.78298   0.77825  505.363
 3880.00    0.79134   0.77718   -1.000
 3881.00    0.78797   0.77130   -1.000
 3882.00    0.77068   0.75653   -1.000
 3883.00    0.75598   0.73418   -1.000
 3884.00    0.74440   0.70294   -1.000
 3885.00    0.71937   0.65986   -1.000
 3886.00    0.66892   0.60627   -1.000
 3887.00    0.61412   0.55378   -1.000
 3888.00    0.57191   0.52040   -1.000
 3889.00    0.55503   0.51948   -1.000
 3890.00    0.59769   0.55247   -1.000
 3891.00    0.65857   0.60556   -1.000
 3892.00    0.70356   0.65730   -1.000
 3893.00    0.72510   0.69468   -1.000
 3894.00    0.73746   0.71895   -1.000
 3895.00    0.76313   0.73780   -1.000
 3896.00    0.77709   0.75650   -1.000
 3897.00    0.79339   0.77368   -1.000
 3898.00    0.80775   0.78532   -1.000
 3899.00    0.80659   0.79245   -1.000
 3900.00    0.81763   0.80134   -1.000
 3901.00    0.83039   0.81340   -1.000
 3902.00    0.84963   0.82368   -1.000
 3903.00    0.86329   0.82807   -1.000
 3904.00    0.84762   0.82768   -1.000
 3905.00    0.82781   0.82835  416.022
 3906.00    0.84343   0.83653   -1.000
 3907.00    0.87370   0.85511   -1.000
 3908.00    0.88007   0.87932  392.128
 3909.00    0.89284   0.89962  389.400
 3910.00    0.91284   0.90974  392.068
 3911.00    0.91497   0.90960  399.304
 3912.00    0.90516   0.90185  408.458
 3913.00    0.89479   0.89055  414.909
 3914.00    0.89253   0.88210   -1.000
 3915.00    0.89026   0.88053   -1.000
 3916.00    0.88137   0.88268  448.160
 3917.00    0.88109   0.88292  469.310
 3918.00    0.88277   0.87929  482.591
 3919.00    0.85668   0.87436   -1.000
 3920.00    0.86374   0.87127  474.211
 3921.00    0.86884   0.87042  474.472
 3922.00    0.87222   0.87105  492.747
 3923.00    0.89287   0.87183   -1.000
 3924.00    0.88573   0.86981   -1.000
 3925.00    0.86836   0.85990   95.930
 3926.00    0.84138   0.83906   79.611
 3927.00    0.81785   0.80810   93.212
 3928.00    0.77632   0.76826  109.936
 3929.00    0.73587   0.71945  129.101
 3930.00    0.67058   0.65716  143.971
 3931.00    0.56690   0.58012  143.065
 3932.00    0.48507   0.50319  127.264
 3933.00    0.43242   0.45578  106.414
 3934.00    0.44765   0.46216   87.487
 3935.00    0.51645   0.51903   73.121
 3936.00    0.60491   0.59964  191.900
 3937.00    0.67555   0.67910  505.363
 3938.00    0.74780   0.74492   -1.000
 3939.00    0.79346   0.79294  505.363
 3940.00    0.82934   0.82450   -1.000
 3941.00    0.85215   0.84220   -1.000
 3942.00    0.86389   0.84998   -1.000
 3943.00    0.86829   0.85370   -1.000
 3944.00    0.86389   0.85796   -1.000
 3945.00    0.86791   0.86451  436.735
 3946.00    0.88275   0.87152   -1.000
 3947.00    0.89036   0.87459   -1.000
 3948.00    0.88208   0.87194   -1.000
 3949.00    0.88772   0.86624   -1.000
 3950.00    0.88262   0.86119   -1.000
 3951.00    0.88338   0.85847   -1.000
 3952.00    0.89576   0.85928   -1.000
 3953.00    0.91256   0.86262   -1.000
 3954.00    0.90221   0.86353   -1.000
 3955.00    0.88330   0.85821   -1.000
 3956.00    0.87998   0.84795   -1.000
 3957.00    0.87117   0.83849   -1.000
 3958.00    0.85479   0.83212   -1.000
 3959.00    0.85066   0.82249   -1.000
 3960.00    0.83892   0.80310   -1.000
 3961.00    0.80161   0.77361   87.865
 3962.00    0.74837   0.73805   75.287
 3963.00    0.72182   0.69841   91.615
 3964.00    0.68502   0.64835   -1.000
 3965.00    0.61186   0.58060   -1.000
 3966.00    0.51995   0.49541   -1.000
 3967.00    0.40944   0.40783  104.899
 3968.00    0.33700   0.34492   86.192
 3969.00    0.33871   0.32903   71.814
 3970.00    0.38983   0.36420   -1.000
 3971.00    0.46929   0.43567   -1.000
 3972.00    0.56310   0.51922   -1.000
 3973.00    0.65077   0.59639   -1.000
 3974.00    0.71388   0.66100   -1.000
 3975.00    0.75862   0.71297   -1.000
 3976.00    0.79599   0.75427   -1.000
 3977.00    0.82818   0.78692   -1.000
 3978.00    0.85421   0.81308   -1.000
 3979.00    0.87668   0.83254   -1.000
 3980.00    0.88984   0.84386   -1.000
 3981.00    0.88011   0.84933   -1.000
 3982.00    0.88674   0.85474   -1.000
 3983.00    0.90615   0.86501   -1.000
 3984.00    0.91550   0.87957   -1.000
 3985.00    0.91775   0.89325   -1.000
 3986.00    0.93003   0.90283   -1.000
 3987.00    0.95437   0.91047   -1.000
 3988.00    0.95345   0.91775   -1.000
 3989.00    0.94780   0.92383   -1.000
 3990.00    0.95680   0.92979   -1.000
 3991.00    0.96839   0.93714   -1.000
 3992.00    0.98664   0.94559   -1.000
 3993.00    0.99857   0.95164   -1.000
 3994.00    0.98283   0.95065   -1.000
 3995.00    0.95575   0.94159   -1.000
 3996.00    0.93681   0.92972  331.658
 3997.00    0.94629   0.92334   -1.000
 3998.00    0.95309   0.92646   -1.000
 3999.00    0.95424   0.93579   -1.000
 4000.00    0.97037   0.94511   -1.000
 4001.00    0.98215   0.95032   -1.000
 4002.00    0.99054   0.95034   -1.000
 4003.00    1.00325   0.94577   -1.000
 4004.00    0.97125   0.93859   -1.000
 4005.00    0.94046   0.93417  319.129
 4006.00    0.95329   0.93798   -1.000
 4007.00    0.94675   0.94966  309.708
 4008.00    0.98118   0.96284   -1.000
 4009.00    0.99381   0.97139   -1.000
 4010.00    0.98341   0.97416  311.582
 4011.00    0.97964   0.97301  310.073
 4012.00    0.97525   0.97073  306.038
 4013.00    0.97502   0.97056  307.225
 4014.00    0.98705   0.97414   -1.000
 4015.00    0.98889   0.98034  310.469
 4016.00    0.99751   0.98695  306.256
 4017.00    0.99228   0.99290  305.850
 4018.00    1.00749   0.99816  309.643
 4019.00    1.01505   1.00194   -1.000
 4020.00    1.00909   1.00209  314.031
 4021.00    1.00703   0.99724  316.420
 4022.00    1.00372   0.98861   -1.000
 4023.00    1.00592   0.97927   -1.000
 4024.00    1.01146   0.97357   -1.000
 4025.00    1.01430   0.97546   -1.000
 4026.00    1.01940   0.98382   -1.000
 4027.00    1.01732   0.99112   -1.000
 4028.00    1.01695   0.99096   -1.000
 4029.00    0.98316   0.98305  345.232
 4030.00    0.97547   0.97196  342.408
 4031.00    0.97354   0.96387   -1.000
 4032.00    0.96368   0.96215  316.886
 4033.00    0.96543   0.96663  301.171
 4034.00    0.95858   0.97630   -1.000
 4035.00    0.98435   0.98993  286.968
 4036.00    1.01530   1.00541  291.781
 4037.00    1.01843   1.01830  298.692
 4038.00    1.02467   1.02388  302.697
 4039.00    1.01609   1.02219  304.476
 4040.00    0.99206   1.01707   -1.000
 4041.00    1.00000   1.01158   -1.000
 4042.00    0.99942   1.00417  373.205
 4043.00    0.99430   0.99079  365.765
 4044.00    0.98051   0.97266  333.282
 4045.00    0.94637   0.95866   -1.000
 4046.00    0.94812   0.95919   -1.000
 4047.00    0.96776   0.97440  295.808
 4048.00    0.98901   0.99337  296.893
 4049.00    1.01018   1.00618  304.018
 4050.00    1.01824   1.01094  312.058
 4051.00    1.01339   1.00969  317.496
 4052.00    1.00472   1.00449  320.438
 4053.00    1.00677   0.99834  322.659
 4054.00    0.99774   0.99454  325.842
 4055.00    1.00308   0.99412  323.260
 4056.00    1.00886   0.99583   -1.000
 4057.00    0.99944   0.99925  305.608
 4058.00    1.00849   1.00524  308.924
 4059.00    1.00777   1.01048  328.648
 4060.00    1.00894   1.00842  351.942
 4061.00    1.00525   0.99704  351.534
 4062.00    0.97443   0.98050  335.861
 4063.00    0.95447   0.96489   -1.000
 4064.00    0.96574   0.95520   -1.000
 4065.00    0.96825   0.95398   -1.000
 4066.00    0.97914   0.95866   -1.000
 4067.00    0.99830   0.96378   -1.000
 4068.00    0.99865   0.96601   -1.000
 4069.00    0.99934   0.96341   -1.000
 4070.00    0.99612   0.95480   -1.000
 4071.00    0.97661   0.94445   -1.000
 4072.00    0.98161   0.93980   -1.000
 4073.00    0.98924   0.94225   -1.000
 4074.00    0.99368   0.94434   -1.000
 4075.00    0.97302   0.93717   -1.000
 4076.00    0.95014   0.92159   -1.000
 4077.00    0.94015   0.90850   -1.000
 4078.00    0.93828   0.90907   -1.000
 4079.00    0.94306   0.92388   -1.000
 4080.00    0.95718   0.94235   -1.000
 4081.00    0.95746   0.95359  317.569
 4082.00    0.96865   0.95419   -1.000
 4083.00    0.96000   0.94737   -1.000
 4084.00    0.96243   0.93874   -1.000
 4085.00    0.96322   0.93351   -1.000
 4086.00    0.96180   0.93406   -1.000
 4087.00    0.97196   0.93877   -1.000
 4088.00    0.98403   0.94342   -1.000
 4089.00    0.98037   0.94395   -1.000
 4090.00    0.96723   0.93957   -1.000
 4091.00    0.95627   0.93154   -1.000
 4092.00    0.96165   0.91950   -1.000
 4093.00    0.93107   0.90359   -1.000
 4094.00    0.91306   0.88458   -1.000
 4095.00    0.88478   0.86201   -1.000
 4096.00    0.85580   0.83456   -1.000
 4097.00    0.85118   0.80000   -1.000
 4098.00    0.82584   0.75591   -1.000
 4099.00    0.76738   0.70078   -1.000
 4100.00    0.68841   0.64315   -1.000
 4101.00    0.64425   0.60433   -1.000
 4102.00    0.63942   0.60538   -1.000
 4103.00    0.68642   0.64788   -1.000
 4104.00    0.75712   0.71171   -1.000
 4105.00    0.79882   0.77135   -1.000
 4106.00    0.83850   0.81358   -1.000
 4107.00    0.87274   0.83977   -1.000
 4108.00    0.87587   0.85628   -1.000
 4109.00    0.88887   0.86894   -1.000
 4110.00    0.91210   0.88139   -1.000
 4111.00    0.92765   0.89574   -1.000
 4112.00    0.93846   0.91193   -1.000
 4113.00    0.95336   0.92839   -1.000
 4114.00    0.96544   0.94320   -1.000
 4115.00    0.96594   0.95343   -1.000
 4116.00    0.97013   0.95666   -1.000
 4117.00    0.96866   0.95345   -1.000
 4118.00    0.96196   0.94765   -1.000
 4119.00    0.96513   0.94419   -1.000
 4120.00    0.95982   0.94534   -1.000
 4121.00    0.96899   0.94930   -1.000
 4122.00    0.96949   0.95407   -1.000
 4123.00    0.96570   0.96019  311.289
 4124.00    0.99730   0.96754   -1.000
 4125.00    0.99325   0.97279   -1.000
 4126.00    0.99160   0.97270   -1.000
 4127.00    0.97874   0.96826  326.443
 4128.00    0.97196   0.96366  336.062
 4129.00    0.97127   0.96096   -1.000
 4130.00    0.98669   0.95852   -1.000
 4131.00    0.97892   0.95528   -1.000
 4132.00    0.96798   0.95452   -1.000
 4133.00    0.97456   0.96055   -1.000
 4134.00    0.98798   0.97264   -1.000
 4135.00    0.98724   0.98649  300.594
 4136.00    1.00190   0.99915  299.004
 4137.00    1.00464   1.00997  304.334
 4138.00    1.01422   1.01869  319.353
 4139.00    1.01702   1.02299  345.394
 4140.00    1.01346   1.01953   -1.000
 4141.00    0.99914   1.00760   -1.000
 4142.00    0.98730   0.99138  334.406
 4143.00    0.97644   0.97936  321.060
 4144.00    0.97247   0.97850  316.820
 4145.00    0.97611   0.98795   -1.000
 4146.00    0.99658   0.99948  330.720
 4147.00    1.01072   1.00569  335.414
 4148.00    1.00418   1.00646  333.628
 4149.00    0.99499   1.00592   -1.000
 4150.00    1.00561   1.00656  334.218
 4151.00    1.02692   1.00687   -1.000
 4152.00    1.20646   1.00446   -1.000
 4153.00    1.28150   0.99980   -1.000
 4154.00    0.76223   0.99591   -1.000
 4155.00    0.76568   0.99567   -1.000
 4156.00    1.03924   0.99961   -1.000
 4157.00    1.03443   1.00641   -1.000
 4158.00    0.99986   1.01341   -1.000
 4159.00    1.00540   1.01768   -1.000
 4160.00    1.01279   1.01828  307.938
 4161.00    1.02086   1.01710  312.767
 4162.00    1.02328   1.01750  317.504
 4163.00    1.01852   1.02121  324.474
 4164.00    1.01213   1.02681   -1.000
 4165.00    0.99274   1.03031   -1.000
 4166.00    1.00496   1.02932   -1.000
 4167.00    1.00397   1.02574   -1.000
 4168.00    0.99527   1.02167   -1.000
 4169.00    0.99918   1.01531   -1.000
 4170.00    0.98573   1.00231   -1.000
 4171.00    0.97042   0.98314   -1.000
 4172.00    0.96532   0.96632  341.940
 4173.00    0.96677   0.96094  340.612
 4174.00    0.95730   0.96917   -1.000
 4175.00    0.96818   0.98257   -1.000
 4176.00    0.97650   0.98979   -1.000
 4177.00    0.98055   0.98897   -1.000
 4178.00    0.97143   0.98754   -1.000
 4179.00    0.98009   0.99218   -1.000
 4180.00    0.98851   1.00024   -1.000
 4181.00    1.00565   1.00503  317.303
 4182.00    1.00504   1.00636  317.301
 4183.00    0.98928   1.00776   -1.000
 4184.00    0.98382   1.00939   -1.000
 4185.00    1.00897   1.00868  334.886
 4186.00    0.98039   1.00451   -1.000
 4187.00    0.95926   1.00019   -1.000
 4188.00    0.95990   0.99950   -1.000
 4189.00    0.97770   1.00157   -1.000
 4190.00    0.98365   1.00341   -1.000
 4191.00    0.98900   1.00469   -1.000
 4192.00    1.01136   1.00724  334.341
 4193.00    1.00544   1.01076  345.927
 4194.00    1.01409   1.01064  352.368
 4195.00    1.00947   1.00330  353.473
 4196.00    0.98955   0.99061  349.864
 4197.00    0.95655   0.97715   -1.000
 4198.00    0.94912   0.96731   -1.000
 4199.00    0.95573   0.96377   -1.000
 4200.00    0.96888   0.96517  335.745
 4201.00    0.97658   0.96777  333.163
 4202.00    0.97615   0.97084  326.899
 4203.00    0.97880   0.97590  318.774
 4204.00    0.97735   0.98233  312.454
 4205.00    0.98327   0.98876  310.657
 4206.00    0.98638   0.99528   -1.000
 4207.00    0.98946   1.00108   -1.000
 4208.00    0.99073   1.00448   -1.000
 4209.00    0.99418   1.00603   -1.000
 4210.00    0.99478   1.00790   -1.000
 4211.00    0.99499   1.01113   -1.000
 4212.00    0.99564   1.01306   -1.000
 4213.00    0.98984   1.00868   -1.000
 4214.00    0.96964   0.99772   -1.000
 4215.00    0.96986   0.98657   -1.000
 4216.00    0.97139   0.98336   -1.000
 4217.00    0.97688   0.99036   -1.000
 4218.00    0.99597   1.00200  289.345
 4219.00    1.00194   1.01189   -1.000
 4220.00    1.00265   1.01757   -1.000
 4221.00    0.99051   1.01761   -1.000
 4222.00    0.98977   1.00974   -1.000
 4223.00    0.97772   0.99181   -1.000
 4224.00    0.96802   0.96667  409.788
 4225.00    0.92764   0.94270   -1.000
 4226.00    0.90288   0.93101   -1.000
 4227.00    0.90321   0.94001   -1.000
 4228.00    0.93650   0.96765   -1.000
 4229.00    0.96540   0.99858   -1.000
 4230.00    0.98971   1.01552   -1.000
 4231.00    0.99516   1.01415   -1.000
 4232.00    0.97872   1.00229   -1.000
 4233.00    0.97476   0.99011   -1.000
 4234.00    0.96648   0.98460   -1.000
 4235.00    0.95258   0.98616   -1.000
 4236.00    0.96045   0.99050   -1.000
 4237.00    0.97569   0.99560   -1.000
 4238.00    0.97541   1.00191   -1.000
 4239.00    0.97006   1.00931   -1.000
 4240.00    0.98789   1.01684   -1.000
 4241.00    0.99031   1.02269   -1.000
 4242.00    0.99209   1.02552   -1.000
 4243.00    0.99255   1.02473   -1.000
 4244.00    1.00153   1.01993   -1.000
 4245.00    0.99068   1.01054   -1.000
 4246.00    0.96585   0.99826   -1.000
 4247.00    0.94466   0.98793   -1.000
 4248.00    0.92927   0.98294   -1.000
 4249.00    0.92988   0.98241   -1.000
 4250.00    0.94563   0.98546   -1.000
 4251.00    0.95832   0.99207   -1.000
 4252.00    0.97341   0.99945   -1.000
 4253.00    0.97316   1.00418   -1.000
 4254.00    0.96454   1.00617   -1.000
 4255.00    0.95908   1.00785   -1.000
 4256.00    0.97215   1.00964   -1.000
 4257.00    0.97501   1.00812   -1.000
 4258.00    0.97059   1.00163   -1.000
 4259.00    0.96971   0.99408   -1.000
 4260.00    0.96161   0.99151   -1.000
 4261.00    0.95851   0.99741   -1.000
 4262.00    0.96752   1.01014   -1.000
 4263.00    0.97963   1.02335   -1.000
 4264.00    0.99591   1.03076   -1.000
 4265.00    0.99539   1.03132   -1.000
 4266.00    0.97822   1.02768   -1.000
 4267.00    0.95671   1.02107   -1.000
 4268.00    0.95609   1.01101   -1.000
 4269.00    0.96808   0.99681   -1.000
 4270.00    0.95805   0.98017   -1.000
 4271.00    0.92974   0.96648   -1.000
 4272.00    0.91286   0.96128   -1.000
 4273.00    0.92335   0.96570   -1.000
 4274.00    0.92830   0.97676   -1.000
 4275.00    0.95396   0.99120   -1.000
 4276.00    0.97112   1.00670   -1.000
 4277.00    0.97766   1.01905   -1.000
 4278.00    0.99074   1.02372   -1.000
 4279.00    0.97453   1.01999   -1.000
 4280.00    0.95204   1.01148   -1.000
 4281.00    0.95173   1.00353   -1.000
 4282.00    0.95665   0.99933   -1.000
 4283.00    0.95856   0.99883   -1.000
 4284.00    0.96428   0.99902   -1.000
 4285.00    0.94973   0.99527   -1.000
 4286.00    0.93469   0.98480   -1.000
 4287.00    0.93337   0.96882   -1.000
 4288.00    0.91048   0.95119   -1.000
 4289.00    0.90274   0.93794   -1.000
 4290.00    0.90221   0.93536   -1.000
 4291.00    0.90617   0.94352   -1.000
 4292.00    0.92548   0.95362   -1.000
 4293.00    0.93150   0.95688   -1.000
 4294.00    0.93812   0.95435   -1.000
 4295.00    0.94094   0.95139   -1.000
 4296.00    0.93719   0.94694   -1.000
 4297.00    0.91716   0.93627   -1.000
 4298.00    0.87765   0.91792   -1.000
 4299.00    0.85051   0.89626   -1.000
 4300.00    0.84863   0.87944   -1.000
 4301.00    0.84215   0.87319   -1.000
 4302.00    0.84123   0.87754   -1.000
 4303.00    0.85457   0.88875   -1.000
 4304.00    0.87750   0.90019   -1.000
 4305.00    0.87222   0.90436   -1.000
 4306.00    0.85011   0.89956   -1.000
 4307.00    0.82857   0.89175   -1.000
 4308.00    0.82249   0.88909   -1.000
 4309.00    0.83166   0.89481   -1.000
 4310.00    0.84619   0.90502   -1.000
 4311.00    0.85517   0.91252   -1.000
 4312.00    0.86978   0.91399   -1.000
 4313.00    0.88884   0.91518   -1.000
 4314.00    0.89677   0.92513   -1.000
 4315.00    0.93594   0.94720   -1.000
 4316.00    0.97035   0.97449  273.910
 4317.00    0.98914   0.99526  280.218
 4318.00    0.99003   1.00331   -1.000
 4319.00    0.97979   1.00052   -1.000
 4320.00    0.96140   0.99247   -1.000
 4321.00    0.95087   0.98312   -1.000
 4322.00    0.94133   0.97183   -1.000
 4323.00    0.92843   0.95604   -1.000
 4324.00    0.89574   0.93791   -1.000
 4325.00    0.88350   0.92744   -1.000
 4326.00    0.90666   0.93192   -1.000
 4327.00    0.92156   0.94616   -1.000
 4328.00    0.94272   0.95801   -1.000
 4329.00    0.93875   0.96015   -1.000
 4330.00    0.93670   0.95516   -1.000
 4331.00    0.93360   0.94870   -1.000
 4332.00    0.93846   0.94141  278.117
 4333.00    0.92365   0.92975  296.851
 4334.00    0.90863   0.90969  326.418
 4335.00    0.86919   0.87772   -1.000
 4336.00    0.85347   0.83095   -1.000
 4337.00    0.79904   0.77016   -1.000
 4338.00    0.74153   0.70565   -1.000
 4339.00    0.67026   0.65479   -1.000
 4340.00    0.62940   0.63534  307.397
 4341.00    0.64679   0.65721   -1.000
 4342.00    0.70731   0.71231  290.132
 4343.00    0.78265   0.77696  285.386
 4344.00    0.81688   0.83173   -1.000
 4345.00    0.86973   0.87271  277.709
 4346.00    0.87784   0.90400   -1.000
 4347.00    0.90656   0.92698   -1.000
 4348.00    0.92352   0.93915   -1.000
 4349.00    0.93307   0.93883  321.241
 4350.00    0.92268   0.93041  307.019
 4351.00    0.90214   0.92377   -1.000
 4352.00    0.90513   0.92775   -1.000
 4353.00    0.93048   0.94400   -1.000
 4354.00    0.94927   0.96610   -1.000
 4355.00    0.94548   0.98495   -1.000
 4356.00    0.96254   0.99559   -1.000
 4357.00    0.96027   0.99878   -1.000
 4358.00    0.94915   0.99871   -1.000
 4359.00    0.94561   1.00023   -1.000
 4360.00    0.95202   1.00561   -1.000
 4361.00    0.98364   1.01365   -1.000
 4362.00    1.00527   1.02163   -1.000
 4363.00    0.99215   1.02715   -1.000
 4364.00    0.99588   1.02870   -1.000
 4365.00    0.99808   1.02559   -1.000
 4366.00    0.99295   1.01809   -1.000
 4367.00    0.97654   1.00881   -1.000
 4368.00    0.96874   1.00174   -1.000
 4369.00    0.98217   0.99855   -1.000
 4370.00    0.98023   0.99761   -1.000
 4371.00    0.98564   0.99519   -1.000
 4372.00    1.00046   0.98782   -1.000
 4373.00    0.98714   0.97563   -1.000
 4374.00    0.97674   0.96507   -1.000
 4375.00    0.95133   0.96515   -1.000
 4376.00    0.94478   0.97842   -1.000
 4377.00    0.96767   0.99736   -1.000
 4378.00    0.99743   1.01136   -1.000
 4379.00    0.99044   1.01509   -1.000
 4380.00    0.97934   1.00809   -1.000
 4381.00    0.99349   0.99028  371.814
 4382.00    0.96691   0.96476  335.283
 4383.00    0.93784   0.94132  304.152
 4384.00    0.91583   0.93118   -1.000
 4385.00    0.93966   0.93859  296.612
 4386.00    0.96993   0.95700   -1.000
 4387.00    0.98691   0.97523   -1.000
 4388.00    0.98857   0.98673  294.244
 4389.00    0.98195   0.99113   -1.000
 4390.00    0.98713   0.99174  290.513
 4391.00    0.98033   0.99154   -1.000
 4392.00    0.98867   0.98907  294.957
 4393.00    0.99229   0.98150  280.770
 4394.00    0.97484   0.97236  273.381
 4395.00    0.96238   0.97029  278.253
 4396.00    0.97287   0.97731  288.975
 4397.00    0.99552   0.98532  296.945
 4398.00    0.99021   0.98654  292.570
 4399.00    0.97861   0.98228  287.767
 4400.00    0.98662   0.98013  299.298
 4401.00    0.97604   0.98378  316.795
 4402.00    0.98376   0.98916  317.710
 4403.00    0.97962   0.99115   -1.000
 4404.00    0.96711   0.98992   -1.000
 4405.00    0.96225   0.98939   -1.000
 4406.00    0.96698   0.99131   -1.000
 4407.00    0.98189   0.99380   -1.000
 4408.00    0.98501   0.99629   -1.000
 4409.00    0.99701   1.00126  263.857
 4410.00    0.99283   1.00935   -1.000
 4411.00    0.99900   1.01638   -1.000
 4412.00    1.01997   1.01670  297.578
 4413.00    1.01389   1.00762  294.614
 4414.00    0.97771   0.99138   -1.000
 4415.00    0.95625   0.97528   -1.000
 4416.00    0.97439   0.96775  264.964
 4417.00    0.97549   0.97316  267.414
 4418.00    0.97402   0.98899   -1.000
 4419.00    0.99357   1.00707   -1.000
 4420.00    1.01165   1.01899  277.217
 4421.00    1.00023   1.02234   -1.000
 4422.00    0.98561   1.02145   -1.000
 4423.00    0.99089   1.02055   -1.000
 4424.00    1.00122   1.01944   -1.000
 4425.00    0.99510   1.01718   -1.000
 4426.00    0.98522   1.01527   -1.000
 4427.00    0.98942   1.01593   -1.000
 4428.00    0.99542   1.01923   -1.000
 4429.00    0.99854   1.02308   -1.000
 4430.00    0.98607   1.02558   -1.000
 4431.00    1.00058   1.02611   -1.000
 4432.00    1.01190   1.02394   -1.000
 4433.00    0.99661   1.01843   -1.000
 4434.00    0.97731   1.01183   -1.000
 4435.00    0.97811   1.01017   -1.000
 4436.00    0.98134   1.01815   -1.000
 4437.00    1.01014   1.03279   -1.000
 4438.00    1.02634   1.04489   -1.000
 4439.00    1.02494   1.04627   -1.000
 4440.00    1.01020   1.03495   -1.000
 4441.00    1.01508   1.01557  279.460
 4442.00    0.98308   0.99739   -1.000
 4443.00    0.96083   0.99021   -1.000
 4444.00    0.98402   0.99796   -1.000
 4445.00    1.00391   1.01479   -1.000
 4446.00    1.01830   1.03001   -1.000
 4447.00    1.03025   1.03760  270.175
 4448.00    1.02320   1.03868   -1.000
 4449.00    1.02007   1.03693   -1.000
 4450.00    1.02543   1.03560   -1.000
 4451.00    1.02330   1.03590   -1.000
 4452.00    1.01160   1.03550   -1.000
 4453.00    1.01818   1.03083   -1.000
 4454.00    1.01027   1.02309   -1.000
 4455.00    0.97488   1.01860   -1.000
 4456.00    0.98862   1.02104   -1.000
 4457.00    0.99931   1.02705   -1.000
 4458.00    1.01361   1.03110   -1.000
 4459.00    1.01583   1.03129   -1.000
 4460.00    1.00674   1.02951   -1.000
 4461.00    1.00443   1.02875   -1.000
 4462.00    0.99983   1.03022   -1.000
 4463.00    1.00731   1.03258   -1.000
 4464.00    1.01812   1.03369   -1.000
 4465.00    1.01570   1.03151   -1.000
 4466.00    1.00994   1.02455   -1.000
 4467.00    1.00932   1.01422  277.102
 4468.00    0.99289   1.00602   -1.000
 4469.00    0.99639   1.00580  258.833
 4470.00    1.00771   1.01483  252.368
 4471.00    1.02237   1.02902  250.767
 4472.00    1.03165   1.04286   -1.000
 4473.00    1.04142   1.05287   -1.000
 4474.00    1.03823   1.05818   -1.000
 4475.00    1.04237   1.05994   -1.000
 4476.00    1.04621   1.06012   -1.000
 4477.00    1.03894   1.05854   -1.000
 4478.00    1.03474   1.05175   -1.000
 4479.00    1.04873   1.03792  274.171
 4480.00    1.03311   1.02214  262.172
 4481.00    1.01127   1.01411  252.785
 4482.00    1.00565   1.01989   -1.000
 4483.00    1.00951   1.03623   -1.000
 4484.00    1.03449   1.05378   -1.000
 4485.00    1.04027   1.06463   -1.000
 4486.00    1.03955   1.06564   -1.000
 4487.00    1.03554   1.05798   -1.000
 4488.00    1.02614   1.04730   -1.000
 4489.00    1.02663   1.04092   -1.000
 4490.00    1.02860   1.04229   -1.000
 4491.00    1.02968   1.04855   -1.000
 4492.00    1.03013   1.05352   -1.000
 4493.00    1.02771   1.05384   -1.000
 4494.00    1.01537   1.05170   -1.000
 4495.00    1.01644   1.05072   -1.000
 4496.00    1.02725   1.05187   -1.000
 4497.00    1.02997   1.05340   -1.000
 4498.00    1.03172   1.05225   -1.000
 4499.00    1.02564   1.04648   -1.000
 4500.00    1.01506   1.03913   -1.000
 4501.00    1.02048   1.03725   -1.000
 4502.00    1.04565   1.04454  238.740
 4503.00    1.05323   1.05706  243.565
 4504.00    1.04692   1.06708   -1.000
 4505.00    1.05371   1.06989   -1.000
 4506.00    1.06511   1.06633  243.351
 4507.00    1.05570   1.06085  242.116
 4508.00    1.04340   1.05837   -1.000
 4509.00    1.04385   1.06045   -1.000
 4510.00    1.05657   1.06421  253.803
 4511.00    1.05786   1.06602  254.855
 4512.00    1.04246   1.06469   -1.000
 4513.00    1.04394   1.06083   -1.000
 4514.00    1.04225   1.05591   -1.000
 4515.00    1.03793   1.05214   -1.000
 4516.00    1.04568   1.05034  252.786
 4517.00    1.04217   1.04874  248.479
 4518.00    1.02900   1.04549   -1.000
 4519.00    1.03253   1.04163  256.396
 4520.00    1.04900   1.03895  261.153
 4521.00    1.04937   1.03675  263.480
 4522.00    1.02462   1.03409  268.530
 4523.00    1.01475   1.03268   -1.000
 4524.00    1.02873   1.03390  284.134
 4525.00    1.02236   1.03547   -1.000
 4526.00    1.02714   1.03379  283.736
 4527.00    1.03399   1.02819  278.547
 4528.00    1.00739   1.02201   -1.000
 4529.00    0.99949   1.01950   -1.000
 4530.00    1.00292   1.02092   -1.000
 4531.00    1.00330   1.02113   -1.000
 4532.00    1.00849   1.01508  283.949
 4533.00    1.00627   1.00524  266.979
 4534.00    0.99535   1.00069  252.405
 4535.00    0.99730   1.00783  247.341
 4536.00    1.01988   1.02434  250.751
 4537.00    1.03061   1.04238   -1.000
 4538.00    1.03161   1.05484   -1.000
 4539.00    1.04678   1.05883   -1.000
 4540.00    0.92290   1.05646   -1.000
 4541.00    0.16998   1.05262   -2.000
 4542.00   -0.02062   1.05080   -2.000
 4543.00    0.13969   1.05067   -2.000
 4544.00    0.76233   1.05024   -1.000
 4545.00    0.34698   1.04889   -1.000
 4546.00    0.79801   1.04555   -1.000
 4547.00    1.07269   1.03681   -1.000
 4548.00    1.01104   1.02230   -1.000
 4549.00    1.00137   1.00993  265.676
 4550.00    0.99699   1.00908   -1.000
 4551.00    1.00827   1.01805  271.117
 4552.00    1.02744   1.02484  265.768
 4553.00    1.01606   1.02219  255.581
 4554.00    1.00717   1.01551  246.124
 4555.00    1.00970   1.01474  242.974
 4556.00    1.02713   1.02347  244.390
 4557.00    1.04792   1.03687  244.184
 4558.00    1.05454   1.04855  245.159
 4559.00    1.05585   1.05668  251.261
 4560.00    1.04930   1.06145   -1.000
 4561.00    1.04342   1.06073   -1.000
 4562.00    1.04020   1.05333   -1.000
 4563.00    1.03220   1.04406   -1.000
 4564.00    1.02363   1.04052   -1.000
 4565.00    1.02215   1.04537   -1.000
 4566.00    1.03477   1.05434   -1.000
 4567.00    1.05360   1.06125  252.392
 4568.00    1.06076   1.06241  257.661
 4569.00    1.05536   1.05701  254.345
 4570.00    1.04388   1.04669  247.022
 4571.00    1.02818   1.03676  244.317
 4572.00    1.02236   1.03464   -1.000
 4573.00    1.03276   1.04186  246.029
 4574.00    1.05168   1.05100  247.938
 4575.00    1.06301   1.05490  252.874
 4576.00    1.05059   1.05402  260.265
 4577.00    1.04204   1.05157  264.474
 4578.00    1.04750   1.04794  262.912
 4579.00    1.04750   1.04210  259.352
 4580.00    1.04053   1.03471  257.991
 4581.00    1.04135   1.02710   -1.000
 4582.00    1.03591   1.02018   -1.000
 4583.00    1.02490   1.01665  255.368
 4584.00    1.03336   1.01983   -1.000
 4585.00    1.03612   1.02833  244.359
 4586.00    1.02757   1.03665  244.925
 4587.00    1.04330   1.04098  248.895
 4588.00    1.03952   1.04139  253.551
 4589.00    1.03963   1.04034  257.238
 4590.00    1.04393   1.04026  256.830
 4591.00    1.03420   1.04162  254.553
 4592.00    1.02931   1.04392   -1.000
 4593.00    1.03148   1.04734   -1.000
 4594.00    1.04590   1.05211  251.685
 4595.00    1.04834   1.05752  251.623
 4596.00    1.04900   1.06202   -1.000
 4597.00    1.05778   1.06378  255.993
 4598.00    1.05193   1.06207  255.990
 4599.00    1.05529   1.05789  253.073
 4600.00    1.03415   1.05294   -1.000
 4601.00    1.04260   1.04904  251.252
 4602.00    1.03898   1.04760  250.345
 4603.00    1.03952   1.04882  247.076
 4604.00    1.04663   1.05155  241.994
 4605.00    1.05030   1.05439  237.231
 4606.00    1.05584   1.05689  235.280
 4607.00    1.06246   1.05931  236.938
 4608.00    1.06584   1.06162  240.202
 4609.00    1.06532   1.06328  242.623
 4610.00    1.07014   1.06358  243.603
 4611.00    1.06023   1.06252  242.070
 4612.00    1.05429   1.06119  240.097
 4613.00    1.06555   1.06037  239.696
 4614.00    1.06720   1.05925  241.469
 4615.00    1.06358   1.05657  242.871
 4616.00    1.06257   1.05262  242.121
 4617.00    1.05538   1.04892  239.390
 4618.00    1.04933   1.04673  236.246
 4619.00    1.05296   1.04721  236.496
 4620.00    1.06441   1.05115  237.094
 4621.00    1.07370   1.05741   -1.000
 4622.00    1.05602   1.06287  239.859
 4623.00    1.05367   1.06498   -1.000
 4624.00    1.06956   1.06383  240.399
 4625.00    1.06810   1.06121  241.833
 4626.00    1.06360   1.05823  241.937
 4627.00    1.05904   1.05461  240.306
 4628.00    1.05575   1.05083  238.239
 4629.00    1.04574   1.04958  240.004
 4630.00    1.05391   1.05278  243.465
 4631.00    1.06116   1.05812  245.498
 4632.00    1.05535   1.06119  245.595
 4633.00    1.06187   1.06059  247.976
 4634.00    1.05836   1.05894  250.858
 4635.00    1.05574   1.05910  251.476
 4636.00    1.06137   1.06105  250.210
 4637.00    1.05753   1.06332  245.353
 4638.00    1.05556   1.06575  239.812
 4639.00    1.06365   1.06921  237.566
 4640.00    1.07108   1.07369  239.481
 4641.00    1.07566   1.07783  244.624
 4642.00    1.06603   1.08020   -1.000
 4643.00    1.05751   1.08016   -1.000
 4644.00    1.06484   1.07749   -1.000
 4645.00    1.06078   1.07233   -1.000
 4646.00    1.04362   1.06618   -1.000
 4647.00    1.04341   1.06219   -1.000
 4648.00    1.04439   1.06265   -1.000
 4649.00    1.05766   1.06647  243.623
 4650.00    1.06779   1.07062  247.314
 4651.00    1.06581   1.07285  252.571
 4652.00    1.06585   1.07220  254.178
 4653.00    1.05748   1.06893   -1.000
 4654.00    1.04910   1.06450   -1.000
 4655.00    1.04540   1.06073   -1.000
 4656.00    1.04356   1.05947   -1.000
 4657.00    1.05577   1.06277  230.048
 4658.00    1.06443   1.07101  233.700
 4659.00    1.08595   1.08053  239.348
 4660.00    1.08377   1.08610  243.048
 4661.00    1.07747   1.08582  244.193
 4662.00    1.06627   1.08175   -1.000
 4663.00    1.07824   1.07671  260.934
 4664.00    1.06089   1.07127   -1.000
 4665.00    1.05188   1.06391   -1.000
 4666.00    1.05130   1.05429  257.678
 4667.00    1.03929   1.04557  247.653
 4668.00    1.03564   1.04205  242.374
 4669.00    1.03379   1.04492  241.564
 4670.00    1.05358   1.05196  241.718
 4671.00    1.06973   1.06005  240.739
 4672.00    1.07142   1.06661  237.337
 4673.00    1.07406   1.07095  234.878
 4674.00    1.07037   1.07418  237.237
 4675.00    1.07787   1.07686  242.494
 4676.00    1.08419   1.07762  247.079
 4677.00    1.07222   1.07498  250.718
 4678.00    1.05927   1.06958  251.694
 4679.00    1.05628   1.06363  247.478
 4680.00    1.06248   1.05884  241.811
 4681.00    1.05680   1.05641  239.770
 4682.00    1.05430   1.05706  240.601
 4683.00    1.05925   1.05990  240.970
 4684.00    1.06276   1.06299  242.079
 4685.00    1.06764   1.06498  242.023
 4686.00    1.08005   1.06590   -1.000
 4687.00    1.07889   1.06655  244.009
 4688.00    1.07405   1.06728  243.586
 4689.00    1.06797   1.06746  240.338
 4690.00    1.05935   1.06654  236.259
 4691.00    1.06520   1.06539  231.474
 4692.00    1.06512   1.06539  229.669
 4693.00    1.06384   1.06643  232.385
 4694.00    1.07848   1.06759  239.472
 4695.00    1.08168   1.06826  245.599
 4696.00    1.07265   1.06733  246.986
 4697.00    1.07491   1.06364  245.758
 4698.00    1.07682   1.05830   -1.000
 4699.00    1.07008   1.05359   -1.000
 4700.00    1.06941   1.04987   -1.000
 4701.00    1.07164   1.04589   -1.000
 4702.00    1.05960   1.04188   -1.000
 4703.00    1.04789   1.04023  249.352
 4704.00    1.05277   1.04233  253.760
 4705.00    1.06942   1.04573   -1.000
 4706.00    1.06570   1.04629   -1.000
 4707.00    1.05375   1.04309  244.307
 4708.00    1.04914   1.03972  238.782
 4709.00    1.05575   1.04032   -1.000
 4710.00    1.06748   1.04532   -1.000
 4711.00    1.07262   1.05112   -1.000
 4712.00    1.07119   1.05380   -1.000
 4713.00    1.07334   1.05267   -1.000
 4714.00    1.06831   1.05073   -1.000
 4715.00    1.05909   1.05148  232.991
 4716.00    1.06498   1.05533  232.195
 4717.00    1.07524   1.05971   -1.000
 4718.00    1.07716   1.06249   -1.000
 4719.00    1.07598   1.06382  234.994
 4720.00    1.07443   1.06435  233.144
 4721.00    1.07352   1.06436  231.356
 4722.00    1.07992   1.06472   -1.000
 4723.00    1.07691   1.06647  240.108
 4724.00    1.07026   1.06913  248.407
 4725.00    1.06715   1.07075  251.973
 4726.00    1.06371   1.06975  250.279
 4727.00    1.05885   1.06619  247.815
 4728.00    1.05811   1.06132  245.599
 4729.00    1.05785   1.05631  242.818
 4730.00    1.06644   1.05203   -1.000
 4731.00    1.06224   1.05016  239.625
 4732.00    1.06018   1.05212  239.394
 4733.00    1.06987   1.05617   -1.000
 4734.00    1.07760   1.05877   -1.000
 4735.00    1.07680   1.05837   -1.000
 4736.00    1.06207   1.05637  238.991
 4737.00    1.06008   1.05502  240.133
 4738.00    1.06767   1.05515  239.744
 4739.00    1.07613   1.05605   -1.000
 4740.00    1.07860   1.05720   -1.000
 4741.00    1.07405   1.05890   -1.000
 4742.00    1.07226   1.06151  235.930
 4743.00    1.07273   1.06475  233.888
 4744.00    1.07778   1.06788  232.038
 4745.00    1.07712   1.07075  231.885
 4746.00    1.08117   1.07395  232.217
 4747.00    1.07835   1.07770  232.813
 4748.00    1.07387   1.08129  234.867
 4749.00    1.08919   1.08394  237.377
 4750.00    1.08784   1.08562  239.228
 4751.00    1.07917   1.08637  240.238
 4752.00    1.08474   1.08575  240.126
 4753.00    1.07945   1.08381  241.385
 4754.00    1.06568   1.08157   -1.000
 4755.00    1.06779   1.08026   -1.000
 4756.00    1.07294   1.08052  240.621
 4757.00    1.07753   1.08172  241.517
 4758.00    1.07401   1.08246  246.178
 4759.00    1.06080   1.08153   -1.000
 4760.00    1.06122   1.07795   -1.000
 4761.00    1.05913   1.07127   -1.000
 4762.00    1.05736   1.06304  252.821
 4763.00    1.05108   1.05690  250.452
 4764.00    1.04134   1.05589   -1.000
 4765.00    1.04278   1.06024   -1.000
 4766.00    1.05724   1.06765  239.088
 4767.00    1.07292   1.07545  240.154
 4768.00    1.07664   1.08207  242.294
 4769.00    1.07541   1.08647  242.892
 4770.00    1.07203   1.08768   -1.000
 4771.00    1.06431   1.08600   -1.000
 4772.00    1.05898   1.08377   -1.000
 4773.00    1.07398   1.08354  234.492
 4774.00    1.07792   1.08556  235.468
 4775.00    1.08447   1.08787  237.398
 4776.00    1.08793   1.08867  239.726
 4777.00    1.08187   1.08724  240.827
 4778.00    1.06922   1.08336   -1.000
 4779.00    1.06366   1.07850   -1.000
 4780.00    1.06331   1.07614   -1.000
 4781.00    1.06724   1.07785  244.480
 4782.00    1.06665   1.08093   -1.000
 4783.00    1.06260   1.08207   -1.000
 4784.00    1.07242   1.08073  248.906
 4785.00    1.07131   1.07794  248.270
 4786.00    1.06753   1.07483  246.906
 4787.00    1.06853   1.07286  245.026
 4788.00    1.06208   1.07287  241.939
 4789.00    1.05851   1.07459   -1.000
 4790.00    1.06170   1.07775   -1.000
 4791.00    1.06541   1.08219   -1.000
 4792.00    1.06302   1.08719   -1.000
 4793.00    1.07316   1.09181   -1.000
 4794.00    1.08370   1.09495  237.784
 4795.00    1.08002   1.09536   -1.000
 4796.00    1.07929   1.09265   -1.000
 4797.00    1.07936   1.08814  239.577
 4798.00    1.07775   1.08424  235.079
 4799.00    1.07618   1.08339  232.996
 4800.00    1.07483   1.08622  234.411
 4801.00    1.07678   1.09057   -1.000
 4802.00    1.08172   1.09245  240.369
 4803.00    1.07941   1.08890  241.768
 4804.00    1.06571   1.08151   -1.000
 4805.00    1.06386   1.07570  240.643
 4806.00    1.07353   1.07526  239.164
 4807.00    1.07890   1.07932  237.103
 4808.00    1.08349   1.08443  235.588
 4809.00    1.08335   1.08751  234.730
 4810.00    1.07831   1.08792  234.420
 4811.00    1.08378   1.08759  233.740
 4812.00    1.08873   1.08889  232.669
 4813.00    1.08484   1.09230  231.184
 4814.00    1.07806   1.09604   -1.000
 4815.00    1.07363   1.09824   -1.000
 4816.00    1.08261   1.09888   -1.000
 4817.00    1.09147   1.09873  229.984
 4818.00    1.09976   1.09775  233.481
 4819.00    1.09306   1.09575  239.253
 4820.00    1.08518   1.09275  242.002
 4821.00    1.08014   1.08804  240.005
 4822.00    1.07276   1.08090  235.798
 4823.00    1.06246   1.07300  233.783
 4824.00    1.06779   1.06825  235.562
 4825.00    1.06944   1.06885  237.964
 4826.00    1.07852   1.07277  238.849
 4827.00    1.08531   1.07613  239.527
 4828.00    1.08158   1.07692  241.206
 4829.00    1.07563   1.07596  240.013
 4830.00    1.07449   1.07474  236.237
 4831.00    1.08206   1.07374  233.932
 4832.00    1.08056   1.07288  233.594
 4833.00    1.07465   1.07215  234.284
 4834.00    1.06787   1.07122  236.174
 4835.00    1.07473   1.06975  239.851
 4836.00    1.07060   1.06832  242.710
 4837.00    1.06452   1.06762  242.460
 4838.00    1.05884   1.06718  241.672
 4839.00    1.05684   1.06614  240.215
 4840.00    1.06274   1.06492  238.176
 4841.00    1.06496   1.06408  235.274
 4842.00    1.06479   1.06302  232.422
 4843.00    1.06066   1.06105  233.441
 4844.00    1.05567   1.05861  237.963
 4845.00    1.06016   1.05607  240.167
 4846.00    1.05664   1.05242  238.783
 4847.00    1.04331   1.04658  236.332
 4848.00    1.03835   1.03994  236.576
 4849.00    1.03783   1.03521  238.238
 4850.00    1.03332   1.03253  242.141
 4851.00    1.02610   1.02922  249.460
 4852.00    1.02081   1.02231  253.712
 4853.00    1.01477   1.00976  252.131
 4854.00    1.00024   0.99168  252.944
 4855.00    0.98486   0.97125   -1.000
 4856.00    0.97082   0.95088   -1.000
 4857.00    0.94806   0.92597   -1.000
 4858.00    0.91256   0.88557   -1.000
 4859.00    0.84995   0.82344   -1.000
 4860.00    0.76606   0.75303  273.342
 4861.00    0.70951   0.70725  259.909
 4862.00    0.73209   0.71350   -1.000
 4863.00    0.81165   0.76678   -1.000
 4864.00    0.88381   0.83585   -1.000
 4865.00    0.93363   0.89380   -1.000
 4866.00    0.96097   0.93459   -1.000
 4867.00    0.98274   0.96307   -1.000
 4868.00    0.99640   0.98250   -1.000
 4869.00    1.00979   0.99256   -1.000
 4870.00    1.01250   0.99403   -1.000
 4871.00    0.99387   0.99238  246.446
 4872.00    0.99902   0.99485  244.820
 4873.00    1.01383   1.00402  243.696
 4874.00    1.02171   1.01588  241.834
 4875.00    1.02473   1.02501  238.583
 4876.00    1.02616   1.03009  237.849
 4877.00    1.02589   1.03389  240.809
 4878.00    1.03304   1.03988  243.884
 4879.00    1.03830   1.04875  244.380
 4880.00    1.04103   1.05711   -1.000
 4881.00    1.04452   1.06036   -1.000
 4882.00    1.04680   1.05786  249.584
 4883.00    1.05184   1.05390  249.805
 4884.00    1.05591   1.05302  248.777
 4885.00    1.05275   1.05581  250.023
 4886.00    1.05474   1.05961  254.575
 4887.00    1.06288   1.06131  257.426
 4888.00    1.05118   1.05901  252.053
 4889.00    1.04320   1.05269  241.039
 4890.00    1.04043   1.04555  231.388
 4891.00    1.03025   1.04380  225.643
 4892.00    1.03617   1.05160   -1.000
 4893.00    1.06055   1.06603  222.326
 4894.00    1.08511   1.08011  224.549
 4895.00    1.09038   1.08982  229.737
 4896.00    1.08238   1.09504   -1.000
 4897.00    1.07919   1.09630   -1.000
 4898.00    1.08094   1.09377   -1.000
 4899.00    1.08072   1.08867  235.824
 4900.00    1.08155   1.08398  236.619
 4901.00    1.08024   1.08174  232.879
 4902.00    1.07526   1.08116  229.087
 4903.00    1.07529   1.08136  228.940
 4904.00    1.07751   1.08389  232.522
 4905.00    1.08110   1.08949  238.700
 4906.00    1.08186   1.09483   -1.000
 4907.00    1.07800   1.09587   -1.000
 4908.00    1.07409   1.09213   -1.000
 4909.00    1.06988   1.08581   -1.000
 4910.00    1.06301   1.07966   -1.000
 4911.00    1.07085   1.07670  230.915
 4912.00    1.08301   1.07851  230.166
 4913.00    1.08352   1.08361  234.124
 4914.00    1.08806   1.08904  244.385
 4915.00    1.09724   1.09185  257.287
 4916.00    1.10016   1.08915  265.764
 4917.00    1.08184   1.07901  263.727
 4918.00    1.05873   1.06286  254.452
 4919.00    1.04360   1.04597  247.435
 4920.00    1.02850   1.03462  245.294
 4921.00    1.03077   1.03144  243.932
 4922.00    1.04883   1.03326   -1.000
 4923.00    1.07092   1.03587   -1.000
 4924.00    1.06646   1.04062   -1.000
 4925.00    1.06025   1.05124  228.651
 4926.00    1.07162   1.06616  227.173
 4927.00    1.08265   1.07966  227.300
 4928.00    1.09240   1.08858  231.263
 4929.00    1.09603   1.09326  238.563
 4930.00    1.08689   1.09380  243.954
 4931.00    1.07464   1.08887   -1.000
 4932.00    1.06944   1.07818  239.549
 4933.00    1.06388   1.06565  242.480
 4934.00    1.06199   1.05852  249.645
 4935.00    1.06833   1.05998  252.706
 4936.00    1.07456   1.06474  247.545
 4937.00    1.08021   1.06577   -1.000
 4938.00    1.07105   1.06296  232.880
 4939.00    1.05780   1.06221  229.564
 4940.00    1.06508   1.06798  228.468
 4941.00    1.07445   1.07904  229.307
 4942.00    1.07354   1.09042   -1.000
 4943.00    1.08119   1.09791   -1.000
 4944.00    1.08656   1.10037   -1.000
 4945.00    1.08615   1.09936   -1.000
 4946.00    1.08743   1.09773  224.837
 4947.00    1.08138   1.09778   -1.000
 4948.00    1.08313   1.09961   -1.000
 4949.00    1.09135   1.10154  228.199
 4950.00    1.08985   1.10215  230.957
 4951.00    1.09303   1.10153  235.257
 4952.00    1.09725   1.10041  244.131
 4953.00    1.08888   1.09860  255.760
 4954.00    1.08372   1.09371  259.252
 4955.00    1.07844   1.08230  249.378
 4956.00    1.05835   1.06507  237.400
 4957.00    1.03840   1.05081  232.098
 4958.00    1.03343   1.05012   -1.000
 4959.00    1.05439   1.06370  233.153
 4960.00    1.08220   1.08198  235.428
 4961.00    1.08709   1.09589  239.209
 4962.00    1.08674   1.10274   -1.000
 4963.00    1.08841   1.10375   -1.000
 4964.00    1.08220   1.10068   -1.000
 4965.00    1.08152   1.09530   -1.000
 4966.00    1.07877   1.09025  241.505
 4967.00    1.07023   1.08767   -1.000
 4968.00    1.07477   1.08771   -1.000
 4969.00    1.08213   1.08959  233.631
 4970.00    1.08812   1.09278  231.995
 4971.00    1.09015   1.09639  232.212
 4972.00    1.09007   1.09938  234.253
 4973.00    1.09018   1.10124  237.063
 4974.00    1.09053   1.10168  240.593
 4975.00    1.09227   1.10066  244.113
 4976.00    1.08575   1.09829   -1.000
 4977.00    1.09055   1.09506  252.891
 4978.00    1.09012   1.09187  261.295
 4979.00    1.07084   1.08810   -1.000
 4980.00    1.06540   1.08123   -1.000
 4981.00    1.05752   1.07055   -1.000
 4982.00    1.04308   1.05950   -1.000
 4983.00    1.04283   1.05322  242.474
 4984.00    1.05474   1.05446  239.313
 4985.00    1.06590   1.06203  241.138
 4986.00    1.07166   1.07271  244.281
 4987.00    1.06852   1.08294   -1.000
 4988.00    1.06878   1.08872   -1.000
 4989.00    1.07472   1.08776   -1.000
 4990.00    1.07452   1.08204  242.398
 4991.00    1.06984   1.07655  241.775
 4992.00    1.07909   1.07499  240.523
 4993.00    1.08619   1.07754  240.549
 4994.00    1.07452   1.08252  242.872
 4995.00    1.07048   1.08810   -1.000
 4996.00    1.07715   1.09163   -1.000
 4997.00    1.07589   1.08991   -1.000
 4998.00    1.07129   1.08149  251.759
 4999.00    1.07148   1.06933  249.660
 5000.00    1.06396   1.06078  250.445
 5001.00    1.06140   1.06073  255.441
 5002.00    1.06367   1.06593  259.664
 5003.00    1.05919   1.06934  257.323
 5004.00    1.05530   1.06687  250.138
 5005.00    1.04925   1.05988  244.808
 5006.00    1.04719   1.05435  244.995
 5007.00    1.05578   1.05578  250.251
 5008.00    1.07207   1.06322  258.743
 5009.00    1.07887   1.07017  266.805
 5010.00    1.08002   1.07115  269.410
 5011.00    1.06453   1.06556  265.742
 5012.00    1.04451   1.05692   -1.000
 5013.00    1.04348   1.05007  256.547
 5014.00    1.04334   1.04805  256.080
 5015.00    1.04073   1.04958  254.728
 5016.00    1.04934   1.04961  252.162
 5017.00    1.05572   1.04504  251.632
 5018.00    1.04948   1.04007  252.538
 5019.00    1.05440   1.04234   -1.000
 5020.00    1.06576   1.05278   -1.000
 5021.00    1.07006   1.06485  247.841
 5022.00    1.07190   1.07367  247.563
 5023.00    1.08263   1.07991  248.802
 5024.00    1.08278   1.08532  248.309
 5025.00    1.07206   1.08935   -1.000
 5026.00    1.06658   1.09069   -1.000
 5027.00    1.06921   1.08985   -1.000
 5028.00    1.07452   1.08850   -1.000
 5029.00    1.08013   1.08747  232.526
 5030.00    1.08132   1.08716  236.375
 5031.00    1.08445   1.08856  245.000
 5032.00    1.08771   1.09136  252.039
 5033.00    1.08010   1.09271   -1.000
 5034.00    1.07117   1.09011   -1.000
 5035.00    1.06521   1.08477   -1.000
 5036.00    1.06368   1.08011   -1.000
 5037.00    1.06593   1.07700  279.471
 5038.00    1.06361   1.07211  272.485
 5039.00    1.05087   1.06249  257.177
 5040.00    1.05857   1.05081  243.921
 5041.00    0.89892   1.04474   -1.000
 5042.00    0.36777   1.04986   -1.000
 5043.00   -0.00787   1.06396    0.000
 5044.00    0.07256   1.08009   -1.000
 5045.00    0.48404   1.09269   -1.000
 5046.00    0.95700   1.09929   -1.000
 5047.00    1.09442   1.09907  248.395
 5048.00    1.08373   1.09251  248.021
 5049.00    1.08015   1.08205  242.005
 5050.00    1.07135   1.07140  236.735
 5051.00    1.07186   1.06481  233.492
 5052.00    1.07658   1.06652  232.049
 5053.00    1.08499   1.07700  231.921
 5054.00    1.09434   1.09046  232.373
 5055.00    1.09512   1.10022  232.538
 5056.00    1.10073   1.10479  231.671
 5057.00    1.10296   1.10647  230.932
 5058.00    1.10182   1.10740  232.614
 5059.00    1.10146   1.10823  237.661
 5060.00    1.09458   1.10877   -1.000
 5061.00    1.09670   1.10832  251.264
 5062.00    1.09843   1.10565  250.970
 5063.00    1.08764   1.10005  247.412
 5064.00    1.08204   1.09293  245.172
 5065.00    1.07758   1.08740  244.250
 5066.00    1.07636   1.08527  242.844
 5067.00    1.08444   1.08540  243.073
 5068.00    1.08664   1.08599  245.098
 5069.00    1.08265   1.08671  244.443
 5070.00    1.08598   1.08767  241.904
 5071.00    1.09120   1.08793  240.851
 5072.00    1.09110   1.08676  240.628
 5073.00    1.09027   1.08492  241.759
 5074.00    1.08529   1.08370  247.317
 5075.00    1.08218   1.08328  257.749
 5076.00    1.08458   1.08211  265.273
 5077.00    1.08128   1.07780  263.551
 5078.00    1.06998   1.07007  257.780
 5079.00    1.05873   1.06279  253.354
 5080.00    1.05986   1.06075  249.247
 5081.00    1.06749   1.06420  244.732
 5082.00    1.06857   1.06956  241.843
 5083.00    1.07229   1.07487  240.905
 5084.00    1.07703   1.08078  240.129
 5085.00    1.07723   1.08688  238.615
 5086.00    1.08541   1.09131  237.096
 5087.00    1.09341   1.09357  235.838
 5088.00    1.10776   1.09514   -1.000
 5089.00    1.14533   1.09738   -1.000
 5090.00    1.13649   1.10016   -1.000
 5091.00    1.10802   1.10276  235.231
 5092.00    1.10675   1.10502  240.309
 5093.00    1.10852   1.10677  245.853
 5094.00    1.12485   1.10698   -1.000
 5095.00    1.12281   1.10430   -1.000
 5096.00    1.10054   1.09822  251.108
 5097.00    1.08903   1.09003  244.176
 5098.00    1.08401   1.08278  239.753
 5099.00    1.08181   1.08016  239.657
 5100.00    1.09091   1.08350  242.093
 5101.00    1.10292   1.09032   -1.000
 5102.00    1.09752   1.09665  248.311
 5103.00    1.09283   1.09998  251.395
 5104.00    1.09954   1.09947  252.618
 5105.00    1.09565   1.09487  251.477
 5106.00    1.07842   1.08688  249.731
 5107.00    1.07107   1.07857  246.934
 5108.00    1.07336   1.07382  243.630
 5109.00    1.07529   1.07399  240.662
 5110.00    1.07608   1.07833  238.149
 5111.00    1.08351   1.08583  236.500
 5112.00    1.09090   1.09472  234.561
 5113.00    1.09546   1.10227  232.340
 5114.00    1.10315   1.10686  231.867
 5115.00    1.10483   1.10923  233.916
 5116.00    1.10071   1.11099  237.295
 5117.00    1.09937   1.11241  241.074
 5118.00    1.10188   1.11248  246.308
 5119.00    1.11095   1.11048  253.328
 5120.00    1.11404   1.10636  257.722
 5121.00    1.10323   1.10031  257.083
 5122.00    1.09245   1.09303  255.289
 5123.00    1.08213   1.08630  253.908
 5124.00    1.07693   1.08233  253.444
 5125.00    1.07886   1.08147  253.518
 5126.00    1.08459   1.08137  251.520
 5127.00    1.08207   1.08002  247.588
 5128.00    1.07497   1.07829  244.596
 5129.00    1.08847   1.07857  242.458
 5130.00    1.09960   1.08183   -1.000
 5131.00    1.09391   1.08664  238.974
 5132.00    1.09150   1.09094  241.181
 5133.00    1.08844   1.09402  246.524
 5134.00    1.09251   1.09584  251.395
 5135.00    1.09812   1.09566  253.266
 5136.00    1.09142   1.09240  252.019
 5137.00    1.08422   1.08620  252.067
 5138.00    1.07299   1.07933  255.326
 5139.00    1.06661   1.07511  256.285
 5140.00    1.07627   1.07508  253.014
 5141.00    1.08337   1.07762  250.644
 5142.00    1.06931   1.08046  251.709
 5143.00    1.07234   1.08370  253.139
 5144.00    1.08870   1.08796  251.541
 5145.00    1.09299   1.09190  249.339
 5146.00    1.09511   1.09385  250.579
 5147.00    1.10006   1.09396  254.653
 5148.00    1.09825   1.09274  257.618
 5149.00    1.09275   1.08975  257.489
 5150.00    1.08380   1.08471  253.978
 5151.00    1.07452   1.07920  248.092
 5152.00    1.07508   1.07596  241.741
 5153.00    1.08292   1.07658  236.546
 5154.00    1.08923   1.08084  233.733
 5155.00    1.09934   1.08786  233.059
 5156.00    1.11022   1.09605   -1.000
 5157.00    1.11569   1.10303   -1.000
 5158.00    1.11939   1.10717   -1.000
 5159.00    1.11960   1.10838  240.104
 5160.00    1.10769   1.10733  247.049
 5161.00    1.09481   1.10483  262.976
 5162.00    1.08941   1.10130   -1.000
 5163.00    1.08044   1.09489   -1.000
 5164.00    1.07886   1.08045  316.912
 5165.00    1.06674   1.05337   -1.000
 5166.00    1.02520   1.01717  292.976
 5167.00    0.99638   0.98570   -1.000
 5168.00    0.99698   0.97311   -1.000
 5169.00    1.01138   0.97990   -1.000
 5170.00    1.02375   0.99199   -1.000
 5171.00    1.02333   0.99643   -1.000
 5172.00    1.01852   0.99672   -1.000
 5173.00    1.02934   1.00701   -1.000
 5174.00    1.06078   1.03275   -1.000
 5175.00    1.08974   1.06411   -1.000
 5176.00    1.10288   1.08809   -1.000
 5177.00    1.11134   1.10080   -1.000
 5178.00    1.12060   1.10529   -1.000
 5179.00    1.10947   1.10351  324.608
 5180.00    1.10293   1.09318   -1.000
 5181.00    1.08773   1.07109   -1.000
 5182.00    1.05381   1.04049   -1.000
 5183.00    1.03192   1.01450   -1.000
 5184.00    1.03088   1.00805   -1.000
 5185.00    1.05753   1.02333   -1.000
 5186.00    1.08191   1.04674   -1.000
 5187.00    1.09138   1.06344   -1.000
 5188.00    1.08721   1.06984   -1.000
 5189.00    1.08323   1.07012   -1.000
 5190.00    1.08731   1.06746   -1.000
 5191.00    1.07832   1.06285   -1.000
 5192.00    1.06545   1.05881  251.753
 5193.00    1.05813   1.05846  247.198
 5194.00    1.06109   1.06157  242.667
 5195.00    1.07837   1.06544   -1.000
 5196.00    1.07737   1.06892  239.053
 5197.00    1.07616   1.07285  240.207
 5198.00    1.08813   1.07803  243.709
 5199.00    1.09600   1.08371   -1.000
 5200.00    1.10060   1.08751   -1.000
 5201.00    1.09843   1.08692   -1.000
 5202.00    1.09517   1.08065   -1.000
 5203.00    1.08325   1.06952   -1.000
 5204.00    1.06431   1.05696  270.309
 5205.00    1.06089   1.04781   -1.000
 5206.00    1.06173   1.04467   -1.000
 5207.00    1.05149   1.04599  251.330
 5208.00    1.04992   1.04919  241.339
 5209.00    1.06469   1.05467  234.735
 5210.00    1.08515   1.06424   -1.000
 5211.00    1.10376   1.07647   -1.000
 5212.00    1.10785   1.08678   -1.000
 5213.00    1.10652   1.09109   -1.000
 5214.00    1.10678   1.08830   -1.000
 5215.00    1.10300   1.08154   -1.000
 5216.00    1.09627   1.07675   -1.000
 5217.00    1.09993   1.07843   -1.000
 5218.00    1.11133   1.08622   -1.000
 5219.00    1.11714   1.09590   -1.000
 5220.00    1.12224   1.10346   -1.000
 5221.00    1.12634   1.10710   -1.000
 5222.00    1.12509   1.10583   -1.000
 5223.00    1.11779   1.09802   -1.000
 5224.00    1.09722   1.08230   -1.000
 5225.00    1.07573   1.06098   -1.000
 5226.00    1.06243   1.04265   -1.000
 5227.00    1.05694   1.03761   -1.000
 5228.00    1.06776   1.04814   -1.000
 5229.00    1.09171   1.06547   -1.000
 5230.00    1.10728   1.07788   -1.000
 5231.00    1.10709   1.07980   -1.000
 5232.00    1.09168   1.07384   -1.000
 5233.00    1.07797   1.06715  229.987
 5234.00    1.08703   1.06631   -1.000
 5235.00    1.10907   1.07291   -1.000
 5236.00    1.11647   1.08327   -1.000
 5237.00    1.12097   1.09253   -1.000
 5238.00    1.11833   1.09831   -1.000
 5239.00    1.11510   1.10113   -1.000
 5240.00    1.12006   1.10248   -1.000
 5241.00    1.12807   1.10325   -1.000
 5242.00    1.12577   1.10372   -1.000
 5243.00    1.11422   1.10410  243.223
 5244.00    1.11491   1.10414  245.495
 5245.00    1.11665   1.10257   -1.000
 5246.00    1.10856   1.09845  247.096
 5247.00    1.10177   1.09294  246.872
 5248.00    1.09939   1.08815  244.113
 5249.00    1.10121   1.08496   -1.000
 5250.00    1.10268   1.08359   -1.000
 5251.00    1.09780   1.08430   -1.000
 5252.00    1.09751   1.08628  235.092
 5253.00    1.10412   1.08780   -1.000
 5254.00    1.10510   1.08859   -1.000
 5255.00    1.10703   1.09058   -1.000
 5256.00    1.11309   1.09542   -1.000
 5257.00    1.12076   1.10171   -1.000
 5258.00    1.12032   1.10573   -1.000
 5259.00    1.11196   1.10434  261.084
 5260.00    1.10438   1.09646  267.586
 5261.00    1.09435   1.08342   -1.000
 5262.00    1.07960   1.06849   -1.000
 5263.00    1.06427   1.05513  261.854
 5264.00    1.06008   1.04587   -1.000
 5265.00    1.06399   1.04192   -1.000
 5266.00    1.07379   1.04186   -1.000
 5267.00    1.06739   1.04083   -1.000
 5268.00    1.04959   1.03460   -1.000
 5269.00    1.03905   1.02633   -1.000
 5270.00    1.04534   1.02541   -1.000
 5271.00    1.06519   1.03653   -1.000
 5272.00    1.08675   1.05324   -1.000
 5273.00    1.08979   1.06528   -1.000
 5274.00    1.09409   1.06956   -1.000
 5275.00    1.09979   1.07101   -1.000
 5276.00    1.10744   1.07562   -1.000
 5277.00    1.11360   1.08458   -1.000
 5278.00    1.11992   1.09367   -1.000
 5279.00    1.11957   1.09772   -1.000
 5280.00    1.10071   1.09503  240.023
 5281.00    1.09333   1.08784  233.280
 5282.00    1.09639   1.08018   -1.000
 5283.00    1.09877   1.07636   -1.000
 5284.00    1.09927   1.07940   -1.000
 5285.00    1.10990   1.08888   -1.000
 5286.00    1.12374   1.10041   -1.000
 5287.00    1.13409   1.10908   -1.000
 5288.00    1.13428   1.11351   -1.000
 5289.00    1.12647   1.11514  224.396
 5290.00    1.12453   1.11520  227.141
 5291.00    1.12827   1.11417   -1.000
 5292.00    1.13008   1.11265   -1.000
 5293.00    1.12695   1.11097   -1.000
 5294.00    1.12646   1.10825   -1.000
 5295.00    1.11984   1.10320   -1.000
 5296.00    1.10763   1.09601   -1.000
 5297.00    1.10576   1.08916   -1.000
 5298.00    1.10599   1.08588   -1.000
 5299.00    1.11070   1.08717   -1.000
 5300.00    1.11296   1.09091   -1.000
 5301.00    1.10702   1.09459   -1.000
 5302.00    1.11456   1.09787   -1.000
 5303.00    1.12846   1.10138   -1.000
 5304.00    1.13194   1.10459   -1.000
 5305.00    1.12803   1.10609   -1.000
 5306.00    1.12122   1.10570   -1.000
 5307.00    1.11972   1.10499   -1.000
 5308.00    1.12443   1.10562   -1.000
 5309.00    1.12462   1.10770   -1.000
 5310.00    1.12382   1.10987   -1.000
 5311.00    1.12326   1.11064   -1.000
 5312.00    1.13368   1.10932   -1.000
 5313.00    1.12812   1.10543   -1.000
 5314.00    1.11662   1.09861   -1.000
 5315.00    1.11868   1.09011   -1.000
 5316.00    1.11112   1.08374   -1.000
 5317.00    1.11440   1.08352   -1.000
 5318.00    1.12259   1.08964   -1.000
 5319.00    1.11716   1.09783   -1.000
 5320.00    1.11373   1.10301  237.378
 5321.00    1.11003   1.10258  237.865
 5322.00    1.09996   1.09690  242.515
 5323.00    1.10042   1.08870   -1.000
 5324.00    1.10458   1.08086   -1.000
 5325.00    1.10858   1.07305   -1.000
 5326.00    1.09234   1.06220   -1.000
 5327.00    1.06603   1.04906   -1.000
 5328.00    1.06113   1.04156   -1.000
 5329.00    1.06939   1.04752   -1.000
 5330.00    1.09151   1.06466   -1.000
 5331.00    1.11308   1.08240   -1.000
 5332.00    1.11376   1.09294   -1.000
 5333.00    1.11388   1.09613   -1.000
 5334.00    1.12146   1.09521   -1.000
 5335.00    1.11935   1.09263   -1.000
 5336.00    1.11142   1.08973   -1.000
 5337.00    1.11013   1.08711   -1.000
 5338.00    1.10955   1.08433   -1.000
 5339.00    1.10472   1.08102   -1.000
 5340.00    1.10407   1.07887   -1.000
 5341.00    1.10754   1.08073   -1.000
 5342.00    1.10867   1.08670   -1.000
 5343.00    1.11444   1.09307   -1.000
 5344.00    1.11705   1.09615   -1.000
 5345.00    1.11093   1.09543   -1.000
 5346.00    1.10903   1.09282   -1.000
 5347.00    1.10910   1.09038   -1.000
 5348.00    1.10292   1.08924   -1.000
 5349.00    1.10510   1.09014   -1.000
 5350.00    1.11382   1.09343   -1.000
 5351.00    1.13149   1.09803   -1.000
 5352.00    1.12628   1.10210   -1.000
 5353.00    1.11821   1.10506   -1.000
 5354.00    1.12318   1.10766   -1.000
 5355.00    1.13065   1.11038   -1.000
 5356.00    1.13572   1.11269   -1.000
 5357.00    1.13114   1.11386   -1.000
 5358.00    1.13002   1.11366   -1.000
 5359.00    1.13107   1.11195   -1.000
 5360.00    1.13323   1.10845   -1.000
 5361.00    1.12540   1.10331   -1.000
 5362.00    1.11597   1.09755   -1.000
 5363.00    1.11619   1.09271   -1.000
 5364.00    1.10961   1.08993   -1.000
 5365.00    1.10634   1.08935   -1.000
 5366.00    1.11046   1.08985   -1.000
 5367.00    1.11484   1.08922   -1.000
 5368.00    1.10854   1.08530   -1.000
 5369.00    1.09494   1.07770   -1.000
 5370.00    1.09051   1.06929   -1.000
 5371.00    1.08688   1.06576   -1.000
 5372.00    1.09705   1.07126   -1.000
 5373.00    1.11575   1.08374   -1.000
 5374.00    1.12527   1.09671   -1.000
 5375.00    1.13105   1.10530   -1.000
 5376.00    1.13272   1.10903   -1.000
 5377.00    1.12945   1.10970   -1.000
 5378.00    1.12691   1.10835   -1.000
 5379.00    1.12223   1.10504   -1.000
 5380.00    1.11846   1.10044   -1.000
 5381.00    1.11849   1.09624   -1.000
 5382.00    1.11552   1.09415   -1.000
 5383.00    1.11845   1.09488   -1.000
 5384.00    1.12528   1.09810   -1.000
 5385.00    1.12778   1.10274   -1.000
 5386.00    1.12446   1.10704   -1.000
 5387.00    1.12265   1.10918   -1.000
 5388.00    1.12501   1.10835   -1.000
 5389.00    1.12466   1.10507   -1.000
 5390.00    1.12936   1.10066   -1.000
 5391.00    1.12783   1.09626   -1.000
 5392.00    1.11943   1.09254   -1.000
 5393.00    1.11236   1.08952   -1.000
 5394.00    1.10908   1.08606   -1.000
 5395.00    1.11376   1.08047   -1.000
 5396.00    1.10473   1.07370   -1.000
 5397.00    1.09860   1.07038   -1.000
 5398.00    1.10314   1.07395   -1.000
 5399.00    1.11423   1.08229   -1.000
 5400.00    1.11794   1.08993   -1.000
 5401.00    1.11894   1.09268   -1.000
 5402.00    1.11780   1.08915   -1.000
 5403.00    1.10608   1.08022   -1.000
 5404.00    1.09337   1.06937   -1.000
 5405.00    1.08012   1.06226   -1.000
 5406.00    1.08316   1.06267   -1.000
 5407.00    1.09856   1.06848   -1.000
 5408.00    1.11326   1.07394   -1.000
 5409.00    1.10757   1.07614   -1.000
 5410.00    1.10500   1.07743   -1.000
 5411.00    1.10463   1.08087   -1.000
 5412.00    1.11080   1.08554   -1.000
 5413.00    1.11836   1.08839   -1.000
 5414.00    1.11716   1.08893   -1.000
 5415.00    1.11170   1.08939   -1.000
 5416.00    1.11313   1.09139   -1.000
 5417.00    1.11386   1.09428   -1.000
 5418.00    1.11916   1.09660   -1.000
 5419.00    1.12798   1.09793   -1.000
 5420.00    1.11679   1.09823   -1.000
 5421.00    1.11038   1.09703   -1.000
 5422.00    1.11235   1.09408   -1.000
 5423.00    1.10243   1.09037   -1.000
 5424.00    1.10495   1.08818   -1.000
 5425.00    1.11598   1.08923   -1.000
 5426.00    1.11987   1.09197   -1.000
 5427.00    1.11604   1.09216   -1.000
 5428.00    1.10577   1.08771   -1.000
 5429.00    1.09510   1.08200   -1.000
 5430.00    1.08694   1.07987  242.615
 5431.00    1.09436   1.08119   -1.000
 5432.00    1.10115   1.08164   -1.000
 5433.00    1.09709   1.07900   -1.000
 5434.00    1.09921   1.07644   -1.000
 5435.00    1.09767   1.07880   -1.000
 5436.00    1.10624   1.08681   -1.000
 5437.00    1.12513   1.09680   -1.000
 5438.00    1.13490   1.10476   -1.000
 5439.00    1.12447   1.10930   -1.000
 5440.00    1.12802   1.11125   -1.000
 5441.00    1.13504   1.11156   -1.000
 5442.00    1.12252   1.10991   -1.000
 5443.00    1.11446   1.10486  244.852
 5444.00    1.11051   1.09533   -1.000
 5445.00    1.10378   1.08295   -1.000
 5446.00    1.09136   1.07300   -1.000
 5447.00    1.09127   1.07109   -1.000
 5448.00    1.10151   1.07810   -1.000
 5449.00    1.12073   1.08933   -1.000
 5450.00    1.13025   1.09883   -1.000
 5451.00    1.12900   1.10299   -1.000
 5452.00    1.12049   1.10085   -1.000
 5453.00    1.10881   1.09312   -1.000
 5454.00    1.09802   1.08285   -1.000
 5455.00    1.07891   1.07582  227.479
 5456.00    1.07966   1.07722  229.626
 5457.00    1.10689   1.08675   -1.000
 5458.00    1.12186   1.09861   -1.000
 5459.00    1.12058   1.10673   -1.000
 5460.00    1.12542   1.10902   -1.000
 5461.00    1.13137   1.10659   -1.000
 5462.00    1.11959   1.10197   -1.000
 5463.00    1.11057   1.09830   -1.000
 5464.00    1.11768   1.09773   -1.000
 5465.00    1.12374   1.09988   -1.000
 5466.00    1.12724   1.10278   -1.000
 5467.00    1.12559   1.10523   -1.000
 5468.00    1.12549   1.10731   -1.000
 5469.00    1.12913   1.10902   -1.000
 5470.00    1.12725   1.10953   -1.000
 5471.00    1.12736   1.10806   -1.000
 5472.00    1.12592   1.10479   -1.000
 5473.00    1.11812   1.09999   -1.000
 5474.00    1.11010   1.09330   -1.000
 5475.00    1.11197   1.08515   -1.000
 5476.00    1.10155   1.07866   -1.000
 5477.00    1.10080   1.07807   -1.000
 5478.00    1.11019   1.08397   -1.000
 5479.00    1.12321   1.09197   -1.000
 5480.00    1.12377   1.09747   -1.000
 5481.00    1.12002   1.09976   -1.000
 5482.00    1.12147   1.10097   -1.000
 5483.00    1.12433   1.10297   -1.000
 5484.00    1.11042   1.10570  235.527
 5485.00    1.11001   1.10772  235.710
 5486.00    1.11918   1.10791   -1.000
 5487.00    1.12800   1.10650   -1.000
 5488.00    1.11664   1.10466   -1.000
 5489.00    1.11489   1.10352   -1.000
 5490.00    1.12513   1.10364   -1.000
 5491.00    1.12218   1.10489   -1.000
 5492.00    1.12621   1.10629   -1.000
 5493.00    1.12634   1.10667   -1.000
 5494.00    1.12506   1.10525   -1.000
 5495.00    1.12065   1.10180   -1.000
 5496.00    1.10497   1.09716  233.056
 5497.00    1.09797   1.09357  236.677
 5498.00    1.10162   1.09268  237.504
 5499.00    1.10439   1.09321   -1.000
 5500.00    1.09628   1.09263  235.073
 5501.00    1.09539   1.09095  237.874
 5502.00    1.10544   1.09057   -1.000
 5503.00    1.10567   1.09227   -1.000
 5504.00    1.11321   1.09331   -1.000
 5505.00    1.11566   1.09121   -1.000
 5506.00    1.10950   1.08761   -1.000
 5507.00    1.10583   1.08648   -1.000
 5508.00    1.10269   1.08941   -1.000
 5509.00    1.11295   1.09387   -1.000
 5510.00    1.12055   1.09638   -1.000
 5511.00    1.11706   1.09615   -1.000
 5512.00    1.11958   1.09485   -1.000
 5513.00    1.12118   1.09440   -1.000
 5514.00    1.11073   1.09569   -1.000
 5515.00    1.11085   1.09864   -1.000
 5516.00    1.12380   1.10252   -1.000
 5517.00    1.12363   1.10631   -1.000
 5518.00    1.12671   1.10899   -1.000
 5519.00    1.13351   1.11005   -1.000
 5520.00    1.12940   1.10979   -1.000
 5521.00    1.13256   1.10917   -1.000
 5522.00    1.12899   1.10867   -1.000
 5523.00    1.12118   1.10732   -1.000
 5524.00    1.12161   1.10312   -1.000
 5525.00    1.11770   1.09478   -1.000
 5526.00    1.10502   1.08385   -1.000
 5527.00    1.09755   1.07493   -1.000
 5528.00    1.09121   1.07281   -1.000
 5529.00    1.10206   1.07848   -1.000
 5530.00    1.11020   1.08799   -1.000
 5531.00    1.12074   1.09556   -1.000
 5532.00    1.12030   1.09774   -1.000
 5533.00    1.11123   1.09541   -1.000
 5534.00    1.11716   1.09250   -1.000
 5535.00    1.12216   1.09273   -1.000
 5536.00    1.12034   1.09666   -1.000
 5537.00    1.11702   1.10193   -1.000
 5538.00    1.12620   1.10609   -1.000
 5539.00    1.13743   1.10834   -1.000
 5540.00    1.14012   1.10901   -1.000
 5541.00    1.13016   1.10847   -1.000
 5542.00    1.12738   1.10701   -1.000
 5543.00    1.12297   1.10531   -1.000
 5544.00    1.11715   1.10437   -1.000
 5545.00    1.12319   1.10471   -1.000
 5546.00    1.13214   1.10613   -1.000
 5547.00    1.12402   1.10830   -1.000
 5548.00    1.12405   1.11076   -1.000
 5549.00    1.13656   1.11265   -1.000
 5550.00    1.13386   1.11315   -1.000
 5551.00    1.12668   1.11240   -1.000
 5552.00    1.12142   1.11129  230.293
 5553.00    1.12125   1.11045  229.875
 5554.00    1.13098   1.11003   -1.000
 5555.00    1.13255   1.11010   -1.000
 5556.00    1.12623   1.11065   -1.000
 5557.00    1.12678   1.11134   -1.000
 5558.00    1.13047   1.11183   -1.000
 5559.00    1.13351   1.11204   -1.000
 5560.00    1.14120   1.11170   -1.000
 5561.00    1.13544   1.11047   -1.000
 5562.00    1.10979   1.10870  236.374
 5563.00    1.10933   1.10730  235.920
 5564.00    1.12031   1.10656   -1.000
 5565.00    1.11264   1.10587  236.033
 5566.00    1.10845   1.10454  235.920
 5567.00    1.11738   1.10248   -1.000
 5568.00    1.11638   1.10012   -1.000
 5569.00    1.10944   1.09801   -1.000
 5570.00    1.11315   1.09607   -1.000
 5571.00    1.11832   1.09383   -1.000
 5572.00    1.04790   1.09200   -1.000
 5573.00    0.64061   1.09201   -1.000
 5574.00    0.15942   1.09406   -1.000
 5575.00   -0.00949   1.09705    0.000
 5576.00    0.46950   1.09997   -1.000
 5577.00    0.89180   1.10242   -1.000
 5578.00    1.04517   1.10428   -1.000
 5579.00    1.10055   1.10521  232.446
 5580.00    1.11319   1.10499  233.720
 5581.00    1.10693   1.10417  238.777
 5582.00    1.11973   1.10362   -1.000
 5583.00    1.12161   1.10275   -1.000
 5584.00    1.11045   1.09944   -1.000
 5585.00    1.09960   1.09249  249.669
 5586.00    1.09896   1.08356   -1.000
 5587.00    1.09056   1.07629   -1.000
 5588.00    1.08598   1.07355   -1.000
 5589.00    1.08809   1.07599   -1.000
 5590.00    1.09250   1.08187   -1.000
 5591.00    1.10916   1.08794   -1.000
 5592.00    1.11166   1.09143   -1.000
 5593.00    1.10721   1.09223   -1.000
 5594.00    1.10827   1.09255   -1.000
 5595.00    1.11259   1.09384   -1.000
 5596.00    1.11638   1.09485   -1.000
 5597.00    1.11129   1.09399   -1.000
 5598.00    1.11001   1.09178   -1.000
 5599.00    1.10967   1.08925   -1.000
 5600.00    1.10324   1.08646   -1.000
 5601.00    1.10046   1.08424   -1.000
 5602.00    1.09912   1.08497   -1.000
 5603.00    1.10127   1.09008   -1.000
 5604.00    1.11289   1.09813   -1.000
 5605.00    1.11759   1.10601   -1.000
 5606.00    1.11972   1.11147  227.557
 5607.00    1.12429   1.11429  226.846
 5608.00    1.11678   1.11556  227.883
 5609.00    1.12102   1.11633  232.542
 5610.00    1.12913   1.11676   -1.000
 5611.00    1.12549   1.11579  246.313
 5612.00    1.11433   1.11172  244.445
 5613.00    1.10896   1.10396  238.575
 5614.00    1.10228   1.09499  235.229
 5615.00    1.09608   1.08989  234.646
 5616.00    1.10834   1.09188   -1.000
 5617.00    1.11347   1.09897   -1.000
 5618.00    1.11781   1.10632   -1.000
 5619.00    1.13615   1.11083   -1.000
 5620.00    1.13226   1.11246   -1.000
 5621.00    1.12348   1.11218   -1.000
 5622.00    1.11697   1.11047  237.380
 5623.00    1.10658   1.10788  233.932
 5624.00    1.10637   1.10586  231.217
 5625.00    1.12081   1.10585   -1.000
 5626.00    1.12029   1.10787   -1.000
 5627.00    1.11926   1.11065  227.935
 5628.00    1.13278   1.11306   -1.000
 5629.00    1.13303   1.11473   -1.000
 5630.00    1.12867   1.11552   -1.000
 5631.00    1.12501   1.11537  233.090
 5632.00    1.12577   1.11450   -1.000
 5633.00    1.12166   1.11350  236.409
 5634.00    1.12651   1.11277   -1.000
 5635.00    1.13763   1.11204   -1.000
 5636.00    1.12897   1.11089   -1.000
 5637.00    1.11860   1.10941  237.109
 5638.00    1.11773   1.10787  236.146
 5639.00    1.12259   1.10637   -1.000
 5640.00    1.12577   1.10510   -1.000
 5641.00    1.12677   1.10465   -1.000
 5642.00    1.12732   1.10540   -1.000
 5643.00    1.12839   1.10699   -1.000
 5644.00    1.13169   1.10865   -1.000
 5645.00    1.12817   1.10986   -1.000
 5646.00    1.12740   1.11057   -1.000
 5647.00    1.12987   1.11097   -1.000
 5648.00    1.12401   1.11110   -1.000
 5649.00    1.11933   1.11090  230.425
 5650.00    1.12249   1.11053   -1.000
 5651.00    1.12277   1.11031   -1.000
 5652.00    1.11384   1.11021  239.123
 5653.00    1.12243   1.10974   -1.000
 5654.00    1.12716   1.10779   -1.000
 5655.00    1.11525   1.10285   -1.000
 5656.00    1.11004   1.09474   -1.000
 5657.00    1.10961   1.08650   -1.000
 5658.00    1.09570   1.08271   -1.000
 5659.00    1.11744   1.08493   -1.000
 5660.00    1.11318   1.09029   -1.000
 5661.00    1.11034   1.09517   -1.000
 5662.00    1.12144   1.09898   -1.000
 5663.00    1.12543   1.10293   -1.000
 5664.00    1.12181   1.10634   -1.000
 5665.00    1.13551   1.10704   -1.000
 5666.00    1.12985   1.10459   -1.000
 5667.00    1.11135   1.10122  232.566
 5668.00    1.11721   1.09965   -1.000
 5669.00    1.11919   1.10081   -1.000
 5670.00    1.11996   1.10373   -1.000
 5671.00    1.11986   1.10686   -1.000
 5672.00    1.12987   1.10923   -1.000
 5673.00    1.12857   1.11062   -1.000
 5674.00    1.13485   1.11137   -1.000
 5675.00    1.13168   1.11195   -1.000
 5676.00    1.13662   1.11245   -1.000
 5677.00    1.13254   1.11256   -1.000
 5678.00    1.12702   1.11188   -1.000
 5679.00    1.12608   1.11021   -1.000
 5680.00    1.13330   1.10744   -1.000
 5681.00    1.12205   1.10358   -1.000
 5682.00    1.11796   1.09936   -1.000
 5683.00    1.11347   1.09632   -1.000
 5684.00    1.11044   1.09565   -1.000
 5685.00    1.11972   1.09707   -1.000
 5686.00    1.12129   1.09900   -1.000
 5687.00    1.11326   1.10009   -1.000
 5688.00    1.10652   1.10035  228.759
 5689.00    1.10791   1.10075  228.405
 5690.00    1.12485   1.10210   -1.000
 5691.00    1.12595   1.10434   -1.000
 5692.00    1.11593   1.10675  229.575
 5693.00    1.11813   1.10869  231.951
 5694.00    1.12163   1.10994   -1.000
 5695.00    1.13007   1.11061   -1.000
 5696.00    1.12613   1.11075   -1.000
 5697.00    1.11870   1.11005  240.279
 5698.00    1.11673   1.10817  238.307
 5699.00    1.11647   1.10532   -1.000
 5700.00    1.11743   1.10257   -1.000
 5701.00    1.10935   1.10114  237.055
 5702.00    1.12269   1.10153   -1.000
 5703.00    1.11438   1.10298   -1.000
 5704.00    1.11266   1.10389  248.880
 5705.00    1.12202   1.10304   -1.000
 5706.00    1.10931   1.10009  249.430
 5707.00    1.10174   1.09537  246.728
 5708.00    1.09534   1.09007  241.446
 5709.00    1.10437   1.08607   -1.000
 5710.00    1.10937   1.08522   -1.000
 5711.00    1.11357   1.08804   -1.000
 5712.00    1.10835   1.09321   -1.000
 5713.00    1.11448   1.09843   -1.000
 5714.00    1.12925   1.10229   -1.000
 5715.00    1.12856   1.10486   -1.000
 5716.00    1.12260   1.10674   -1.000
 5717.00    1.13060   1.10821   -1.000
 5718.00    1.12607   1.10936   -1.000
 5719.00    1.12627   1.11034   -1.000
 5720.00    1.12999   1.11108   -1.000
 5721.00    1.13252   1.11146   -1.000
 5722.00    1.13092   1.11158   -1.000
 5723.00    1.13996   1.11158   -1.000
 5724.00    1.13396   1.11118   -1.000
 5725.00    1.12815   1.10998   -1.000
 5726.00    1.12909   1.10818   -1.000
 5727.00    1.12947   1.10653   -1.000
 5728.00    1.12235   1.10571   -1.000
 5729.00    1.12395   1.10587   -1.000
 5730.00    1.12927   1.10672   -1.000
 5731.00    1.13412   1.10778   -1.000
 5732.00    1.13392   1.10890   -1.000
 5733.00    1.13652   1.11015   -1.000
 5734.00    1.14041   1.11128   -1.000
 5735.00    1.12669   1.11185   -1.000
 5736.00    1.13227   1.11193   -1.000
 5737.00    1.13393   1.11186   -1.000
 5738.00    1.12471   1.11184   -1.000
 5739.00    1.12278   1.11191   -1.000
 5740.00    1.12176   1.11204  226.666
 5741.00    1.12983   1.11203   -1.000
 5742.00    1.13591   1.11188   -1.000
 5743.00    1.12892   1.11176   -1.000
 5744.00    1.12681   1.11163   -1.000
 5745.00    1.14283   1.11125   -1.000
 5746.00    1.13689   1.11063   -1.000
 5747.00    1.12788   1.11024   -1.000
 5748.00    1.13465   1.11047   -1.000
 5749.00    1.12644   1.11091   -1.000
 5750.00    1.12734   1.11056   -1.000
 5751.00    1.13319   1.10887   -1.000
 5752.00    1.12273   1.10641   -1.000
 5753.00    1.13146   1.10474   -1.000
 5754.00    1.13144   1.10512   -1.000
 5755.00    1.13383   1.10750   -1.000
 5756.00    1.12987   1.11080   -1.000
 5757.00    1.13544   1.11375   -1.000
 5758.00    1.15121   1.11534   -1.000
 5759.00    1.13875   1.11497   -1.000
 5760.00    1.12442   1.11290   -1.000
 5761.00    1.12983   1.11032   -1.000
 5762.00    1.11843   1.10890  225.129
 5763.00    1.12288   1.10976   -1.000
 5764.00    1.13118   1.11229   -1.000
 5765.00    1.13406   1.11470   -1.000
 5766.00    1.12426   1.11576  225.859
 5767.00    1.12827   1.11559   -1.000
 5768.00    1.12930   1.11489   -1.000
 5769.00    1.12942   1.11416   -1.000
 5770.00    1.12920   1.11352   -1.000
 5771.00    1.11950   1.11292  228.753
 5772.00    1.12237   1.11208  227.524
 5773.00    1.12430   1.11074   -1.000
 5774.00    1.12052   1.10905   -1.000
 5775.00    1.12290   1.10764   -1.000
 5776.00    1.10633   1.10668  237.404
 5777.00    1.09737   1.10552  240.170
 5778.00    1.10194   1.10364  239.331
 5779.00    1.11309   1.10137   -1.000
 5780.00    1.11004   1.09940   -1.000
 5781.00    1.11852   1.09825   -1.000
 5782.00    1.11333   1.09816   -1.000
 5783.00    1.11805   1.09901   -1.000
 5784.00    1.12488   1.10032   -1.000
 5785.00    1.12333   1.10158   -1.000
 5786.00    1.12548   1.10250   -1.000
 5787.00    1.12784   1.10322   -1.000
 5788.00    1.13530   1.10396   -1.000
 5789.00    1.12986   1.10470   -1.000
 5790.00    1.12892   1.10532   -1.000
 5791.00    1.12795   1.10605   -1.000
 5792.00    1.12597   1.10730   -1.000
 5793.00    1.12925   1.10913   -1.000
 5794.00    1.12255   1.11094   -1.000
 5795.00    1.12205   1.11189  223.626
 5796.00    1.11965   1.11176  220.545
 5797.00    1.12758   1.11133   -1.000
 5798.00    1.14342   1.11151   -1.000
 5799.00    1.14622   1.11236   -1.000
 5800.00    1.13995   1.11335   -1.000
 5801.00    1.13364   1.11409   -1.000
 5802.00    1.13263   1.11442   -1.000
 5803.00    1.14658   1.11437   -1.000
 5804.00    1.14144   1.11436   -1.000
 5805.00    1.13647   1.11483   -1.000
 5806.00    1.13823   1.11582   -1.000
 5807.00    1.13802   1.11690   -1.000
 5808.00    1.13826   1.11766   -1.000
 5809.00    1.13854   1.11806   -1.000
 5810.00    1.14789   1.11839   -1.000
 5811.00    1.13540   1.11874   -1.000
 5812.00    1.13223   1.11878   -1.000
 5813.00    1.14312   1.11817   -1.000
 5814.00    1.14315   1.11715   -1.000
 5815.00    1.14658   1.11647   -1.000
 5816.00    1.14337   1.11669   -1.000
 5817.00    1.14472   1.11765   -1.000
 5818.00    1.14903   1.11874   -1.000
 5819.00    1.13696   1.11954   -1.000
 5820.00    1.14138   1.12009   -1.000
 5821.00    1.14290   1.12060   -1.000
 5822.00    1.14808   1.12106   -1.000
 5823.00    1.14394   1.12132   -1.000
 5824.00    1.15425   1.12139   -1.000
 5825.00    1.15642   1.12152   -1.000
 5826.00    1.14952   1.12187   -1.000
 5827.00    1.14660   1.12246   -1.000
 5828.00    1.13810   1.12310   -1.000
 5829.00    1.15151   1.12346   -1.000
 5830.00    1.14477   1.12335   -1.000
 5831.00    1.14051   1.12281   -1.000
 5832.00    1.15414   1.12201   -1.000
 5833.00    1.15709   1.12117   -1.000
 5834.00    1.14251   1.12062   -1.000
 5835.00    1.14456   1.12067   -1.000
 5836.00    1.14840   1.12136   -1.000
 5837.00    1.15010   1.12258   -1.000
 5838.00    1.15151   1.12397   -1.000
 5839.00    1.14946   1.12495   -1.000
 5840.00    1.14392   1.12501   -1.000
 5841.00    1.15079   1.12404   -1.000
 5842.00    1.15137   1.12237   -1.000
 5843.00    1.14684   1.12047   -1.000
 5844.00    1.14647   1.11878   -1.000
 5845.00    1.13807   1.11758   -1.000
 5846.00    1.13888   1.11698   -1.000
 5847.00    1.14683   1.11677   -1.000
 5848.00    1.14614   1.11643   -1.000
 5849.00    1.14392   1.11537   -1.000
 5850.00    1.14133   1.11316   -1.000
 5851.00    1.13202   1.10975   -1.000
 5852.00    1.13020   1.10590   -1.000
 5853.00    1.12991   1.10288   -1.000
 5854.00    1.12944   1.10099   -1.000
 5855.00    1.14411   1.09914   -1.000
 5856.00    1.14261   1.09672   -1.000
 5857.00    1.12997   1.09492   -1.000
 5858.00    1.13338   1.09542   -1.000
 5859.00    1.14109   1.09831   -1.000
 5860.00    1.14077   1.10217   -1.000
 5861.00    1.14458   1.10562   -1.000
 5862.00    1.15789   1.10813   -1.000
 5863.00    1.15404   1.10952   -1.000
 5864.00    1.14830   1.10956   -1.000
 5865.00    1.15898   1.10852   -1.000
 5866.00    1.15246   1.10749   -1.000
 5867.00    1.15146   1.10753   -1.000
 5868.00    1.13228   1.10874   -1.000
 5869.00    1.15013   1.11039   -1.000
 5870.00    1.15765   1.11162   -1.000
 5871.00    1.13804   1.11183   -1.000
 5872.00    1.15120   1.11082   -1.000
 5873.00    1.14907   1.10880   -1.000
 5874.00    1.14744   1.10635   -1.000
 5875.00    1.14128   1.10433   -1.000
 5876.00    1.14535   1.10323   -1.000
 5877.00    1.14351   1.10265   -1.000
 5878.00    1.13817   1.10187   -1.000
 5879.00    1.14994   1.10068   -1.000
 5880.00    1.14675   1.09917   -1.000
 5881.00    1.14339   1.09718   -1.000
 5882.00    1.15326   1.09442   -1.000
 5883.00    1.16878   1.09106   -1.000
 5884.00    1.15897   1.08728   -1.000
 5885.00    1.14247   1.08193   -1.000
 5886.00    1.04511   1.07173   -1.000
 5887.00    0.92038   1.05384   -1.000
 5888.00    0.90060   1.03153   -1.000
 5889.00    0.97455   1.01461   -1.000
 5890.00    1.04632   1.01150   -1.000
 5891.00    1.05858   1.02076   -1.000
 5892.00    1.01868   1.03223  265.279
 5893.00    0.96341   1.03603   -1.000
 5894.00    0.94906   1.03082   -1.000
 5895.00    1.00412   1.02451   -1.000
 5896.00    1.05821   1.02577   -1.000
 5897.00    1.09248   1.03605   -1.000
 5898.00    1.11968   1.05034   -1.000
 5899.00    1.13167   1.06349   -1.000
 5900.00    1.13510   1.07358   -1.000
 5901.00    1.13891   1.08089   -1.000
 5902.00    1.14306   1.08614   -1.000
 5903.00    1.14263   1.08987   -1.000
 5904.00    1.14377   1.09246   -1.000
 5905.00    1.14146   1.09416   -1.000
 5906.00    1.13415   1.09513   -1.000
 5907.00    1.13176   1.09565   -1.000
 5908.00    1.13812   1.09604   -1.000
 5909.00    1.13485   1.09627   -1.000
 5910.00    1.13140   1.09591   -1.000
 5911.00    1.14765   1.09457   -1.000
 5912.00    1.14733   1.09215   -1.000
 5913.00    1.14087   1.08913   -1.000
 5914.00    1.14124   1.08644   -1.000
 5915.00    1.13436   1.08482   -1.000
 5916.00    1.13835   1.08450   -1.000
 5917.00    1.12895   1.08532   -1.000
 5918.00    1.12408   1.08688   -1.000
 5919.00    1.13603   1.08859   -1.000
 5920.00    1.13842   1.09002   -1.000
 5921.00    1.12680   1.09104   -1.000
 5922.00    1.13338   1.09187   -1.000
 5923.00    1.14080   1.09286   -1.000
 5924.00    1.14011   1.09425   -1.000
 5925.00    1.12998   1.09585   -1.000
 5926.00    1.13838   1.09713   -1.000
 5927.00    1.14133   1.09737   -1.000
 5928.00    1.14782   1.09641   -1.000
 5929.00    1.11822   1.09510   -1.000
 5930.00    1.12774   1.09453   -1.000
 5931.00    1.14743   1.09492   -1.000
 5932.00    1.14869   1.09562   -1.000
 5933.00    1.13606   1.09590   -1.000
 5934.00    1.14032   1.09569   -1.000
 5935.00    1.13266   1.09548   -1.000
 5936.00    1.12420   1.09557   -1.000
 5937.00    1.12612   1.09544   -1.000
 5938.00    1.12057   1.09432   -1.000
 5939.00    1.12805   1.09234   -1.000
 5940.00    1.12810   1.09032   -1.000
 5941.00    1.13222   1.08883   -1.000
 5942.00    1.13751   1.08809   -1.000
 5943.00    1.13664   1.08824   -1.000
 5944.00    1.12434   1.08906   -1.000
 5945.00    1.12351   1.08979   -1.000
 5946.00    1.12285   1.08978   -1.000
 5947.00    1.12567   1.08946   -1.000
 5948.00    1.14589   1.08989   -1.000
 5949.00    1.15018   1.09134   -1.000
 5950.00    1.14288   1.09307   -1.000
 5951.00    1.14105   1.09443   -1.000
 5952.00    1.12772   1.09524   -1.000
 5953.00    1.11298   1.09529   -1.000
 5954.00    1.11107   1.09438   -1.000
 5955.00    1.11854   1.09292   -1.000
 5956.00    1.12317   1.09187   -1.000
 5957.00    1.12384   1.09202   -1.000
 5958.00    1.13002   1.09336   -1.000
 5959.00    1.13735   1.09530   -1.000
 5960.00    1.13847   1.09724   -1.000
 5961.00    1.13924   1.09873   -1.000
 5962.00    1.13623   1.09936   -1.000
 5963.00    1.13294   1.09887   -1.000
 5964.00    1.13925   1.09747   -1.000
 5965.00    1.14248   1.09582   -1.000
 5966.00    1.14084   1.09465   -1.000
 5967.00    1.13322   1.09432   -1.000
 5968.00    1.12836   1.09478   -1.000
 5969.00    1.13085   1.09578   -1.000
 5970.00    1.13165   1.09692   -1.000
 5971.00    1.13734   1.09777   -1.000
 5972.00    1.13463   1.09813   -1.000
 5973.00    1.13779   1.09797   -1.000
 5974.00    1.13337   1.09715   -1.000
 5975.00    1.12088   1.09576   -1.000
 5976.00    1.11465   1.09433   -1.000
 5977.00    1.13065   1.09364   -1.000
 5978.00    1.14265   1.09417   -1.000
 5979.00    1.13459   1.09554   -1.000
 5980.00    1.13691   1.09673   -1.000
 5981.00    1.14521   1.09688   -1.000
 5982.00    1.12531   1.09590   -1.000
 5983.00    1.12700   1.09448   -1.000
 5984.00    1.13449   1.09356   -1.000
 5985.00    1.12079   1.09355   -1.000
 5986.00    1.11593   1.09419   -1.000
 5987.00    1.11369   1.09498   -1.000
 5988.00    1.11380   1.09542   -1.000
 5989.00    1.12599   1.09531   -1.000
 5990.00    1.12970   1.09505   -1.000
 5991.00    1.11956   1.09547   -1.000
 5992.00    1.12746   1.09700   -1.000
 5993.00    1.13776   1.09916   -1.000
 5994.00    1.14185   1.10089   -1.000
 5995.00    1.13920   1.10149   -1.000
 5996.00    1.12216   1.10114   -1.000
 5997.00    1.12435   1.10055   -1.000
 5998.00    1.13586   1.10023   -1.000
 5999.00    1.13444   1.09998   -1.000
 6000.00    1.13613   1.09940   -1.000
 6001.00    1.12828   1.09845   -1.000
 6002.00    1.11845   1.09743   -1.000
 6003.00    1.12335   1.09652   -1.000
 6004.00    1.12557   1.09550   -1.000
 6005.00    1.12534   1.09411   -1.000
 6006.00    1.11949   1.09252   -1.000
 6007.00    1.13144   1.09142   -1.000
 6008.00    1.12580   1.09164   -1.000
 6009.00    1.11511   1.09310   -1.000
 6010.00    1.11675   1.09486   -1.000
 6011.00    1.12875   1.09603   -1.000
 6012.00    1.12199   1.09663   -1.000
 6013.00    1.11577   1.09719   -1.000
 6014.00    1.12648   1.09782   -1.000
 6015.00    1.12577   1.09808   -1.000
 6016.00    1.12003   1.09765   -1.000
 6017.00    1.12004   1.09654   -1.000
 6018.00    1.11586   1.09508   -1.000
 6019.00    1.11928   1.09378   -1.000
 6020.00    1.11507   1.09289   -1.000
 6021.00    1.10562   1.09236   -1.000
 6022.00    1.12006   1.09221   -1.000
 6023.00    1.12782   1.09277   -1.000
 6024.00    1.11712   1.09420   -1.000
 6025.00    1.11724   1.09606   -1.000
 6026.00    1.11009   1.09779   -1.000
 6027.00    1.11297   1.09908   -1.000
 6028.00    1.12942   1.09990   -1.000
 6029.00    1.13330   1.10038   -1.000
 6030.00    1.13002   1.10075   -1.000
 6031.00    1.12584   1.10104   -1.000
 6032.00    1.12445   1.10128   -1.000
 6033.00    1.12719   1.10174   -1.000
 6034.00    1.11989   1.10254   -1.000
 6035.00    1.11274   1.10310   -1.000
 6036.00    1.12392   1.10263   -1.000
 6037.00    1.12795   1.10107   -1.000
 6038.00    1.11791   1.09893   -1.000
 6039.00    1.11432   1.09674   -1.000
 6040.00    1.11879   1.09430   -1.000
 6041.00    1.11511   1.09088   -1.000
 6042.00    1.12221   1.08752   -1.000
 6043.00    1.12224   1.08726   -1.000
 6044.00    1.10956   1.09099   -1.000
 6045.00    1.11086   1.09619   -1.000
 6046.00    1.11541   1.09994   -1.000
 6047.00    1.11910   1.10131   -1.000
 6048.00    1.11822   1.10088   -1.000
 6049.00    1.11883   1.09971   -1.000
 6050.00    1.12059   1.09880   -1.000
 6051.00    1.12477   1.09858   -1.000
 6052.00    1.12970   1.09883   -1.000
 6053.00    1.13157   1.09894   -1.000
 6054.00    1.12144   1.09857   -1.000
 6055.00    1.11589   1.09785   -1.000
 6056.00    1.11159   1.09714   -1.000
 6057.00    1.04950   1.09660   -1.000
 6058.00    0.98068   1.09634   -1.000
 6059.00    0.79367   1.09632   -1.000
 6060.00    0.43756   1.09611   -1.000
 6061.00    1.08868   1.09495  211.654
 6062.00    1.08657   1.09232   79.296
 6063.00    1.04273   1.08878   -1.000
 6064.00    0.99362   1.08588   -1.000
 6065.00    0.81217   1.08530   -1.000
 6066.00    0.34234   1.08750   -1.000
 6067.00    1.02023   1.09121   -1.000
 6068.00    1.14064   1.09471   -1.000
 6069.00    1.11510   1.09713   -1.000
 6070.00    1.11506   1.09857   -1.000
 6071.00    1.12137   1.09955   -1.000
 6072.00    1.12333   1.10030   -1.000
 6073.00    1.12317   1.10062   -1.000
 6074.00    1.12338   1.10021   -1.000
 6075.00    1.12267   1.09910   -1.000
 6076.00    1.11721   1.09780   -1.000
 6077.00    1.11728   1.09689   -1.000
 6078.00    1.11915   1.09651   -1.000
 6079.00    1.11266   1.09634   -1.000
 6080.00    1.10756   1.09589   -1.000
 6081.00    1.10625   1.09497   -1.000
 6082.00    1.11005   1.09393   -1.000
 6083.00    1.11376   1.09340   -1.000
 6084.00    1.10606   1.09363   -1.000
 6085.00    1.10438   1.09436   -1.000
 6086.00    1.11364   1.09531   -1.000
 6087.00    1.11302   1.09623   -1.000
 6088.00    1.11486   1.09681   -1.000
 6089.00    1.11232   1.09670   -1.000
 6090.00    1.11108   1.09593   -1.000
 6091.00    1.11842   1.09521   -1.000
 6092.00    1.12053   1.09518   -1.000
 6093.00    1.11468   1.09596   -1.000
 6094.00    1.11049   1.09727   -1.000
 6095.00    1.10917   1.09882   -1.000
 6096.00    1.10500   1.10037  236.852
 6097.00    1.11471   1.10133   -1.000
 6098.00    1.11426   1.10072   -1.000
 6099.00    1.10776   1.09776   -1.000
 6100.00    1.10774   1.09250   -1.000
 6101.00    1.09921   1.08645   -1.000
 6102.00    1.09100   1.08231  234.173
 6103.00    1.09937   1.08196   -1.000
 6104.00    1.10430   1.08517   -1.000
 6105.00    1.09839   1.08992  235.229
 6106.00    1.10313   1.09439  234.548
 6107.00    1.10800   1.09781   -1.000
 6108.00    1.09851   1.10009  233.479
 6109.00    1.10002   1.10110  232.249
 6110.00    1.11136   1.10088   -1.000
 6111.00    1.11083   1.09982   -1.000
 6112.00    1.10751   1.09873  234.664
 6113.00    1.11227   1.09816   -1.000
 6114.00    1.11680   1.09823   -1.000
 6115.00    1.11180   1.09859   -1.000
 6116.00    1.10525   1.09854  243.319
 6117.00    1.10110   1.09695  245.013
 6118.00    1.10213   1.09268   -1.000
 6119.00    1.10069   1.08612   -1.000
 6120.00    1.09208   1.07884   -1.000
 6121.00    1.08572   1.07365   -1.000
 6122.00    1.07798   1.07350  239.251
 6123.00    1.08112   1.07834  238.683
 6124.00    1.10067   1.08516   -1.000
 6125.00    1.10158   1.09068   -1.000
 6126.00    1.09711   1.09312  233.823
 6127.00    1.09819   1.09281  233.776
 6128.00    1.10545   1.09205   -1.000
 6129.00    1.10941   1.09316   -1.000
 6130.00    1.10909   1.09606   -1.000
 6131.00    1.10566   1.09880  251.295
 6132.00    1.09931   1.09927  255.977
 6133.00    1.09612   1.09582  254.171
 6134.00    1.09763   1.08801   -1.000
 6135.00    1.07918   1.07777  241.059
 6136.00    1.06884   1.06956  239.673
 6137.00    1.06889   1.06662  240.358
 6138.00    1.07573   1.06811  239.933
 6139.00    1.07654   1.07021  237.079
 6140.00    1.07891   1.07104  234.908
 6141.00    1.08124   1.07240   -1.000
 6142.00    1.08885   1.07620   -1.000
 6143.00    1.09042   1.08173   -1.000
 6144.00    1.09990   1.08642   -1.000
 6145.00    1.10129   1.08848   -1.000
 6146.00    1.09295   1.08800  240.383
 6147.00    1.09143   1.08627  239.194
 6148.00    1.09077   1.08481  237.832
 6149.00    1.09345   1.08458   -1.000
 6150.00    1.08936   1.08561  240.393
 6151.00    1.09081   1.08721  241.202
 6152.00    1.08615   1.08856  241.513
 6153.00    1.09248   1.08895  243.074
 6154.00    1.09943   1.08823   -1.000
 6155.00    1.10033   1.08675   -1.000
 6156.00    1.09275   1.08492   -1.000
 6157.00    1.08597   1.08284  266.016
 6158.00    1.07984   1.07968  266.131
 6159.00    1.07862   1.07394  260.559
 6160.00    1.06985   1.06567  254.013
 6161.00    1.05535   1.05796  251.323
 6162.00    1.05990   1.05468  250.994
 6163.00    1.05842   1.05670  252.575
 6164.00    1.07251   1.06162   -1.000
 6165.00    1.08879   1.06619   -1.000
 6166.00    1.08990   1.06876   -1.000
 6167.00    1.08059   1.06925   -1.000
 6168.00    1.08443   1.06853   -1.000
 6169.00    1.07687   1.06806   -1.000
 6170.00    1.07444   1.06911  247.300
 6171.00    1.08097   1.07182   -1.000
 6172.00    1.08651   1.07533   -1.000
 6173.00    1.08528   1.07883  245.288
 6174.00    1.07849   1.08186  244.113
 6175.00    1.08179   1.08393  243.308
 6176.00    1.08346   1.08488  242.425
 6177.00    1.08283   1.08497  241.411
 6178.00    1.07742   1.08459  241.203
 6179.00    1.07796   1.08430  241.915
 6180.00    1.08458   1.08448  243.128
 6181.00    1.09127   1.08504  245.422
 6182.00    1.08030   1.08562  248.133
 6183.00    1.07279   1.08603  250.606
 6184.00    1.07539   1.08618  252.793
 6185.00    1.08299   1.08578  255.027
 6186.00    1.08741   1.08448  258.031
 6187.00    1.08057   1.08181  258.005
 6188.00    1.08117   1.07740  253.514
 6189.00    1.07555   1.07185  247.581
 6190.00    1.06609   1.06730  244.637
 6191.00    1.06020   1.06625  243.725
 6192.00    1.06813   1.06934  244.081
 6193.00    1.08359   1.07485   -1.000
 6194.00    1.09101   1.08022   -1.000
 6195.00    1.09733   1.08384   -1.000
 6196.00    1.09504   1.08536   -1.000
 6197.00    1.08742   1.08503  246.002
 6198.00    1.07749   1.08362  243.659
 6199.00    1.08260   1.08266  243.486
 6200.00    1.09115   1.08323  243.396
 6201.00    1.08088   1.08527  243.058
 6202.00    1.08113   1.08781  243.422
 6203.00    1.09178   1.08983  244.151
 6204.00    1.09393   1.09093  244.362
 6205.00    1.09496   1.09134  245.983
 6206.00    1.09560   1.09141  248.243
 6207.00    1.09401   1.09133  250.288
 6208.00    1.08792   1.09096  253.276
 6209.00    1.08524   1.09004  256.860
 6210.00    1.08608   1.08837  258.625
 6211.00    1.07091   1.08581  257.733
 6212.00    1.06142   1.08272   -1.000
 6213.00    1.06830   1.07994  254.810
 6214.00    1.07291   1.07815  256.078
 6215.00    1.07418   1.07723  254.423
 6216.00    1.04997   1.07645   -1.000
 6217.00    0.96344   1.07523   -1.000
 6218.00    0.97268   1.07390   -1.000
 6219.00    1.07850   1.07335  259.385
 6220.00    1.07292   1.07426  251.332
 6221.00    1.07893   1.07632  252.172
 6222.00    1.08007   1.07841  252.651
 6223.00    1.07535   1.07979  254.939
 6224.00    1.08045   1.08045  258.891
 6225.00    1.08356   1.08041  262.911
 6226.00    1.07604   1.07925  264.587
 6227.00    1.07631   1.07624  262.059
 6228.00    1.07333   1.07131  257.651
 6229.00    1.06959   1.06589  252.917
 6230.00    1.07911   1.06233   -1.000
 6231.00    1.08675   1.06239   -1.000
 6232.00    1.09023   1.06588   -1.000
 6233.00    1.09117   1.07079   -1.000
 6234.00    1.07979   1.07477  257.537
 6235.00    1.07525   1.07628  259.712
 6236.00    1.08030   1.07539  260.191
 6237.00    1.07940   1.07319  260.713
 6238.00    1.08615   1.07118   -1.000
 6239.00    1.09082   1.07026   -1.000
 6240.00    1.07992   1.07020   -1.000
 6241.00    1.07155   1.06983  260.746
 6242.00    1.06836   1.06808  257.813
 6243.00    1.06665   1.06485  254.677
 6244.00    1.06091   1.06116  252.953
 6245.00    1.06256   1.05889  253.862
 6246.00    1.06421   1.05947  257.300
 6247.00    1.06509   1.06281  261.711
 6248.00    1.06564   1.06702  264.221
 6249.00    1.06354   1.06963  265.529
 6250.00    1.06855   1.06895  265.870
 6251.00    1.06370   1.06560  266.609
 6252.00    1.05766   1.06174  269.289
 6253.00    1.06202   1.05940  270.342
 6254.00    1.06509   1.05919  267.771
 6255.00    1.06358   1.06043  263.506
 6256.00    1.06195   1.06216  259.723
 6257.00    1.05832   1.06407  256.041
 6258.00    1.06075   1.06625  253.009
 6259.00    1.06752   1.06869  253.217
 6260.00    1.06303   1.07097  255.386
 6261.00    1.06128   1.07290  255.955
 6262.00    1.06573   1.07426  254.283
 6263.00    1.06331   1.07494  253.420
 6264.00    1.06719   1.07518  254.726
 6265.00    1.06151   1.07553  255.409
 6266.00    1.06208   1.07613  254.718
 6267.00    1.06626   1.07622  253.914
 6268.00    1.06885   1.07519  253.821
 6269.00    1.07361   1.07320  255.048
 6270.00    1.06078   1.07089  257.078
 6271.00    1.04438   1.06852   -1.000
 6272.00    1.02328   1.06542   -1.000
 6273.00    1.01127   1.06062   -1.000
 6274.00    1.00904   1.05372   -1.000
 6275.00    1.01195   1.04577   -1.000
 6276.00    1.01594   1.03849   -1.000
 6277.00    1.01534   1.03370   -1.000
 6278.00    1.01726   1.03212  263.638
 6279.00    1.01339   1.03370   -1.000
 6280.00    1.01373   1.03785   -1.000
 6281.00    1.02153   1.04384   -1.000
 6282.00    1.03106   1.05052   -1.000
 6283.00    1.04744   1.05683  251.764
 6284.00    1.06026   1.06180  252.078
 6285.00    1.05898   1.06513  253.883
 6286.00    1.05098   1.06694  255.995
 6287.00    1.04562   1.06726   -1.000
 6288.00    1.05063   1.06613  257.620
 6289.00    1.05868   1.06422  257.966
 6290.00    1.06504   1.06243  259.046
 6291.00    1.06747   1.06136  261.075
 6292.00    1.08071   1.06077   -1.000
 6293.00    1.09724   1.05999   -1.000
 6294.00    1.09682   1.05846   -1.000
 6295.00    1.05021   1.05630  260.303
 6296.00    0.89208   1.05416   -1.000
 6297.00    0.66427   1.05261   -1.000
 6298.00    0.60890   1.05188   -1.000
 6299.00    0.76730   1.05156   -1.000
 6300.00    0.95406   1.05169   -1.000
 6301.00    1.02903   1.05298   -1.000
 6302.00    1.06044   1.05575  252.091
 6303.00    1.06976   1.05937   -1.000
 6304.00    1.06489   1.06248  250.883
 6305.00    1.06541   1.06437  252.336
 6306.00    1.06226   1.06546  253.795
 6307.00    1.06806   1.06633  254.733
 6308.00    1.06838   1.06732  255.471
 6309.00    1.06044   1.06825  256.495
 6310.00    1.06433   1.06861  258.474
 6311.00    1.06930   1.06821  258.811
 6312.00    1.06491   1.06713  258.536
 6313.00    1.06789   1.06572  258.538
 6314.00    1.06755   1.06427  258.415
 6315.00    1.05958   1.06289  256.460
 6316.00    1.05315   1.06159  253.438
 6317.00    1.05518   1.06093  251.639
 6318.00    1.06940   1.06185   -1.000
 6319.00    1.07297   1.06425   -1.000
 6320.00    1.07327   1.06724  248.610
 6321.00    1.07662   1.07009  248.144
 6322.00    1.07899   1.07263  247.592
 6323.00    1.08773   1.07480   -1.000
 6324.00    1.08489   1.07625   -1.000
 6325.00    1.08353   1.07666  247.355
 6326.00    1.09700   1.07636   -1.000
 6327.00    1.09303   1.07573   -1.000
 6328.00    1.08574   1.07518   -1.000
 6329.00    1.08386   1.07501   -1.000
 6330.00    1.08173   1.07510  249.861
 6331.00    1.07434   1.07480  253.926
 6332.00    1.07420   1.07320  252.914
 6333.00    1.07800   1.06999   -1.000
 6334.00    1.07077   1.06606  247.788
 6335.00    1.06758   1.06363  245.683
 6336.00    1.07454   1.06397   -1.000
 6337.00    1.08115   1.06660   -1.000
 6338.00    1.08681   1.06989   -1.000
 6339.00    1.08649   1.07247   -1.000
 6340.00    1.08862   1.07396   -1.000
 6341.00    1.09206   1.07452   -1.000
 6342.00    1.08766   1.07411   -1.000
 6343.00    1.07756   1.07274  242.483
 6344.00    1.07973   1.07062   -1.000
 6345.00    1.08430   1.06854   -1.000
 6346.00    1.08821   1.06776   -1.000
 6347.00    1.09520   1.06906   -1.000
 6348.00    1.09530   1.07215   -1.000
 6349.00    1.09976   1.07569   -1.000
 6350.00    1.09857   1.07823   -1.000
 6351.00    1.09260   1.07905   -1.000
 6352.00    1.10422   1.07835   -1.000
 6353.00    1.10608   1.07701   -1.000
 6354.00    1.08987   1.07582   -1.000
 6355.00    1.08356   1.07499   -1.000
 6356.00    1.08967   1.07435   -1.000
 6357.00    1.08439   1.07361   -1.000
 6358.00    1.06817   1.07277  251.258
 6359.00    1.02772   1.07200   -1.000
 6360.00    0.95405   1.07125   -1.000
 6361.00    0.91018   1.07057   -1.000
 6362.00    0.94987   1.07028   -1.000
 6363.00    1.01439   1.07083   -1.000
 6364.00    1.05280   1.07191   -1.000
 6365.00    1.07493   1.07291  242.414
 6366.00    1.07585   1.07332  242.195
 6367.00    1.07797   1.07279  241.242
 6368.00    1.08406   1.07125   -1.000
 6369.00    1.08213   1.06925   -1.000
 6370.00    1.08022   1.06763   -1.000
 6371.00    1.07353   1.06734  242.547
 6372.00    1.07760   1.06864   -1.000
 6373.00    1.08758   1.07063   -1.000
 6374.00    1.07939   1.07207   -1.000
 6375.00    1.06753   1.07249  246.988
 6376.00    1.06299   1.07207  247.249
 6377.00    1.06768   1.07136  247.510
 6378.00    1.07607   1.07050  247.136
 6379.00    1.07181   1.06953  247.253
 6380.00    1.06267   1.06860  248.265
 6381.00    1.06208   1.06800  248.433
 6382.00    1.06445   1.06795  248.616
 6383.00    1.06239   1.06846  249.458
 6384.00    1.05167   1.06925   -1.000
 6385.00    1.04566   1.07026   -1.000
 6386.00    1.04631   1.07132   -1.000
 6387.00    1.04055   1.07192   -1.000
 6388.00    1.03386   1.07165   -1.000
 6389.00    1.02757   1.07016   -1.000
 6390.00    1.02159   1.06727   -1.000
 6391.00    1.01535   1.06356   -1.000
 6392.00    1.01091   1.06049   -1.000
 6393.00    1.00532   1.05975   -1.000
 6394.00    1.00128   1.06143   -1.000
 6395.00    1.00709   1.06394   -1.000
 6396.00    1.00729   1.06509   -1.000
 6397.00    0.99102   1.06379   -1.000
 6398.00    0.97353   1.06111   -1.000
 6399.00    0.96473   1.05932   -1.000
 6400.00    0.96546   1.06019   -1.000
 6401.00    0.97095   1.06345   -1.000
 6402.00    0.97227   1.06740   -1.000
 6403.00    0.97151   1.07008   -1.000
 6404.00    0.96856   1.07041   -1.000
 6405.00    0.95907   1.06820   -1.000
 6406.00    0.94591   1.06437   -1.000
 6407.00    0.93850   1.06025   -1.000
 6408.00    0.93598   1.05815   -1.000
 6409.00    0.92803   1.05898   -1.000
 6410.00    0.91905   1.06096   -1.000
 6411.00    0.91529   1.06292   -1.000
 6412.00    0.91323   1.06422   -1.000
 6413.00    0.91597   1.06489   -1.000
 6414.00    0.90863   1.06514   -1.000
 6415.00    0.89569   1.06567   -1.000
 6416.00    0.89181   1.06641   -1.000
 6417.00    0.88527   1.06651   -1.000
 6418.00    0.87154   1.06537   -1.000
 6419.00    0.85644   1.06338   -1.000
 6420.00    0.84408   1.06216   -1.000
 6421.00    0.83607   1.06300   -1.000
 6422.00    0.83358   1.06585   -1.000
 6423.00    0.83524   1.06950   -1.000
 6424.00    0.83173   1.07269   -1.000
 6425.00    0.82269   1.07472   -1.000
 6426.00    0.45987   1.07509   -1.000
 6427.00    0.00000   1.07331   -2.000
 6428.00    0.00000   1.06953   -2.000
