###################################################################
## OUTPUT of StarlightChains_v04.for    [Cid@UFSC - 01/Apr/2007] ##
###################################################################

## Some input info
NGC2298_a_1.cxt                          [arq_obs]
Base.BC03.S                              [arq_base]
NGC2298_a_1.msk                          [arq_masks]
StCv04.C99.config                        [arq_config]
  150                                    [N_base]
    0                                    [N_YAV_components = # of components with extra extinction!]
    0                                    [i_FitPowerLaw (1/0 = Yes/No)]
-9.99                                    [alpha_PowerLaw]
CCM                                      [red_law_option]
 1.458241                                [q_norm = A(l_norm)/A(V)]

## (Re)Sampling Parameters
 3359.00                                 [l_ini (A)]
 6428.00                                 [l_fin (A)]
    1.00                                 [dl    (A)]     (OBS: dl_cushion =    50.00 A)

## Normalization info
 4020.00                                 [l_norm (A) - for base]
 4010.00                                 [llow_norm (A) - window for f_obs]
 4060.00                                 [lupp_norm (A) - window for f_obs]
3.712074E-15                             [fobs_norm (in input units)]

## S/N
 4730.00                                 [llow_SN (A) - window for S/N]
 4780.00                                 [lupp_SN (A) - window for S/N]
  81.814                                 [S/N in S/N window]
  72.947                                 [S/N in norm. window]
 157.218                                 [S/N_err in S/N window]
 140.180                                 [S/N_err in norm. window]
  1.0000                                 [fscale_chi2]

## etc...
  2147483644                             [idum_orig]
  3062                                   [NOl_eff]
  1292                                   [Nl_eff]
  1770    NSIGMA                         [Ntot_cliped & clip_method]
  2915640                                [Nglobal_steps]
   7                                     [N_chains]
  15                                     [NEX0s_base = N_base in EX0s-fits]
 0   0   1      150   2.0   3.201E+02    [Clip-Bug, RC-Crash & Burn-In warning-flags, n_censored_weights, wei_nsig_threshold & wei_limit]
   141    140.636    140.612      0.024  [idt_all, wdt_TotTime, wdt_UsrTime & wdt_SysTime (sec)]

## Synthesis Results - Best model ##

 2.50117E+00                             [chi2/Nl_eff]
     1.17706                             [adev (%)]

   102.59167                             [sum-of-x (%)]
 9.81342E-15                             [Flux_tot (units of input spectrum!)]
 8.51611E-11                             [Mini_tot (???)]
 4.44183E-11                             [Mcor_tot (???)]

 -11.48                                  [v0_min  (km/s)]
  71.65                                  [vd_min  (km/s)]
 0.7048                                  [AV_min  (mag)]
 0.0000                                  [YAV_min (mag)]

# j     x_j(%)      Mini_j(%)     Mcor_j(%)     age_j(yr)     Z_j      (L/M)_j    YAV?  Mstars   component_j        a/Fe...       SSP_chi2r SSP_adev(%)   SSP_AV   SSP_x(%)
  1      0.0000     0.0000E+00    0.0000E+00    1.000000E+06  0.00010  8.160E-03    0   1.0000   age020_m22            0.0000     3.9632E+02    12.4422   3.7871    80.4289
  2     22.5173     5.3146E-02    1.0189E-01    3.160000E+06  0.00010  4.759E-02    0   1.0000   age045_m22            0.0000     4.4135E+01     4.3233   1.8161    98.4878
  3      0.0000     0.0000E+00    0.0000E+00    5.010000E+06  0.00010  1.932E-02    0   0.9582   age055_m22            0.0000     3.5110E+02    12.1367   2.0910    86.9444
  4      0.0000     0.0000E+00    0.0000E+00    6.610000E+06  0.00010  9.973E-03    0   0.9297   age061_m22            0.0000     3.7972E+02    12.4694   3.7465    83.5533
  5      0.0000     0.0000E+00    0.0000E+00    8.710000E+06  0.00010  7.690E-03    0   0.9030   age067_m22            0.0000     3.5818E+02    12.1040   3.7406    83.9045
  6      0.0000     0.0000E+00    0.0000E+00    1.000000E+07  0.00010  6.375E-03    0   0.8902   age070_m22            0.0000     3.4050E+02    11.7649   3.7561    84.0043
  7      0.0000     0.0000E+00    0.0000E+00    1.445000E+07  0.00010  4.874E-03    0   0.8589   age078_m22            0.0000     2.4773E+02    10.1301   3.5816    86.5268
  8      0.0000     0.0000E+00    0.0000E+00    2.512000E+07  0.00010  4.103E-03    0   0.8174   age090_m22            0.0000     9.8798E+01     6.7994   3.1888    92.2118
  9      0.0000     0.0000E+00    0.0000E+00    4.000000E+07  0.00010  3.654E-03    0   0.7830   age104_m22            0.0000     4.4913E+01     4.2269   2.9060    96.2491
 10      0.0000     0.0000E+00    0.0000E+00    5.500000E+07  0.00010  3.093E-03    0   0.7597   age110_m22            0.0000     3.6351E+01     3.4618   2.8078    97.5994
 11      0.0000     0.0000E+00    0.0000E+00    1.015200E+08  0.00010  2.431E-03    0   0.7138   age116_m22            0.0000     4.5730E+01     3.2342   2.4670   100.2635
 12      0.0000     0.0000E+00    0.0000E+00    1.609000E+08  0.00010  1.319E-03    0   0.6775   age120_m22            0.0000     4.8186E+01     3.0408   1.9897   102.4929
 13      0.0000     0.0000E+00    0.0000E+00    2.861200E+08  0.00010  1.075E-03    0   0.6412   age125_m22            0.0000     1.8254E+02     6.2500   2.0673   105.4470
 14      0.0000     0.0000E+00    0.0000E+00    5.088000E+08  0.00010  7.183E-04    0   0.6083   age130_m22            0.0000     2.4461E+02     7.5968   1.8389   106.9904
 15      0.0000     0.0000E+00    0.0000E+00    9.047900E+08  0.00010  4.524E-04    0   0.5785   age135_m22            0.0000     2.5073E+02     7.8396   1.6399   108.1230
 16      0.0000     0.0000E+00    0.0000E+00    1.278050E+09  0.00010  3.018E-04    0   0.5588   age138_m22            0.0000     9.6567E+01     4.8858   1.1012   106.4822
 17      0.0000     0.0000E+00    0.0000E+00    1.434000E+09  0.00010  2.691E-04    0   0.5532   age139_m22            0.0000     7.2703E+01     4.3159   0.9437   105.9219
 18      0.0000     0.0000E+00    0.0000E+00    2.500000E+09  0.00010  1.582E-04    0   0.5296   age150_m22            0.0000     5.5013E+01     3.6634   0.8294   106.7662
 19      0.0000     0.0000E+00    0.0000E+00    4.250000E+09  0.00010  1.007E-04    0   0.5110   age158_m22            0.0000     1.9721E+01     2.3145   0.6710   105.2306
 20      0.7716     1.2618E+00    1.2060E+00    6.250000E+09  0.00010  6.869E-05    0   0.4985   age166_m22            0.0000     4.4855E+00     1.3453   0.6075   102.6240
 21      0.0000     0.0000E+00    0.0000E+00    7.500000E+09  0.00010  5.873E-05    0   0.4931   age171_m22            0.0000     4.2523E+00     1.3059   0.5945   102.1605
 22      0.5301     1.3288E+00    1.2366E+00    1.000000E+10  0.00010  4.481E-05    0   0.4854   age181_m22            0.0000     4.1419E+00     1.3028   0.5558   101.7878
 23      1.4822     4.7716E+00    4.3829E+00    1.300000E+10  0.00010  3.489E-05    0   0.4791   age193_m22            0.0000     4.2436E+00     1.3394   0.4979   101.2218
 24      0.0000     0.0000E+00    0.0000E+00    1.500000E+10  0.00010  3.035E-05    0   0.4766   age201_m22            0.0000     4.4882E+00     1.3768   0.4579   101.0337
 25      0.0445     1.9896E-01    1.8062E-01    1.800000E+10  0.00010  2.510E-05    0   0.4735   age213_m22            0.0000     5.7637E+00     1.5180   0.3878   100.4306
 26      0.0000     0.0000E+00    0.0000E+00    1.000000E+06  0.00040  8.458E-03    0   1.0000   age020_m32            0.0000     3.8571E+02    12.3366   3.8027    81.1547
 27      0.0000     0.0000E+00    0.0000E+00    3.160000E+06  0.00040  3.973E-02    0   1.0000   age045_m32            0.0000     1.1484E+02     7.3330   3.0835    92.3375
 28      0.0000     0.0000E+00    0.0000E+00    5.010000E+06  0.00040  1.935E-02    0   0.9532   age055_m32            0.0000     2.8456E+02    11.1210   3.2993    87.1568
 29      0.0000     0.0000E+00    0.0000E+00    6.610000E+06  0.00040  1.204E-02    0   0.9243   age061_m32            0.0000     3.1360E+02    11.4328   3.6090    85.3551
 30      0.0000     0.0000E+00    0.0000E+00    8.710000E+06  0.00040  9.433E-03    0   0.9001   age067_m32            0.0000     2.7875E+02    10.8103   3.5839    86.1266
 31      0.0000     0.0000E+00    0.0000E+00    1.000000E+07  0.00040  8.053E-03    0   0.8877   age070_m32            0.0000     2.6534E+02    10.5646   3.5492    86.5334
 32      0.0000     0.0000E+00    0.0000E+00    1.445000E+07  0.00040  7.027E-03    0   0.8578   age078_m32            0.0000     1.5407E+02     8.4160   3.0362    91.2549
 33      0.0000     0.0000E+00    0.0000E+00    2.512000E+07  0.00040  4.707E-03    0   0.8166   age090_m32            0.0000     8.2854E+01     6.2912   2.7488    94.7382
 34      0.0000     0.0000E+00    0.0000E+00    4.000000E+07  0.00040  3.714E-03    0   0.7827   age104_m32            0.0000     4.2778E+01     4.2226   2.5565    97.6084
 35      0.0000     0.0000E+00    0.0000E+00    5.500000E+07  0.00040  2.982E-03    0   0.7593   age110_m32            0.0000     3.6217E+01     3.5841   2.4981    98.6276
 36      0.0000     0.0000E+00    0.0000E+00    1.015200E+08  0.00040  2.188E-03    0   0.7143   age116_m32            0.0000     7.2582E+01     3.6716   2.2432   102.3730
 37      0.3822     2.5402E-02    3.3390E-02    1.609000E+08  0.00040  1.690E-03    0   0.6856   age120_m32            0.0000     1.2779E+02     4.8757   2.0436   104.8049
 38      0.0000     0.0000E+00    0.0000E+00    2.861200E+08  0.00040  1.152E-03    0   0.6509   age125_m32            0.0000     1.9734E+02     6.6321   1.8211   106.5114
 39      0.0000     0.0000E+00    0.0000E+00    5.088000E+08  0.00040  7.331E-04    0   0.6182   age130_m32            0.0000     2.2533E+02     7.3711   1.6585   107.1011
 40      0.0000     0.0000E+00    0.0000E+00    9.047900E+08  0.00040  3.960E-04    0   0.5890   age135_m32            0.0000     1.0722E+02     5.4215   1.1913   105.7049
 41      0.0000     0.0000E+00    0.0000E+00    1.278050E+09  0.00040  2.854E-04    0   0.5687   age138_m32            0.0000     7.1334E+01     4.2140   0.8962   107.6653
 42      0.0000     0.0000E+00    0.0000E+00    1.434000E+09  0.00040  2.531E-04    0   0.5632   age139_m32            0.0000     6.7416E+01     4.0911   0.8353   107.6426
 43     24.3157     1.8355E+01    1.8954E+01    2.500000E+09  0.00040  1.488E-04    0   0.5386   age150_m32            0.0000     3.6813E+01     3.1764   0.5759   105.9012
 44     47.2779     5.8471E+01    5.8283E+01    4.250000E+09  0.00040  9.082E-05    0   0.5199   age158_m32            0.0000     5.7285E+00     1.5795   0.4668   102.7849
 45      0.0000     0.0000E+00    0.0000E+00    6.250000E+09  0.00040  6.362E-05    0   0.5076   age166_m32            0.0000     1.5522E+01     2.1455   0.4154    99.6805
 46      2.8612     6.0764E+00    5.8565E+00    7.500000E+09  0.00040  5.289E-05    0   0.5027   age171_m32            0.0000     2.1818E+01     2.4311   0.3766    98.4494
 47      0.1799     5.0870E-01    4.8258E-01    1.000000E+10  0.00040  3.972E-05    0   0.4948   age181_m32            0.0000     2.8001E+01     2.6825   0.3131    97.0595
 48      0.0000     0.0000E+00    0.0000E+00    1.300000E+10  0.00040  3.283E-05    0   0.4870   age193_m32            0.0000     1.2775E+01     2.0764   0.2738    99.6266
 49      0.0000     0.0000E+00    0.0000E+00    1.500000E+10  0.00040  2.925E-05    0   0.4854   age201_m32            0.0000     8.8576E+00     1.8832   0.2588   101.1168
 50      0.0000     5.1084E-06    4.7198E-06    1.800000E+10  0.00040  2.469E-05    0   0.4819   age213_m32            0.0000     9.1285E+00     1.9424   0.2197   101.5787
 51      0.0000     0.0000E+00    0.0000E+00    1.000000E+06  0.00400  1.114E-02    0   1.0000   age020_m42            0.0000     3.6989E+02    12.0236   3.7310    81.5811
 52      0.0000     0.0000E+00    0.0000E+00    3.160000E+06  0.00400  4.073E-02    0   0.9999   age045_m42            0.0000     6.9235E+01     5.6512   2.7886    94.7038
 53      0.0000     0.0000E+00    0.0000E+00    5.010000E+06  0.00400  2.534E-02    0   0.9488   age055_m42            0.0000     1.8478E+02     8.8939   3.1800    89.0241
 54      0.0000     0.0000E+00    0.0000E+00    6.610000E+06  0.00400  2.583E-02    0   0.9220   age061_m42            0.0000     5.1974E+01     4.8539   2.6091    95.2886
 55      0.0000     0.0000E+00    0.0000E+00    8.710000E+06  0.00400  1.706E-02    0   0.8983   age067_m42            0.0000     1.0625E+02     7.0199   2.4264    93.7810
 56      0.0000     0.0000E+00    0.0000E+00    1.000000E+07  0.00400  1.271E-02    0   0.8862   age070_m42            0.0000     1.6547E+02     8.8246   2.4081    92.5749
 57      0.0000     0.0000E+00    0.0000E+00    1.445000E+07  0.00400  7.666E-03    0   0.8571   age078_m42            0.0000     2.2105E+02     9.7020   2.8019    89.6184
 58      0.0000     0.0000E+00    0.0000E+00    2.512000E+07  0.00400  5.070E-03    0   0.8174   age090_m42            0.0000     1.3805E+02     8.0922   2.2734    94.2258
 59      0.0000     0.0000E+00    0.0000E+00    4.000000E+07  0.00400  3.505E-03    0   0.7851   age104_m42            0.0000     7.6844E+01     6.0387   1.9549    96.9640
 60      0.0000     0.0000E+00    0.0000E+00    5.500000E+07  0.00400  3.059E-03    0   0.7629   age110_m42            0.0000     2.5988E+01     2.9586   2.0267   100.8600
 61      0.0000     0.0000E+00    0.0000E+00    1.015200E+08  0.00400  2.268E-03    0   0.7207   age116_m42            0.0000     1.0911E+02     4.6892   1.9541   105.3533
 62      0.0000     0.0000E+00    0.0000E+00    1.609000E+08  0.00400  1.720E-03    0   0.6930   age120_m42            0.0000     1.2916E+02     5.4253   1.8152   106.8782
 63      0.0000     0.0000E+00    0.0000E+00    2.861200E+08  0.00400  1.079E-03    0   0.6613   age125_m42            0.0000     1.4486E+02     5.8449   1.4643   107.1956
 64      0.0000     0.0000E+00    0.0000E+00    5.088000E+08  0.00400  6.261E-04    0   0.6313   age130_m42            0.0000     1.7182E+02     6.4170   1.2743   109.9423
 65      0.0000     0.0000E+00    0.0000E+00    9.047900E+08  0.00400  3.535E-04    0   0.6024   age135_m42            0.0000     9.2309E+01     5.0494   0.8669   110.1215
 66      0.0000     0.0000E+00    0.0000E+00    1.278050E+09  0.00400  2.677E-04    0   0.5837   age138_m42            0.0000     8.4243E+01     5.5948   0.1770   106.8227
 67      0.0000     0.0000E+00    0.0000E+00    1.434000E+09  0.00400  1.910E-04    0   0.5716   age139_m42            0.0000     7.1720E+01     5.2145   0.3447   107.9382
 68      0.0000     0.0000E+00    0.0000E+00    2.500000E+09  0.00400  9.818E-05    0   0.5463   age150_m42            0.0000     8.7709E+01     5.4308   0.0666   103.0178
 69      0.0000     0.0000E+00    0.0000E+00    4.250000E+09  0.00400  5.491E-05    0   0.5269   age158_m42            0.0000     1.1482E+02     5.8899  -0.0594   100.2239
 70      0.0000     0.0000E+00    0.0000E+00    6.250000E+09  0.00400  3.857E-05    0   0.5151   age166_m42            0.0000     1.5487E+02     6.6685  -0.1830    98.6108
 71      0.0000     0.0000E+00    0.0000E+00    7.500000E+09  0.00400  3.243E-05    0   0.5110   age171_m42            0.0000     1.8222E+02     7.1488  -0.2588    97.8719
 72      0.0000     0.0000E+00    0.0000E+00    1.000000E+10  0.00400  2.424E-05    0   0.5028   age181_m42            0.0000     2.2078E+02     7.7535  -0.3346    97.0236
 73      0.0000     0.0000E+00    0.0000E+00    1.300000E+10  0.00400  1.883E-05    0   0.4927   age193_m42            0.0000     2.5111E+02     8.1995  -0.3731    96.6163
 74      0.0000     0.0000E+00    0.0000E+00    1.500000E+10  0.00400  1.685E-05    0   0.4919   age201_m42            0.0000     2.4251E+02     8.0777  -0.3691    96.6926
 75      0.0000     0.0000E+00    0.0000E+00    1.800000E+10  0.00400  1.452E-05    0   0.4874   age213_m42            0.0000     2.2686E+02     7.8606  -0.3557    97.0663
 76      0.0000     0.0000E+00    0.0000E+00    1.000000E+06  0.00800  1.286E-02    0   1.0000   age020_m52            0.0000     3.1731E+02    11.2646   3.7095    83.3665
 77      0.0000     0.0000E+00    0.0000E+00    3.160000E+06  0.00800  3.147E-02    0   0.9966   age045_m52            0.0000     3.0300E+02    11.1000   3.6186    84.9951
 78      0.0000     0.0000E+00    0.0000E+00    5.010000E+06  0.00800  2.664E-02    0   0.9443   age055_m52            0.0000     2.1644E+02     9.4947   3.2942    88.1736
 79      0.0000     0.0000E+00    0.0000E+00    6.610000E+06  0.00800  2.151E-02    0   0.9177   age061_m52            0.0000     1.3603E+02     7.5202   1.9919    94.2755
 80      0.0000     0.0000E+00    0.0000E+00    8.710000E+06  0.00800  1.628E-02    0   0.8948   age067_m52            0.0000     1.2300E+02     7.6124   2.3711    94.5340
 81      0.0000     0.0000E+00    0.0000E+00    1.000000E+07  0.00800  1.215E-02    0   0.8827   age070_m52            0.0000     1.5490E+02     8.4886   2.7096    92.8066
 82      0.0000     0.0000E+00    0.0000E+00    1.445000E+07  0.00800  8.739E-03    0   0.8552   age078_m52            0.0000     1.1996E+02     7.4877   2.7553    93.9062
 83      0.0000     0.0000E+00    0.0000E+00    2.512000E+07  0.00800  5.676E-03    0   0.8162   age090_m52            0.0000     7.0052E+01     5.6654   2.3674    98.2170
 84      0.0000     0.0000E+00    0.0000E+00    4.000000E+07  0.00800  3.939E-03    0   0.7841   age104_m52            0.0000     4.6139E+01     4.1086   2.2121   100.4431
 85      0.0000     0.0000E+00    0.0000E+00    5.500000E+07  0.00800  3.155E-03    0   0.7627   age110_m52            0.0000     4.4486E+01     3.2431   2.1856   101.9402
 86      0.0000     0.0000E+00    0.0000E+00    1.015200E+08  0.00800  2.206E-03    0   0.7226   age116_m52            0.0000     7.6982E+01     3.8012   2.0052   105.3880
 87      0.0000     0.0000E+00    0.0000E+00    1.609000E+08  0.00800  1.596E-03    0   0.6963   age120_m52            0.0000     1.0492E+02     4.7131   1.7946   106.8758
 88      0.0000     0.0000E+00    0.0000E+00    2.861200E+08  0.00800  1.002E-03    0   0.6665   age125_m52            0.0000     1.9785E+02     7.2454   1.5069   109.2456
 89      0.0000     0.0000E+00    0.0000E+00    5.088000E+08  0.00800  5.759E-04    0   0.6377   age130_m52            0.0000     2.3077E+02     8.3143   1.1583   112.9494
 90      0.0000     0.0000E+00    0.0000E+00    9.047900E+08  0.00800  2.972E-04    0   0.6086   age135_m52            0.0000     1.5772E+02     7.3809   0.6162   111.4296
 91      0.0000     0.0000E+00    0.0000E+00    1.278050E+09  0.00800  2.242E-04    0   0.5907   age138_m52            0.0000     1.3623E+02     6.8325  -0.0011   109.5511
 92      0.0000     0.0000E+00    0.0000E+00    1.434000E+09  0.00800  1.645E-04    0   0.5787   age139_m52            0.0000     1.1079E+02     6.2350   0.1426   109.2215
 93      0.0000     0.0000E+00    0.0000E+00    2.500000E+09  0.00800  7.723E-05    0   0.5519   age150_m52            0.0000     1.5906E+02     7.0157  -0.1954   105.0821
 94      0.0000     0.0000E+00    0.0000E+00    4.250000E+09  0.00800  4.151E-05    0   0.5320   age158_m52            0.0000     1.7820E+02     7.1908  -0.2645   102.4602
 95      0.0000     0.0000E+00    0.0000E+00    6.250000E+09  0.00800  3.010E-05    0   0.5197   age166_m52            0.0000     2.4634E+02     8.2151  -0.4528   100.6794
 96      0.0000     0.0000E+00    0.0000E+00    7.500000E+09  0.00800  2.467E-05    0   0.5139   age171_m52            0.0000     2.6553E+02     8.4847  -0.4925   100.1616
 97      0.0000     0.0000E+00    0.0000E+00    1.000000E+10  0.00800  1.862E-05    0   0.5054   age181_m52            0.0000     3.2559E+02     9.3177  -0.6185    99.4611
 98      0.0000     0.0000E+00    0.0000E+00    1.300000E+10  0.00800  1.433E-05    0   0.4988   age193_m52            0.0000     3.9488E+02    10.1896  -0.7097    99.7618
 99      0.0000     0.0000E+00    0.0000E+00    1.500000E+10  0.00800  1.244E-05    0   0.4936   age201_m52            0.0000     4.2275E+02    10.5145  -0.7369   100.0945
100      0.0000     0.0000E+00    0.0000E+00    1.800000E+10  0.00800  1.070E-05    0   0.4888   age213_m52            0.0000     4.4327E+02    10.7703  -0.7713    99.8747
101      0.0000     0.0000E+00    0.0000E+00    1.000000E+06  0.02000  1.989E-02    0   1.0000   age020_m62            0.0000     3.6734E+02    11.8481   3.6843    82.6053
102      0.0000     0.0000E+00    0.0000E+00    3.160000E+06  0.02000  3.772E-02    0   0.9858   age045_m62            0.0000     3.2985E+02    11.4091   3.5432    84.7756
103      0.0000     0.0000E+00    0.0000E+00    5.010000E+06  0.02000  3.227E-02    0   0.9342   age055_m62            0.0000     1.2059E+02     7.3134   3.0385    91.6829
104      0.0000     0.0000E+00    0.0000E+00    6.610000E+06  0.02000  2.387E-02    0   0.9090   age061_m62            0.0000     2.0050E+02     9.5321   2.7827    91.4323
105      0.0000     0.0000E+00    0.0000E+00    8.710000E+06  0.02000  1.102E-02    0   0.8861   age067_m62            0.0000     5.8384E+02    16.2524   2.3939    87.6304
106      0.0000     0.0000E+00    0.0000E+00    1.000000E+07  0.02000  1.011E-02    0   0.8751   age070_m62            0.0000     4.0130E+02    13.4543   2.4191    89.8259
107      0.0000     0.0000E+00    0.0000E+00    1.445000E+07  0.02000  7.331E-03    0   0.8472   age078_m62            0.0000     2.7772E+02    11.1192   2.4360    91.1110
108      0.0000     0.0000E+00    0.0000E+00    2.512000E+07  0.02000  4.206E-03    0   0.8099   age090_m62            0.0000     2.8070E+02    11.1471   2.3414    90.6903
109      0.0000     0.0000E+00    0.0000E+00    4.000000E+07  0.02000  3.373E-03    0   0.7799   age104_m62            0.0000     6.5530E+01     5.5021   2.1610    98.6615
110      0.0000     0.0000E+00    0.0000E+00    5.500000E+07  0.02000  2.747E-03    0   0.7595   age110_m62            0.0000     4.4478E+01     3.7675   2.1034   101.7600
111      0.0000     0.0000E+00    0.0000E+00    1.015200E+08  0.02000  1.878E-03    0   0.7221   age116_m62            0.0000     9.7981E+01     4.1247   1.9764   106.1176
112      0.0000     0.0000E+00    0.0000E+00    1.609000E+08  0.02000  1.378E-03    0   0.6978   age120_m62            0.0000     1.6258E+02     5.6855   1.8285   108.4850
113      0.0000     0.0000E+00    0.0000E+00    2.861200E+08  0.02000  8.869E-04    0   0.6700   age125_m62            0.0000     2.8684E+02     8.2959   1.4626   112.5170
114      0.0000     0.0000E+00    0.0000E+00    5.088000E+08  0.02000  4.834E-04    0   0.6430   age130_m62            0.0000     2.6368E+02     8.7757   1.0222   114.5390
115      0.0000     0.0000E+00    0.0000E+00    9.047900E+08  0.02000  2.312E-04    0   0.6152   age135_m62            0.0000     1.3673E+02     7.1215   0.4129   113.4246
116      0.0000     0.0000E+00    0.0000E+00    1.278050E+09  0.02000  1.387E-04    0   0.5927   age138_m62            0.0000     1.1238E+02     6.3006   0.0260   108.8845
117      0.0000     0.0000E+00    0.0000E+00    1.434000E+09  0.02000  1.168E-04    0   0.5865   age139_m62            0.0000     1.1797E+02     6.3666  -0.0010   107.2409
118      0.0000     0.0000E+00    0.0000E+00    2.500000E+09  0.02000  5.505E-05    0   0.5610   age150_m62            0.0000     2.0854E+02     7.9235  -0.3724   103.7647
119      0.0000     0.0000E+00    0.0000E+00    4.250000E+09  0.02000  3.070E-05    0   0.5407   age158_m62            0.0000     3.4258E+02     9.7940  -0.6587   103.0005
120      0.0000     0.0000E+00    0.0000E+00    6.250000E+09  0.02000  2.104E-05    0   0.5277   age166_m62            0.0000     4.2339E+02    10.7114  -0.7848   103.0568
121      0.0000     0.0000E+00    0.0000E+00    7.500000E+09  0.02000  1.770E-05    0   0.5223   age171_m62            0.0000     4.6467E+02    11.1940  -0.8723   103.3013
122      0.0000     0.0000E+00    0.0000E+00    1.000000E+10  0.02000  1.297E-05    0   0.5121   age181_m62            0.0000     5.5564E+02    12.0564  -1.0000   102.8387
123      0.0000     0.0000E+00    0.0000E+00    1.300000E+10  0.02000  9.691E-06    0   0.5047   age193_m62            0.0000     6.2589E+02    12.4182  -1.0000   101.0757
124      0.0000     0.0000E+00    0.0000E+00    1.500000E+10  0.02000  8.360E-06    0   0.4999   age201_m62            0.0000     6.9207E+02    12.7975  -1.0000    99.4859
125      0.0000     0.0000E+00    0.0000E+00    1.800000E+10  0.02000  6.911E-06    0   0.4946   age213_m62            0.0000     7.7786E+02    13.3683  -1.0000    97.7828
126      0.0000     0.0000E+00    0.0000E+00    1.000000E+06  0.05000  2.651E-02    0   0.9998   age020_m72            0.0000     3.4312E+02    11.3535   3.6843    83.4974
127      0.0000     0.0000E+00    0.0000E+00    3.160000E+06  0.05000  4.817E-02    0   0.9577   age045_m72            0.0000     2.3488E+02     9.6979   3.4021    87.7912
128      0.0000     0.0000E+00    0.0000E+00    5.010000E+06  0.05000  3.101E-02    0   0.9147   age055_m72            0.0000     2.1344E+02     9.3939   3.0528    90.4276
129      0.0000     0.0000E+00    0.0000E+00    6.610000E+06  0.05000  1.472E-02    0   0.8877   age061_m72            0.0000     4.4846E+02    13.7108   2.6127    89.0955
130      0.0000     0.0000E+00    0.0000E+00    8.710000E+06  0.05000  1.050E-02    0   0.8638   age067_m72            0.0000     3.0509E+02    10.9279   3.0037    89.3647
131      0.0000     0.0000E+00    0.0000E+00    1.000000E+07  0.05000  8.954E-03    0   0.8524   age070_m72            0.0000     2.2479E+02     9.2141   3.2824    89.1829
132      0.0000     0.0000E+00    0.0000E+00    1.445000E+07  0.05000  6.392E-03    0   0.8262   age078_m72            0.0000     1.8901E+02     8.4366   3.2260    90.1929
133      0.0000     0.0000E+00    0.0000E+00    2.512000E+07  0.05000  4.207E-03    0   0.7902   age090_m72            0.0000     9.7845E+01     6.2365   2.8493    94.4681
134      0.0000     0.0000E+00    0.0000E+00    4.000000E+07  0.05000  3.198E-03    0   0.7618   age104_m72            0.0000     5.8711E+01     3.5739   2.3437   101.9228
135      0.0000     0.0000E+00    0.0000E+00    5.500000E+07  0.05000  2.593E-03    0   0.7432   age110_m72            0.0000     7.9758E+01     3.9120   2.2550   103.7224
136      0.0000     0.0000E+00    0.0000E+00    1.015200E+08  0.05000  1.716E-03    0   0.7092   age116_m72            0.0000     1.3151E+02     4.9178   2.0664   106.2617
137      0.0000     0.0000E+00    0.0000E+00    1.609000E+08  0.05000  1.218E-03    0   0.6876   age120_m72            0.0000     2.0459E+02     6.6851   1.7997   108.8395
138      0.0000     0.0000E+00    0.0000E+00    2.861200E+08  0.05000  7.047E-04    0   0.6618   age125_m72            0.0000     2.8334E+02     8.8319   1.2551   112.5886
139      0.0000     0.0000E+00    0.0000E+00    5.088000E+08  0.05000  3.590E-04    0   0.6356   age130_m72            0.0000     2.3401E+02     8.8144   0.6727   114.8910
140      0.0000     0.0000E+00    0.0000E+00    9.047900E+08  0.05000  1.484E-04    0   0.6088   age135_m72            0.0000     1.6885E+02     7.6101  -0.0691   107.9212
141      0.2697     3.2107E-01    3.6467E-01    1.278050E+09  0.05000  9.435E-05    0   0.5924   age138_m72            0.0000     2.7144E+02     9.0957  -0.4717   104.3107
142      0.9244     1.3266E+00    1.4872E+00    1.434000E+09  0.05000  7.827E-05    0   0.5847   age139_m72            0.0000     2.7478E+02     9.0383  -0.4571   103.6757
143      0.0000     0.0000E+00    0.0000E+00    2.500000E+09  0.05000  3.759E-05    0   0.5583   age150_m72            0.0000     4.1070E+02    10.6321  -0.7787   102.4200
144      0.9286     5.6622E+00    5.8340E+00    4.250000E+09  0.05000  1.842E-05    0   0.5374   age158_m72            0.0000     5.5065E+02    11.6793  -1.0000    99.5385
145      0.0000     0.0000E+00    0.0000E+00    6.250000E+09  0.05000  1.207E-05    0   0.5242   age166_m72            0.0000     7.4462E+02    13.0984  -1.0000    93.2822
146      0.0000     0.0000E+00    0.0000E+00    7.500000E+09  0.05000  9.993E-06    0   0.5183   age171_m72            0.0000     7.8200E+02    13.4626  -1.0000    92.1504
147      0.1064     1.6392E+00    1.5968E+00    1.000000E+10  0.05000  7.291E-06    0   0.5081   age181_m72            0.0000     9.3439E+02    14.8112  -1.0000    88.9063
148      0.0000     0.0000E+00    0.0000E+00    1.300000E+10  0.05000  5.316E-06    0   0.5018   age193_m72            0.0000     1.1945E+03    16.9891  -1.0000    84.1404
149      0.0000     0.0000E+00    0.0000E+00    1.500000E+10  0.05000  4.497E-06    0   0.4972   age201_m72            0.0000     1.3176E+03    17.9043  -1.0000    82.4825
150      0.0000     0.0000E+00    0.0000E+00    1.800000E+10  0.05000  3.739E-06    0   0.4924   age213_m72            0.0000     1.4935E+03    19.0719  -1.0000    79.9461


## Synthesis Results - Average & Chains ##

# j      x_j: min, <> & last-chain-values for 1 ...  7 chains
  1      0.0000      0.0027      0.0000      0.0000      0.0000      0.0000      0.0000      0.0000      0.0000
  2     22.5173     19.6565     20.3843     20.5354     20.3487     20.7689     20.7124     20.5963     20.5595
  3      0.0000      0.0092      0.0000      0.0000      0.0000      0.0000      0.0000      0.0000      0.0000
  4      0.0000      0.0017      0.0000      0.0000      0.0000      0.0000      0.0000      0.0000      0.0000
  5      0.0000      0.0014      0.0000      0.0000      0.0000      0.0067      0.0000      0.0000      0.0000
  6      0.0000      0.0019      0.0000      0.0000      0.0000      0.0000      0.0000      0.0000      0.0000
  7      0.0000      0.0031      0.0000      0.0000      0.0000      0.0000      0.0000      0.0000      0.0000
  8      0.0000      0.0072      0.0000      0.0000      0.0000      0.0000      0.0000      0.0000      0.0000
  9      0.0000      0.0157      0.0000      0.0020      0.0000      0.0000      0.0000      0.0000      0.0000
 10      0.0000      0.0243      0.0351      0.0337      0.0000      0.0000      0.0000      0.0000      0.0000
 11      0.0000      0.0487      0.0000      0.0000      0.0000      0.0121      0.0000      0.0617      0.0000
 12      0.0000      0.0344      0.0000      0.0000      0.0481      0.0000      0.1899      0.0000      0.0000
 13      0.0000      0.0308      0.0000      0.0000      0.0000      0.0000      0.0000      0.0306      0.0000
 14      0.0000      0.0412      0.0000      0.0298      0.0149      0.1556      0.0000      0.0000      0.0000
 15      0.0000      0.0366      0.1354      0.0196      0.0725      0.1078      0.0000      0.0000      0.0000
 16      0.0000      0.0764      0.0000      0.0000      0.0000      0.0240      0.0000      0.0265      0.0390
 17      0.0000      0.0787      0.4104      0.0000      0.0000      0.0115      0.1775      0.0000      0.0000
 18      0.0000      0.0643      0.1335      0.0000      0.0000      0.0000      0.0000      0.0000      0.0000
 19      0.0000      0.1188      0.0000      0.0975      0.0000      0.0000      0.0000      0.0000      0.0000
 20      0.7716      0.5009      0.0897      0.4958      0.7063      0.4805      0.0000      0.2771      0.0000
 21      0.0000      0.4665      0.1640      0.6609      0.2192      0.0661      0.4872      0.0000      0.7630
 22      0.5301      0.4621      0.4011      0.2957      0.1752      0.4008      0.7846      1.9238      0.3044
 23      1.4822      0.6214      0.9496      0.6956      0.9315      0.6107      0.7761      0.6075      0.0531
 24      0.0000      0.4275      0.0012      0.3127      0.3556      0.4037      0.5838      0.0000      0.0537
 25      0.0445      0.3953      0.4724      0.6566      0.0000      0.4841      0.0020      0.3042      0.1905
 26      0.0000      0.0016      0.0000      0.0000      0.0000      0.0000      0.0000      0.0000      0.0000
 27      0.0000      0.0101      0.0000      0.0000      0.0000      0.0000      0.0000      0.0000      0.0000
 28      0.0000      0.0036      0.0000      0.0000      0.0000      0.0000      0.0000      0.0000      0.0000
 29      0.0000      0.0024      0.0000      0.0000      0.0000      0.0000      0.0000      0.0000      0.0000
 30      0.0000      0.0027      0.0000      0.0000      0.0000      0.0000      0.0000      0.0000      0.0000
 31      0.0000      0.0027      0.0000      0.0043      0.0000      0.0000      0.0000      0.0000      0.0000
 32      0.0000      0.0047      0.0257      0.0000      0.0000      0.0000      0.0000      0.0000      0.0116
 33      0.0000      0.0103      0.0000      0.0000      0.0000      0.0000      0.0000      0.0000      0.0000
 34      0.0000      0.0213      0.0000      0.0104      0.0000      0.0000      0.0613      0.0000      0.0085
 35      0.0000      0.0185      0.0000      0.0000      0.0000      0.0000      0.0000      0.0000      0.0000
 36      0.0000      0.0512      0.1776      0.0984      0.2240      0.0000      0.0261      0.0000      0.0000
 37      0.3822      0.0803      0.0962      0.1155      0.1708      0.2903      0.1660      0.1534      0.0000
 38      0.0000      0.0854      0.0000      0.0898      0.0000      0.0597      0.0996      0.0000      0.0000
 39      0.0000      0.0583      0.0000      0.0000      0.0000      0.0086      0.3938      0.0000      0.0000
 40      0.0000      0.0712      0.0000      0.6017      0.0000      0.0000      0.0000      0.0000      0.0000
 41      0.0000      0.0624      0.1544      0.0253      0.0446      0.0000      0.0661      0.0000      0.1429
 42      0.0000      0.0731      0.0000      0.0000      0.0273      0.3163      0.0000      0.0812      0.0000
 43     24.3157     22.3901     22.3734     22.8072     22.9638     22.8885     22.6384     23.6018     23.0904
 44     47.2779     46.9650     47.5646     46.9679     47.4487     47.0945     47.5070     47.0482     49.3343
 45      0.0000      0.3618      0.5905      0.2033      0.3010      0.0000      0.2695      0.0000      0.0000
 46      2.8612      4.7550      4.6780      4.3864      4.8913      5.0858      4.6251      4.6233      4.2491
 47      0.1799      1.1905      1.3408      1.1407      1.2210      1.0338      0.9044      1.0042      1.2303
 48      0.0000      0.1625      0.0492      0.2343      0.0902      0.0000      0.0000      0.1452      0.3140
 49      0.0000      0.1299      0.1134      0.0600      0.0294      0.0000      0.0198      0.0000      0.0000
 50      0.0000      0.1084      0.0851      0.0000      0.0000      0.0000      0.1648      0.1475      0.0315
 51      0.0000      0.0022      0.0000      0.0000      0.0000      0.0000      0.0000      0.0000      0.0000
 52      0.0000      0.0214      0.0000      0.0000      0.0172      0.0000      0.0000      0.0000      0.0211
 53      0.0000      0.0054      0.0000      0.0000      0.0000      0.0000      0.0000      0.0000      0.0000
 54      0.0000      0.0240      0.0000      0.0000      0.0000      0.0000      0.0000      0.0685      0.0000
 55      0.0000      0.0179      0.0000      0.0000      0.0000      0.0000      0.0000      0.0060      0.0000
 56      0.0000      0.0126      0.0000      0.0093      0.0000      0.0000      0.0000      0.0000      0.0000
 57      0.0000      0.0037      0.0000      0.0000      0.0000      0.0000      0.0000      0.0000      0.0000
 58      0.0000      0.0098      0.0019      0.0000      0.0000      0.0000      0.0000      0.0000      0.0000
 59      0.0000      0.0102      0.0000      0.0000      0.0000      0.0000      0.0000      0.0000      0.0000
 60      0.0000      0.0170      0.0000      0.0000      0.0159      0.0000      0.0000      0.0000      0.0000
 61      0.0000      0.0617      0.0000      0.0000      0.0000      0.2118      0.0000      0.0166      0.3286
 62      0.0000      0.0922      0.2549      0.0000      0.2340      0.0000      0.0479      0.0000      0.0000
 63      0.0000      0.0600      0.1227      0.0000      0.0000      0.0131      0.0000      0.1318      0.0000
 64      0.0000      0.0473      0.1882      0.0000      0.0213      0.0000      0.0220      0.0000      0.0740
 65      0.0000      0.0417      0.0149      0.0000      0.0000      0.0000      0.0000      0.0000      0.0000
 66      0.0000      0.0176      0.0000      0.0000      0.0000      0.0000      0.0000      0.0991      0.0936
 67      0.0000      0.0362      0.0000      0.0000      0.0000      0.0000      0.0000      0.0000      0.0000
 68      0.0000      0.0711      0.0000      0.0482      0.0660      0.0000      0.0000      0.0000      0.0355
 69      0.0000      0.0389      0.0000      0.0000      0.0000      0.0000      0.0000      0.0000      0.0253
 70      0.0000      0.0301      0.0000      0.0000      0.0000      0.0000      0.0000      0.0000      0.0000
 71      0.0000      0.0529      0.0361      0.0385      0.0000      0.0000      0.0606      0.0000      0.0000
 72      0.0000      0.0769      0.0000      0.0245      0.0000      0.0174      0.0662      0.0000      0.0000
 73      0.0000      0.0218      0.0000      0.0000      0.0781      0.0000      0.0000      0.0000      0.0000
 74      0.0000      0.0145      0.0000      0.0000      0.0000      0.1858      0.0000      0.0000      0.0053
 75      0.0000      0.0190      0.0000      0.0000      0.1684      0.0875      0.0000      0.0000      0.0000
 76      0.0000      0.0022      0.0000      0.0000      0.0000      0.0000      0.0000      0.0185      0.0000
 77      0.0000      0.0021      0.0000      0.0000      0.0000      0.0000      0.0000      0.0000      0.0000
 78      0.0000      0.0031      0.0000      0.0000      0.0000      0.0000      0.0000      0.0000      0.0315
 79      0.0000      0.0090      0.0000      0.0000      0.0000      0.0000      0.0000      0.0000      0.0000
 80      0.0000      0.0079      0.0000      0.0000      0.0000      0.0000      0.0042      0.0000      0.0000
 81      0.0000      0.0073      0.0000      0.0000      0.0000      0.0000      0.0000      0.0000      0.0000
 82      0.0000      0.0061      0.0000      0.0000      0.0000      0.0000      0.0000      0.0000      0.0000
 83      0.0000      0.0121      0.0000      0.0000      0.0000      0.0124      0.0000      0.0000      0.0000
 84      0.0000      0.0134      0.0000      0.0000      0.0000      0.1146      0.0000      0.0000      0.0000
 85      0.0000      0.0198      0.0000      0.0000      0.0000      0.0000      0.0000      0.0000      0.0000
 86      0.0000      0.0254      0.1123      0.0000      0.0000      0.0000      0.0000      0.0000      0.0000
 87      0.0000      0.0379      0.1083      0.0000      0.0000      0.0000      0.0000      0.0800      0.0560
 88      0.0000      0.0304      0.0000      0.0000      0.1001      0.0050      0.0000      0.0000      0.0000
 89      0.0000      0.0204      0.0000      0.0000      0.0000      0.0000      0.0562      0.0000      0.0000
 90      0.0000      0.0193      0.0000      0.0000      0.0000      0.0000      0.0000      0.1096      0.0000
 91      0.0000      0.0150      0.0207      0.0000      0.1135      0.0000      0.0000      0.0000      0.0000
 92      0.0000      0.0214      0.0000      0.0000      0.0000      0.0000      0.0000      0.0256      0.0000
 93      0.0000      0.0294      0.0000      0.0000      0.0000      0.1363      0.0177      0.0000      0.0000
 94      0.0000      0.0295      0.0000      0.0000      0.0000      0.0000      0.0000      0.0000      0.1195
 95      0.0000      0.0273      0.0232      0.0012      0.0000      0.0167      0.0000      0.0000      0.0619
 96      0.0000      0.0224      0.0000      0.0000      0.0938      0.0000      0.0000      0.0000      0.0061
 97      0.0000      0.0211      0.0000      0.0107      0.0000      0.0000      0.0000      0.0000      0.0000
 98      0.0000      0.0124      0.0327      0.0000      0.0000      0.0000      0.0000      0.0000      0.0000
 99      0.0000      0.0193      0.0000      0.0000      0.0177      0.0000      0.0000      0.0000      0.0000
100      0.0000      0.0124      0.0000      0.0000      0.0000      0.0000      0.0000      0.0000      0.0000
101      0.0000      0.0016      0.0000      0.0000      0.0000      0.0000      0.0000      0.0000      0.0000
102      0.0000      0.0023      0.0000      0.0000      0.0000      0.0000      0.0000      0.0000      0.0000
103      0.0000      0.0074      0.0000      0.0000      0.0000      0.0000      0.0000      0.0000      0.0000
104      0.0000      0.0070      0.0000      0.0000      0.0000      0.0000      0.0000      0.0000      0.0000
105      0.0000      0.0032      0.0000      0.0000      0.0000      0.0000      0.0000      0.0000      0.0000
106      0.0000      0.0043      0.0000      0.0000      0.0000      0.0000      0.0000      0.0000      0.0000
107      0.0000      0.0057      0.0053      0.0000      0.0000      0.0000      0.0000      0.0000      0.0000
108      0.0000      0.0039      0.0000      0.0293      0.0000      0.0000      0.0000      0.0000      0.0000
109      0.0000      0.0087      0.0000      0.0000      0.0000      0.0000      0.0000      0.0009      0.0000
110      0.0000      0.0131      0.0000      0.0000      0.0000      0.0000      0.0000      0.0000      0.0000
111      0.0000      0.0261      0.0000      0.0000      0.0000      0.0000      0.0000      0.0000      0.0000
112      0.0000      0.0196      0.0000      0.2829      0.0000      0.0000      0.0000      0.0000      0.0000
113      0.0000      0.0260      0.0000      0.0000      0.0363      0.0000      0.0000      0.0000      0.0039
114      0.0000      0.0177      0.0000      0.0000      0.0000      0.0000      0.0000      0.0000      0.0000
115      0.0000      0.0238      0.0000      0.0056      0.0547      0.0000      0.0000      0.0000      0.0000
116      0.0000      0.0377      0.0331      0.0000      0.1141      0.0000      0.0000      0.0000      0.0000
117      0.0000      0.0334      0.0301      0.2325      0.0000      0.0000      0.0133      0.0000      0.0000
118      0.0000      0.0363      0.0000      0.0000      0.0000      0.0000      0.2171      0.0000      0.0000
119      0.0000      0.0152      0.0000      0.0000      0.0000      0.0000      0.0000      0.0000      0.0000
120      0.0000      0.0152      0.0363      0.0214      0.0000      0.0000      0.0000      0.0000      0.0000
121      0.0000      0.0105      0.0000      0.0000      0.0000      0.0000      0.0792      0.1274      0.0000
122      0.0000      0.0094      0.0000      0.0000      0.0134      0.0000      0.0000      0.0000      0.0000
123      0.0000      0.0084      0.0000      0.0000      0.0000      0.0000      0.0952      0.0000      0.0000
124      0.0000      0.0053      0.0000      0.0000      0.0000      0.0275      0.0000      0.0113      0.0188
125      0.0000      0.0068      0.0000      0.0000      0.0000      0.0000      0.0000      0.0000      0.0000
126      0.0000      0.0017      0.0000      0.0000      0.0000      0.0000      0.0000      0.0000      0.0000
127      0.0000      0.0054      0.0000      0.0000      0.0000      0.0000      0.0000      0.0000      0.0000
128      0.0000      0.0049      0.0000      0.0000      0.0000      0.0000      0.0000      0.0000      0.0000
129      0.0000      0.0035      0.0017      0.0000      0.0000      0.0000      0.0000      0.0000      0.0000
130      0.0000      0.0031      0.0000      0.0000      0.0000      0.0000      0.0000      0.0000      0.0000
131      0.0000      0.0025      0.0000      0.0000      0.0000      0.0000      0.0000      0.0000      0.0000
132      0.0000      0.0026      0.0000      0.0000      0.0000      0.0219      0.0000      0.0000      0.0000
133      0.0000      0.0056      0.0000      0.0000      0.0000      0.0000      0.0000      0.0000      0.0000
134      0.0000      0.0165      0.0000      0.0022      0.0000      0.0102      0.0000      0.0000      0.0000
135      0.0000      0.0163      0.0000      0.0000      0.0000      0.0000      0.0000      0.0000      0.0000
136      0.0000      0.0283      0.0000      0.0000      0.0000      0.0000      0.0000      0.0069      0.0000
137      0.0000      0.0225      0.0000      0.0000      0.0000      0.0000      0.0000      0.0000      0.0000
138      0.0000      0.0369      0.0000      0.0000      0.0000      0.0382      0.0000      0.0000      0.0000
139      0.0000      0.0450      0.0000      0.0000      0.1098      0.0000      0.0420      0.0000      0.1566
140      0.0000      0.0651      0.0000      0.0000      0.0000      0.0000      0.0055      0.0000      0.0357
141      0.2697      0.0726      0.0000      0.2945      0.0000      0.0326      0.2607      0.1885      0.0000
142      0.9244      0.0982      0.0000      0.0000      0.1291      0.4022      0.0000      0.1989      0.1935
143      0.0000      0.0244      0.0432      0.0000      0.1059      0.0557      0.0000      0.0000      0.0133
144      0.9286      0.2724      0.4406      0.2782      0.2468      0.2703      0.2531      0.2929      0.2778
145      0.0000      0.0252      0.0153      0.0000      0.0552      0.0170      0.1392      0.1144      0.0000
146      0.0000      0.1702      0.3028      0.2468      0.1999      0.2144      0.1848      0.1336      0.2217
147      0.1064      0.2079      0.1558      0.2115      0.2091      0.1410      0.3222      0.1983      0.3791
148      0.0000      0.0088      0.0000      0.0000      0.0375      0.0000      0.0000      0.0000      0.0000
149      0.0000      0.0413      0.1228      0.1759      0.0000      0.1490      0.0000      0.0551      0.0000
150      0.0000      0.0086      0.0065      0.0286      0.0000      0.0000      0.0000      0.0145      0.0000

# j      m_j: min, <> & last-chain-values for 1 ...  7 chains
  1  0.0000E+00  6.4390E-05  0.0000E+00  0.0000E+00  0.0000E+00  0.0000E+00  0.0000E+00  0.0000E+00  0.0000E+00
  2  1.0189E-01  8.0841E-02  8.3483E-02  8.3148E-02  8.5182E-02  8.5673E-02  8.5656E-02  8.5877E-02  8.7172E-02
  3  0.0000E+00  8.9640E-05  0.0000E+00  0.0000E+00  0.0000E+00  0.0000E+00  0.0000E+00  0.0000E+00  0.0000E+00
  4  0.0000E+00  3.0613E-05  0.0000E+00  0.0000E+00  0.0000E+00  0.0000E+00  0.0000E+00  0.0000E+00  0.0000E+00
  5  0.0000E+00  3.2110E-05  0.0000E+00  0.0000E+00  0.0000E+00  1.5491E-04  0.0000E+00  0.0000E+00  0.0000E+00
  6  0.0000E+00  5.1066E-05  0.0000E+00  0.0000E+00  0.0000E+00  0.0000E+00  0.0000E+00  0.0000E+00  0.0000E+00
  7  0.0000E+00  1.0584E-04  0.0000E+00  0.0000E+00  0.0000E+00  0.0000E+00  0.0000E+00  0.0000E+00  0.0000E+00
  8  0.0000E+00  2.7935E-04  0.0000E+00  0.0000E+00  0.0000E+00  0.0000E+00  0.0000E+00  0.0000E+00  0.0000E+00
  9  0.0000E+00  6.6006E-04  0.0000E+00  8.1878E-05  0.0000E+00  0.0000E+00  0.0000E+00  0.0000E+00  0.0000E+00
 10  0.0000E+00  1.1662E-03  1.6813E-03  1.5935E-03  0.0000E+00  0.0000E+00  0.0000E+00  0.0000E+00  0.0000E+00
 11  0.0000E+00  2.7980E-03  0.0000E+00  0.0000E+00  0.0000E+00  6.9525E-04  0.0000E+00  3.5961E-03  0.0000E+00
 12  0.0000E+00  3.4543E-03  0.0000E+00  0.0000E+00  4.9183E-03  0.0000E+00  1.9192E-02  0.0000E+00  0.0000E+00
 13  0.0000E+00  3.5971E-03  0.0000E+00  0.0000E+00  0.0000E+00  0.0000E+00  0.0000E+00  3.6243E-03  0.0000E+00
 14  0.0000E+00  6.8309E-03  0.0000E+00  4.8669E-03  2.5219E-03  2.5869E-02  0.0000E+00  0.0000E+00  0.0000E+00
 15  0.0000E+00  9.1547E-03  3.3756E-02  4.8296E-03  1.8459E-02  2.7070E-02  0.0000E+00  0.0000E+00  0.0000E+00
 16  0.0000E+00  2.7700E-02  0.0000E+00  0.0000E+00  0.0000E+00  8.7135E-03  0.0000E+00  9.7304E-03  1.4568E-02
 17  0.0000E+00  3.1666E-02  1.6444E-01  0.0000E+00  0.0000E+00  4.6230E-03  7.1800E-02  0.0000E+00  0.0000E+00
 18  0.0000E+00  4.2138E-02  8.7117E-02  0.0000E+00  0.0000E+00  0.0000E+00  0.0000E+00  0.0000E+00  0.0000E+00
 19  0.0000E+00  1.1800E-01  0.0000E+00  9.5299E-02  0.0000E+00  0.0000E+00  0.0000E+00  0.0000E+00  0.0000E+00
 20  1.2060E+00  7.1147E-01  1.2684E-01  6.9338E-01  1.0211E+00  6.8457E-01  0.0000E+00  3.9907E-01  0.0000E+00
 21  0.0000E+00  7.6652E-01  2.6839E-01  1.0693E+00  3.6672E-01  1.0897E-01  8.0505E-01  0.0000E+00  1.2926E+00
 22  1.2366E+00  9.7971E-01  8.4679E-01  6.1724E-01  3.7807E-01  8.5241E-01  1.6726E+00  4.1350E+00  6.6540E-01
 23  4.3829E+00  1.6702E+00  2.5414E+00  1.8405E+00  2.5483E+00  1.6462E+00  2.0975E+00  1.6552E+00  1.4719E-01
 24  0.0000E+00  1.3139E+00  3.7164E-03  9.4613E-01  1.1123E+00  1.2446E+00  1.8042E+00  0.0000E+00  1.7002E-01
 25  1.8062E-01  1.4596E+00  1.7369E+00  2.3867E+00  0.0000E+00  1.7927E+00  7.4100E-03  1.1388E+00  7.2511E-01
 26  0.0000E+00  3.6252E-05  0.0000E+00  0.0000E+00  0.0000E+00  0.0000E+00  0.0000E+00  0.0000E+00  0.0000E+00
 27  0.0000E+00  4.9756E-05  0.0000E+00  0.0000E+00  0.0000E+00  0.0000E+00  0.0000E+00  0.0000E+00  0.0000E+00
 28  0.0000E+00  3.4424E-05  0.0000E+00  0.0000E+00  0.0000E+00  0.0000E+00  0.0000E+00  0.0000E+00  0.0000E+00
 29  0.0000E+00  3.5569E-05  0.0000E+00  0.0000E+00  0.0000E+00  0.0000E+00  0.0000E+00  0.0000E+00  0.0000E+00
 30  0.0000E+00  5.0421E-05  0.0000E+00  0.0000E+00  0.0000E+00  0.0000E+00  0.0000E+00  0.0000E+00  0.0000E+00
 31  0.0000E+00  5.7244E-05  0.0000E+00  9.1857E-05  0.0000E+00  0.0000E+00  0.0000E+00  0.0000E+00  0.0000E+00
 32  0.0000E+00  1.1118E-04  6.1129E-04  0.0000E+00  0.0000E+00  0.0000E+00  0.0000E+00  0.0000E+00  2.8459E-04
 33  0.0000E+00  3.4864E-04  0.0000E+00  0.0000E+00  0.0000E+00  0.0000E+00  0.0000E+00  0.0000E+00  0.0000E+00
 34  0.0000E+00  8.7742E-04  0.0000E+00  4.2351E-04  0.0000E+00  0.0000E+00  2.5428E-03  0.0000E+00  3.6286E-04
 35  0.0000E+00  9.2369E-04  0.0000E+00  0.0000E+00  0.0000E+00  0.0000E+00  0.0000E+00  0.0000E+00  0.0000E+00
 36  0.0000E+00  3.2701E-03  1.1303E-02  6.1879E-03  1.4565E-02  0.0000E+00  1.6767E-03  0.0000E+00  0.0000E+00
 37  3.3390E-02  6.3720E-03  7.6099E-03  9.0279E-03  1.3806E-02  2.3121E-02  1.3258E-02  1.2348E-02  0.0000E+00
 38  0.0000E+00  9.4452E-03  0.0000E+00  9.7752E-03  0.0000E+00  6.6213E-03  1.1076E-02  0.0000E+00  0.0000E+00
 39  0.0000E+00  9.6289E-03  0.0000E+00  0.0000E+00  0.0000E+00  1.4312E-03  6.5349E-02  0.0000E+00  0.0000E+00
 40  0.0000E+00  2.0723E-02  0.0000E+00  1.7246E-01  0.0000E+00  0.0000E+00  0.0000E+00  0.0000E+00  0.0000E+00
 41  0.0000E+00  2.4352E-02  5.9969E-02  9.7231E-03  1.7720E-02  0.0000E+00  2.5938E-02  0.0000E+00  5.7449E-02
 42  0.0000E+00  3.1835E-02  0.0000E+00  0.0000E+00  1.2087E-02  1.3816E-01  0.0000E+00  3.5855E-02  0.0000E+00
 43  1.8954E+01  1.5862E+01  1.5784E+01  1.5907E+01  1.6559E+01  1.6264E+01  1.6127E+01  1.6952E+01  1.6865E+01
 44  5.8283E+01  5.2620E+01  5.3069E+01  5.1809E+01  5.4111E+01  5.2924E+01  5.3523E+01  5.3442E+01  5.6986E+01
 45  0.0000E+00  5.6493E-01  9.1823E-01  3.1250E-01  4.7839E-01  0.0000E+00  4.2325E-01  0.0000E+00  0.0000E+00
 46  5.8565E+00  8.8455E+00  8.6659E+00  8.0336E+00  9.2616E+00  9.4895E+00  8.6518E+00  8.7195E+00  8.1492E+00
 47  4.8258E-01  2.9027E+00  3.2555E+00  2.7381E+00  3.0301E+00  2.5282E+00  2.2173E+00  2.4821E+00  3.0926E+00
 48  0.0000E+00  4.7172E-01  1.4219E-01  6.6968E-01  2.6668E-01  0.0000E+00  0.0000E+00  4.2748E-01  9.3987E-01
 49  0.0000E+00  4.2207E-01  3.6687E-01  1.9201E-01  9.7180E-02  0.0000E+00  6.4678E-02  0.0000E+00  0.0000E+00
 50  4.7198E-06  4.1402E-01  3.2361E-01  0.0000E+00  0.0000E+00  0.0000E+00  6.3301E-01  5.7121E-01  1.2423E-01
 51  0.0000E+00  3.7983E-05  0.0000E+00  0.0000E+00  0.0000E+00  0.0000E+00  0.0000E+00  0.0000E+00  0.0000E+00
 52  0.0000E+00  1.0291E-04  0.0000E+00  0.0000E+00  8.4210E-05  0.0000E+00  0.0000E+00  0.0000E+00  1.0463E-04
 53  0.0000E+00  3.9368E-05  0.0000E+00  0.0000E+00  0.0000E+00  0.0000E+00  0.0000E+00  0.0000E+00  0.0000E+00
 54  0.0000E+00  1.6760E-04  0.0000E+00  0.0000E+00  0.0000E+00  0.0000E+00  0.0000E+00  4.8506E-04  0.0000E+00
 55  0.0000E+00  1.8442E-04  0.0000E+00  0.0000E+00  0.0000E+00  0.0000E+00  0.0000E+00  6.3005E-05  0.0000E+00
 56  0.0000E+00  1.7231E-04  0.0000E+00  1.2441E-04  0.0000E+00  0.0000E+00  0.0000E+00  0.0000E+00  0.0000E+00
 57  0.0000E+00  8.0283E-05  0.0000E+00  0.0000E+00  0.0000E+00  0.0000E+00  0.0000E+00  0.0000E+00  0.0000E+00
 58  0.0000E+00  3.1064E-04  5.9782E-05  0.0000E+00  0.0000E+00  0.0000E+00  0.0000E+00  0.0000E+00  0.0000E+00
 59  0.0000E+00  4.4825E-04  0.0000E+00  0.0000E+00  0.0000E+00  0.0000E+00  0.0000E+00  0.0000E+00  0.0000E+00
 60  0.0000E+00  8.2774E-04  0.0000E+00  0.0000E+00  7.8921E-04  0.0000E+00  0.0000E+00  0.0000E+00  0.0000E+00
 61  0.0000E+00  3.8402E-03  0.0000E+00  0.0000E+00  0.0000E+00  1.3210E-02  0.0000E+00  1.0457E-03  2.1067E-02
 62  0.0000E+00  7.2712E-03  2.0018E-02  0.0000E+00  1.8781E-02  0.0000E+00  3.7990E-03  0.0000E+00  0.0000E+00
 63  0.0000E+00  7.1969E-03  1.4655E-02  0.0000E+00  0.0000E+00  1.5705E-03  0.0000E+00  1.6028E-02  0.0000E+00
 64  0.0000E+00  9.3406E-03  3.6989E-02  0.0000E+00  4.2744E-03  0.0000E+00  4.3744E-03  0.0000E+00  1.5062E-02
 65  0.0000E+00  1.3919E-02  4.9639E-03  0.0000E+00  0.0000E+00  0.0000E+00  0.0000E+00  0.0000E+00  0.0000E+00
 66  0.0000E+00  7.5298E-03  0.0000E+00  0.0000E+00  0.0000E+00  0.0000E+00  0.0000E+00  4.2890E-02  4.1189E-02
 67  0.0000E+00  2.1215E-02  0.0000E+00  0.0000E+00  0.0000E+00  0.0000E+00  0.0000E+00  0.0000E+00  0.0000E+00
 68  0.0000E+00  7.7387E-02  0.0000E+00  5.1644E-02  7.3178E-02  0.0000E+00  0.0000E+00  0.0000E+00  3.9821E-02
 69  0.0000E+00  7.3105E-02  0.0000E+00  0.0000E+00  0.0000E+00  0.0000E+00  0.0000E+00  0.0000E+00  4.9008E-02
 70  0.0000E+00  7.8666E-02  0.0000E+00  0.0000E+00  0.0000E+00  0.0000E+00  0.0000E+00  0.0000E+00  0.0000E+00
 71  0.0000E+00  1.6322E-01  1.1101E-01  1.1704E-01  0.0000E+00  0.0000E+00  1.8784E-01  0.0000E+00  0.0000E+00
 72  0.0000E+00  3.1215E-01  0.0000E+00  9.7892E-02  0.0000E+00  7.0688E-02  2.7034E-01  0.0000E+00  0.0000E+00
 73  0.0000E+00  1.1149E-01  0.0000E+00  0.0000E+00  4.0712E-01  0.0000E+00  0.0000E+00  0.0000E+00  0.0000E+00
 74  0.0000E+00  8.3072E-02  0.0000E+00  0.0000E+00  0.0000E+00  1.0647E+00  0.0000E+00  0.0000E+00  3.1064E-02
 75  0.0000E+00  1.2459E-01  0.0000E+00  0.0000E+00  1.1264E+00  5.7665E-01  0.0000E+00  0.0000E+00  0.0000E+00
 76  0.0000E+00  3.4130E-05  0.0000E+00  0.0000E+00  0.0000E+00  0.0000E+00  0.0000E+00  2.8478E-04  0.0000E+00
 77  0.0000E+00  1.3286E-05  0.0000E+00  0.0000E+00  0.0000E+00  0.0000E+00  0.0000E+00  0.0000E+00  0.0000E+00
 78  0.0000E+00  2.1761E-05  0.0000E+00  0.0000E+00  0.0000E+00  0.0000E+00  0.0000E+00  0.0000E+00  2.2504E-04
 79  0.0000E+00  7.4956E-05  0.0000E+00  0.0000E+00  0.0000E+00  0.0000E+00  0.0000E+00  0.0000E+00  0.0000E+00
 80  0.0000E+00  8.5161E-05  0.0000E+00  0.0000E+00  0.0000E+00  0.0000E+00  4.5259E-05  0.0000E+00  0.0000E+00
 81  0.0000E+00  1.0319E-04  0.0000E+00  0.0000E+00  0.0000E+00  0.0000E+00  0.0000E+00  0.0000E+00  0.0000E+00
 82  0.0000E+00  1.1683E-04  0.0000E+00  0.0000E+00  0.0000E+00  0.0000E+00  0.0000E+00  0.0000E+00  0.0000E+00
 83  0.0000E+00  3.3970E-04  0.0000E+00  0.0000E+00  0.0000E+00  3.4945E-04  0.0000E+00  0.0000E+00  0.0000E+00
 84  0.0000E+00  5.2182E-04  0.0000E+00  0.0000E+00  0.0000E+00  4.4792E-03  0.0000E+00  0.0000E+00  0.0000E+00
 85  0.0000E+00  9.3761E-04  0.0000E+00  0.0000E+00  0.0000E+00  0.0000E+00  0.0000E+00  0.0000E+00  0.0000E+00
 86  0.0000E+00  1.6312E-03  7.1692E-03  0.0000E+00  0.0000E+00  0.0000E+00  0.0000E+00  0.0000E+00  0.0000E+00
 87  0.0000E+00  3.2329E-03  9.2113E-03  0.0000E+00  0.0000E+00  0.0000E+00  0.0000E+00  6.9297E-03  4.9283E-03
 88  0.0000E+00  3.9546E-03  0.0000E+00  0.0000E+00  1.3260E-02  6.5941E-04  0.0000E+00  0.0000E+00  0.0000E+00
 89  0.0000E+00  4.4110E-03  0.0000E+00  0.0000E+00  0.0000E+00  0.0000E+00  1.2247E-02  0.0000E+00  0.0000E+00
 90  0.0000E+00  7.7419E-03  0.0000E+00  0.0000E+00  0.0000E+00  0.0000E+00  0.0000E+00  4.4542E-02  0.0000E+00
 91  0.0000E+00  7.7499E-03  1.0612E-02  0.0000E+00  5.9548E-02  0.0000E+00  0.0000E+00  0.0000E+00  0.0000E+00
 92  0.0000E+00  1.4742E-02  0.0000E+00  0.0000E+00  0.0000E+00  0.0000E+00  0.0000E+00  1.7884E-02  0.0000E+00
 93  0.0000E+00  4.1111E-02  0.0000E+00  0.0000E+00  0.0000E+00  1.9127E-01  2.4902E-02  0.0000E+00  0.0000E+00
 94  0.0000E+00  7.3892E-02  0.0000E+00  0.0000E+00  0.0000E+00  0.0000E+00  0.0000E+00  0.0000E+00  3.0895E-01
 95  0.0000E+00  9.2244E-02  7.8107E-02  4.0845E-03  0.0000E+00  5.6600E-02  0.0000E+00  0.0000E+00  2.1568E-01
 96  0.0000E+00  9.1216E-02  0.0000E+00  0.0000E+00  3.8938E-01  0.0000E+00  0.0000E+00  0.0000E+00  2.5846E-02
 97  0.0000E+00  1.1185E-01  0.0000E+00  5.5784E-02  0.0000E+00  0.0000E+00  0.0000E+00  0.0000E+00  0.0000E+00
 98  0.0000E+00  8.4475E-02  2.2194E-01  0.0000E+00  0.0000E+00  0.0000E+00  0.0000E+00  0.0000E+00  0.0000E+00
 99  0.0000E+00  1.4987E-01  0.0000E+00  0.0000E+00  1.3960E-01  0.0000E+00  0.0000E+00  0.0000E+00  0.0000E+00
100  0.0000E+00  1.1124E-01  0.0000E+00  0.0000E+00  0.0000E+00  0.0000E+00  0.0000E+00  0.0000E+00  0.0000E+00
101  0.0000E+00  1.5329E-05  0.0000E+00  0.0000E+00  0.0000E+00  0.0000E+00  0.0000E+00  0.0000E+00  0.0000E+00
102  0.0000E+00  1.1652E-05  0.0000E+00  0.0000E+00  0.0000E+00  0.0000E+00  0.0000E+00  0.0000E+00  0.0000E+00
103  0.0000E+00  4.2136E-05  0.0000E+00  0.0000E+00  0.0000E+00  0.0000E+00  0.0000E+00  0.0000E+00  0.0000E+00
104  0.0000E+00  5.2080E-05  0.0000E+00  0.0000E+00  0.0000E+00  0.0000E+00  0.0000E+00  0.0000E+00  0.0000E+00
105  0.0000E+00  5.0824E-05  0.0000E+00  0.0000E+00  0.0000E+00  0.0000E+00  0.0000E+00  0.0000E+00  0.0000E+00
106  0.0000E+00  7.2678E-05  0.0000E+00  0.0000E+00  0.0000E+00  0.0000E+00  0.0000E+00  0.0000E+00  0.0000E+00
107  0.0000E+00  1.2881E-04  1.1922E-04  0.0000E+00  0.0000E+00  0.0000E+00  0.0000E+00  0.0000E+00  0.0000E+00
108  0.0000E+00  1.4524E-04  0.0000E+00  1.0855E-03  0.0000E+00  0.0000E+00  0.0000E+00  0.0000E+00  0.0000E+00
109  0.0000E+00  3.9533E-04  0.0000E+00  0.0000E+00  0.0000E+00  0.0000E+00  0.0000E+00  4.0805E-05  0.0000E+00
110  0.0000E+00  7.0908E-04  0.0000E+00  0.0000E+00  0.0000E+00  0.0000E+00  0.0000E+00  0.0000E+00  0.0000E+00
111  0.0000E+00  1.9630E-03  0.0000E+00  0.0000E+00  0.0000E+00  0.0000E+00  0.0000E+00  0.0000E+00  0.0000E+00
112  0.0000E+00  1.9416E-03  0.0000E+00  2.7607E-02  0.0000E+00  0.0000E+00  0.0000E+00  0.0000E+00  0.0000E+00
113  0.0000E+00  3.8465E-03  0.0000E+00  0.0000E+00  5.4692E-03  0.0000E+00  0.0000E+00  0.0000E+00  5.9552E-04
114  0.0000E+00  4.6105E-03  0.0000E+00  0.0000E+00  0.0000E+00  0.0000E+00  0.0000E+00  0.0000E+00  0.0000E+00
115  0.0000E+00  1.2402E-02  0.0000E+00  2.8596E-03  2.9018E-02  0.0000E+00  0.0000E+00  0.0000E+00  0.0000E+00
116  0.0000E+00  3.1539E-02  2.7574E-02  0.0000E+00  9.7147E-02  0.0000E+00  0.0000E+00  0.0000E+00  0.0000E+00
117  0.0000E+00  3.2822E-02  2.9506E-02  2.2501E-01  0.0000E+00  0.0000E+00  1.3106E-02  0.0000E+00  0.0000E+00
118  0.0000E+00  7.2499E-02  0.0000E+00  0.0000E+00  0.0000E+00  0.0000E+00  4.3542E-01  0.0000E+00  0.0000E+00
119  0.0000E+00  5.2461E-02  0.0000E+00  0.0000E+00  0.0000E+00  0.0000E+00  0.0000E+00  0.0000E+00  0.0000E+00
120  0.0000E+00  7.4496E-02  1.7756E-01  1.0350E-01  0.0000E+00  0.0000E+00  0.0000E+00  0.0000E+00  0.0000E+00
121  0.0000E+00  6.0712E-02  0.0000E+00  0.0000E+00  0.0000E+00  0.0000E+00  4.5973E-01  7.4596E-01  0.0000E+00
122  0.0000E+00  7.2834E-02  0.0000E+00  0.0000E+00  1.0519E-01  0.0000E+00  0.0000E+00  0.0000E+00  0.0000E+00
123  0.0000E+00  8.5673E-02  0.0000E+00  0.0000E+00  0.0000E+00  0.0000E+00  9.7568E-01  0.0000E+00  0.0000E+00
124  0.0000E+00  6.1482E-02  0.0000E+00  0.0000E+00  0.0000E+00  3.2335E-01  0.0000E+00  1.3419E-01  2.2672E-01
125  0.0000E+00  9.4572E-02  0.0000E+00  0.0000E+00  0.0000E+00  0.0000E+00  0.0000E+00  0.0000E+00  0.0000E+00
126  0.0000E+00  1.2595E-05  0.0000E+00  0.0000E+00  0.0000E+00  0.0000E+00  0.0000E+00  0.0000E+00  0.0000E+00
127  0.0000E+00  2.0885E-05  0.0000E+00  0.0000E+00  0.0000E+00  0.0000E+00  0.0000E+00  0.0000E+00  0.0000E+00
128  0.0000E+00  2.8446E-05  0.0000E+00  0.0000E+00  0.0000E+00  0.0000E+00  0.0000E+00  0.0000E+00  0.0000E+00
129  0.0000E+00  4.1829E-05  1.9639E-05  0.0000E+00  0.0000E+00  0.0000E+00  0.0000E+00  0.0000E+00  0.0000E+00
130  0.0000E+00  5.0014E-05  0.0000E+00  0.0000E+00  0.0000E+00  0.0000E+00  0.0000E+00  0.0000E+00  0.0000E+00
131  0.0000E+00  4.7267E-05  0.0000E+00  0.0000E+00  0.0000E+00  0.0000E+00  0.0000E+00  0.0000E+00  0.0000E+00
132  0.0000E+00  6.4921E-05  0.0000E+00  0.0000E+00  0.0000E+00  5.5681E-04  0.0000E+00  0.0000E+00  0.0000E+00
133  0.0000E+00  2.0516E-04  0.0000E+00  0.0000E+00  0.0000E+00  0.0000E+00  0.0000E+00  0.0000E+00  0.0000E+00
134  0.0000E+00  7.7131E-04  0.0000E+00  1.0237E-04  0.0000E+00  4.7864E-04  0.0000E+00  0.0000E+00  0.0000E+00
135  0.0000E+00  9.1611E-04  0.0000E+00  0.0000E+00  0.0000E+00  0.0000E+00  0.0000E+00  0.0000E+00  0.0000E+00
136  0.0000E+00  2.2869E-03  0.0000E+00  0.0000E+00  0.0000E+00  0.0000E+00  0.0000E+00  5.6846E-04  0.0000E+00
137  0.0000E+00  2.4863E-03  0.0000E+00  0.0000E+00  0.0000E+00  0.0000E+00  0.0000E+00  0.0000E+00  0.0000E+00
138  0.0000E+00  6.7842E-03  0.0000E+00  0.0000E+00  0.0000E+00  7.0435E-03  0.0000E+00  0.0000E+00  0.0000E+00
139  0.0000E+00  1.5598E-02  0.0000E+00  0.0000E+00  3.8745E-02  0.0000E+00  1.4620E-02  0.0000E+00  5.5959E-02
140  0.0000E+00  5.2281E-02  0.0000E+00  0.0000E+00  0.0000E+00  0.0000E+00  4.4563E-03  0.0000E+00  2.9563E-02
141  3.6467E-01  8.9265E-02  0.0000E+00  3.5628E-01  0.0000E+00  4.0199E-02  3.2213E-01  2.3485E-01  0.0000E+00
142  1.4872E+00  1.4356E-01  0.0000E+00  0.0000E+00  1.9208E-01  5.8983E-01  0.0000E+00  2.9484E-01  2.9172E-01
143  0.0000E+00  7.1015E-02  1.2518E-01  0.0000E+00  3.1331E-01  1.6240E-01  0.0000E+00  0.0000E+00  3.9879E-02
144  5.8340E+00  1.5553E+00  2.5052E+00  1.5642E+00  1.4347E+00  1.5481E+00  1.4531E+00  1.6957E+00  1.6356E+00
145  0.0000E+00  2.1403E-01  1.2990E-01  0.0000E+00  4.7758E-01  1.4453E-01  1.1900E+00  9.8590E-01  0.0000E+00
146  0.0000E+00  1.7276E+00  3.0614E+00  2.4662E+00  2.0657E+00  2.1834E+00  1.8865E+00  1.3745E+00  2.3197E+00
147  1.5968E+00  2.8352E+00  2.1165E+00  2.8404E+00  2.9026E+00  1.9284E+00  4.4185E+00  2.7417E+00  5.3311E+00
148  0.0000E+00  1.6208E-01  0.0000E+00  0.0000E+00  7.0603E-01  0.0000E+00  0.0000E+00  0.0000E+00  0.0000E+00
149  0.0000E+00  8.9309E-01  2.6472E+00  3.7483E+00  0.0000E+00  3.2336E+00  0.0000E+00  1.2089E+00  0.0000E+00
150  0.0000E+00  2.2256E-01  1.6604E-01  7.2487E-01  0.0000E+00  0.0000E+00  0.0000E+00  3.7926E-01  0.0000E+00

# AV, chi2 & Mass for <> & i_chain = 1 ...  7 solutions
AV       0.7048      0.6870      0.6884      0.6875      0.6879      0.6913      0.6870      0.6885      0.6868
chi2 2.5012E+00  2.5513E+00  2.5304E+00  2.5306E+00  2.5330E+00  2.5295E+00  2.5293E+00  2.5283E+00  2.5310E+00
Mass 4.4418E-11  4.7723E-11  4.8010E-11  4.8502E-11  4.6941E-11  4.7855E-11  4.7456E-11  4.7164E-11  4.6273E-11
 -11.74                                  [v0_min (km/s) before EX0s...]
  69.85                                  [vd_min (km/s) before EX0s...]


## Synthetic spectrum (Best Model) ##l_obs f_obs f_syn wei
 3070    [Nl_obs]
 3359.00    0.31994   0.43318   -1.000
 3360.00    0.26431   0.42496   -1.000
 3361.00    0.27338   0.43507   -1.000
 3362.00    0.31592   0.45670   -1.000
 3363.00    0.31180   0.47966   -1.000
 3364.00    0.34234   0.49261   -1.000
 3365.00    0.34322   0.49172   -1.000
 3366.00    0.30777   0.48450   -1.000
 3367.00    0.28587   0.47690   -1.000
 3368.00    0.26612   0.46927   -1.000
 3369.00    0.28045   0.45973   -1.000
 3370.00    0.29336   0.44756   -1.000
 3371.00    0.27859   0.43958   -1.000
 3372.00    0.31227   0.44285   -1.000
 3373.00    0.34409   0.45740   -1.000
 3374.00    0.33799   0.47675   -1.000
 3375.00    0.32298   0.49386   -1.000
 3376.00    0.31251   0.50250   -1.000
 3377.00    0.33883   0.50075   -1.000
 3378.00    0.38515   0.49251   -1.000
 3379.00    0.38055   0.48589   -1.000
 3380.00    0.36460   0.48571   -1.000
 3381.00    0.36680   0.49019   -1.000
 3382.00    0.38343   0.49555   -1.000
 3383.00    0.39957   0.50037   -1.000
 3384.00    0.39489   0.50449   -1.000
 3385.00    0.37574   0.50631   -1.000
 3386.00    0.36445   0.50260   -1.000
 3387.00    0.39206   0.49618   -1.000
 3388.00    0.41039   0.49443   -1.000
 3389.00    0.39006   0.49923   -1.000
 3390.00    0.36457   0.50557   -1.000
 3391.00    0.42817   0.50782   -1.000
 3392.00    0.47651   0.50448   48.819
 3393.00    0.43737   0.50233   46.926
 3394.00    0.41159   0.50703   -1.000
 3395.00    0.42141   0.51734   -1.000
 3396.00    0.44319   0.52928   -1.000
 3397.00    0.45931   0.53904   -1.000
 3398.00    0.47532   0.54428   39.024
 3399.00    0.49204   0.54316   38.997
 3400.00    0.46706   0.53626   40.105
 3401.00    0.42168   0.52464   -1.000
 3402.00    0.41148   0.51174   -1.000
 3403.00    0.40216   0.50404   -1.000
 3404.00    0.42550   0.50258   -1.000
 3405.00    0.46573   0.50441   43.618
 3406.00    0.47066   0.50355   44.093
 3407.00    0.48234   0.49862   44.546
 3408.00    0.46904   0.49429   44.491
 3409.00    0.44932   0.49578   43.597
 3410.00    0.43829   0.50075   42.817
 3411.00    0.43856   0.50201   43.706
 3412.00    0.44815   0.49924   45.018
 3413.00    0.44626   0.49663   45.310
 3414.00    0.47089   0.49933   44.614
 3415.00    0.45872   0.50745   43.027
 3416.00    0.47220   0.51650   41.061
 3417.00    0.47818   0.52439   39.038
 3418.00    0.44542   0.53120   -1.000
 3419.00    0.47903   0.53692   37.887
 3420.00    0.53356   0.54018   37.903
 3421.00    0.55478   0.53772   38.635
 3422.00    0.53851   0.52885   39.633
 3423.00    0.48985   0.51907   39.361
 3424.00    0.46898   0.51482   38.267
 3425.00    0.48479   0.51705   37.716
 3426.00    0.48728   0.52296   75.354
 3427.00    0.46214   0.53208   -1.000
 3428.00    0.45868   0.54422   -1.000
 3429.00    0.48892   0.55479   -1.000
 3430.00    0.52416   0.55559   -1.000
 3431.00    0.52881   0.54467   62.468
 3432.00    0.50934   0.53184   37.642
 3433.00    0.50129   0.52818   75.567
 3434.00    0.49075   0.53632   -1.000
 3435.00    0.47262   0.54727   -1.000
 3436.00    0.50345   0.54999   38.497
 3437.00    0.52447   0.54249   40.600
 3438.00    0.47793   0.52944   43.490
 3439.00    0.41973   0.51482   -1.000
 3440.00    0.44027   0.50040   46.835
 3441.00    0.47830   0.48844   46.745
 3442.00    0.46833   0.48280   45.579
 3443.00    0.48112   0.48491   43.356
 3444.00    0.50361   0.49343   40.961
 3445.00    0.49072   0.50667   39.183
 3446.00    0.48781   0.52360   78.215
 3447.00    0.50959   0.54106   -1.000
 3448.00    0.52784   0.55374   -1.000
 3449.00    0.52908   0.55538   -1.000
 3450.00    0.49533   0.54345   -1.000
 3451.00    0.47580   0.52596   -1.000
 3452.00    0.50873   0.51409  320.061
 3453.00    0.54681   0.51223   -1.000
 3454.00    0.56817   0.51745   -1.000
 3455.00    0.54419   0.52399   -1.000
 3456.00    0.52442   0.52736  320.061
 3457.00    0.53440   0.52600   61.062
 3458.00    0.53471   0.52057   37.922
 3459.00    0.52328   0.51296   37.993
 3460.00    0.49334   0.50589   77.883
 3461.00    0.46962   0.50470   -1.000
 3462.00    0.51533   0.51186  320.061
 3463.00    0.53935   0.52118   -1.000
 3464.00    0.53962   0.52491   -1.000
 3465.00    0.54947   0.52362   -1.000
 3466.00    0.54115   0.52464   -1.000
 3467.00    0.55261   0.53219   -1.000
 3468.00    0.53112   0.54404   -1.000
 3469.00    0.52539   0.55420   -1.000
 3470.00    0.56568   0.55738  320.061
 3471.00    0.58487   0.55268   -1.000
 3472.00    0.56752   0.54212   -1.000
 3473.00    0.53041   0.52768   60.882
 3474.00    0.52502   0.51417   38.765
 3475.00    0.53189   0.50686   38.863
 3476.00    0.53588   0.50837   79.813
 3477.00    0.54551   0.51757   -1.000
 3478.00    0.54539   0.52927   -1.000
 3479.00    0.53061   0.54010   -1.000
 3480.00    0.51603   0.54802   -1.000
 3481.00    0.49942   0.55012   -1.000
 3482.00    0.50125   0.54688   -1.000
 3483.00    0.50717   0.54292   -1.000
 3484.00    0.54002   0.54365  316.152
 3485.00    0.54484   0.55071  308.001
 3486.00    0.51871   0.55823   -1.000
 3487.00    0.51009   0.55926   -1.000
 3488.00    0.54815   0.55240  320.061
 3489.00    0.57207   0.54097   -1.000
 3490.00    0.52341   0.53252  320.061
 3491.00    0.51923   0.53279   -1.000
 3492.00    0.55639   0.53806   -1.000
 3493.00    0.53374   0.54007  320.061
 3494.00    0.50899   0.53562   -1.000
 3495.00    0.53245   0.52674  320.061
 3496.00    0.55584   0.52010   -1.000
 3497.00    0.57817   0.52123   -1.000
 3498.00    0.57049   0.52801   -1.000
 3499.00    0.54377   0.53517   -1.000
 3500.00    0.54931   0.53786   -1.000
 3501.00    0.53335   0.53781  292.291
 3502.00    0.54426   0.53923  296.410
 3503.00    0.59683   0.54099   -1.000
 3504.00    0.61395   0.54022   -1.000
 3505.00    0.59001   0.53616   -1.000
 3506.00    0.57404   0.53142   -1.000
 3507.00    0.57141   0.52843   -1.000
 3508.00    0.57340   0.52757   -1.000
 3509.00    0.55821   0.52771   -1.000
 3510.00    0.54878   0.52659   -1.000
 3511.00    0.54257   0.52362   -1.000
 3512.00    0.54531   0.51968   -1.000
 3513.00    0.56088   0.51740   -1.000
 3514.00    0.53623   0.52017   -1.000
 3515.00    0.53402   0.53018  309.650
 3516.00    0.56503   0.54525   -1.000
 3517.00    0.59371   0.55690   -1.000
 3518.00    0.60711   0.55783   -1.000
 3519.00    0.59270   0.54848   -1.000
 3520.00    0.58974   0.53656   -1.000
 3521.00    0.58087   0.52801   -1.000
 3522.00    0.57415   0.52263   -1.000
 3523.00    0.58350   0.51699   38.424
 3524.00    0.56589   0.51001   38.815
 3525.00    0.51954   0.50642   83.818
 3526.00    0.53258   0.51096   -1.000
 3527.00    0.53150   0.52222   -1.000
 3528.00    0.53772   0.53649  314.242
 3529.00    0.56017   0.54952   -1.000
 3530.00    0.59108   0.55804   -1.000
 3531.00    0.61479   0.56093   -1.000
 3532.00    0.59889   0.55750   -1.000
 3533.00    0.56708   0.54980   -1.000
 3534.00    0.55935   0.54375   -1.000
 3535.00    0.58799   0.54461   -1.000
 3536.00    0.59857   0.55305   -1.000
 3537.00    0.59008   0.56417   -1.000
 3538.00    0.58253   0.57296  296.999
 3539.00    0.55282   0.57764   -1.000
 3540.00    0.51672   0.57843   -1.000
 3541.00    0.51942   0.57722   -1.000
 3542.00    0.55353   0.57729   -1.000
 3543.00    0.56240   0.58024   -1.000
 3544.00    0.53804   0.58317   -1.000
 3545.00    0.50888   0.58300   -1.000
 3546.00    0.51398   0.58039   -1.000
 3547.00    0.54356   0.57768   -1.000
 3548.00    0.56147   0.57685   -1.000
 3549.00    0.57146   0.57867  312.377
 3550.00    0.55024   0.58223   -1.000
 3551.00    0.54305   0.58399   -1.000
 3552.00    0.54408   0.58035   -1.000
 3553.00    0.52018   0.57314   -1.000
 3554.00    0.52310   0.56809   -1.000
 3555.00    0.55122   0.56873   -1.000
 3556.00    0.54640   0.57439   -1.000
 3557.00    0.52104   0.58160   -1.000
 3558.00    0.53020   0.58583   -1.000
 3559.00    0.52988   0.58630   -1.000
 3560.00    0.52906   0.58565   -1.000
 3561.00    0.56321   0.58517   -1.000
 3562.00    0.55439   0.58234   -1.000
 3563.00    0.53482   0.57381   57.460
 3564.00    0.54232   0.55999   38.953
 3565.00    0.53814   0.54574   39.263
 3566.00    0.53039   0.53660   38.949
 3567.00    0.53141   0.53397   39.697
 3568.00    0.51120   0.53387   40.672
 3569.00    0.49818   0.53076   40.128
 3570.00    0.52133   0.52333   38.514
 3571.00    0.54000   0.51622   85.814
 3572.00    0.53972   0.51377   -1.000
 3573.00    0.55537   0.51557   -1.000
 3574.00    0.54340   0.52032   -1.000
 3575.00    0.51355   0.52735   -1.000
 3576.00    0.52228   0.53518   -1.000
 3577.00    0.53326   0.54189   58.982
 3578.00    0.56595   0.54438   41.189
 3579.00    0.58220   0.54024   43.846
 3580.00    0.55270   0.53148   44.905
 3581.00    0.53150   0.52263   45.119
 3582.00    0.52403   0.51810   45.909
 3583.00    0.53769   0.51720   47.301
 3584.00    0.53101   0.51253   48.300
 3585.00    0.51116   0.50038   46.947
 3586.00    0.49789   0.48732   44.474
 3587.00    0.47197   0.48332   42.245
 3588.00    0.48850   0.49186   39.051
 3589.00    0.53682   0.50832   86.428
 3590.00    0.58720   0.52482   -1.000
 3591.00    0.58249   0.53616   -1.000
 3592.00    0.55655   0.54195   -1.000
 3593.00    0.52730   0.54543   -1.000
 3594.00    0.55181   0.55059  308.785
 3595.00    0.58105   0.55855   -1.000
 3596.00    0.57415   0.56662  289.528
 3597.00    0.56603   0.57224  283.779
 3598.00    0.58935   0.57520   -1.000
 3599.00    0.58434   0.57583  294.355
 3600.00    0.55912   0.57229   -1.000
 3601.00    0.56386   0.56362  320.061
 3602.00    0.56979   0.55361   -1.000
 3603.00    0.54839   0.54743  320.061
 3604.00    0.54313   0.54743  320.061
 3605.00    0.56132   0.54994   -1.000
 3606.00    0.55319   0.55011  320.061
 3607.00    0.55976   0.54735   -1.000
 3608.00    0.56518   0.54374   -1.000
 3609.00    0.55099   0.54121   -1.000
 3610.00    0.53272   0.54057  320.061
 3611.00    0.51838   0.54255   -1.000
 3612.00    0.54766   0.54684  320.061
 3613.00    0.55648   0.55260  310.479
 3614.00    0.54025   0.56114   -1.000
 3615.00    0.55027   0.57073   -1.000
 3616.00    0.54228   0.57405   -1.000
 3617.00    0.55164   0.56742   54.993
 3618.00    0.55370   0.55513   88.297
 3619.00    0.55344   0.54730  320.061
 3620.00    0.54867   0.55058  308.409
 3621.00    0.54709   0.56133   -1.000
 3622.00    0.55399   0.57217   -1.000
 3623.00    0.59393   0.57986   -1.000
 3624.00    0.58377   0.58732  272.827
 3625.00    0.58102   0.59849   -1.000
 3626.00    0.60268   0.61189  268.175
 3627.00    0.57764   0.62002   -1.000
 3628.00    0.57725   0.61485   -1.000
 3629.00    0.55510   0.59623   -1.000
 3630.00    0.53548   0.57285   -1.000
 3631.00    0.52760   0.55682   -1.000
 3632.00    0.53088   0.55489   -1.000
 3633.00    0.53286   0.56392   -1.000
 3634.00    0.53072   0.57408   -1.000
 3635.00    0.56041   0.57907   -1.000
 3636.00    0.57107   0.58182   -1.000
 3637.00    0.54578   0.58766   -1.000
 3638.00    0.55971   0.59596   -1.000
 3639.00    0.58715   0.60170   -1.000
 3640.00    0.58446   0.60141   -1.000
 3641.00    0.57177   0.59499   -1.000
 3642.00    0.54078   0.58505   -1.000
 3643.00    0.54361   0.57569   -1.000
 3644.00    0.55770   0.56928   -1.000
 3645.00    0.55353   0.56565   -1.000
 3646.00    0.56337   0.56397  320.061
 3647.00    0.55796   0.56397  320.061
 3648.00    0.55229   0.56496   -1.000
 3649.00    0.55376   0.56643   -1.000
 3650.00    0.55056   0.56940   -1.000
 3651.00    0.55566   0.57544   -1.000
 3652.00    0.56855   0.58477   -1.000
 3653.00    0.58099   0.59539   -1.000
 3654.00    0.58616   0.60569   -1.000
 3655.00    0.59744   0.61464   -1.000
 3656.00    0.59638   0.62088   -1.000
 3657.00    0.59328   0.62367   -1.000
 3658.00    0.59058   0.62349   -1.000
 3659.00    0.60468   0.62112   -1.000
 3660.00    0.60435   0.61670   -1.000
 3661.00    0.59628   0.61083   -1.000
 3662.00    0.60551   0.60556  269.845
 3663.00    0.61993   0.60308   -1.000
 3664.00    0.60713   0.60391  267.269
 3665.00    0.60351   0.60613  271.183
 3666.00    0.60409   0.60723  275.096
 3667.00    0.59972   0.60589  280.688
 3668.00    0.60633   0.60262  281.703
 3669.00    0.58460   0.59972   -1.000
 3670.00    0.60978   0.59965  266.670
 3671.00    0.64097   0.60367   -1.000
 3672.00    0.64336   0.60992   -1.000
 3673.00    0.63971   0.61393   -1.000
 3674.00    0.60520   0.61289  270.241
 3675.00    0.59882   0.60674  278.724
 3676.00    0.59682   0.59684  287.259
 3677.00    0.58414   0.58641  295.027
 3678.00    0.60534   0.57990   -1.000
 3679.00    0.58802   0.57986  291.118
 3680.00    0.57397   0.58423  282.880
 3681.00    0.58960   0.58894  278.516
 3682.00    0.59769   0.59137  282.385
 3683.00    0.59276   0.59027  292.588
 3684.00    0.57321   0.58572   -1.000
 3685.00    0.57504   0.57948  312.392
 3686.00    0.58726   0.57623   -1.000
 3687.00    0.60397   0.58176   -1.000
 3688.00    0.60324   0.59657  271.497
 3689.00    0.59552   0.61256   -1.000
 3690.00    0.59347   0.62126   -1.000
 3691.00    0.61348   0.62266  264.954
 3692.00    0.63857   0.62273   -1.000
 3693.00    0.65315   0.62544   -1.000
 3694.00    0.66635   0.62877   -1.000
 3695.00    0.65055   0.62822   -1.000
 3696.00    0.61524   0.62315  257.867
 3697.00    0.60455   0.62122   -1.000
 3698.00    0.60948   0.63123   -1.000
 3699.00    0.63331   0.65079   -1.000
 3700.00    0.65282   0.66564   -1.000
 3701.00    0.64270   0.66006   -1.000
 3702.00    0.61314   0.63217   -1.000
 3703.00    0.57359   0.59548   -1.000
 3704.00    0.54782   0.56786   -1.000
 3705.00    0.51020   0.56023   -1.000
 3706.00    0.53755   0.57098   -1.000
 3707.00    0.58324   0.58919  308.810
 3708.00    0.61006   0.60134  296.001
 3709.00    0.60916   0.59958  282.529
 3710.00    0.56855   0.58734   -1.000
 3711.00    0.56284   0.57672   -1.000
 3712.00    0.56675   0.58002   -1.000
 3713.00    0.60147   0.60227  243.515
 3714.00    0.64018   0.63653  247.835
 3715.00    0.66293   0.66862  257.689
 3716.00    0.69032   0.68826  278.308
 3717.00    0.68165   0.69008  314.963
 3718.00    0.66123   0.66903  320.061
 3719.00    0.62264   0.62514   52.841
 3720.00    0.55992   0.57224   99.705
 3721.00    0.54810   0.53393   -1.000
 3722.00    0.55645   0.52719   -1.000
 3723.00    0.57387   0.55454   -1.000
 3724.00    0.59941   0.60286  272.966
 3725.00    0.63414   0.64811   -1.000
 3726.00    0.64378   0.67543   -1.000
 3727.00    0.66052   0.68783   -1.000
 3728.00    0.67473   0.69392   -1.000
 3729.00    0.66236   0.69529   -1.000
 3730.00    0.65567   0.68427   -1.000
 3731.00    0.63911   0.65130   51.304
 3732.00    0.55634   0.59848   40.550
 3733.00    0.51181   0.54265   43.112
 3734.00    0.48661   0.50355   42.020
 3735.00    0.47386   0.49562   38.556
 3736.00    0.51288   0.52137   98.411
 3737.00    0.56289   0.56947  306.942
 3738.00    0.61709   0.62485  285.499
 3739.00    0.64679   0.67492   -1.000
 3740.00    0.66753   0.70809   -1.000
 3741.00    0.66405   0.71925   -1.000
 3742.00    0.68569   0.71266   -1.000
 3743.00    0.66562   0.69665   -1.000
 3744.00    0.65784   0.67585   -1.000
 3745.00    0.64079   0.65051   51.829
 3746.00    0.62053   0.61921   39.729
 3747.00    0.60838   0.58198   40.792
 3748.00    0.55419   0.54320  109.373
 3749.00    0.52031   0.51395  320.061
 3750.00    0.51454   0.51008  299.042
 3751.00    0.54417   0.53946  274.403
 3752.00    0.59397   0.59256  258.280
 3753.00    0.64551   0.65002  250.870
 3754.00    0.69749   0.69538  259.604
 3755.00    0.74339   0.72120   -1.000
 3756.00    0.73398   0.72547  320.061
 3757.00    0.72007   0.71194  320.061
 3758.00    0.70657   0.69276   -1.000
 3759.00    0.69996   0.68075   -1.000
 3760.00    0.73365   0.68115   -1.000
 3761.00    0.73826   0.69146   -1.000
 3762.00    0.73940   0.70390   -1.000
 3763.00    0.74729   0.71062   -1.000
 3764.00    0.73223   0.70796   -1.000
 3765.00    0.71101   0.69592   -1.000
 3766.00    0.68760   0.67492   -1.000
 3767.00    0.68682   0.64386   -1.000
 3768.00    0.64751   0.60494   -1.000
 3769.00    0.58362   0.56734   -1.000
 3770.00    0.54376   0.54559  273.320
 3771.00    0.55229   0.55234  262.862
 3772.00    0.61508   0.58585   -1.000
 3773.00    0.64261   0.63007   -1.000
 3774.00    0.64000   0.66814   -1.000
 3775.00    0.65857   0.69504   -1.000
 3776.00    0.71292   0.71679  255.610
 3777.00    0.74802   0.74076  248.274
 3778.00    0.76857   0.76743  241.774
 3779.00    0.78858   0.79263  239.097
 3780.00    0.82447   0.81238   -1.000
 3781.00    0.84361   0.82341   -1.000
 3782.00    0.83000   0.82533  241.419
 3783.00    0.80600   0.82107   -1.000
 3784.00    0.80925   0.81295  270.006
 3785.00    0.82483   0.80034   -1.000
 3786.00    0.79758   0.78315   -1.000
 3787.00    0.76785   0.76547  294.298
 3788.00    0.77110   0.75372   -1.000
 3789.00    0.77724   0.74953   -1.000
 3790.00    0.74863   0.74807  289.217
 3791.00    0.76290   0.74256   -1.000
 3792.00    0.77162   0.72797   -1.000
 3793.00    0.72636   0.70150   -1.000
 3794.00    0.68638   0.66301   -1.000
 3795.00    0.64895   0.61665   -1.000
 3796.00    0.60546   0.56959   -1.000
 3797.00    0.55329   0.53271   -1.000
 3798.00    0.52217   0.52133  315.914
 3799.00    0.55075   0.54597  289.805
 3800.00    0.62802   0.60062   -1.000
 3801.00    0.69449   0.66452   -1.000
 3802.00    0.72611   0.71825  264.358
 3803.00    0.74788   0.75404  267.034
 3804.00    0.78577   0.77357   -1.000
 3805.00    0.79253   0.78150   -1.000
 3806.00    0.78784   0.78570  278.242
 3807.00    0.77990   0.79438   -1.000
 3808.00    0.78457   0.81028   -1.000
 3809.00    0.80576   0.82903   -1.000
 3810.00    0.85043   0.84122  278.585
 3811.00    0.85799   0.83783   -1.000
 3812.00    0.81676   0.81816  313.395
 3813.00    0.78726   0.79271  320.061
 3814.00    0.80106   0.77544   -1.000
 3815.00    0.82599   0.77413   -1.000
 3816.00    0.81964   0.78555   -1.000
 3817.00    0.83978   0.79844   -1.000
 3818.00    0.83600   0.80092   -1.000
 3819.00    0.82338   0.79026   -1.000
 3820.00    0.78737   0.77619   -1.000
 3821.00    0.77400   0.77002  320.061
 3822.00    0.79456   0.77126   -1.000
 3823.00    0.78925   0.76697   51.335
 3824.00    0.75797   0.74983   39.919
 3825.00    0.75252   0.72793   39.864
 3826.00    0.75450   0.71111   39.283
 3827.00    0.73877   0.70019   38.637
 3828.00    0.73335   0.69076   38.847
 3829.00    0.71923   0.67891   40.313
 3830.00    0.67752   0.66049   43.218
 3831.00    0.61519   0.63064   45.085
 3832.00    0.58188   0.58748   44.718
 3833.00    0.54387   0.53790   43.103
 3834.00    0.49485   0.49768   41.964
 3835.00    0.50059   0.48024   42.428
 3836.00    0.52359   0.48929   43.442
 3837.00    0.54497   0.51979   43.097
 3838.00    0.59091   0.56080   40.999
 3839.00    0.61208   0.60260  119.821
 3840.00    0.62399   0.64290   -1.000
 3841.00    0.69522   0.68279   -1.000
 3842.00    0.74607   0.72173   -1.000
 3843.00    0.76771   0.75687   -1.000
 3844.00    0.79547   0.78438   -1.000
 3845.00    0.78534   0.80388   -1.000
 3846.00    0.80935   0.81797  310.870
 3847.00    0.83835   0.82764   -1.000
 3848.00    0.83679   0.83137  320.061
 3849.00    0.84664   0.83041   -1.000
 3850.00    0.84523   0.83191   -1.000
 3851.00    0.82062   0.84185   -1.000
 3852.00    0.83100   0.85697   -1.000
 3853.00    0.85777   0.86795   -1.000
 3854.00    0.85280   0.86858   -1.000
 3855.00    0.85508   0.86014  320.061
 3856.00    0.86545   0.84866   47.765
 3857.00    0.86234   0.83884   38.986
 3858.00    0.85396   0.83231   38.875
 3859.00    0.83094   0.83147  117.156
 3860.00    0.82784   0.83885   -1.000
 3861.00    0.84827   0.85206  300.264
 3862.00    0.86677   0.86428  298.836
 3863.00    0.88902   0.87062   -1.000
 3864.00    0.88119   0.87122  308.970
 3865.00    0.87504   0.86977  314.705
 3866.00    0.86183   0.87079  320.061
 3867.00    0.89838   0.87552   -1.000
 3868.00    0.89562   0.87952   -1.000
 3869.00    0.87612   0.87590   48.123
 3870.00    0.85611   0.86166  118.155
 3871.00    0.82107   0.84017   -1.000
 3872.00    0.81713   0.82001  307.416
 3873.00    0.81439   0.81067  292.338
 3874.00    0.81882   0.81363  297.076
 3875.00    0.84255   0.81928   -1.000
 3876.00    0.86439   0.81525   -1.000
 3877.00    0.81471   0.79983   -1.000
 3878.00    0.79675   0.78368   -1.000
 3879.00    0.80173   0.77660   -1.000
 3880.00    0.79627   0.77646   -1.000
 3881.00    0.77674   0.77296  320.061
 3882.00    0.75802   0.76044  302.476
 3883.00    0.76442   0.73982   -1.000
 3884.00    0.74258   0.71044   -1.000
 3885.00    0.72059   0.66920   -1.000
 3886.00    0.67171   0.61728   -1.000
 3887.00    0.63243   0.56560   -1.000
 3888.00    0.55468   0.53145   -1.000
 3889.00    0.53235   0.52847  267.097
 3890.00    0.57757   0.55912   -1.000
 3891.00    0.64248   0.61096   -1.000
 3892.00    0.70761   0.66276   -1.000
 3893.00    0.72073   0.70020   -1.000
 3894.00    0.74126   0.72330   -1.000
 3895.00    0.75526   0.74014   -1.000
 3896.00    0.76494   0.75706  247.627
 3897.00    0.78911   0.77342   -1.000
 3898.00    0.82125   0.78481   -1.000
 3899.00    0.84129   0.79145   -1.000
 3900.00    0.82521   0.79960   -1.000
 3901.00    0.82723   0.81166   -1.000
 3902.00    0.84012   0.82262   -1.000
 3903.00    0.83499   0.82759  272.178
 3904.00    0.83280   0.82727  272.065
 3905.00    0.81413   0.82736  258.663
 3906.00    0.82874   0.83485  241.533
 3907.00    0.84833   0.85352  233.654
 3908.00    0.85197   0.87938   -1.000
 3909.00    0.86689   0.90234   -1.000
 3910.00    0.87750   0.91481   -1.000
 3911.00    0.88701   0.91577   -1.000
 3912.00    0.88080   0.90780   -1.000
 3913.00    0.87177   0.89530   -1.000
 3914.00    0.86361   0.88506   -1.000
 3915.00    0.85072   0.88182   -1.000
 3916.00    0.85648   0.88321   -1.000
 3917.00    0.87595   0.88342  262.533
 3918.00    0.89045   0.87981   -1.000
 3919.00    0.87805   0.87439  282.157
 3920.00    0.88002   0.87045   -1.000
 3921.00    0.85908   0.86913  276.439
 3922.00    0.84911   0.86984   -1.000
 3923.00    0.87980   0.87096  288.772
 3924.00    0.88622   0.86907   -1.000
 3925.00    0.89380   0.85881   -1.000
 3926.00    0.86998   0.83652   51.402
 3927.00    0.80696   0.80262   47.054
 3928.00    0.77508   0.75890   55.082
 3929.00    0.73550   0.70553   65.028
 3930.00    0.67473   0.63894   -1.000
 3931.00    0.58706   0.55790   -1.000
 3932.00    0.47968   0.47605   83.248
 3933.00    0.41856   0.42231   73.545
 3934.00    0.42363   0.42235   61.300
 3935.00    0.50184   0.47623   50.380
 3936.00    0.59477   0.55916   42.174
 3937.00    0.68881   0.64484   -1.000
 3938.00    0.74443   0.71842   -1.000
 3939.00    0.79196   0.77400   -1.000
 3940.00    0.81743   0.81130  319.720
 3941.00    0.82055   0.83280   -1.000
 3942.00    0.83712   0.84302  305.889
 3943.00    0.84914   0.84845  279.944
 3944.00    0.84601   0.85413  261.943
 3945.00    0.87114   0.86194  256.814
 3946.00    0.88241   0.87022   -1.000
 3947.00    0.86849   0.87464  246.806
 3948.00    0.87210   0.87284  238.501
 3949.00    0.91481   0.86735   -1.000
 3950.00    0.88715   0.86231   -1.000
 3951.00    0.88107   0.85991   -1.000
 3952.00    0.87934   0.86113   -1.000
 3953.00    0.88335   0.86506   -1.000
 3954.00    0.90104   0.86701   -1.000
 3955.00    0.89347   0.86243   -1.000
 3956.00    0.87102   0.85218   -1.000
 3957.00    0.86757   0.84210   -1.000
 3958.00    0.86893   0.83547   -1.000
 3959.00    0.84856   0.82668   -1.000
 3960.00    0.81428   0.80793  320.061
 3961.00    0.77865   0.77775  320.061
 3962.00    0.75756   0.74040   47.590
 3963.00    0.72891   0.69879   44.446
 3964.00    0.68164   0.64793   54.279
 3965.00    0.60973   0.57997   66.555
 3966.00    0.50611   0.49426   75.115
 3967.00    0.39896   0.40488   72.020
 3968.00    0.34329   0.33844   60.506
 3969.00    0.33567   0.31899   49.713
 3970.00    0.35153   0.35213   41.465
 3971.00    0.43164   0.42381  139.330
 3972.00    0.52682   0.50971   -1.000
 3973.00    0.60918   0.59026   -1.000
 3974.00    0.67060   0.65784   -1.000
 3975.00    0.73658   0.71252   -1.000
 3976.00    0.78706   0.75609   -1.000
 3977.00    0.81115   0.79080   -1.000
 3978.00    0.85493   0.81867   -1.000
 3979.00    0.88819   0.83959   -1.000
 3980.00    0.89870   0.85181   -1.000
 3981.00    0.88271   0.85687   -1.000
 3982.00    0.88501   0.86093   -1.000
 3983.00    0.90578   0.87011   -1.000
 3984.00    0.92872   0.88488   -1.000
 3985.00    0.91602   0.89977   -1.000
 3986.00    0.93730   0.91036   -1.000
 3987.00    0.93990   0.91828   -1.000
 3988.00    0.96283   0.92595   -1.000
 3989.00    0.96582   0.93299   -1.000
 3990.00    0.95644   0.93985   -1.000
 3991.00    0.97336   0.94825   -1.000
 3992.00    0.99427   0.95787   -1.000
 3993.00    0.98404   0.96485   -1.000
 3994.00    0.97705   0.96400  203.304
 3995.00    0.97022   0.95396   -1.000
 3996.00    0.94000   0.94043  201.709
 3997.00    0.95105   0.93249   -1.000
 3998.00    0.95693   0.93517   -1.000
 3999.00    0.96525   0.94558   -1.000
 4000.00    0.96759   0.95696  180.016
 4001.00    0.97853   0.96400  182.606
 4002.00    0.99891   0.96485   -1.000
 4003.00    0.98695   0.95994   -1.000
 4004.00    0.98341   0.95147   -1.000
 4005.00    0.96117   0.94528   -1.000
 4006.00    0.94306   0.94820  185.891
 4007.00    0.95478   0.96092  182.713
 4008.00    1.02895   0.97648   -1.000
 4009.00    1.00267   0.98733  179.888
 4010.00    0.97076   0.99120   -1.000
 4011.00    0.98840   0.99003  181.952
 4012.00    0.99459   0.98714  180.939
 4013.00    0.99364   0.98639  178.519
 4014.00    1.00317   0.98987  179.446
 4015.00    1.02688   0.99644   -1.000
 4016.00    1.00895   1.00355  181.195
 4017.00    0.99946   1.01000  178.635
 4018.00    1.01011   1.01594  178.580
 4019.00    1.01090   1.02066  180.911
 4020.00    0.98479   1.02160   -1.000
 4021.00    1.00465   1.01686  183.391
 4022.00    1.01048   1.00767  184.799
 4023.00    0.99716   0.99767  181.061
 4024.00    0.99127   0.99165  174.816
 4025.00    1.01651   0.99388   -1.000
 4026.00    1.02409   1.00325   -1.000
 4027.00    1.01714   1.01149  178.049
 4028.00    0.99812   1.01082  189.642
 4029.00    0.99482   1.00065  198.433
 4030.00    0.98903   0.98648  201.655
 4031.00    0.97389   0.97553  199.757
 4032.00    0.97914   0.97229  193.727
 4033.00    0.97712   0.97681  184.526
 4034.00    0.96771   0.98755   -1.000
 4035.00    0.97808   1.00301   -1.000
 4036.00    1.00338   1.02099   -1.000
 4037.00    1.00452   1.03667   -1.000
 4038.00    1.00528   1.04457   -1.000
 4039.00    1.03200   1.04363  176.801
 4040.00    1.02197   1.03788   -1.000
 4041.00    1.01604   1.03127   -1.000
 4042.00    1.01034   1.02279  202.264
 4043.00    0.98559   1.00816   -1.000
 4044.00    0.97789   0.98799  213.076
 4045.00    0.94754   0.97163   -1.000
 4046.00    0.94778   0.97073   -1.000
 4047.00    0.97833   0.98678  174.994
 4048.00    0.98057   1.00855   -1.000
 4049.00    1.00223   1.02406   -1.000
 4050.00    1.01706   1.03024  177.713
 4051.00    1.00572   1.02911   -1.000
 4052.00    0.99781   1.02318   -1.000
 4053.00    1.00093   1.01570   -1.000
 4054.00    0.98989   1.01047   -1.000
 4055.00    0.99006   1.00907   -1.000
 4056.00    1.00659   1.01052  188.610
 4057.00    1.00000   1.01426  182.282
 4058.00    1.00624   1.02090  178.258
 4059.00    1.00818   1.02719   -1.000
 4060.00    1.00851   1.02610   -1.000
 4061.00    0.99341   1.01469   -1.000
 4062.00    0.97386   0.99692   -1.000
 4063.00    0.96821   0.97954  195.644
 4064.00    0.94624   0.96869   -1.000
 4065.00    0.95113   0.96757   -1.000
 4066.00    0.97473   0.97341  179.282
 4067.00    0.97834   0.98009  176.555
 4068.00    0.97585   0.98349  182.413
 4069.00    0.98599   0.98147  190.732
 4070.00    0.98996   0.97285  190.611
 4071.00    0.97779   0.96163  184.165
 4072.00    0.97416   0.95581   -1.000
 4073.00    0.97311   0.95795  190.133
 4074.00    0.97659   0.96046   -1.000
 4075.00    0.96889   0.95323   -1.000
 4076.00    0.95511   0.93605   -1.000
 4077.00    0.92982   0.92045  194.241
 4078.00    0.91645   0.91968  180.794
 4079.00    0.93635   0.93577  174.492
 4080.00    0.95983   0.95771  176.500
 4081.00    0.98623   0.97221  182.271
 4082.00    0.99972   0.97434   -1.000
 4083.00    0.98296   0.96745  183.353
 4084.00    0.97543   0.95815   -1.000
 4085.00    0.97580   0.95259   -1.000
 4086.00    0.96194   0.95369  165.087
 4087.00    0.97464   0.95994  165.151
 4088.00    1.00388   0.96654   -1.000
 4089.00    1.00496   0.96875   -1.000
 4090.00    0.99832   0.96516   -1.000
 4091.00    0.97640   0.95720   -1.000
 4092.00    0.93886   0.94526  176.817
 4093.00    0.92301   0.92950  184.461
 4094.00    0.92255   0.91055  190.943
 4095.00    0.89300   0.88819  192.866
 4096.00    0.85958   0.86099  195.801
 4097.00    0.85045   0.82714   -1.000
 4098.00    0.83481   0.78415   -1.000
 4099.00    0.79362   0.73023   -1.000
 4100.00    0.72585   0.67245   -1.000
 4101.00    0.64578   0.63048   -1.000
 4102.00    0.63438   0.62651  201.817
 4103.00    0.68536   0.66536   -1.000
 4104.00    0.75921   0.72923   -1.000
 4105.00    0.82287   0.79141   -1.000
 4106.00    0.85795   0.83617   -1.000
 4107.00    0.88674   0.86292   -1.000
 4108.00    0.88640   0.87849  190.642
 4109.00    0.90351   0.88955  188.785
 4110.00    0.92030   0.90075   -1.000
 4111.00    0.91593   0.91471  181.378
 4112.00    0.93851   0.93149  178.560
 4113.00    0.96303   0.94926  176.715
 4114.00    0.96511   0.96542  177.338
 4115.00    0.98472   0.97673  180.860
 4116.00    0.98121   0.98041  186.808
 4117.00    0.98019   0.97681  189.421
 4118.00    0.96857   0.96994  187.465
 4119.00    0.95291   0.96527  185.461
 4120.00    0.95831   0.96561  185.454
 4121.00    0.98208   0.96922  183.672
 4122.00    1.00768   0.97375   -1.000
 4123.00    1.01092   0.97981   -1.000
 4124.00    1.01365   0.98767   -1.000
 4125.00    1.00593   0.99391  185.626
 4126.00    1.00637   0.99455  187.405
 4127.00    1.00820   0.98994   -1.000
 4128.00    0.99919   0.98450  190.643
 4129.00    0.99234   0.98111  196.362
 4130.00    0.98834   0.97829  202.608
 4131.00    0.98780   0.97436  203.684
 4132.00    0.94994   0.97246   -1.000
 4133.00    0.96568   0.97767  187.804
 4134.00    1.02086   0.99041   -1.000
 4135.00    1.00710   1.00631  178.198
 4136.00    0.98849   1.02135   -1.000
 4137.00    0.99583   1.03413   -1.000
 4138.00    1.03152   1.04425  177.764
 4139.00    1.06222   1.04959  186.689
 4140.00    1.04585   1.04659  202.058
 4141.00    1.02523   1.03392  213.402
 4142.00    0.99529   1.01561   -1.000
 4143.00    0.96473   1.00091   -1.000
 4144.00    0.98001   0.99833   -1.000
 4145.00    1.02469   1.00808  184.915
 4146.00    1.03316   1.02133  188.012
 4147.00    1.03225   1.02908  193.193
 4148.00    1.02050   1.03001  195.864
 4149.00    1.01906   1.02870  194.733
 4150.00    1.00516   1.02873   -1.000
 4151.00    1.07909   1.02907   -1.000
 4152.00    1.36760   1.02682   -1.000
 4153.00    1.09119   1.02168   -1.000
 4154.00    0.63533   1.01675   -1.000
 4155.00    0.92098   1.01553   -1.000
 4156.00    1.08873   1.01929   -1.000
 4157.00    1.01579   1.02690  187.560
 4158.00    1.02544   1.03534  186.661
 4159.00    1.02829   1.04114  181.227
 4160.00    1.02112   1.04269   -1.000
 4161.00    1.01840   1.04180   -1.000
 4162.00    1.00296   1.04215   -1.000
 4163.00    1.02344   1.04586   -1.000
 4164.00    1.04140   1.05174  189.505
 4165.00    1.03251   1.05581   -1.000
 4166.00    1.02275   1.05538   -1.000
 4167.00    1.01200   1.05186   -1.000
 4168.00    1.02067   1.04745   -1.000
 4169.00    1.02678   1.04035  200.457
 4170.00    1.01267   1.02591   -1.000
 4171.00    0.98168   1.00423   -1.000
 4172.00    0.96775   0.98414   -1.000
 4173.00    0.96520   0.97627  199.496
 4174.00    0.96193   0.98391   -1.000
 4175.00    0.96608   0.99853   -1.000
 4176.00    0.98145   1.00773   -1.000
 4177.00    0.98830   1.00800   -1.000
 4178.00    0.99484   1.00675   -1.000
 4179.00    0.99936   1.01161   -1.000
 4180.00    0.99090   1.02063   -1.000
 4181.00    0.99597   1.02661   -1.000
 4182.00    0.99826   1.02824   -1.000
 4183.00    1.02319   1.02943  185.243
 4184.00    1.02840   1.03129  191.193
 4185.00    0.99792   1.03105   -1.000
 4186.00    0.99496   1.02690   -1.000
 4187.00    1.00263   1.02205   -1.000
 4188.00    0.99983   1.02113   -1.000
 4189.00    1.00082   1.02402   -1.000
 4190.00    1.02236   1.02713  183.345
 4191.00    1.02412   1.02939  180.815
 4192.00    1.01415   1.03251   -1.000
 4193.00    1.01823   1.03636   -1.000
 4194.00    1.01051   1.03628   -1.000
 4195.00    1.00966   1.02832   -1.000
 4196.00    1.00053   1.01415   -1.000
 4197.00    0.97864   0.99900   -1.000
 4198.00    0.99623   0.98775  200.967
 4199.00    0.97932   0.98331  200.285
 4200.00    0.97923   0.98446  199.037
 4201.00    0.99126   0.98722  195.969
 4202.00    0.97656   0.99033   -1.000
 4203.00    0.98809   0.99544  190.802
 4204.00    0.99033   1.00250  186.050
 4205.00    1.01941   1.01009  182.376
 4206.00    1.01603   1.01788  181.350
 4207.00    0.99317   1.02486   -1.000
 4208.00    1.00210   1.02913   -1.000
 4209.00    1.02478   1.03106  180.459
 4210.00    1.01899   1.03313  181.409
 4211.00    1.01936   1.03667   -1.000
 4212.00    1.03529   1.03902  195.733
 4213.00    1.02383   1.03491  201.322
 4214.00    1.00860   1.02337   -1.000
 4215.00    1.00911   1.01069  182.701
 4216.00    1.00256   1.00617  174.439
 4217.00    1.00201   1.01312  169.472
 4218.00    1.01190   1.02609  167.535
 4219.00    1.01277   1.03757   -1.000
 4220.00    1.01274   1.04420   -1.000
 4221.00    1.02410   1.04427   -1.000
 4222.00    0.99498   1.03548   -1.000
 4223.00    0.99198   1.01560   -1.000
 4224.00    0.97651   0.98746   -1.000
 4225.00    0.94045   0.95958   -1.000
 4226.00    0.92994   0.94447   -1.000
 4227.00    0.92975   0.95212   -1.000
 4228.00    0.96015   0.98167   -1.000
 4229.00    1.00495   1.01702  174.142
 4230.00    0.99976   1.03871   -1.000
 4231.00    0.99328   1.03993   -1.000
 4232.00    0.98702   1.02799   -1.000
 4233.00    0.99517   1.01435   -1.000
 4234.00    0.97363   1.00713   -1.000
 4235.00    0.97211   1.00740   -1.000
 4236.00    0.97658   1.01134   -1.000
 4237.00    0.97395   1.01673   -1.000
 4238.00    0.97900   1.02371   -1.000
 4239.00    0.98579   1.03227   -1.000
 4240.00    1.00519   1.04125   -1.000
 4241.00    1.00349   1.04874   -1.000
 4242.00    1.01525   1.05315   -1.000
 4243.00    0.99515   1.05350   -1.000
 4244.00    1.00679   1.04904   -1.000
 4245.00    1.00698   1.03889   -1.000
 4246.00    1.00057   1.02491   -1.000
 4247.00    0.98138   1.01252   -1.000
 4248.00    0.96008   1.00611   -1.000
 4249.00    0.96978   1.00506   -1.000
 4250.00    0.97352   1.00805   -1.000
 4251.00    0.98167   1.01490   -1.000
 4252.00    0.98045   1.02314   -1.000
 4253.00    1.00541   1.02900   -1.000
 4254.00    0.99570   1.03193   -1.000
 4255.00    0.98093   1.03436   -1.000
 4256.00    1.00445   1.03675   -1.000
 4257.00    0.99840   1.03542   -1.000
 4258.00    0.97630   1.02823   -1.000
 4259.00    0.96790   1.01924   -1.000
 4260.00    0.98144   1.01560   -1.000
 4261.00    0.97388   1.02180   -1.000
 4262.00    0.98416   1.03636   -1.000
 4263.00    1.01320   1.05230   -1.000
 4264.00    1.02041   1.06213   -1.000
 4265.00    1.03460   1.06392   -1.000
 4266.00    1.00991   1.06018   -1.000
 4267.00    0.98947   1.05262   -1.000
 4268.00    0.99104   1.04099   -1.000
 4269.00    0.99971   1.02462   -1.000
 4270.00    0.97199   1.00537   -1.000
 4271.00    0.94857   0.98884   -1.000
 4272.00    0.93902   0.98163   -1.000
 4273.00    0.94239   0.98568   -1.000
 4274.00    0.94153   0.99788   -1.000
 4275.00    0.97412   1.01437   -1.000
 4276.00    0.99740   1.03236   -1.000
 4277.00    0.99304   1.04727   -1.000
 4278.00    0.99193   1.05408   -1.000
 4279.00    0.99249   1.05126   -1.000
 4280.00    0.98452   1.04235   -1.000
 4281.00    0.99128   1.03312   -1.000
 4282.00    0.99482   1.02749   -1.000
 4283.00    0.98400   1.02612   -1.000
 4284.00    0.96539   1.02613   -1.000
 4285.00    0.98027   1.02254   -1.000
 4286.00    0.97215   1.01163   -1.000
 4287.00    0.96555   0.99410   -1.000
 4288.00    0.92801   0.97394   -1.000
 4289.00    0.92313   0.95817   -1.000
 4290.00    0.92857   0.95416   -1.000
 4291.00    0.91749   0.96286   -1.000
 4292.00    0.93261   0.97498   -1.000
 4293.00    0.95854   0.98010   -1.000
 4294.00    0.95518   0.97811   -1.000
 4295.00    0.92934   0.97483   -1.000
 4296.00    0.93376   0.97022   -1.000
 4297.00    0.91572   0.95918   -1.000
 4298.00    0.86575   0.93908   -1.000
 4299.00    0.85856   0.91450   -1.000
 4300.00    0.87441   0.89455   -1.000
 4301.00    0.87239   0.88628  234.231
 4302.00    0.87368   0.89017   -1.000
 4303.00    0.86014   0.90230   -1.000
 4304.00    0.87911   0.91537   -1.000
 4305.00    0.90046   0.92111   -1.000
 4306.00    0.86912   0.91687   -1.000
 4307.00    0.84209   0.90832   -1.000
 4308.00    0.83946   0.90468   -1.000
 4309.00    0.83830   0.91050   -1.000
 4310.00    0.86925   0.92243   -1.000
 4311.00    0.87293   0.93225   -1.000
 4312.00    0.87660   0.93523   -1.000
 4313.00    0.87588   0.93668   -1.000
 4314.00    0.92144   0.94650   -1.000
 4315.00    0.96166   0.96980  157.254
 4316.00    1.00867   0.99995  157.336
 4317.00    1.02172   1.02445  159.860
 4318.00    1.00722   1.03524   -1.000
 4319.00    0.98137   1.03330   -1.000
 4320.00    0.98089   1.02454   -1.000
 4321.00    0.97758   1.01378   -1.000
 4322.00    0.98036   1.00097   -1.000
 4323.00    0.93937   0.98333   -1.000
 4324.00    0.91259   0.96268   -1.000
 4325.00    0.90798   0.95000   -1.000
 4326.00    0.90972   0.95427   -1.000
 4327.00    0.92489   0.97112   -1.000
 4328.00    0.94569   0.98677   -1.000
 4329.00    0.97350   0.99184  164.331
 4330.00    0.96335   0.98833   -1.000
 4331.00    0.96015   0.98261   -1.000
 4332.00    0.97641   0.97651  159.456
 4333.00    0.96331   0.96653  162.300
 4334.00    0.92769   0.94809   -1.000
 4335.00    0.89980   0.91701   -1.000
 4336.00    0.87585   0.86997  207.826
 4337.00    0.82796   0.80779   -1.000
 4338.00    0.77556   0.74118   -1.000
 4339.00    0.72057   0.68718   -1.000
 4340.00    0.66339   0.66387  191.244
 4341.00    0.66996   0.68201  179.694
 4342.00    0.73618   0.73542  174.202
 4343.00    0.80763   0.80130  169.478
 4344.00    0.85612   0.85903  166.669
 4345.00    0.88829   0.90274  164.954
 4346.00    0.91466   0.93620   -1.000
 4347.00    0.93679   0.96071   -1.000
 4348.00    0.93487   0.97369   -1.000
 4349.00    0.94886   0.97273   -1.000
 4350.00    0.95739   0.96207  187.519
 4351.00    0.93278   0.95224   -1.000
 4352.00    0.90190   0.95380   -1.000
 4353.00    0.91099   0.96965   -1.000
 4354.00    0.96463   0.99337   -1.000
 4355.00    0.99290   1.01485   -1.000
 4356.00    0.98501   1.02778   -1.000
 4357.00    0.97643   1.03215   -1.000
 4358.00    0.98187   1.03224   -1.000
 4359.00    0.97546   1.03365   -1.000
 4360.00    0.98089   1.03940   -1.000
 4361.00    0.99677   1.04853   -1.000
 4362.00    1.01698   1.05790   -1.000
 4363.00    1.03804   1.06462   -1.000
 4364.00    1.06115   1.06673  160.976
 4365.00    1.04087   1.06329   -1.000
 4366.00    1.00989   1.05455   -1.000
 4367.00    1.00176   1.04354   -1.000
 4368.00    1.01020   1.03490   -1.000
 4369.00    1.00774   1.03098   -1.000
 4370.00    1.00137   1.03016   -1.000
 4371.00    1.03310   1.02786  174.581
 4372.00    1.02829   1.01989  181.525
 4373.00    1.00105   1.00599  181.260
 4374.00    0.98926   0.99329  173.361
 4375.00    0.97794   0.99198  164.553
 4376.00    1.00465   1.00575  161.939
 4377.00    1.02310   1.02691  163.113
 4378.00    1.02885   1.04349  166.149
 4379.00    1.00634   1.04869   -1.000
 4380.00    1.02145   1.04148   -1.000
 4381.00    1.01027   1.02188  216.620
 4382.00    0.99486   0.99315  217.643
 4383.00    0.95920   0.96589  196.404
 4384.00    0.94170   0.95302  177.813
 4385.00    0.96470   0.96025  172.670
 4386.00    0.99751   0.98078  173.101
 4387.00    1.00595   1.00223  175.103
 4388.00    1.01714   1.01636  175.569
 4389.00    1.01537   1.02201  171.911
 4390.00    1.02183   1.02278  168.002
 4391.00    0.99714   1.02233   -1.000
 4392.00    1.02190   1.01967  173.431
 4393.00    1.02858   1.01174  172.480
 4394.00    1.01668   1.00173  164.089
 4395.00    1.01420   0.99889  159.515
 4396.00    1.02663   1.00616   -1.000
 4397.00    1.04054   1.01538   -1.000
 4398.00    1.02181   1.01733  173.441
 4399.00    1.00127   1.01246  170.916
 4400.00    1.00469   1.00922  167.765
 4401.00    1.01883   1.01245  174.356
 4402.00    1.00754   1.01822  184.910
 4403.00    1.00781   1.02050  185.735
 4404.00    1.01171   1.01908  178.979
 4405.00    0.99586   1.01827   -1.000
 4406.00    1.00708   1.02036  175.109
 4407.00    1.01839   1.02344  168.015
 4408.00    1.03884   1.02655  160.768
 4409.00    1.04037   1.03224  155.426
 4410.00    1.02583   1.04147  153.862
 4411.00    1.01784   1.05003   -1.000
 4412.00    1.03014   1.05144   -1.000
 4413.00    1.04893   1.04212  173.781
 4414.00    1.02905   1.02412  172.256
 4415.00    1.00652   1.00564  165.870
 4416.00    0.98935   0.99620  158.919
 4417.00    0.99775   1.00125  154.631
 4418.00    1.01003   1.01840  155.938
 4419.00    1.03115   1.03898  160.301
 4420.00    1.03213   1.05319   -1.000
 4421.00    1.04087   1.05761   -1.000
 4422.00    1.02891   1.05675   -1.000
 4423.00    1.03285   1.05583   -1.000
 4424.00    1.01708   1.05521   -1.000
 4425.00    1.01325   1.05349   -1.000
 4426.00    1.01284   1.05163   -1.000
 4427.00    1.01744   1.05196   -1.000
 4428.00    1.01842   1.05493   -1.000
 4429.00    1.04009   1.05870   -1.000
 4430.00    1.02272   1.06122   -1.000
 4431.00    1.03491   1.06166   -1.000
 4432.00    1.05111   1.05931  173.821
 4433.00    1.03165   1.05342   -1.000
 4434.00    1.01668   1.04621   -1.000
 4435.00    1.03542   1.04411  156.940
 4436.00    1.03736   1.05250  150.667
 4437.00    1.03462   1.06862   -1.000
 4438.00    1.04947   1.08280   -1.000
 4439.00    1.04813   1.08541   -1.000
 4440.00    1.04707   1.07367   -1.000
 4441.00    1.05460   1.05218  170.360
 4442.00    1.02849   1.03117  163.488
 4443.00    1.01731   1.02174  156.552
 4444.00    1.01528   1.02920  153.900
 4445.00    1.02139   1.04795   -1.000
 4446.00    1.04395   1.06599   -1.000
 4447.00    1.05598   1.07571   -1.000
 4448.00    1.05725   1.07742   -1.000
 4449.00    1.04989   1.07524   -1.000
 4450.00    1.03477   1.07314   -1.000
 4451.00    1.02608   1.07270   -1.000
 4452.00    1.04528   1.07162   -1.000
 4453.00    1.05921   1.06597  174.715
 4454.00    1.04877   1.05676  171.314
 4455.00    1.01132   1.05061   -1.000
 4456.00    1.02087   1.05205   -1.000
 4457.00    1.06127   1.05803  169.647
 4458.00    1.04232   1.06258   -1.000
 4459.00    1.04532   1.06307   -1.000
 4460.00    1.04524   1.06127  168.983
 4461.00    1.03178   1.06061   -1.000
 4462.00    1.03498   1.06262   -1.000
 4463.00    1.04100   1.06594   -1.000
 4464.00    1.04022   1.06809   -1.000
 4465.00    1.05873   1.06684  160.817
 4466.00    1.05783   1.06043  163.959
 4467.00    1.04729   1.04981  164.679
 4468.00    1.02959   1.04064  162.057
 4469.00    1.00839   1.03977   -1.000
 4470.00    1.04725   1.04944  151.323
 4471.00    1.06797   1.06551  147.386
 4472.00    1.08088   1.08155  146.375
 4473.00    1.07841   1.09323  146.690
 4474.00    1.09146   1.09951  145.303
 4475.00    1.08867   1.10179  144.568
 4476.00    1.08397   1.10215  146.174
 4477.00    1.08643   1.10053  151.950
 4478.00    1.11611   1.09349   -1.000
 4479.00    1.11416   1.07889   -1.000
 4480.00    1.07622   1.06161  160.471
 4481.00    1.04234   1.05175  153.384
 4482.00    1.04507   1.05646  147.742
 4483.00    1.05083   1.07324   -1.000
 4484.00    1.06047   1.09260   -1.000
 4485.00    1.07166   1.10535   -1.000
 4486.00    1.07168   1.10714   -1.000
 4487.00    1.08128   1.09872   -1.000
 4488.00    1.08308   1.08629  155.886
 4489.00    1.06834   1.07814  151.616
 4490.00    1.05738   1.07868   -1.000
 4491.00    1.06678   1.08536   -1.000
 4492.00    1.06807   1.09122   -1.000
 4493.00    1.05730   1.09197   -1.000
 4494.00    1.05006   1.08963   -1.000
 4495.00    1.05816   1.08854   -1.000
 4496.00    1.05831   1.09030   -1.000
 4497.00    1.06742   1.09305   -1.000
 4498.00    1.07866   1.09321  148.777
 4499.00    1.07675   1.08807  149.278
 4500.00    1.06416   1.08044  145.046
 4501.00    1.05609   1.07785   -1.000
 4502.00    1.09136   1.08520  137.943
 4503.00    1.09147   1.09912  139.195
 4504.00    1.08394   1.11121   -1.000
 4505.00    1.10717   1.11560  143.332
 4506.00    1.10614   1.11232  143.302
 4507.00    1.08589   1.10605  142.127
 4508.00    1.09396   1.10262  141.261
 4509.00    1.10692   1.10446  142.696
 4510.00    1.09145   1.10872  145.629
 4511.00    1.09322   1.11101  148.117
 4512.00    1.10340   1.10948  148.834
 4513.00    1.08515   1.10472  148.026
 4514.00    1.08240   1.09876  148.072
 4515.00    1.07573   1.09421  149.962
 4516.00    1.08180   1.09208  150.571
 4517.00    1.08172   1.09046  147.767
 4518.00    1.08323   1.08723  145.016
 4519.00    1.07429   1.08335  145.849
 4520.00    1.08043   1.08068  149.488
 4521.00    1.07195   1.07848  152.381
 4522.00    1.05879   1.07549  153.644
 4523.00    1.05379   1.07320   -1.000
 4524.00    1.05953   1.07327  161.380
 4525.00    1.06045   1.07381  165.756
 4526.00    1.06777   1.07118  167.374
 4527.00    1.07128   1.06440  165.846
 4528.00    1.06065   1.05689  162.815
 4529.00    1.05194   1.05351  159.971
 4530.00    1.04952   1.05517  159.650
 4531.00    1.05111   1.05656  164.550
 4532.00    1.02790   1.05155   -1.000
 4533.00    1.03088   1.04159  166.479
 4534.00    1.03166   1.03595  156.526
 4535.00    1.00831   1.04250   -1.000
 4536.00    1.04694   1.06008  144.277
 4537.00    1.07876   1.08069  146.135
 4538.00    1.08608   1.09583  149.560
 4539.00    1.14073   1.10147   -1.000
 4540.00    0.67433   1.09947   -1.000
 4541.00   -0.02167   1.09523    0.000
 4542.00    0.00361   1.09294   -2.000
 4543.00    0.48649   1.09253   -2.000
 4544.00    0.81327   1.09187   -2.000
 4545.00    0.33875   1.09032   -1.000
 4546.00    1.08729   1.08700  207.582
 4547.00    1.05888   1.07840   69.601
 4548.00    1.05137   1.06341  171.218
 4549.00    1.03658   1.04941  153.841
 4550.00    1.04073   1.04679  154.919
 4551.00    1.05330   1.05526  157.364
 4552.00    1.07575   1.06280  158.469
 4553.00    1.07526   1.06072  155.593
 4554.00    1.06198   1.05344  149.666
 4555.00    1.06019   1.05180  143.856
 4556.00    1.07567   1.06086  141.773
 4557.00    1.08648   1.07611  142.683
 4558.00    1.09205   1.09019  142.547
 4559.00    1.10708   1.10035  142.865
 4560.00    1.10751   1.10653  146.416
 4561.00    1.09891   1.10653  149.999
 4562.00    1.09220   1.09871  152.163
 4563.00    1.09325   1.08772  150.069
 4564.00    1.07793   1.08215  146.118
 4565.00    1.06227   1.08611   -1.000
 4566.00    1.09425   1.09592  141.379
 4567.00    1.10646   1.10472  143.271
 4568.00    1.10181   1.10759  147.054
 4569.00    1.09208   1.10293  150.528
 4570.00    1.08472   1.09210  148.852
 4571.00    1.09504   1.08064  144.357
 4572.00    1.07761   1.07704  142.613
 4573.00    1.07537   1.08403  142.860
 4574.00    1.08727   1.09433  143.564
 4575.00    1.10644   1.09976  144.544
 4576.00    1.10896   1.09955  147.278
 4577.00    1.09375   1.09683  151.706
 4578.00    1.09584   1.09241  154.448
 4579.00    1.09502   1.08550  153.666
 4580.00    1.07429   1.07699  151.490
 4581.00    1.07463   1.06839  150.569
 4582.00    1.06696   1.06052  151.149
 4583.00    1.06846   1.05614  151.856
 4584.00    1.07372   1.05893  149.411
 4585.00    1.07694   1.06781  145.447
 4586.00    1.06922   1.07722  142.657
 4587.00    1.10274   1.08287  142.808
 4588.00    1.11877   1.08420   -1.000
 4589.00    1.09821   1.08335  147.814
 4590.00    1.08400   1.08291  150.173
 4591.00    1.08082   1.08374  150.047
 4592.00    1.07835   1.08572  148.701
 4593.00    1.08811   1.08905  147.611
 4594.00    1.09987   1.09378  147.267
 4595.00    1.08367   1.09928  146.958
 4596.00    1.08523   1.10421  146.780
 4597.00    1.10400   1.10666  148.170
 4598.00    1.10656   1.10563  149.416
 4599.00    1.10854   1.10170  149.589
 4600.00    1.10392   1.09658  147.881
 4601.00    1.09423   1.09241  146.401
 4602.00    1.08152   1.09077  146.702
 4603.00    1.09045   1.09190  146.291
 4604.00    1.11240   1.09472  144.491
 4605.00    1.09490   1.09794  141.537
 4606.00    1.08952   1.10123  138.627
 4607.00    1.11657   1.10473  137.290
 4608.00    1.12169   1.10815  138.153
 4609.00    1.11030   1.11066  140.096
 4610.00    1.12047   1.11132  141.565
 4611.00    1.12779   1.11010  142.282
 4612.00    1.11204   1.10823  141.431
 4613.00    1.09635   1.10692  140.210
 4614.00    1.10848   1.10572  139.843
 4615.00    1.10937   1.10318  140.876
 4616.00    1.10477   1.09922  141.804
 4617.00    1.09563   1.09520  141.473
 4618.00    1.09706   1.09255  139.956
 4619.00    1.10526   1.09262  137.909
 4620.00    1.10096   1.09644  138.031
 4621.00    1.09768   1.10314  138.389
 4622.00    1.10523   1.10952  138.764
 4623.00    1.12646   1.11250  140.002
 4624.00    1.11522   1.11169  140.243
 4625.00    1.11780   1.10887  140.255
 4626.00    1.11308   1.10545  141.156
 4627.00    1.10371   1.10139  141.310
 4628.00    1.11311   1.09714  140.441
 4629.00    1.11510   1.09542  139.012
 4630.00    1.11029   1.09843  139.919
 4631.00    1.11940   1.10400  141.994
 4632.00    1.10814   1.10743  143.340
 4633.00    1.10690   1.10679  143.261
 4634.00    1.11251   1.10462  144.587
 4635.00    1.09420   1.10425  146.401
 4636.00    1.10126   1.10590  146.832
 4637.00    1.09476   1.10803  146.315
 4638.00    1.10022   1.11025  143.574
 4639.00    1.11428   1.11357  140.170
 4640.00    1.12389   1.11824  138.621
 4641.00    1.11811   1.12289  139.556
 4642.00    1.11684   1.12583  142.431
 4643.00    1.10272   1.12603   -1.000
 4644.00    1.10750   1.12310  150.181
 4645.00    1.11752   1.11723  150.229
 4646.00    1.10428   1.11009  147.287
 4647.00    1.08884   1.10521  143.964
 4648.00    1.08469   1.10536   -1.000
 4649.00    1.10201   1.10974  142.114
 4650.00    1.10675   1.11516  142.051
 4651.00    1.10470   1.11874  144.052
 4652.00    1.10991   1.11895  147.298
 4653.00    1.09698   1.11574  148.528
 4654.00    1.08908   1.11056   -1.000
 4655.00    1.09589   1.10571  141.673
 4656.00    1.10896   1.10364  136.465
 4657.00    1.10520   1.10700  133.885
 4658.00    1.11416   1.11635  134.129
 4659.00    1.12802   1.12765  136.100
 4660.00    1.12370   1.13488  139.468
 4661.00    1.12242   1.13531  141.871
 4662.00    1.11002   1.13078  142.317
 4663.00    1.10871   1.12448  145.251
 4664.00    1.12152   1.11739  151.722
 4665.00    1.10107   1.10819  157.243
 4666.00    1.08624   1.09663  156.397
 4667.00    1.08973   1.08618  151.093
 4668.00    1.07537   1.08167  144.963
 4669.00    1.08370   1.08461  141.560
 4670.00    1.10094   1.09274  141.006
 4671.00    1.10641   1.10246  141.129
 4672.00    1.10969   1.11069  140.738
 4673.00    1.12718   1.11634  138.769
 4674.00    1.12136   1.12041  137.031
 4675.00    1.13156   1.12364  138.182
 4676.00    1.11147   1.12491  141.288
 4677.00    1.12111   1.12251  144.005
 4678.00    1.11727   1.11684  146.229
 4679.00    1.09024   1.11012  147.147
 4680.00    1.10029   1.10446  144.870
 4681.00    1.10248   1.10149  141.348
 4682.00    1.11282   1.10210  139.911
 4683.00    1.12227   1.10546  140.458
 4684.00    1.12168   1.10939  140.587
 4685.00    1.12337   1.11214  141.327
 4686.00    1.13118   1.11347  141.288
 4687.00    1.13467   1.11405  141.444
 4688.00    1.11928   1.11437  142.424
 4689.00    1.10919   1.11405  142.395
 4690.00    1.11855   1.11267  140.531
 4691.00    1.10657   1.11122  138.264
 4692.00    1.10501   1.11129  135.307
 4693.00    1.12814   1.11291  133.993
 4694.00    1.13565   1.11487  135.234
 4695.00    1.14868   1.11609   -1.000
 4696.00    1.12903   1.11515  143.220
 4697.00    1.11600   1.11088  144.331
 4698.00    1.12457   1.10447  143.339
 4699.00    1.11351   1.09852  144.759
 4700.00    1.10481   1.09383  147.150
 4701.00    1.11544   1.08933   -1.000
 4702.00    1.09676   1.08508  144.383
 4703.00    1.09788   1.08333  142.894
 4704.00    1.09166   1.08560  145.251
 4705.00    1.11399   1.08945   -1.000
 4706.00    1.12189   1.09038   -1.000
 4707.00    1.10083   1.08706  147.561
 4708.00    1.09587   1.08315  143.059
 4709.00    1.09973   1.08348  139.533
 4710.00    1.10346   1.08894  138.690
 4711.00    1.10085   1.09585  140.362
 4712.00    1.11336   1.09961  142.699
 4713.00    1.12362   1.09892   -1.000
 4714.00    1.11016   1.09677  139.150
 4715.00    1.11362   1.09728  136.761
 4716.00    1.12234   1.10150  136.068
 4717.00    1.11047   1.10684  135.605
 4718.00    1.11841   1.11077  135.390
 4719.00    1.12957   1.11294  136.608
 4720.00    1.12791   1.11387  137.290
 4721.00    1.11809   1.11393  136.279
 4722.00    1.09474   1.11414  135.026
 4723.00    1.10708   1.11583  135.804
 4724.00    1.11678   1.11867  139.571
 4725.00    1.10256   1.12039  144.672
 4726.00    1.11423   1.11896  147.188
 4727.00    1.12449   1.11431  146.287
 4728.00    1.12253   1.10802  144.799
 4729.00    1.13117   1.10178   -1.000
 4730.00    1.12344   1.09674   -1.000
 4731.00    1.09531   1.09468  140.756
 4732.00    1.10544   1.09691  139.980
 4733.00    1.11684   1.10162  139.568
 4734.00    1.12588   1.10502   -1.000
 4735.00    1.11707   1.10519  140.758
 4736.00    1.12639   1.10344   -1.000
 4737.00    1.10716   1.10228  139.421
 4738.00    1.12586   1.10270   -1.000
 4739.00    1.12067   1.10392  140.102
 4740.00    1.12523   1.10530  138.838
 4741.00    1.13570   1.10713   -1.000
 4742.00    1.15840   1.10987   -1.000
 4743.00    1.12985   1.11331  137.864
 4744.00    1.11330   1.11678  136.707
 4745.00    1.12716   1.12010  135.486
 4746.00    1.12101   1.12364  135.344
 4747.00    1.13542   1.12756  135.556
 4748.00    1.14751   1.13129  135.790
 4749.00    1.15203   1.13407  136.924
 4750.00    1.13105   1.13578  138.443
 4751.00    1.13233   1.13639  139.547
 4752.00    1.12599   1.13551  140.287
 4753.00    1.11981   1.13320  140.111
 4754.00    1.11400   1.13048  140.789
 4755.00    1.11607   1.12877  141.709
 4756.00    1.12805   1.12892  141.583
 4757.00    1.14346   1.13037  140.495
 4758.00    1.14563   1.13153  140.712
 4759.00    1.12579   1.13092  143.278
 4760.00    1.11198   1.12718  146.646
 4761.00    1.11254   1.11957  148.146
 4762.00    1.12700   1.10971  148.190
 4763.00    1.10641   1.10158  147.727
 4764.00    1.09521   1.09890  146.469
 4765.00    1.09441   1.10251  144.153
 4766.00    1.10315   1.11032  141.032
 4767.00    1.11732   1.11945  139.531
 4768.00    1.11898   1.12783  140.046
 4769.00    1.11073   1.13381   -1.000
 4770.00    1.09976   1.13593   -1.000
 4771.00    1.11680   1.13448  139.975
 4772.00    1.12563   1.13224  137.274
 4773.00    1.11616   1.13219  136.630
 4774.00    1.11529   1.13472  136.842
 4775.00    1.11417   1.13772   -1.000
 4776.00    1.13045   1.13913  138.391
 4777.00    1.13116   1.13795  139.852
 4778.00    1.11972   1.13377  140.551
 4779.00    1.12107   1.12815  140.942
 4780.00    1.11888   1.12488  141.733
 4781.00    1.11256   1.12590  142.682
 4782.00    1.10040   1.12859   -1.000
 4783.00    1.12055   1.12948  143.345
 4784.00    1.12519   1.12798  144.715
 4785.00    1.12832   1.12507  145.334
 4786.00    1.11463   1.12183  145.033
 4787.00    1.09729   1.11968   -1.000
 4788.00    1.11067   1.11956  143.241
 4789.00    1.12897   1.12131  141.548
 4790.00    1.13618   1.12465  139.021
 4791.00    1.13454   1.12957  136.010
 4792.00    1.13498   1.13559  134.062
 4793.00    1.13320   1.14178  134.006
 4794.00    1.13942   1.14660  135.706
 4795.00    1.13293   1.14805  138.485
 4796.00    1.12645   1.14532  140.890
 4797.00    1.12832   1.13976  141.957
 4798.00    1.13487   1.13438  140.249
 4799.00    1.13908   1.13231  137.490
 4800.00    1.12111   1.13470  135.977
 4801.00    1.11866   1.13952  136.595
 4802.00    1.12816   1.14237  138.493
 4803.00    1.12433   1.13952  140.162
 4804.00    1.10409   1.13182   -1.000
 4805.00    1.11135   1.12481  140.994
 4806.00    1.12120   1.12308  140.570
 4807.00    1.12886   1.12649  139.796
 4808.00    1.13375   1.13166  138.548
 4809.00    1.13727   1.13528  137.625
 4810.00    1.14675   1.13634  137.046
 4811.00    1.13395   1.13639  136.898
 4812.00    1.12590   1.13781  136.521
 4813.00    1.14697   1.14142  135.948
 4814.00    1.14225   1.14569  135.075
 4815.00    1.13133   1.14865  134.296
 4816.00    1.13414   1.15000  133.864
 4817.00    1.13499   1.15036  133.850
 4818.00    1.13218   1.14975  134.093
 4819.00    1.12336   1.14796   -1.000
 4820.00    1.12704   1.14483  139.325
 4821.00    1.13909   1.13948  141.337
 4822.00    1.13233   1.13114  140.472
 4823.00    1.11284   1.12168  137.948
 4824.00    1.11625   1.11563  136.381
 4825.00    1.11761   1.11580  137.289
 4826.00    1.11739   1.12025  138.809
 4827.00    1.13591   1.12451  139.449
 4828.00    1.13720   1.12591  139.645
 4829.00    1.14381   1.12500  140.789
 4830.00    1.13524   1.12345  140.450
 4831.00    1.11812   1.12201  138.165
 4832.00    1.12274   1.12087  136.626
 4833.00    1.12978   1.12025  136.332
 4834.00    1.13005   1.11979  136.679
 4835.00    1.12182   1.11883  137.605
 4836.00    1.11590   1.11754  139.671
 4837.00    1.11917   1.11656  141.699
 4838.00    1.12047   1.11561  141.590
 4839.00    1.10799   1.11402  141.188
 4840.00    1.10827   1.11229  140.386
 4841.00    1.11653   1.11124  139.244
 4842.00    1.11636   1.11045  137.664
 4843.00    1.11412   1.10908  135.772
 4844.00    1.10368   1.10718  135.866
 4845.00    1.10515   1.10499  138.637
 4846.00    1.10029   1.10150  140.225
 4847.00    1.09961   1.09559  139.695
 4848.00    1.08880   1.08871  138.000
 4849.00    1.08254   1.08388  137.990
 4850.00    1.07607   1.08161  138.910
 4851.00    1.07434   1.07902  140.741
 4852.00    1.07935   1.07255  145.055
 4853.00    1.05915   1.05982  148.196
 4854.00    1.05328   1.04104  147.416
 4855.00    1.05288   1.01979   -1.000
 4856.00    1.03397   0.99908   -1.000
 4857.00    1.02027   0.97487   -1.000
 4858.00    0.98740   0.93596   -1.000
 4859.00    0.91697   0.87460   -1.000
 4860.00    0.83107   0.80197   -1.000
 4861.00    0.74730   0.75051  160.975
 4862.00    0.74006   0.75013  152.507
 4863.00    0.82325   0.80000   -1.000
 4864.00    0.92993   0.87020   -1.000
 4865.00    0.99049   0.93195   -1.000
 4866.00    1.01502   0.97648   -1.000
 4867.00    1.04003   1.00735   -1.000
 4868.00    1.05418   1.02792   -1.000
 4869.00    1.04632   1.03818  152.401
 4870.00    1.05101   1.03893  150.210
 4871.00    1.04527   1.03580  146.183
 4872.00    1.03328   1.03689  144.029
 4873.00    1.05442   1.04572  143.036
 4874.00    1.07196   1.05850  142.335
 4875.00    1.07932   1.06918  141.501
 4876.00    1.09138   1.07561  139.500
 4877.00    1.08966   1.08024  138.652
 4878.00    1.07328   1.08669  140.229
 4879.00    1.07168   1.09598   -1.000
 4880.00    1.08697   1.10495  142.748
 4881.00    1.10527   1.10882  142.501
 4882.00    1.10983   1.10637  143.647
 4883.00    1.10067   1.10159  145.598
 4884.00    1.10074   1.09940  145.962
 4885.00    1.10877   1.10113  145.259
 4886.00    1.12265   1.10450  145.621
 4887.00    1.11774   1.10630  148.117
 4888.00    1.09989   1.10413  150.463
 4889.00    1.10646   1.09741  148.106
 4890.00    1.10445   1.08915  141.754
 4891.00    1.07874   1.08618  135.687
 4892.00    1.09364   1.09405  132.101
 4893.00    1.11269   1.11060  130.098
 4894.00    1.12627   1.12813  129.743
 4895.00    1.13868   1.14103  130.642
 4896.00    1.14428   1.14809  133.635
 4897.00    1.14283   1.14987  136.424
 4898.00    1.13707   1.14694  137.362
 4899.00    1.13140   1.14089  136.822
 4900.00    1.12404   1.13514  137.399
 4901.00    1.12449   1.13220  138.391
 4902.00    1.12024   1.13139  136.424
 4903.00    1.11888   1.13159  133.888
 4904.00    1.11415   1.13421  133.447
 4905.00    1.13281   1.14018  135.229
 4906.00    1.13823   1.14632  138.729
 4907.00    1.13151   1.14803  142.248
 4908.00    1.14273   1.14411  143.091
 4909.00    1.14676   1.13660  140.919
 4910.00    1.12839   1.12894  138.489
 4911.00    1.11421   1.12499  136.632
 4912.00    1.14214   1.12683  134.991
 4913.00    1.15074   1.13301  134.257
 4914.00    1.13990   1.14003  135.919
 4915.00    1.14649   1.14417  141.458
 4916.00    1.13577   1.14186  149.111
 4917.00    1.12301   1.13076  154.901
 4918.00    1.11800   1.11224  154.815
 4919.00    1.09582   1.09223  149.435
 4920.00    1.09153   1.07820  144.775
 4921.00    1.10256   1.07382   -1.000
 4922.00    1.10272   1.07605   -1.000
 4923.00    1.09955   1.07992  140.352
 4924.00    1.08923   1.08582  136.908
 4925.00    1.10569   1.09741  134.780
 4926.00    1.14248   1.11370   -1.000
 4927.00    1.15164   1.12915   -1.000
 4928.00    1.15455   1.14007  132.473
 4929.00    1.15940   1.14622  134.411
 4930.00    1.15689   1.14749  138.461
 4931.00    1.14281   1.14253  142.388
 4932.00    1.11665   1.13096  141.868
 4933.00    1.10232   1.11672  139.847
 4934.00    1.10816   1.10756  140.867
 4935.00    1.11799   1.10772  145.101
 4936.00    1.13520   1.11235   -1.000
 4937.00    1.14602   1.11362   -1.000
 4938.00    1.12951   1.11059  140.369
 4939.00    1.11471   1.10941  136.360
 4940.00    1.11364   1.11543  134.212
 4941.00    1.12604   1.12782  133.354
 4942.00    1.14879   1.14124  133.705
 4943.00    1.14348   1.15070  134.517
 4944.00    1.14561   1.15448  134.401
 4945.00    1.13646   1.15397  133.046
 4946.00    1.13010   1.15230  131.757
 4947.00    1.13728   1.15231  131.350
 4948.00    1.14110   1.15443  131.110
 4949.00    1.14349   1.15697  131.886
 4950.00    1.15451   1.15819  132.961
 4951.00    1.14866   1.15780  134.552
 4952.00    1.14888   1.15646  136.726
 4953.00    1.14759   1.15404  141.311
 4954.00    1.14867   1.14824  148.337
 4955.00    1.12873   1.13544  151.916
 4956.00    1.11504   1.11599  147.086
 4957.00    1.08360   1.09879  139.397
 4958.00    1.09828   1.09577  135.652
 4959.00    1.12762   1.10926  135.134
 4960.00    1.14053   1.12972  135.927
 4961.00    1.15072   1.14650  137.165
 4962.00    1.15981   1.15546  139.144
 4963.00    1.15962   1.15742  141.845
 4964.00    1.15802   1.15427  143.180
 4965.00    1.13935   1.14814  143.049
 4966.00    1.12705   1.14198  142.448
 4967.00    1.13965   1.13845  141.251
 4968.00    1.13500   1.13799  139.723
 4969.00    1.13643   1.13990  138.177
 4970.00    1.14506   1.14358  136.611
 4971.00    1.14945   1.14803  135.527
 4972.00    1.16189   1.15202  135.393
 4973.00    1.15601   1.15480  136.505
 4974.00    1.14501   1.15589  138.071
 4975.00    1.15316   1.15509  140.063
 4976.00    1.15266   1.15248  142.214
 4977.00    1.13882   1.14856  144.024
 4978.00    1.14524   1.14431  146.798
 4979.00    1.13696   1.13942  151.703
 4980.00    1.11029   1.13143   -1.000
 4981.00    1.10695   1.11923  154.374
 4982.00    1.10152   1.10607  151.001
 4983.00    1.08880   1.09773  146.561
 4984.00    1.10115   1.09803  142.173
 4985.00    1.09587   1.10630  139.667
 4986.00    1.10753   1.11901  140.402
 4987.00    1.11614   1.13170  142.357
 4988.00    1.12610   1.13962  143.422
 4989.00    1.12530   1.13996  143.077
 4990.00    1.11303   1.13447  141.953
 4991.00    1.11594   1.12833  141.517
 4992.00    1.11905   1.12590  141.278
 4993.00    1.13490   1.12792  140.538
 4994.00    1.13270   1.13290  140.271
 4995.00    1.12591   1.13896  141.445
 4996.00    1.13547   1.14332  143.640
 4997.00    1.14506   1.14229  146.269
 4998.00    1.15016   1.13359  147.594
 4999.00    1.13333   1.11969  147.232
 5000.00    1.11252   1.10857  145.918
 5001.00    1.10532   1.10671  145.818
 5002.00    1.13037   1.11171  148.445
 5003.00    1.13081   1.11590  151.454
 5004.00    1.12584   1.11403  150.918
 5005.00    1.12183   1.10688  146.851
 5006.00    1.11065   1.10063  143.175
 5007.00    1.10805   1.10158  142.672
 5008.00    1.10444   1.10960  145.303
 5009.00    1.12013   1.11804  150.049
 5010.00    1.13913   1.12027   -1.000
 5011.00    1.13750   1.11480   -1.000
 5012.00    1.12589   1.10506   -1.000
 5013.00    1.10382   1.09659  152.322
 5014.00    1.09373   1.09336  149.870
 5015.00    1.09950   1.09467  149.486
 5016.00    1.10381   1.09533  149.028
 5017.00    1.11326   1.09138   -1.000
 5018.00    1.11062   1.08627   -1.000
 5019.00    1.09833   1.08790  147.371
 5020.00    1.11013   1.09828  147.347
 5021.00    1.12129   1.11123  146.263
 5022.00    1.12141   1.12121  144.862
 5023.00    1.13175   1.12835  144.388
 5024.00    1.14765   1.13455  145.120
 5025.00    1.13318   1.13942  145.219
 5026.00    1.13113   1.14149  143.419
 5027.00    1.13857   1.14094  140.874
 5028.00    1.14954   1.13953  138.794
 5029.00    1.14239   1.13851  136.724
 5030.00    1.13733   1.13853  135.694
 5031.00    1.14456   1.14063  137.161
 5032.00    1.14111   1.14451  141.991
 5033.00    1.12793   1.14698  146.710
 5034.00    1.13276   1.14483  148.495
 5035.00    1.14322   1.13877  149.362
 5036.00    1.13419   1.13259  152.428
 5037.00    1.10767   1.12804  158.612
 5038.00    1.11793   1.12214  163.178
 5039.00    1.11354   1.11142  160.616
 5040.00    1.11345   1.09810  151.975
 5041.00    0.85647   1.09032   -1.000
 5042.00    0.17893   1.09491   -1.000
 5043.00   -0.03176   1.11046    0.000
 5044.00    0.08852   1.12943   -1.000
 5045.00    0.52310   1.14491   -1.000
 5046.00    1.03201   1.15341   -1.000
 5047.00    1.17303   1.15379   -1.000
 5048.00    1.15873   1.14669  144.485
 5049.00    1.15309   1.13482  145.437
 5050.00    1.13833   1.12231  141.971
 5051.00    1.12693   1.11389  138.680
 5052.00    1.13039   1.11440  136.550
 5053.00    1.13903   1.12515  135.545
 5054.00    1.14030   1.14057  135.341
 5055.00    1.15537   1.15294  135.608
 5056.00    1.16533   1.15949  135.766
 5057.00    1.16302   1.16227  135.431
 5058.00    1.16443   1.16378  134.793
 5059.00    1.16230   1.16501  135.435
 5060.00    1.16073   1.16586  137.967
 5061.00    1.16140   1.16552  142.337
 5062.00    1.16858   1.16254  146.388
 5063.00    1.16765   1.15600  146.885
 5064.00    1.15031   1.14732  144.866
 5065.00    1.13339   1.14007  143.203
 5066.00    1.13069   1.13675  142.724
 5067.00    1.13408   1.13650  141.954
 5068.00    1.13505   1.13721  141.664
 5069.00    1.14129   1.13811  142.866
 5070.00    1.13568   1.13916  143.072
 5071.00    1.14467   1.13947  141.431
 5072.00    1.15715   1.13830   -1.000
 5073.00    1.14411   1.13647  140.497
 5074.00    1.14321   1.13528  140.857
 5075.00    1.14724   1.13494  143.388
 5076.00    1.14737   1.13378  149.087
 5077.00    1.14429   1.12918  154.560
 5078.00    1.13477   1.12049  154.545
 5079.00    1.12693   1.11155  151.130
 5080.00    1.12583   1.10789   -1.000
 5081.00    1.12825   1.11078  146.063
 5082.00    1.12221   1.11677  143.358
 5083.00    1.13355   1.12319  141.374
 5084.00    1.14542   1.13010  140.669
 5085.00    1.15412   1.13719  140.330
 5086.00    1.15704   1.14269  139.504
 5087.00    1.15863   1.14586  138.564
 5088.00    1.19868   1.14800   -1.000
 5089.00    1.26432   1.15060   -1.000
 5090.00    1.20006   1.15382   -1.000
 5091.00    1.15781   1.15706  134.919
 5092.00    1.16205   1.15999  136.746
 5093.00    1.17374   1.16221  139.690
 5094.00    1.19496   1.16247   -1.000
 5095.00    1.18257   1.15925   -1.000
 5096.00    1.15945   1.15206  148.359
 5097.00    1.15109   1.14239  147.366
 5098.00    1.14869   1.13358  143.402
 5099.00    1.14376   1.12969  140.188
 5100.00    1.14677   1.13266  139.725
 5101.00    1.15582   1.14023  140.949
 5102.00    1.15696   1.14794  142.818
 5103.00    1.16258   1.15247  144.606
 5104.00    1.16848   1.15260  146.390
 5105.00    1.16833   1.14811   -1.000
 5106.00    1.15759   1.13978   -1.000
 5107.00    1.14100   1.13060  146.004
 5108.00    1.13503   1.12468  144.593
 5109.00    1.12906   1.12401  142.583
 5110.00    1.13097   1.12816  140.848
 5111.00    1.13545   1.13598  139.282
 5112.00    1.14985   1.14562  138.212
 5113.00    1.16571   1.15429  137.240
 5114.00    1.17097   1.16011  135.868
 5115.00    1.17854   1.16352  135.264
 5116.00    1.18820   1.16607   -1.000
 5117.00    1.18080   1.16812  138.101
 5118.00    1.16904   1.16858  140.262
 5119.00    1.16818   1.16641  143.027
 5120.00    1.16719   1.16152  146.980
 5121.00    1.15791   1.15434  150.274
 5122.00    1.15339   1.14572  150.382
 5123.00    1.15387   1.13756  149.179
 5124.00    1.14219   1.13230  148.414
 5125.00    1.13679   1.13063  147.902
 5126.00    1.13991   1.13039  148.032
 5127.00    1.14564   1.12916  147.255
 5128.00    1.14517   1.12733  145.066
 5129.00    1.14408   1.12733  143.021
 5130.00    1.14269   1.13059  141.831
 5131.00    1.14391   1.13599  140.505
 5132.00    1.15210   1.14128  139.577
 5133.00    1.16975   1.14538   -1.000
 5134.00    1.15604   1.14810  143.182
 5135.00    1.15927   1.14856  146.290
 5136.00    1.17170   1.14545   -1.000
 5137.00    1.16183   1.13876   -1.000
 5138.00    1.14614   1.13088  146.897
 5139.00    1.12412   1.12552  148.534
 5140.00    1.12003   1.12468  149.837
 5141.00    1.13414   1.12701  148.258
 5142.00    1.14014   1.13009  146.408
 5143.00    1.14551   1.13364  146.634
 5144.00    1.14681   1.13820  147.714
 5145.00    1.14452   1.14246  147.258
 5146.00    1.15182   1.14464  145.724
 5147.00    1.16048   1.14488  145.872
 5148.00    1.16899   1.14393   -1.000
 5149.00    1.16057   1.14131   -1.000
 5150.00    1.13769   1.13637  150.501
 5151.00    1.13796   1.13029  148.908
 5152.00    1.14182   1.12597  145.641
 5153.00    1.14128   1.12564  141.906
 5154.00    1.13809   1.12973  138.645
 5155.00    1.13906   1.13752  136.650
 5156.00    1.15721   1.14714  136.051
 5157.00    1.17131   1.15569  136.235
 5158.00    1.18438   1.16105   -1.000
 5159.00    1.18538   1.16294   -1.000
 5160.00    1.17820   1.16211  139.697
 5161.00    1.17699   1.15945  143.024
 5162.00    1.17342   1.15539   -1.000
 5163.00    1.16973   1.14836   -1.000
 5164.00    1.16164   1.13350   -1.000
 5165.00    1.13544   1.10566   -1.000
 5166.00    1.10049   1.06695   -1.000
 5167.00    1.05717   1.03075   -1.000
 5168.00    1.03901   1.01287   -1.000
 5169.00    1.06305   1.01647   -1.000
 5170.00    1.09349   1.02856   -1.000
 5171.00    1.10563   1.03459   -1.000
 5172.00    1.08960   1.03557   -1.000
 5173.00    1.06915   1.04546   -1.000
 5174.00    1.09280   1.07181   -1.000
 5175.00    1.13816   1.10618   -1.000
 5176.00    1.16516   1.13456   -1.000
 5177.00    1.18364   1.15091   -1.000
 5178.00    1.19169   1.15728   -1.000
 5179.00    1.18622   1.15594   -1.000
 5180.00    1.17806   1.14512   -1.000
 5181.00    1.15133   1.12170   -1.000
 5182.00    1.12726   1.08859   -1.000
 5183.00    1.10164   1.05891   -1.000
 5184.00    1.08100   1.04881   -1.000
 5185.00    1.09962   1.06271   -1.000
 5186.00    1.12955   1.08811   -1.000
 5187.00    1.15345   1.10860   -1.000
 5188.00    1.17303   1.11815   -1.000
 5189.00    1.16571   1.11994   -1.000
 5190.00    1.13873   1.11754   -1.000
 5191.00    1.12495   1.11244  152.169
 5192.00    1.12678   1.10743   -1.000
 5193.00    1.14193   1.10617   -1.000
 5194.00    1.17013   1.10909   -1.000
 5195.00    1.19705   1.11351   -1.000
 5196.00    1.21630   1.11783   -1.000
 5197.00    1.19038   1.12274   -1.000
 5198.00    1.15966   1.12905   -1.000
 5199.00    1.16285   1.13589   -1.000
 5200.00    1.16436   1.14066   -1.000
 5201.00    1.17637   1.14058   -1.000
 5202.00    1.16593   1.13412   -1.000
 5203.00    1.15800   1.12187   -1.000
 5204.00    1.14900   1.10719   -1.000
 5205.00    1.13001   1.09538   -1.000
 5206.00    1.12573   1.09001   -1.000
 5207.00    1.12594   1.09025   -1.000
 5208.00    1.12901   1.09347   -1.000
 5209.00    1.13459   1.09959   -1.000
 5210.00    1.14814   1.11034   -1.000
 5211.00    1.16660   1.12458   -1.000
 5212.00    1.18471   1.13752   -1.000
 5213.00    1.19362   1.14424   -1.000
 5214.00    1.17610   1.14285   -1.000
 5215.00    1.15557   1.13616   -1.000
 5216.00    1.14344   1.13049  137.416
 5217.00    1.14658   1.13134  135.777
 5218.00    1.16658   1.13926   -1.000
 5219.00    1.18583   1.15015   -1.000
 5220.00    1.19162   1.15929   -1.000
 5221.00    1.19528   1.16406   -1.000
 5222.00    1.19000   1.16318   -1.000
 5223.00    1.17601   1.15496   -1.000
 5224.00    1.16500   1.13794   -1.000
 5225.00    1.15094   1.11425   -1.000
 5226.00    1.14050   1.09265   -1.000
 5227.00    1.13045   1.08465   -1.000
 5228.00    1.13447   1.09433   -1.000
 5229.00    1.15683   1.11343   -1.000
 5230.00    1.17318   1.12886   -1.000
 5231.00    1.17493   1.13313   -1.000
 5232.00    1.16975   1.12782   -1.000
 5233.00    1.16232   1.12036   -1.000
 5234.00    1.15001   1.11840   -1.000
 5235.00    1.15222   1.12469   -1.000
 5236.00    1.16863   1.13603   -1.000
 5237.00    1.18279   1.14700   -1.000
 5238.00    1.18069   1.15434   -1.000
 5239.00    1.17361   1.15806  133.140
 5240.00    1.17680   1.15972  133.192
 5241.00    1.18640   1.16052   -1.000
 5242.00    1.19858   1.16106   -1.000
 5243.00    1.19478   1.16159   -1.000
 5244.00    1.19167   1.16175   -1.000
 5245.00    1.19935   1.16012   -1.000
 5246.00    1.19212   1.15560   -1.000
 5247.00    1.17507   1.14931   -1.000
 5248.00    1.16448   1.14359   -1.000
 5249.00    1.15747   1.13966  143.004
 5250.00    1.15127   1.13778  141.202
 5251.00    1.15504   1.13819  140.420
 5252.00    1.15897   1.14020  140.069
 5253.00    1.16378   1.14203   -1.000
 5254.00    1.16584   1.14311   -1.000
 5255.00    1.16676   1.14530   -1.000
 5256.00    1.18344   1.15068   -1.000
 5257.00    1.19943   1.15819   -1.000
 5258.00    1.19644   1.16373   -1.000
 5259.00    1.19672   1.16329   -1.000
 5260.00    1.20058   1.15512   -1.000
 5261.00    1.17784   1.14038   -1.000
 5262.00    1.15735   1.12259   -1.000
 5263.00    1.15147   1.10598   -1.000
 5264.00    1.13911   1.09385   -1.000
 5265.00    1.13412   1.08787   -1.000
 5266.00    1.13610   1.08683   -1.000
 5267.00    1.13684   1.08586   -1.000
 5268.00    1.13164   1.08001   -1.000
 5269.00    1.11436   1.07138   -1.000
 5270.00    1.09801   1.06935   -1.000
 5271.00    1.11010   1.08008   -1.000
 5272.00    1.14746   1.09835   -1.000
 5273.00    1.16890   1.11321   -1.000
 5274.00    1.16837   1.11981   -1.000
 5275.00    1.15980   1.12241   -1.000
 5276.00    1.16329   1.12774   -1.000
 5277.00    1.18519   1.13785   -1.000
 5278.00    1.20398   1.14862   -1.000
 5279.00    1.20636   1.15415   -1.000
 5280.00    1.17380   1.15197   -1.000
 5281.00    1.16117   1.14413  140.885
 5282.00    1.16589   1.13514   -1.000
 5283.00    1.15286   1.13009   -1.000
 5284.00    1.15869   1.13281   -1.000
 5285.00    1.18401   1.14327   -1.000
 5286.00    1.19732   1.15684   -1.000
 5287.00    1.19859   1.16771   -1.000
 5288.00    1.20879   1.17364   -1.000
 5289.00    1.21073   1.17598   -1.000
 5290.00    1.19864   1.17644   -1.000
 5291.00    1.19270   1.17566  132.161
 5292.00    1.19645   1.17404   -1.000
 5293.00    1.19823   1.17187   -1.000
 5294.00    1.19840   1.16843   -1.000
 5295.00    1.19412   1.16238   -1.000
 5296.00    1.18707   1.15370   -1.000
 5297.00    1.17314   1.14504   -1.000
 5298.00    1.15948   1.14024   -1.000
 5299.00    1.16377   1.14096   -1.000
 5300.00    1.18372   1.14522   -1.000
 5301.00    1.18840   1.15001   -1.000
 5302.00    1.19034   1.15442   -1.000
 5303.00    1.18926   1.15905   -1.000
 5304.00    1.19305   1.16347   -1.000
 5305.00    1.19713   1.16605   -1.000
 5306.00    1.18476   1.16622   -1.000
 5307.00    1.17085   1.16554  129.300
 5308.00    1.17945   1.16608  128.922
 5309.00    1.19170   1.16830   -1.000
 5310.00    1.19215   1.17080   -1.000
 5311.00    1.20187   1.17183   -1.000
 5312.00    1.21380   1.17046   -1.000
 5313.00    1.21046   1.16629   -1.000
 5314.00    1.20277   1.15905   -1.000
 5315.00    1.20179   1.14993   -1.000
 5316.00    1.19524   1.14262   -1.000
 5317.00    1.17613   1.14136   -1.000
 5318.00    1.16946   1.14694   -1.000
 5319.00    1.18072   1.15543   -1.000
 5320.00    1.19695   1.16141   -1.000
 5321.00    1.20733   1.16160   -1.000
 5322.00    1.20277   1.15586   -1.000
 5323.00    1.19226   1.14675   -1.000
 5324.00    1.18987   1.13742   -1.000
 5325.00    1.18534   1.12813   -1.000
 5326.00    1.16600   1.11601   -1.000
 5327.00    1.15282   1.10126   -1.000
 5328.00    1.12327   1.09150   -1.000
 5329.00    1.12195   1.09572   -1.000
 5330.00    1.15410   1.11335   -1.000
 5331.00    1.16887   1.13390   -1.000
 5332.00    1.18275   1.14774   -1.000
 5333.00    1.19251   1.15321   -1.000
 5334.00    1.18752   1.15342   -1.000
 5335.00    1.17769   1.15126   -1.000
 5336.00    1.18217   1.14825   -1.000
 5337.00    1.18994   1.14507   -1.000
 5338.00    1.18201   1.14149   -1.000
 5339.00    1.18096   1.13731   -1.000
 5340.00    1.17534   1.13427   -1.000
 5341.00    1.16574   1.13554   -1.000
 5342.00    1.17280   1.14175   -1.000
 5343.00    1.17751   1.14926   -1.000
 5344.00    1.18384   1.15368   -1.000
 5345.00    1.19002   1.15373   -1.000
 5346.00    1.18341   1.15115   -1.000
 5347.00    1.17886   1.14827   -1.000
 5348.00    1.17860   1.14661   -1.000
 5349.00    1.18404   1.14724   -1.000
 5350.00    1.19654   1.15077   -1.000
 5351.00    1.19733   1.15625   -1.000
 5352.00    1.20663   1.16164   -1.000
 5353.00    1.21758   1.16591   -1.000
 5354.00    1.20815   1.16957   -1.000
 5355.00    1.20464   1.17318   -1.000
 5356.00    1.20990   1.17627   -1.000
 5357.00    1.20854   1.17796   -1.000
 5358.00    1.20712   1.17789   -1.000
 5359.00    1.21219   1.17590   -1.000
 5360.00    1.22012   1.17175   -1.000
 5361.00    1.21751   1.16564   -1.000
 5362.00    1.20435   1.15876   -1.000
 5363.00    1.19593   1.15280   -1.000
 5364.00    1.18739   1.14902   -1.000
 5365.00    1.18074   1.14766   -1.000
 5366.00    1.18154   1.14765   -1.000
 5367.00    1.17605   1.14675   -1.000
 5368.00    1.16857   1.14253   -1.000
 5369.00    1.16854   1.13423   -1.000
 5370.00    1.16967   1.12465   -1.000
 5371.00    1.15732   1.11986   -1.000
 5372.00    1.15775   1.12487   -1.000
 5373.00    1.18328   1.13842   -1.000
 5374.00    1.19580   1.15379   -1.000
 5375.00    1.19472   1.16484   -1.000
 5376.00    1.20054   1.17008   -1.000
 5377.00    1.20895   1.17121   -1.000
 5378.00    1.21368   1.16980   -1.000
 5379.00    1.20717   1.16620   -1.000
 5380.00    1.20320   1.16107   -1.000
 5381.00    1.20337   1.15613   -1.000
 5382.00    1.19656   1.15333   -1.000
 5383.00    1.19436   1.15368   -1.000
 5384.00    1.19401   1.15698   -1.000
 5385.00    1.19831   1.16205   -1.000
 5386.00    1.20296   1.16694   -1.000
 5387.00    1.20469   1.16953   -1.000
 5388.00    1.20832   1.16873   -1.000
 5389.00    1.20206   1.16499   -1.000
 5390.00    1.20287   1.15980   -1.000
 5391.00    1.20164   1.15463   -1.000
 5392.00    1.18783   1.15033   -1.000
 5393.00    1.18289   1.14690   -1.000
 5394.00    1.19303   1.14312   -1.000
 5395.00    1.18923   1.13716   -1.000
 5396.00    1.16206   1.12971   -1.000
 5397.00    1.14546   1.12532   -1.000
 5398.00    1.16287   1.12815   -1.000
 5399.00    1.19417   1.13685   -1.000
 5400.00    1.20673   1.14577   -1.000
 5401.00    1.20669   1.14985   -1.000
 5402.00    1.20359   1.14692   -1.000
 5403.00    1.18370   1.13752   -1.000
 5404.00    1.15940   1.12516   -1.000
 5405.00    1.14910   1.11591   -1.000
 5406.00    1.15442   1.11453   -1.000
 5407.00    1.17148   1.11997   -1.000
 5408.00    1.18276   1.12651   -1.000
 5409.00    1.18439   1.13021   -1.000
 5410.00    1.18220   1.13253   -1.000
 5411.00    1.17736   1.13666   -1.000
 5412.00    1.18302   1.14229   -1.000
 5413.00    1.19980   1.14640   -1.000
 5414.00    1.20779   1.14790   -1.000
 5415.00    1.19844   1.14880   -1.000
 5416.00    1.19071   1.15101   -1.000
 5417.00    1.18571   1.15415   -1.000
 5418.00    1.18208   1.15666   -1.000
 5419.00    1.18692   1.15789   -1.000
 5420.00    1.18067   1.15792   -1.000
 5421.00    1.17969   1.15652   -1.000
 5422.00    1.19893   1.15338   -1.000
 5423.00    1.20170   1.14931   -1.000
 5424.00    1.18969   1.14665   -1.000
 5425.00    1.19352   1.14750   -1.000
 5426.00    1.19765   1.15064   -1.000
 5427.00    1.19031   1.15158   -1.000
 5428.00    1.18859   1.14736   -1.000
 5429.00    1.18151   1.14067   -1.000
 5430.00    1.16892   1.13693   -1.000
 5431.00    1.17396   1.13731   -1.000
 5432.00    1.18560   1.13783   -1.000
 5433.00    1.18164   1.13544   -1.000
 5434.00    1.16826   1.13253   -1.000
 5435.00    1.16725   1.13422   -1.000
 5436.00    1.17924   1.14232   -1.000
 5437.00    1.18901   1.15369   -1.000
 5438.00    1.19209   1.16385   -1.000
 5439.00    1.19326   1.17052   -1.000
 5440.00    1.19242   1.17393   -1.000
 5441.00    1.19693   1.17497   -1.000
 5442.00    1.20323   1.17347   -1.000
 5443.00    1.19724   1.16805   -1.000
 5444.00    1.18922   1.15752   -1.000
 5445.00    1.17922   1.14338   -1.000
 5446.00    1.16544   1.13104   -1.000
 5447.00    1.16112   1.12694   -1.000
 5448.00    1.17276   1.13310   -1.000
 5449.00    1.18291   1.14525   -1.000
 5450.00    1.19115   1.15658   -1.000
 5451.00    1.20455   1.16231   -1.000
 5452.00    1.20004   1.16085   -1.000
 5453.00    1.18998   1.15288   -1.000
 5454.00    1.17392   1.14152   -1.000
 5455.00    1.15734   1.13284   -1.000
 5456.00    1.16120   1.13283   -1.000
 5457.00    1.16955   1.14221   -1.000
 5458.00    1.17454   1.15541   -1.000
 5459.00    1.17612   1.16539  137.944
 5460.00    1.17975   1.16884  139.182
 5461.00    1.18800   1.16650   -1.000
 5462.00    1.18385   1.16130   -1.000
 5463.00    1.18347   1.15688   -1.000
 5464.00    1.19616   1.15585   -1.000
 5465.00    1.19179   1.15812   -1.000
 5466.00    1.18790   1.16165   -1.000
 5467.00    1.20085   1.16479   -1.000
 5468.00    1.21191   1.16727   -1.000
 5469.00    1.20489   1.16909   -1.000
 5470.00    1.20225   1.16960   -1.000
 5471.00    1.21048   1.16804   -1.000
 5472.00    1.21494   1.16446   -1.000
 5473.00    1.20962   1.15908   -1.000
 5474.00    1.18275   1.15158   -1.000
 5475.00    1.17080   1.14240   -1.000
 5476.00    1.17820   1.13460   -1.000
 5477.00    1.17567   1.13274   -1.000
 5478.00    1.17826   1.13822   -1.000
 5479.00    1.19364   1.14703   -1.000
 5480.00    1.20221   1.15388   -1.000
 5481.00    1.20070   1.15722   -1.000
 5482.00    1.19395   1.15912   -1.000
 5483.00    1.19308   1.16182   -1.000
 5484.00    1.20461   1.16541   -1.000
 5485.00    1.21224   1.16818   -1.000
 5486.00    1.20340   1.16865   -1.000
 5487.00    1.19509   1.16700   -1.000
 5488.00    1.19947   1.16472   -1.000
 5489.00    1.20360   1.16333   -1.000
 5490.00    1.20363   1.16350   -1.000
 5491.00    1.20113   1.16494   -1.000
 5492.00    1.20066   1.16658   -1.000
 5493.00    1.20515   1.16717   -1.000
 5494.00    1.20376   1.16586   -1.000
 5495.00    1.19991   1.16244   -1.000
 5496.00    1.19410   1.15767   -1.000
 5497.00    1.18135   1.15369   -1.000
 5498.00    1.18042   1.15237   -1.000
 5499.00    1.18466   1.15280   -1.000
 5500.00    1.17769   1.15237   -1.000
 5501.00    1.17586   1.15050   -1.000
 5502.00    1.18924   1.14948   -1.000
 5503.00    1.19867   1.15069   -1.000
 5504.00    1.19552   1.15193   -1.000
 5505.00    1.19556   1.15035   -1.000
 5506.00    1.18710   1.14679   -1.000
 5507.00    1.17277   1.14512   -1.000
 5508.00    1.17764   1.14754   -1.000
 5509.00    1.19076   1.15203   -1.000
 5510.00    1.20350   1.15488   -1.000
 5511.00    1.20395   1.15467   -1.000
 5512.00    1.19292   1.15289   -1.000
 5513.00    1.18477   1.15189   -1.000
 5514.00    1.17888   1.15301   -1.000
 5515.00    1.18039   1.15630   -1.000
 5516.00    1.18781   1.16094   -1.000
 5517.00    1.19100   1.16576   -1.000
 5518.00    1.19102   1.16957   -1.000
 5519.00    1.19474   1.17160   -1.000
 5520.00    1.20188   1.17190   -1.000
 5521.00    1.20815   1.17135   -1.000
 5522.00    1.21349   1.17060   -1.000
 5523.00    1.20674   1.16896   -1.000
 5524.00    1.19175   1.16447   -1.000
 5525.00    1.18950   1.15564   -1.000
 5526.00    1.18520   1.14369   -1.000
 5527.00    1.17217   1.13320   -1.000
 5528.00    1.16300   1.12949   -1.000
 5529.00    1.16567   1.13439   -1.000
 5530.00    1.17604   1.14440   -1.000
 5531.00    1.18128   1.15335   -1.000
 5532.00    1.18798   1.15691   -1.000
 5533.00    1.18914   1.15524   -1.000
 5534.00    1.17726   1.15213   -1.000
 5535.00    1.17725   1.15176   -1.000
 5536.00    1.18929   1.15542   -1.000
 5537.00    1.19969   1.16113   -1.000
 5538.00    1.20712   1.16618   -1.000
 5539.00    1.20759   1.16935   -1.000
 5540.00    1.19962   1.17068   -1.000
 5541.00    1.19127   1.17047   -1.000
 5542.00    1.18493   1.16897  135.077
 5543.00    1.18840   1.16694   -1.000
 5544.00    1.20088   1.16552   -1.000
 5545.00    1.21104   1.16553   -1.000
 5546.00    1.20877   1.16699   -1.000
 5547.00    1.19821   1.16955   -1.000
 5548.00    1.19242   1.17267   -1.000
 5549.00    1.19196   1.17534  132.416
 5550.00    1.20610   1.17647   -1.000
 5551.00    1.21531   1.17587   -1.000
 5552.00    1.20336   1.17438   -1.000
 5553.00    1.19631   1.17290   -1.000
 5554.00    1.20563   1.17190   -1.000
 5555.00    1.21418   1.17163   -1.000
 5556.00    1.21091   1.17206   -1.000
 5557.00    1.21601   1.17280   -1.000
 5558.00    1.21797   1.17342   -1.000
 5559.00    1.20518   1.17369   -1.000
 5560.00    1.19358   1.17332   -1.000
 5561.00    1.19602   1.17194   -1.000
 5562.00    1.20344   1.16987   -1.000
 5563.00    1.20068   1.16805   -1.000
 5564.00    1.19404   1.16694   -1.000
 5565.00    1.19298   1.16604   -1.000
 5566.00    1.19714   1.16458   -1.000
 5567.00    1.19384   1.16240   -1.000
 5568.00    1.19332   1.15994   -1.000
 5569.00    1.19446   1.15778   -1.000
 5570.00    1.19457   1.15588   -1.000
 5571.00    1.27968   1.15377   -1.000
 5572.00    1.29270   1.15184   -1.000
 5573.00    0.58740   1.15151   -1.000
 5574.00   -0.88565   1.15340    0.000
 5575.00   -1.76306   1.15662    0.000
 5576.00   -0.85234   1.15998    0.000
 5577.00    0.73734   1.16283   -1.000
 5578.00    1.26197   1.16499   -1.000
 5579.00    1.16763   1.16615  136.516
 5580.00    1.18348   1.16610   -1.000
 5581.00    1.20043   1.16528   -1.000
 5582.00    1.19845   1.16444   -1.000
 5583.00    1.19196   1.16315   -1.000
 5584.00    1.18157   1.15939   -1.000
 5585.00    1.17570   1.15176   -1.000
 5586.00    1.17191   1.14167   -1.000
 5587.00    1.16188   1.13286   -1.000
 5588.00    1.15563   1.12883   -1.000
 5589.00    1.14984   1.13073   -1.000
 5590.00    1.16208   1.13696   -1.000
 5591.00    1.17504   1.14402   -1.000
 5592.00    1.18130   1.14872   -1.000
 5593.00    1.18920   1.15044   -1.000
 5594.00    1.18208   1.15119   -1.000
 5595.00    1.17813   1.15263   -1.000
 5596.00    1.18513   1.15388   -1.000
 5597.00    1.19593   1.15314   -1.000
 5598.00    1.20104   1.15048   -1.000
 5599.00    1.19718   1.14711   -1.000
 5600.00    1.19879   1.14365   -1.000
 5601.00    1.19418   1.14099   -1.000
 5602.00    1.18411   1.14139   -1.000
 5603.00    1.18169   1.14661   -1.000
 5604.00    1.19174   1.15562   -1.000
 5605.00    1.19625   1.16515   -1.000
 5606.00    1.20096   1.17234   -1.000
 5607.00    1.20851   1.17642   -1.000
 5608.00    1.20850   1.17839   -1.000
 5609.00    1.20387   1.17951   -1.000
 5610.00    1.20874   1.18016   -1.000
 5611.00    1.21446   1.17938   -1.000
 5612.00    1.21454   1.17530   -1.000
 5613.00    1.20622   1.16693   -1.000
 5614.00    1.18539   1.15648   -1.000
 5615.00    1.17552   1.14924   -1.000
 5616.00    1.17956   1.14944   -1.000
 5617.00    1.18665   1.15612   -1.000
 5618.00    1.19235   1.16440   -1.000
 5619.00    1.20655   1.17028   -1.000
 5620.00    1.22976   1.17295   -1.000
 5621.00    1.22518   1.17324   -1.000
 5622.00    1.20697   1.17162   -1.000
 5623.00    1.20241   1.16862   -1.000
 5624.00    1.19493   1.16583   -1.000
 5625.00    1.19816   1.16519   -1.000
 5626.00    1.20643   1.16720   -1.000
 5627.00    1.20863   1.17055   -1.000
 5628.00    1.21668   1.17365   -1.000
 5629.00    1.22358   1.17581   -1.000
 5630.00    1.21614   1.17703   -1.000
 5631.00    1.20723   1.17749   -1.000
 5632.00    1.20152   1.17730   -1.000
 5633.00    1.20497   1.17667   -1.000
 5634.00    1.21272   1.17575   -1.000
 5635.00    1.21154   1.17448   -1.000
 5636.00    1.20878   1.17279   -1.000
 5637.00    1.19895   1.17089   -1.000
 5638.00    1.18100   1.16907  138.416
 5639.00    1.16856   1.16734  138.066
 5640.00    1.18170   1.16581  137.427
 5641.00    1.19649   1.16506   -1.000
 5642.00    1.19533   1.16566   -1.000
 5643.00    1.20080   1.16747   -1.000
 5644.00    1.20545   1.16968   -1.000
 5645.00    1.20726   1.17155   -1.000
 5646.00    1.20452   1.17280   -1.000
 5647.00    1.20552   1.17348   -1.000
 5648.00    1.20228   1.17369   -1.000
 5649.00    1.19821   1.17350   -1.000
 5650.00    1.20570   1.17320   -1.000
 5651.00    1.20888   1.17305   -1.000
 5652.00    1.21320   1.17297   -1.000
 5653.00    1.21425   1.17234   -1.000
 5654.00    1.20600   1.17009   -1.000
 5655.00    1.20104   1.16486   -1.000
 5656.00    1.19625   1.15630   -1.000
 5657.00    1.18876   1.14701   -1.000
 5658.00    1.17952   1.14161   -1.000
 5659.00    1.17562   1.14264   -1.000
 5660.00    1.17860   1.14799   -1.000
 5661.00    1.18589   1.15371   -1.000
 5662.00    1.19052   1.15828   -1.000
 5663.00    1.19557   1.16258   -1.000
 5664.00    1.19955   1.16651   -1.000
 5665.00    1.19321   1.16811   -1.000
 5666.00    1.19306   1.16640   -1.000
 5667.00    1.20018   1.16311   -1.000
 5668.00    1.19707   1.16115   -1.000
 5669.00    1.18953   1.16201   -1.000
 5670.00    1.19175   1.16509   -1.000
 5671.00    1.19734   1.16884   -1.000
 5672.00    1.19632   1.17199   -1.000
 5673.00    1.19538   1.17406   -1.000
 5674.00    1.20604   1.17524   -1.000
 5675.00    1.21686   1.17601   -1.000
 5676.00    1.22360   1.17665   -1.000
 5677.00    1.20838   1.17688   -1.000
 5678.00    1.19656   1.17618   -1.000
 5679.00    1.19849   1.17423   -1.000
 5680.00    1.19226   1.17092   -1.000
 5681.00    1.18626   1.16642   -1.000
 5682.00    1.17618   1.16156  137.283
 5683.00    1.16396   1.15790  137.523
 5684.00    1.15345   1.15675  138.888
 5685.00    1.15604   1.15790  139.787
 5686.00    1.17043   1.15980  138.827
 5687.00    1.16276   1.16103  136.499
 5688.00    1.14694   1.16157  134.759
 5689.00    1.15490   1.16242  133.826
 5690.00    1.17331   1.16438  133.394
 5691.00    1.17725   1.16730  133.453
 5692.00    1.17256   1.17033  133.592
 5693.00    1.19251   1.17270   -1.000
 5694.00    1.21575   1.17416   -1.000
 5695.00    1.21738   1.17482   -1.000
 5696.00    1.20350   1.17477   -1.000
 5697.00    1.19353   1.17377   -1.000
 5698.00    1.19212   1.17149   -1.000
 5699.00    1.18962   1.16818   -1.000
 5700.00    1.18733   1.16488   -1.000
 5701.00    1.18204   1.16294   -1.000
 5702.00    1.17253   1.16303  138.014
 5703.00    1.18361   1.16452   -1.000
 5704.00    1.19151   1.16565   -1.000
 5705.00    1.17980   1.16481  144.545
 5706.00    1.17715   1.16140  145.814
 5707.00    1.18870   1.15593   -1.000
 5708.00    1.18671   1.14980   -1.000
 5709.00    1.17037   1.14506   -1.000
 5710.00    1.16986   1.14373   -1.000
 5711.00    1.17007   1.14656   -1.000
 5712.00    1.17810   1.15238   -1.000
 5713.00    1.19629   1.15883   -1.000
 5714.00    1.19461   1.16402   -1.000
 5715.00    1.20072   1.16758   -1.000
 5716.00    1.21048   1.17001   -1.000
 5717.00    1.20245   1.17182   -1.000
 5718.00    1.20094   1.17328   -1.000
 5719.00    1.20097   1.17460   -1.000
 5720.00    1.18945   1.17581  131.568
 5721.00    1.18663   1.17672  131.738
 5722.00    1.19622   1.17724   -1.000
 5723.00    1.20162   1.17737   -1.000
 5724.00    1.20405   1.17686   -1.000
 5725.00    1.20834   1.17539   -1.000
 5726.00    1.20387   1.17318   -1.000
 5727.00    1.20415   1.17106   -1.000
 5728.00    1.20959   1.16986   -1.000
 5729.00    1.20839   1.16982   -1.000
 5730.00    1.20323   1.17059   -1.000
 5731.00    1.21050   1.17173   -1.000
 5732.00    1.20157   1.17307   -1.000
 5733.00    1.19703   1.17465   -1.000
 5734.00    1.20269   1.17615   -1.000
 5735.00    1.19941   1.17699   -1.000
 5736.00    1.21099   1.17706   -1.000
 5737.00    1.20666   1.17680   -1.000
 5738.00    1.20167   1.17665   -1.000
 5739.00    1.20220   1.17671   -1.000
 5740.00    1.20099   1.17685   -1.000
 5741.00    1.21650   1.17692   -1.000
 5742.00    1.21397   1.17691   -1.000
 5743.00    1.19439   1.17694   -1.000
 5744.00    1.20029   1.17698   -1.000
 5745.00    1.19905   1.17669   -1.000
 5746.00    1.19602   1.17594   -1.000
 5747.00    1.19972   1.17522   -1.000
 5748.00    1.19390   1.17513   -1.000
 5749.00    1.19065   1.17550  135.327
 5750.00    1.18732   1.17526  136.792
 5751.00    1.18995   1.17343   -1.000
 5752.00    1.19792   1.17041   -1.000
 5753.00    1.20050   1.16799   -1.000
 5754.00    1.19540   1.16793   -1.000
 5755.00    1.19213   1.17055   -1.000
 5756.00    1.19299   1.17466   -1.000
 5757.00    1.19620   1.17846   -1.000
 5758.00    1.19777   1.18052   -1.000
 5759.00    1.19585   1.18010   -1.000
 5760.00    1.19385   1.17748   -1.000
 5761.00    1.18961   1.17405  134.128
 5762.00    1.19267   1.17185   -1.000
 5763.00    1.19249   1.17238   -1.000
 5764.00    1.19144   1.17536  131.351
 5765.00    1.19905   1.17885   -1.000
 5766.00    1.18649   1.18103  131.281
 5767.00    1.17973   1.18149  131.692
 5768.00    1.19264   1.18091  132.346
 5769.00    1.19982   1.17998   -1.000
 5770.00    1.20515   1.17902   -1.000
 5771.00    1.20400   1.17809   -1.000
 5772.00    1.21159   1.17705   -1.000
 5773.00    1.21264   1.17567   -1.000
 5774.00    1.20102   1.17404   -1.000
 5775.00    1.19204   1.17262   -1.000
 5776.00    1.18766   1.17163   -1.000
 5777.00    1.17692   1.17052  137.418
 5778.00    1.16126   1.16860  139.629
 5779.00    1.16003   1.16587  139.904
 5780.00    1.16789   1.16303  139.365
 5781.00    1.18005   1.16086   -1.000
 5782.00    1.18648   1.15988   -1.000
 5783.00    1.19744   1.16013   -1.000
 5784.00    1.19280   1.16123   -1.000
 5785.00    1.18918   1.16268   -1.000
 5786.00    1.19287   1.16420   -1.000
 5787.00    1.19404   1.16568   -1.000
 5788.00    1.19572   1.16705   -1.000
 5789.00    1.19526   1.16815   -1.000
 5790.00    1.20104   1.16893   -1.000
 5791.00    1.20753   1.16979   -1.000
 5792.00    1.19631   1.17134   -1.000
 5793.00    1.18659   1.17372  132.030
 5794.00    1.18526   1.17621  132.893
 5795.00    1.18423   1.17769  132.669
 5796.00    1.18725   1.17776  131.208
 5797.00    1.20381   1.17719   -1.000
 5798.00    1.20796   1.17720   -1.000
 5799.00    1.20460   1.17826   -1.000
 5800.00    1.20251   1.17983   -1.000
 5801.00    1.20882   1.18111   -1.000
 5802.00    1.21491   1.18159   -1.000
 5803.00    1.21219   1.18127   -1.000
 5804.00    1.21060   1.18071   -1.000
 5805.00    1.20345   1.18065   -1.000
 5806.00    1.20086   1.18138   -1.000
 5807.00    1.21176   1.18258   -1.000
 5808.00    1.21962   1.18369   -1.000
 5809.00    1.21333   1.18444   -1.000
 5810.00    1.20969   1.18495   -1.000
 5811.00    1.20826   1.18529   -1.000
 5812.00    1.20888   1.18520   -1.000
 5813.00    1.21192   1.18436   -1.000
 5814.00    1.20345   1.18294   -1.000
 5815.00    1.19423   1.18179  130.034
 5816.00    1.19887   1.18176   -1.000
 5817.00    1.21331   1.18297   -1.000
 5818.00    1.22680   1.18471   -1.000
 5819.00    1.22485   1.18622   -1.000
 5820.00    1.21660   1.18719   -1.000
 5821.00    1.22065   1.18776   -1.000
 5822.00    1.22120   1.18808   -1.000
 5823.00    1.21521   1.18824   -1.000
 5824.00    1.21207   1.18832   -1.000
 5825.00    1.21830   1.18851   -1.000
 5826.00    1.23110   1.18896   -1.000
 5827.00    1.22118   1.18965   -1.000
 5828.00    1.21729   1.19041   -1.000
 5829.00    1.22068   1.19096   -1.000
 5830.00    1.22187   1.19104   -1.000
 5831.00    1.23176   1.19056   -1.000
 5832.00    1.22079   1.18961   -1.000
 5833.00    1.20739   1.18846   -1.000
 5834.00    1.21175   1.18754   -1.000
 5835.00    1.22649   1.18727   -1.000
 5836.00    1.21692   1.18784   -1.000
 5837.00    1.20728   1.18909   -1.000
 5838.00    1.21783   1.19066   -1.000
 5839.00    1.21519   1.19200   -1.000
 5840.00    1.20842   1.19257   -1.000
 5841.00    1.21261   1.19209   -1.000
 5842.00    1.21549   1.19069   -1.000
 5843.00    1.22098   1.18874   -1.000
 5844.00    1.21790   1.18668   -1.000
 5845.00    1.21549   1.18491   -1.000
 5846.00    1.20789   1.18369   -1.000
 5847.00    1.19765   1.18298  131.654
 5848.00    1.21260   1.18236   -1.000
 5849.00    1.21365   1.18116   -1.000
 5850.00    1.21396   1.17871   -1.000
 5851.00    1.22543   1.17486   -1.000
 5852.00    1.21456   1.17041   -1.000
 5853.00    1.19435   1.16669   -1.000
 5854.00    1.19503   1.16422   -1.000
 5855.00    1.18463   1.16209   -1.000
 5856.00    1.17836   1.15946   -1.000
 5857.00    1.18112   1.15720   -1.000
 5858.00    1.18321   1.15715   -1.000
 5859.00    1.18892   1.15992   -1.000
 5860.00    1.20440   1.16422   -1.000
 5861.00    1.22889   1.16834   -1.000
 5862.00    1.23819   1.17142   -1.000
 5863.00    1.21395   1.17321   -1.000
 5864.00    1.20266   1.17361   -1.000
 5865.00    1.19671   1.17283   -1.000
 5866.00    1.18378   1.17181  131.851
 5867.00    1.19945   1.17175   -1.000
 5868.00    1.21716   1.17304   -1.000
 5869.00    1.21635   1.17504   -1.000
 5870.00    1.21464   1.17671   -1.000
 5871.00    1.20596   1.17732   -1.000
 5872.00    1.20428   1.17665   -1.000
 5873.00    1.21348   1.17492   -1.000
 5874.00    1.21261   1.17271   -1.000
 5875.00    1.20683   1.17070   -1.000
 5876.00    1.20496   1.16923   -1.000
 5877.00    1.20669   1.16800   -1.000
 5878.00    1.19574   1.16648   -1.000
 5879.00    1.19323   1.16453   -1.000
 5880.00    1.20831   1.16236   -1.000
 5881.00    1.21438   1.15990   -1.000
 5882.00    1.21650   1.15687   -1.000
 5883.00    1.22122   1.15325   -1.000
 5884.00    1.22092   1.14917   -1.000
 5885.00    1.21207   1.14339   -1.000
 5886.00    1.08630   1.13244   -1.000
 5887.00    0.79690   1.11323   -1.000
 5888.00    0.65110   1.08843   -1.000
 5889.00    0.76200   1.06765   -1.000
 5890.00    0.97857   1.06061   -1.000
 5891.00    1.08664   1.06809   -1.000
 5892.00    1.06563   1.08053  155.004
 5893.00    0.91748   1.08656   -1.000
 5894.00    0.84208   1.08286   -1.000
 5895.00    0.89377   1.07622   -1.000
 5896.00    0.99844   1.07617   -1.000
 5897.00    1.09385   1.08625  138.752
 5898.00    1.15477   1.10239   -1.000
 5899.00    1.18641   1.11835   -1.000
 5900.00    1.20318   1.13103   -1.000
 5901.00    1.20218   1.14033   -1.000
 5902.00    1.19090   1.14692   -1.000
 5903.00    1.20068   1.15144   -1.000
 5904.00    1.20387   1.15445   -1.000
 5905.00    1.18210   1.15639   -1.000
 5906.00    1.17471   1.15762   -1.000
 5907.00    1.18900   1.15845   -1.000
 5908.00    1.19121   1.15914   -1.000
 5909.00    1.20780   1.15965   -1.000
 5910.00    1.20655   1.15954   -1.000
 5911.00    1.20912   1.15822   -1.000
 5912.00    1.20415   1.15548   -1.000
 5913.00    1.17516   1.15183   -1.000
 5914.00    1.15100   1.14834  137.210
 5915.00    1.15042   1.14607  136.659
 5916.00    1.16236   1.14555  136.283
 5917.00    1.17060   1.14667   -1.000
 5918.00    1.17448   1.14882   -1.000
 5919.00    1.17178   1.15120   -1.000
 5920.00    1.16838   1.15310  135.463
 5921.00    1.18711   1.15427   -1.000
 5922.00    1.17826   1.15507   -1.000
 5923.00    1.16956   1.15603  134.597
 5924.00    1.18270   1.15745   -1.000
 5925.00    1.19381   1.15917   -1.000
 5926.00    1.18623   1.16055   -1.000
 5927.00    1.18328   1.16079   -1.000
 5928.00    1.18959   1.15975   -1.000
 5929.00    1.19048   1.15822   -1.000
 5930.00    1.19997   1.15740   -1.000
 5931.00    1.18651   1.15778   -1.000
 5932.00    1.17474   1.15867   -1.000
 5933.00    1.18734   1.15913   -1.000
 5934.00    1.19946   1.15901   -1.000
 5935.00    1.21194   1.15887   -1.000
 5936.00    1.19764   1.15907   -1.000
 5937.00    1.18545   1.15916   -1.000
 5938.00    1.19093   1.15833   -1.000
 5939.00    1.17239   1.15643   -1.000
 5940.00    1.17091   1.15416   -1.000
 5941.00    1.18448   1.15236   -1.000
 5942.00    1.18853   1.15150   -1.000
 5943.00    1.18517   1.15171   -1.000
 5944.00    1.17247   1.15273   -1.000
 5945.00    1.15420   1.15377  137.651
 5946.00    1.16568   1.15393  138.162
 5947.00    1.18267   1.15340   -1.000
 5948.00    1.18886   1.15329   -1.000
 5949.00    1.18568   1.15423   -1.000
 5950.00    1.18349   1.15589   -1.000
 5951.00    1.18266   1.15742   -1.000
 5952.00    1.18538   1.15834   -1.000
 5953.00    1.19213   1.15852   -1.000
 5954.00    1.17414   1.15782   -1.000
 5955.00    1.17046   1.15648  137.298
 5956.00    1.16624   1.15535  135.867
 5957.00    1.16926   1.15536  134.491
 5958.00    1.17154   1.15674  133.844
 5959.00    1.19418   1.15898   -1.000
 5960.00    1.19618   1.16135   -1.000
 5961.00    1.19684   1.16322   -1.000
 5962.00    1.17613   1.16412  135.092
 5963.00    1.16943   1.16375  135.568
 5964.00    1.17520   1.16230  135.388
 5965.00    1.17188   1.16051  134.444
 5966.00    1.17327   1.15926  133.988
 5967.00    1.16970   1.15899  133.928
 5968.00    1.17838   1.15966   -1.000
 5969.00    1.18822   1.16088   -1.000
 5970.00    1.19554   1.16223   -1.000
 5971.00    1.18244   1.16330   -1.000
 5972.00    1.18499   1.16381   -1.000
 5973.00    1.17745   1.16352  137.159
 5974.00    1.17915   1.16235   -1.000
 5975.00    1.18339   1.16051   -1.000
 5976.00    1.17586   1.15858   -1.000
 5977.00    1.17857   1.15752   -1.000
 5978.00    1.18212   1.15790   -1.000
 5979.00    1.16734   1.15933  136.870
 5980.00    1.17498   1.16074  138.081
 5981.00    1.18758   1.16099   -1.000
 5982.00    1.18400   1.15977   -1.000
 5983.00    1.18182   1.15786   -1.000
 5984.00    1.17791   1.15644   -1.000
 5985.00    1.17351   1.15622   -1.000
 5986.00    1.15870   1.15707  135.124
 5987.00    1.16113   1.15831  135.196
 5988.00    1.17350   1.15919  135.519
 5989.00    1.18424   1.15943   -1.000
 5990.00    1.18242   1.15940   -1.000
 5991.00    1.17626   1.15994   -1.000
 5992.00    1.19440   1.16160   -1.000
 5993.00    1.20038   1.16401   -1.000
 5994.00    1.17792   1.16601  135.773
 5995.00    1.16998   1.16669  136.096
 5996.00    1.17206   1.16611  135.924
 5997.00    1.18029   1.16515  135.988
 5998.00    1.19709   1.16452   -1.000
 5999.00    1.19341   1.16419   -1.000
 6000.00    1.19545   1.16368   -1.000
 6001.00    1.20059   1.16271   -1.000
 6002.00    1.19857   1.16156   -1.000
 6003.00    1.18310   1.16057   -1.000
 6004.00    1.16365   1.15959  139.159
 6005.00    1.16159   1.15819  139.356
 6006.00    1.17034   1.15632  137.941
 6007.00    1.17013   1.15479  136.458
 6008.00    1.18209   1.15469   -1.000
 6009.00    1.16974   1.15620  137.264
 6010.00    1.15980   1.15836  138.053
 6011.00    1.16868   1.15990  137.552
 6012.00    1.17590   1.16051   -1.000
 6013.00    1.18431   1.16083   -1.000
 6014.00    1.17703   1.16127   -1.000
 6015.00    1.18551   1.16158   -1.000
 6016.00    1.17917   1.16122   -1.000
 6017.00    1.18580   1.16002   -1.000
 6018.00    1.16892   1.15845  138.809
 6019.00    1.17245   1.15702   -1.000
 6020.00    1.18088   1.15606   -1.000
 6021.00    1.17288   1.15561   -1.000
 6022.00    1.16912   1.15563  136.580
 6023.00    1.17702   1.15633   -1.000
 6024.00    1.16748   1.15785  135.313
 6025.00    1.16260   1.15997  134.676
 6026.00    1.17673   1.16216   -1.000
 6027.00    1.17988   1.16396   -1.000
 6028.00    1.18089   1.16524   -1.000
 6029.00    1.17976   1.16611  134.576
 6030.00    1.16701   1.16670  134.007
 6031.00    1.17623   1.16712  133.628
 6032.00    1.17464   1.16752  133.540
 6033.00    1.19028   1.16810   -1.000
 6034.00    1.18741   1.16892   -1.000
 6035.00    1.18589   1.16954   -1.000
 6036.00    1.18997   1.16930   -1.000
 6037.00    1.18325   1.16792   -1.000
 6038.00    1.16786   1.16574  134.655
 6039.00    1.17461   1.16334  134.445
 6040.00    1.17781   1.16034   -1.000
 6041.00    1.16216   1.15609  132.786
 6042.00    1.16380   1.15215  132.715
 6043.00    1.17325   1.15119   -1.000
 6044.00    1.16882   1.15459   -1.000
 6045.00    1.16789   1.16071  132.667
 6046.00    1.19118   1.16580   -1.000
 6047.00    1.18794   1.16793   -1.000
 6048.00    1.17404   1.16769  133.564
 6049.00    1.16614   1.16649  133.801
 6050.00    1.17520   1.16531  134.319
 6051.00    1.17858   1.16475   -1.000
 6052.00    1.18484   1.16468   -1.000
 6053.00    1.18925   1.16447   -1.000
 6054.00    1.18525   1.16382   -1.000
 6055.00    1.17687   1.16283  135.081
 6056.00    1.15425   1.16191  134.377
 6057.00    1.09049   1.16140   -1.000
 6058.00    1.08665   1.16144   -1.000
 6059.00    0.62943   1.16177   -1.000
 6060.00    0.50520   1.16182   -1.000
 6061.00    0.93761   1.16069   -1.000
 6062.00    1.08113   1.15785   -1.000
 6063.00    1.12871   1.15387   50.021
 6064.00    1.22214   1.15044   -1.000
 6065.00    0.68680   1.14955   -1.000
 6066.00    0.49278   1.15184   -1.000
 6067.00    1.06149   1.15617   -1.000
 6068.00    1.18358   1.16060   -1.000
 6069.00    1.17845   1.16376   -1.000
 6070.00    1.18201   1.16566   -1.000
 6071.00    1.18550   1.16692   -1.000
 6072.00    1.17999   1.16783  133.693
 6073.00    1.16700   1.16823  134.368
 6074.00    1.16617   1.16779  135.134
 6075.00    1.18180   1.16646   -1.000
 6076.00    1.18075   1.16472   -1.000
 6077.00    1.16598   1.16321  137.179
 6078.00    1.17302   1.16227  137.285
 6079.00    1.18095   1.16174   -1.000
 6080.00    1.16867   1.16110  137.695
 6081.00    1.16797   1.16005  137.596
 6082.00    1.17384   1.15889   -1.000
 6083.00    1.16822   1.15820  137.083
 6084.00    1.17087   1.15833  136.541
 6085.00    1.15972   1.15915  136.715
 6086.00    1.15533   1.16021  137.500
 6087.00    1.18701   1.16116   -1.000
 6088.00    1.18508   1.16169   -1.000
 6089.00    1.17931   1.16146   -1.000
 6090.00    1.17048   1.16061  136.589
 6091.00    1.16786   1.15977  135.830
 6092.00    1.15931   1.15969  135.219
 6093.00    1.16580   1.16068  135.201
 6094.00    1.17236   1.16241  135.519
 6095.00    1.17394   1.16439  135.637
 6096.00    1.17812   1.16625  135.650
 6097.00    1.18645   1.16740   -1.000
 6098.00    1.17169   1.16695  140.312
 6099.00    1.15751   1.16394  142.730
 6100.00    1.16717   1.15810  142.039
 6101.00    1.15866   1.15104  139.449
 6102.00    1.14620   1.14563  137.263
 6103.00    1.14561   1.14433  136.627
 6104.00    1.14115   1.14740  137.068
 6105.00    1.14652   1.15280  137.439
 6106.00    1.15952   1.15822  137.419
 6107.00    1.16620   1.16244  137.140
 6108.00    1.16363   1.16532  136.564
 6109.00    1.17000   1.16685  136.472
 6110.00    1.16136   1.16699  135.827
 6111.00    1.16489   1.16615  135.445
 6112.00    1.16060   1.16510  135.889
 6113.00    1.16870   1.16453  136.768
 6114.00    1.16928   1.16458  137.036
 6115.00    1.16317   1.16485  137.642
 6116.00    1.16421   1.16475  139.517
 6117.00    1.15916   1.16294  141.374
 6118.00    1.16631   1.15855  142.766
 6119.00    1.15605   1.15141  143.001
 6120.00    1.14939   1.14282  140.901
 6121.00    1.13998   1.13648  139.008
 6122.00    1.14512   1.13532  138.799
 6123.00    1.13700   1.13973  139.552
 6124.00    1.13610   1.14733  139.482
 6125.00    1.14380   1.15393  139.173
 6126.00    1.15288   1.15698  138.114
 6127.00    1.14753   1.15687  136.813
 6128.00    1.14247   1.15614  136.430
 6129.00    1.13908   1.15706  136.655
 6130.00    1.14712   1.16019  137.860
 6131.00    1.15600   1.16379  140.829
 6132.00    1.15096   1.16485  144.952
 6133.00    1.15240   1.16133  148.677
 6134.00    1.15353   1.15276  149.417
 6135.00    1.14698   1.14132  146.005
 6136.00    1.12407   1.13149  141.859
 6137.00    1.11144   1.12718  140.060
 6138.00    1.12545   1.12833  140.174
 6139.00    1.12249   1.13119  140.427
 6140.00    1.13444   1.13324  139.150
 6141.00    1.13683   1.13509  137.479
 6142.00    1.11594   1.13893  137.142
 6143.00    1.12385   1.14493  137.722
 6144.00    1.15913   1.15049  138.588
 6145.00    1.16460   1.15332  139.585
 6146.00    1.15989   1.15304  140.419
 6147.00    1.16393   1.15102  140.496
 6148.00    1.14650   1.14906  140.013
 6149.00    1.12860   1.14841  139.065
 6150.00    1.12786   1.14935  138.823
 6151.00    1.12800   1.15120  139.905
 6152.00    1.12844   1.15280  140.679
 6153.00    1.14300   1.15327  140.822
 6154.00    1.15390   1.15247  141.364
 6155.00    1.15297   1.15070  142.804
 6156.00    1.14752   1.14850  145.451
 6157.00    1.13325   1.14595  149.760
 6158.00    1.12196   1.14196  154.153
 6159.00    1.12519   1.13509  155.872
 6160.00    1.11938   1.12553  153.817
 6161.00    1.09880   1.11627  149.661
 6162.00    1.08085   1.11131   -1.000
 6163.00    1.09194   1.11253  146.483
 6164.00    1.12119   1.11792  146.807
 6165.00    1.12440   1.12374  148.628
 6166.00    1.13506   1.12743  150.181
 6167.00    1.13406   1.12838  149.256
 6168.00    1.12740   1.12765  146.448
 6169.00    1.11735   1.12698  144.332
 6170.00    1.11294   1.12795  144.332
 6171.00    1.12415   1.13101  144.469
 6172.00    1.12577   1.13528  144.140
 6173.00    1.11696   1.13959  143.857
 6174.00    1.13191   1.14308  143.475
 6175.00    1.13406   1.14552  142.782
 6176.00    1.13338   1.14690  142.251
 6177.00    1.12679   1.14731  141.795
 6178.00    1.13477   1.14724  141.145
 6179.00    1.13451   1.14726  140.769
 6180.00    1.13215   1.14757  141.017
 6181.00    1.13408   1.14815  141.508
 6182.00    1.14720   1.14873  142.608
 6183.00    1.13273   1.14901  144.156
 6184.00    1.13011   1.14880  145.655
 6185.00    1.14592   1.14797  147.046
 6186.00    1.13663   1.14625  148.127
 6187.00    1.14050   1.14312  150.030
 6188.00    1.14360   1.13826  151.049
 6189.00    1.14388   1.13222  149.492
 6190.00    1.12432   1.12699  145.841
 6191.00    1.10437   1.12512  143.391
 6192.00    1.09872   1.12777   -1.000
 6193.00    1.10843   1.13367  142.212
 6194.00    1.12746   1.14010  143.092
 6195.00    1.13917   1.14489  144.739
 6196.00    1.13460   1.14723  145.945
 6197.00    1.10228   1.14725   -1.000
 6198.00    1.11007   1.14589   -1.000
 6199.00    1.11931   1.14466  142.620
 6200.00    1.11291   1.14492   -1.000
 6201.00    1.11811   1.14708   -1.000
 6202.00    1.12359   1.15015  141.934
 6203.00    1.11685   1.15278   -1.000
 6204.00    1.12273   1.15438   -1.000
 6205.00    1.12148   1.15502   -1.000
 6206.00    1.12824   1.15513  143.066
 6207.00    1.13786   1.15499  144.363
 6208.00    1.14394   1.15445  145.500
 6209.00    1.12591   1.15332   -1.000
 6210.00    1.11557   1.15126   -1.000
 6211.00    1.10273   1.14807   -1.000
 6212.00    1.11026   1.14418   -1.000
 6213.00    1.11558   1.14035  149.198
 6214.00    1.11136   1.13754   -1.000
 6215.00    1.12715   1.13602  149.508
 6216.00    1.11701   1.13519  149.017
 6217.00    1.03461   1.13432   -1.000
 6218.00    1.07211   1.13330   -1.000
 6219.00    1.12064   1.13278  159.570
 6220.00    1.11756   1.13355  154.948
 6221.00    1.10784   1.13549   -1.000
 6222.00    1.10716   1.13776   -1.000
 6223.00    1.13041   1.13956  147.208
 6224.00    1.12179   1.14052  148.016
 6225.00    1.12110   1.14071  150.010
 6226.00    1.11105   1.13974   -1.000
 6227.00    1.11268   1.13675   -1.000
 6228.00    1.11647   1.13157  153.892
 6229.00    1.12267   1.12548  151.709
 6230.00    1.11680   1.12098  148.847
 6231.00    1.10780   1.12023  146.411
 6232.00    1.11286   1.12352  145.685
 6233.00    1.10709   1.12903  146.622
 6234.00    1.09336   1.13399   -1.000
 6235.00    1.09723   1.13644   -1.000
 6236.00    1.09831   1.13597   -1.000
 6237.00    1.10560   1.13354   -1.000
 6238.00    1.11169   1.13090  151.822
 6239.00    1.10804   1.12925  152.904
 6240.00    1.10362   1.12869   -1.000
 6241.00    1.11129   1.12815  153.852
 6242.00    1.10614   1.12641  152.889
 6243.00    1.09843   1.12307   -1.000
 6244.00    1.09755   1.11916  149.459
 6245.00    1.08867   1.11669   -1.000
 6246.00    1.08798   1.11720   -1.000
 6247.00    1.10269   1.12080  149.039
 6248.00    1.10797   1.12569  151.779
 6249.00    1.10581   1.12906  153.680
 6250.00    1.10505   1.12898  154.751
 6251.00    1.10609   1.12576  155.196
 6252.00    1.10394   1.12139  155.144
 6253.00    1.10414   1.11824  156.519
 6254.00    1.10070   1.11732  157.921
 6255.00    1.08250   1.11804   -1.000
 6256.00    1.06571   1.11944   -1.000
 6257.00    1.08314   1.12110   -1.000
 6258.00    1.09565   1.12319   -1.000
 6259.00    1.08180   1.12591   -1.000
 6260.00    1.07564   1.12903   -1.000
 6261.00    1.08995   1.13208   -1.000
 6262.00    1.10844   1.13443  149.575
 6263.00    1.09991   1.13583   -1.000
 6264.00    1.08691   1.13639   -1.000
 6265.00    1.09083   1.13674   -1.000
 6266.00    1.08855   1.13711   -1.000
 6267.00    1.09076   1.13714   -1.000
 6268.00    1.09278   1.13618   -1.000
 6269.00    1.08896   1.13411   -1.000
 6270.00    1.09484   1.13164   -1.000
 6271.00    1.09404   1.12915   -1.000
 6272.00    1.08766   1.12615   -1.000
 6273.00    1.07415   1.12152   -1.000
 6274.00    1.04575   1.11483   -1.000
 6275.00    1.02376   1.10683   -1.000
 6276.00    1.02541   1.09924   -1.000
 6277.00    1.03932   1.09390   -1.000
 6278.00    1.04468   1.09167   -1.000
 6279.00    1.04575   1.09279   -1.000
 6280.00    1.05080   1.09680   -1.000
 6281.00    1.04703   1.10297   -1.000
 6282.00    1.04730   1.11022   -1.000
 6283.00    1.05456   1.11729   -1.000
 6284.00    1.05731   1.12308   -1.000
 6285.00    1.05391   1.12721   -1.000
 6286.00    1.05390   1.12961   -1.000
 6287.00    1.05756   1.13032   -1.000
 6288.00    1.07218   1.12942   -1.000
 6289.00    1.08505   1.12738   -1.000
 6290.00    1.10093   1.12506  150.478
 6291.00    1.12531   1.12332  150.745
 6292.00    1.16225   1.12221   -1.000
 6293.00    1.30836   1.12116   -1.000
 6294.00    1.56880   1.11947   -1.000
 6295.00    1.87680   1.11710   -1.000
 6296.00    2.21481   1.11462   -1.000
 6297.00    2.13494   1.11278   -1.000
 6298.00    1.65090   1.11180   -1.000
 6299.00    1.56246   1.11133   -1.000
 6300.00    1.70745   1.11141   -1.000
 6301.00    1.24203   1.11254   -1.000
 6302.00    1.07210   1.11526   -1.000
 6303.00    1.07508   1.11916   -1.000
 6304.00    1.07678   1.12294   -1.000
 6305.00    1.07107   1.12573   -1.000
 6306.00    1.08549   1.12751   -1.000
 6307.00    1.08374   1.12883   -1.000
 6308.00    1.08262   1.13009   -1.000
 6309.00    1.08816   1.13097   -1.000
 6310.00    1.07473   1.13118   -1.000
 6311.00    1.07816   1.13053   -1.000
 6312.00    1.08221   1.12916   -1.000
 6313.00    1.08576   1.12743   -1.000
 6314.00    1.08439   1.12560   -1.000
 6315.00    1.07412   1.12378   -1.000
 6316.00    1.07403   1.12210   -1.000
 6317.00    1.06880   1.12125   -1.000
 6318.00    1.07052   1.12200   -1.000
 6319.00    1.06813   1.12447   -1.000
 6320.00    1.07939   1.12802   -1.000
 6321.00    1.08100   1.13160   -1.000
 6322.00    1.08393   1.13477   -1.000
 6323.00    1.10205   1.13745   -1.000
 6324.00    1.10566   1.13930   -1.000
 6325.00    1.09803   1.14010   -1.000
 6326.00    1.09954   1.13994   -1.000
 6327.00    1.09159   1.13931   -1.000
 6328.00    1.08411   1.13880   -1.000
 6329.00    1.07953   1.13858   -1.000
 6330.00    1.08635   1.13862   -1.000
 6331.00    1.09228   1.13835   -1.000
 6332.00    1.10193   1.13683   -1.000
 6333.00    1.09490   1.13345   -1.000
 6334.00    1.10066   1.12905  146.941
 6335.00    1.08458   1.12570   -1.000
 6336.00    1.06716   1.12507   -1.000
 6337.00    1.07254   1.12740   -1.000
 6338.00    1.07957   1.13104   -1.000
 6339.00    1.09086   1.13429   -1.000
 6340.00    1.09927   1.13633   -1.000
 6341.00    1.09294   1.13707   -1.000
 6342.00    1.08123   1.13662   -1.000
 6343.00    1.08724   1.13509   -1.000
 6344.00    1.09772   1.13286   -1.000
 6345.00    1.08956   1.13090   -1.000
 6346.00    1.09431   1.13035   -1.000
 6347.00    1.10004   1.13189   -1.000
 6348.00    1.10473   1.13525   -1.000
 6349.00    1.10386   1.13912   -1.000
 6350.00    1.10768   1.14204   -1.000
 6351.00    1.08833   1.14312   -1.000
 6352.00    1.09123   1.14244   -1.000
 6353.00    1.10029   1.14082   -1.000
 6354.00    1.10295   1.13911   -1.000
 6355.00    1.09921   1.13775   -1.000
 6356.00    1.14928   1.13661  148.117
 6357.00    1.20832   1.13532   -1.000
 6358.00    1.27906   1.13389   -1.000
 6359.00    1.44150   1.13240   -1.000
 6360.00    1.48613   1.13106   -1.000
 6361.00    1.32478   1.13005   -1.000
 6362.00    1.18615   1.12977   -1.000
 6363.00    1.07386   1.13055   -1.000
 6364.00    1.01643   1.13221   -1.000
 6365.00    1.08594   1.13414   -1.000
 6366.00    1.09459   1.13547   -1.000
 6367.00    1.07870   1.13572   -1.000
 6368.00    1.09108   1.13487   -1.000
 6369.00    1.08379   1.13334   -1.000
 6370.00    1.08267   1.13199   -1.000
 6371.00    1.08399   1.13185   -1.000
 6372.00    1.06265   1.13311   -1.000
 6373.00    1.05514   1.13505   -1.000
 6374.00    1.07528   1.13661   -1.000
 6375.00    1.08031   1.13705   -1.000
 6376.00    1.06415   1.13644   -1.000
 6377.00    1.06112   1.13533   -1.000
 6378.00    1.06317   1.13405   -1.000
 6379.00    1.06231   1.13282   -1.000
 6380.00    1.07250   1.13180   -1.000
 6381.00    1.06695   1.13121   -1.000
 6382.00    1.04966   1.13121   -1.000
 6383.00    1.05245   1.13176   -1.000
 6384.00    1.03325   1.13271   -1.000
 6385.00    1.02884   1.13400   -1.000
 6386.00    1.03778   1.13530   -1.000
 6387.00    1.04403   1.13620   -1.000
 6388.00    1.01936   1.13618   -1.000
 6389.00    1.01531   1.13463   -1.000
 6390.00    1.00909   1.13144   -1.000
 6391.00    1.01099   1.12714   -1.000
 6392.00    0.98721   1.12327   -1.000
 6393.00    0.97718   1.12172   -1.000
 6394.00    0.98539   1.12306   -1.000
 6395.00    1.00081   1.12598   -1.000
 6396.00    0.98486   1.12787   -1.000
 6397.00    0.96778   1.12715   -1.000
 6398.00    0.97151   1.12450   -1.000
 6399.00    0.95632   1.12224   -1.000
 6400.00    0.92934   1.12260   -1.000
 6401.00    0.93618   1.12583   -1.000
 6402.00    0.94665   1.13032   -1.000
 6403.00    0.95724   1.13372   -1.000
 6404.00    0.93841   1.13445   -1.000
 6405.00    0.96616   1.13220   -1.000
 6406.00    0.94112   1.12774   -1.000
 6407.00    0.93288   1.12281   -1.000
 6408.00    0.91784   1.11996   -1.000
 6409.00    0.90113   1.11990   -1.000
 6410.00    0.89839   1.12197   -1.000
 6411.00    0.88491   1.12449   -1.000
 6412.00    0.88499   1.12597   -1.000
 6413.00    0.89059   1.12680   -1.000
 6414.00    0.88066   1.12734   -1.000
 6415.00    0.88877   1.12810   -1.000
 6416.00    0.87952   1.12888   -1.000
 6417.00    0.83614   1.12924   -1.000
 6418.00    0.84061   1.12829   -1.000
 6419.00    0.84165   1.12634   -1.000
 6420.00    0.83285   1.12500   -1.000
 6421.00    0.82279   1.12573   -1.000
 6422.00    0.81236   1.12876   -1.000
 6423.00    0.81172   1.13297   -1.000
 6424.00    0.79428   1.13690   -1.000
 6425.00    0.79023   1.13959   -1.000
 6426.00    0.78915   1.14039   -1.000
 6427.00    0.77849   1.13877   -1.000
 6428.00    0.06075   1.13474   -1.000
