###################################################################
## OUTPUT of StarlightChains_v04.for    [Cid@UFSC - 01/Apr/2007] ##
###################################################################

## Some input info
NGC2808_b_1.cxt                          [arq_obs]
Base.BC03.S                              [arq_base]
NGC2808_b_1.msk                          [arq_masks]
StCv04.C99.config                        [arq_config]
  150                                    [N_base]
    0                                    [N_YAV_components = # of components with extra extinction!]
    0                                    [i_FitPowerLaw (1/0 = Yes/No)]
-9.99                                    [alpha_PowerLaw]
CCM                                      [red_law_option]
 1.458241                                [q_norm = A(l_norm)/A(V)]

## (Re)Sampling Parameters
 3359.00                                 [l_ini (A)]
 6428.00                                 [l_fin (A)]
    1.00                                 [dl    (A)]     (OBS: dl_cushion =    50.00 A)

## Normalization info
 4020.00                                 [l_norm (A) - for base]
 4010.00                                 [llow_norm (A) - window for f_obs]
 4060.00                                 [lupp_norm (A) - window for f_obs]
3.144042E-14                             [fobs_norm (in input units)]

## S/N
 4730.00                                 [llow_SN (A) - window for S/N]
 4780.00                                 [lupp_SN (A) - window for S/N]
  65.329                                 [S/N in S/N window]
  51.114                                 [S/N in norm. window]
 151.759                                 [S/N_err in S/N window]
 118.738                                 [S/N_err in norm. window]
  1.0000                                 [fscale_chi2]

## etc...
  2147483641                             [idum_orig]
  3067                                   [NOl_eff]
  1269                                   [Nl_eff]
  1798    NSIGMA                         [Ntot_cliped & clip_method]
  3477950                                [Nglobal_steps]
   7                                     [N_chains]
  22                                     [NEX0s_base = N_base in EX0s-fits]
 0   0   1      256   2.0   2.497E+02    [Clip-Bug, RC-Crash & Burn-In warning-flags, n_censored_weights, wei_nsig_threshold & wei_limit]
   134    134.449    134.441      0.008  [idt_all, wdt_TotTime, wdt_UsrTime & wdt_SysTime (sec)]

## Synthesis Results - Best model ##

 2.56380E+00                             [chi2/Nl_eff]
     1.32657                             [adev (%)]

   101.76050                             [sum-of-x (%)]
 6.88621E-14                             [Flux_tot (units of input spectrum!)]
 1.63419E-09                             [Mini_tot (???)]
 8.30421E-10                             [Mcor_tot (???)]

  -5.19                                  [v0_min  (km/s)]
  66.69                                  [vd_min  (km/s)]
 0.5707                                  [AV_min  (mag)]
 0.0000                                  [YAV_min (mag)]

# j     x_j(%)      Mini_j(%)     Mcor_j(%)     age_j(yr)     Z_j      (L/M)_j    YAV?  Mstars   component_j        a/Fe...       SSP_chi2r SSP_adev(%)   SSP_AV   SSP_x(%)
  1      0.0000     0.0000E+00    0.0000E+00    1.000000E+06  0.00010  8.160E-03    0   1.0000   age020_m22            0.0000     3.6584E+02    14.4209   4.0000    84.1707
  2     16.4459     1.4310E-02    2.8161E-02    3.160000E+06  0.00010  4.759E-02    0   1.0000   age045_m22            0.0000     6.9990E+01     5.6585   2.2158    99.5177
  3      0.9959     2.1344E-03    4.0248E-03    5.010000E+06  0.00010  1.932E-02    0   0.9582   age055_m22            0.0000     2.8748E+02    12.7959   2.5114    87.5672
  4      0.0000     0.0000E+00    0.0000E+00    6.610000E+06  0.00010  9.973E-03    0   0.9297   age061_m22            0.0000     3.5400E+02    14.3586   4.0000    86.7047
  5      0.0000     0.0000E+00    0.0000E+00    8.710000E+06  0.00010  7.690E-03    0   0.9030   age067_m22            0.0000     3.3339E+02    13.9796   4.0000    86.9922
  6      0.0000     0.0000E+00    0.0000E+00    1.000000E+07  0.00010  6.375E-03    0   0.8902   age070_m22            0.0000     3.2381E+02    13.7220   4.0000    87.3547
  7      0.0000     0.0000E+00    0.0000E+00    1.445000E+07  0.00010  4.874E-03    0   0.8589   age078_m22            0.0000     2.1873E+02    11.5397   3.9923    87.2420
  8      0.0000     0.0000E+00    0.0000E+00    2.512000E+07  0.00010  4.103E-03    0   0.8174   age090_m22            0.0000     1.2618E+02     8.5505   3.5935    92.9356
  9      0.0000     0.0000E+00    0.0000E+00    4.000000E+07  0.00010  3.654E-03    0   0.7830   age104_m22            0.0000     1.2602E+02     7.2325   3.3089    96.9020
 10      0.0000     0.0000E+00    0.0000E+00    5.500000E+07  0.00010  3.093E-03    0   0.7597   age110_m22            0.0000     1.3447E+02     7.0022   3.2077    98.3349
 11      0.0000     0.0000E+00    0.0000E+00    1.015200E+08  0.00010  2.431E-03    0   0.7138   age116_m22            0.0000     1.7632E+02     7.5094   2.8662   100.9717
 12      0.0000     0.0000E+00    0.0000E+00    1.609000E+08  0.00010  1.319E-03    0   0.6775   age120_m22            0.0000     1.7906E+02     7.2958   2.3843   103.3857
 13      0.0000     0.0000E+00    0.0000E+00    2.861200E+08  0.00010  1.075E-03    0   0.6412   age125_m22            0.0000     3.8815E+02    10.5636   2.4546   106.5336
 14      0.0000     0.0000E+00    0.0000E+00    5.088000E+08  0.00010  7.183E-04    0   0.6083   age130_m22            0.0000     4.6261E+02    11.5887   2.2195   108.3628
 15      0.0000     0.0000E+00    0.0000E+00    9.047900E+08  0.00010  4.524E-04    0   0.5785   age135_m22            0.0000     4.6698E+02    11.7081   2.0148   109.6524
 16      0.0000     0.0000E+00    0.0000E+00    1.278050E+09  0.00010  3.018E-04    0   0.5588   age138_m22            0.0000     2.4465E+02     8.4734   1.4767   108.1426
 17      0.0000     0.0000E+00    0.0000E+00    1.434000E+09  0.00010  2.691E-04    0   0.5532   age139_m22            0.0000     2.0406E+02     7.7616   1.3172   107.6753
 18      0.0000     0.0000E+00    0.0000E+00    2.500000E+09  0.00010  1.582E-04    0   0.5296   age150_m22            0.0000     1.8242E+02     7.4689   1.2068   108.3653
 19      0.0000     0.0000E+00    0.0000E+00    4.250000E+09  0.00010  1.007E-04    0   0.5110   age158_m22            0.0000     1.1039E+02     5.8537   1.0479   106.8905
 20      0.1469     8.8536E-02    8.6854E-02    6.250000E+09  0.00010  6.869E-05    0   0.4985   age166_m22            0.0000     5.7913E+01     4.2459   0.9815   104.4074
 21      0.0000     0.0000E+00    0.0000E+00    7.500000E+09  0.00010  5.873E-05    0   0.4931   age171_m22            0.0000     5.3881E+01     4.1640   0.9711   103.8796
 22      0.0000     0.0000E+00    0.0000E+00    1.000000E+10  0.00010  4.481E-05    0   0.4854   age181_m22            0.0000     5.1315E+01     4.0638   0.9318   103.5376
 23      0.0000     0.0000E+00    0.0000E+00    1.300000E+10  0.00010  3.489E-05    0   0.4791   age193_m22            0.0000     4.5175E+01     3.7979   0.8728   103.0281
 24      0.0000     0.0000E+00    0.0000E+00    1.500000E+10  0.00010  3.035E-05    0   0.4766   age201_m22            0.0000     4.1878E+01     3.6578   0.8327   102.8575
 25      1.7853     2.9453E+00    2.7445E+00    1.800000E+10  0.00010  2.510E-05    0   0.4735   age213_m22            0.0000     3.4674E+01     3.3373   0.7619   102.2958
 26      0.0000     0.0000E+00    0.0000E+00    1.000000E+06  0.00040  8.458E-03    0   1.0000   age020_m32            0.0000     3.6761E+02    14.4201   4.0000    85.1359
 27      0.0000     0.0000E+00    0.0000E+00    3.160000E+06  0.00040  3.973E-02    0   1.0000   age045_m32            0.0000     1.3525E+02     8.9239   3.4916    92.9933
 28      0.0000     0.0000E+00    0.0000E+00    5.010000E+06  0.00040  1.935E-02    0   0.9532   age055_m32            0.0000     2.5355E+02    12.4042   3.7177    87.6428
 29      0.0000     0.0000E+00    0.0000E+00    6.610000E+06  0.00040  1.204E-02    0   0.9243   age061_m32            0.0000     2.7366E+02    12.8504   4.0000    86.3401
 30      0.0000     0.0000E+00    0.0000E+00    8.710000E+06  0.00040  9.433E-03    0   0.9001   age067_m32            0.0000     2.4623E+02    12.1925   4.0000    86.6976
 31      0.0000     0.0000E+00    0.0000E+00    1.000000E+07  0.00040  8.053E-03    0   0.8877   age070_m32            0.0000     2.3596E+02    11.9706   3.9630    87.1403
 32      0.0000     0.0000E+00    0.0000E+00    1.445000E+07  0.00040  7.027E-03    0   0.8578   age078_m32            0.0000     1.6427E+02     9.9591   3.4487    91.7920
 33      0.0000     0.0000E+00    0.0000E+00    2.512000E+07  0.00040  4.707E-03    0   0.8166   age090_m32            0.0000     1.2342E+02     8.1474   3.1562    95.3693
 34      0.0000     0.0000E+00    0.0000E+00    4.000000E+07  0.00040  3.714E-03    0   0.7827   age104_m32            0.0000     1.2028E+02     7.1276   2.9608    98.2667
 35      0.0000     0.0000E+00    0.0000E+00    5.500000E+07  0.00040  2.982E-03    0   0.7593   age110_m32            0.0000     1.3068E+02     7.0226   2.9010    99.2947
 36      0.0000     0.0000E+00    0.0000E+00    1.015200E+08  0.00040  2.188E-03    0   0.7143   age116_m32            0.0000     2.2919E+02     8.2845   2.6393   103.1699
 37      0.0000     0.0000E+00    0.0000E+00    1.609000E+08  0.00040  1.690E-03    0   0.6856   age120_m32            0.0000     3.2030E+02     9.6058   2.4369   105.6736
 38      0.0000     0.0000E+00    0.0000E+00    2.861200E+08  0.00040  1.152E-03    0   0.6509   age125_m32            0.0000     4.0474E+02    10.7995   2.2062   107.7226
 39      0.0000     0.0000E+00    0.0000E+00    5.088000E+08  0.00040  7.331E-04    0   0.6182   age130_m32            0.0000     4.3409E+02    11.2317   2.0377   108.5363
 40      0.0000     0.0000E+00    0.0000E+00    9.047900E+08  0.00040  3.960E-04    0   0.5890   age135_m32            0.0000     2.4921E+02     8.6246   1.5580   107.6124
 41      0.0000     0.0000E+00    0.0000E+00    1.278050E+09  0.00040  2.854E-04    0   0.5687   age138_m32            0.0000     2.0599E+02     7.9141   1.2729   109.2866
 42      0.0000     0.0000E+00    0.0000E+00    1.434000E+09  0.00040  2.531E-04    0   0.5632   age139_m32            0.0000     2.0087E+02     7.8227   1.2122   109.2691
 43      0.0000     0.0000E+00    0.0000E+00    2.500000E+09  0.00040  1.488E-04    0   0.5386   age150_m32            0.0000     1.4175E+02     6.5816   0.9496   107.6973
 44      0.1702     7.7602E-02    7.9396E-02    4.250000E+09  0.00040  9.082E-05    0   0.5199   age158_m32            0.0000     5.2360E+01     3.9633   0.8385   104.7417
 45      2.2492     1.4640E+00    1.4624E+00    6.250000E+09  0.00040  6.362E-05    0   0.5076   age166_m32            0.0000     1.9522E+01     2.5503   0.7882   101.6368
 46     21.7312     1.7014E+01    1.6831E+01    7.500000E+09  0.00040  5.289E-05    0   0.5027   age171_m32            0.0000     1.5070E+01     2.3206   0.7472   100.4809
 47     25.8163     2.6914E+01    2.6207E+01    1.000000E+10  0.00040  3.972E-05    0   0.4948   age181_m32            0.0000     1.1798E+01     2.1297   0.6792    99.2239
 48      0.0000     0.0000E+00    0.0000E+00    1.300000E+10  0.00040  3.283E-05    0   0.4870   age193_m32            0.0000     1.9402E+01     2.4863   0.6406   101.7740
 49      0.0000     0.0000E+00    0.0000E+00    1.500000E+10  0.00040  2.925E-05    0   0.4854   age201_m32            0.0000     2.9837E+01     3.0323   0.6258   103.2524
 50      0.0000     0.0000E+00    0.0000E+00    1.800000E+10  0.00040  2.469E-05    0   0.4819   age213_m32            0.0000     3.4480E+01     3.2517   0.5865   103.7320
 51      0.0000     0.0000E+00    0.0000E+00    1.000000E+06  0.00400  1.114E-02    0   1.0000   age020_m42            0.0000     3.2469E+02    13.7176   4.0000    84.5248
 52      0.0000     0.0000E+00    0.0000E+00    3.160000E+06  0.00400  4.073E-02    0   0.9999   age045_m42            0.0000     9.3957E+01     7.1453   3.1935    95.5264
 53      0.0000     0.0000E+00    0.0000E+00    5.010000E+06  0.00400  2.534E-02    0   0.9488   age055_m42            0.0000     1.6872E+02    10.2787   3.5898    89.6826
 54      0.0000     0.0000E+00    0.0000E+00    6.610000E+06  0.00400  2.583E-02    0   0.9220   age061_m42            0.0000     9.7013E+01     6.8630   3.0111    96.0892
 55      0.0000     0.0000E+00    0.0000E+00    8.710000E+06  0.00400  1.706E-02    0   0.8983   age067_m42            0.0000     1.2051E+02     8.3745   2.8343    94.4807
 56      0.0000     0.0000E+00    0.0000E+00    1.000000E+07  0.00400  1.271E-02    0   0.8862   age070_m42            0.0000     1.6186E+02     9.9706   2.8219    93.1480
 57      0.0000     0.0000E+00    0.0000E+00    1.445000E+07  0.00400  7.666E-03    0   0.8571   age078_m42            0.0000     1.9505E+02    10.9943   3.2125    90.2829
 58      0.0000     0.0000E+00    0.0000E+00    2.512000E+07  0.00400  5.070E-03    0   0.8174   age090_m42            0.0000     1.3703E+02     9.2554   2.6844    94.9004
 59      0.0000     0.0000E+00    0.0000E+00    4.000000E+07  0.00400  3.505E-03    0   0.7851   age104_m42            0.0000     8.9260E+01     7.3611   2.3592    97.8732
 60      0.0000     0.0000E+00    0.0000E+00    5.500000E+07  0.00400  3.059E-03    0   0.7629   age110_m42            0.0000     1.0764E+02     6.0468   2.4236   101.8825
 61      0.0000     0.0000E+00    0.0000E+00    1.015200E+08  0.00400  2.268E-03    0   0.7207   age116_m42            0.0000     2.7795E+02     8.7364   2.3460   106.4136
 62      0.0000     0.0000E+00    0.0000E+00    1.609000E+08  0.00400  1.720E-03    0   0.6930   age120_m42            0.0000     3.0268E+02     9.1161   2.2011   108.1132
 63      0.0000     0.0000E+00    0.0000E+00    2.861200E+08  0.00400  1.079E-03    0   0.6613   age125_m42            0.0000     3.1021E+02     9.3554   1.8463   108.7267
 64      0.0000     0.0000E+00    0.0000E+00    5.088000E+08  0.00400  6.261E-04    0   0.6313   age130_m42            0.0000     3.5373E+02    10.0396   1.6554   111.4992
 65      0.0000     0.0000E+00    0.0000E+00    9.047900E+08  0.00400  3.535E-04    0   0.6024   age135_m42            0.0000     2.1657E+02     7.8866   1.2410   112.0407
 66      0.0000     0.0000E+00    0.0000E+00    1.278050E+09  0.00400  2.677E-04    0   0.5837   age138_m42            0.0000     8.8093E+01     5.8709   0.5228   110.0918
 67      0.0000     0.0000E+00    0.0000E+00    1.434000E+09  0.00400  1.910E-04    0   0.5716   age139_m42            0.0000     1.0749E+02     6.0761   0.6975   110.8382
 68      0.0000     0.0000E+00    0.0000E+00    2.500000E+09  0.00400  9.818E-05    0   0.5463   age150_m42            0.0000     3.7270E+01     4.0861   0.4035   106.5008
 69      0.0000     0.0000E+00    0.0000E+00    4.250000E+09  0.00400  5.491E-05    0   0.5269   age158_m42            0.0000     3.0631E+01     3.8699   0.2737   103.8617
 70      1.6520     1.7736E+00    1.7979E+00    6.250000E+09  0.00400  3.857E-05    0   0.5151   age166_m42            0.0000     4.5931E+01     4.5778   0.1393   102.5949
 71      1.3768     1.7580E+00    1.7679E+00    7.500000E+09  0.00400  3.243E-05    0   0.5110   age171_m42            0.0000     5.9662E+01     5.1024   0.0567   102.0788
 72      0.0000     0.0000E+00    0.0000E+00    1.000000E+10  0.00400  2.424E-05    0   0.5028   age181_m42            0.0000     8.0930E+01     5.8188  -0.0276   101.5132
 73      0.0013     2.8183E-03    2.7326E-03    1.300000E+10  0.00400  1.883E-05    0   0.4927   age193_m42            0.0000     9.8721E+01     6.3721  -0.0701   101.2695
 74      0.0000     0.0000E+00    0.0000E+00    1.500000E+10  0.00400  1.685E-05    0   0.4919   age201_m42            0.0000     9.3201E+01     6.2080  -0.0640   101.2783
 75      0.0000     0.0000E+00    0.0000E+00    1.800000E+10  0.00400  1.452E-05    0   0.4874   age213_m42            0.0000     8.3533E+01     5.9161  -0.0462   101.5238
 76      0.0000     0.0000E+00    0.0000E+00    1.000000E+06  0.00800  1.286E-02    0   1.0000   age020_m52            0.0000     2.8200E+02    12.9654   4.0000    86.0145
 77      0.0000     0.0000E+00    0.0000E+00    3.160000E+06  0.00800  3.147E-02    0   0.9966   age045_m52            0.0000     2.6071E+02    12.5719   4.0000    86.1357
 78      0.0000     0.0000E+00    0.0000E+00    5.010000E+06  0.00800  2.664E-02    0   0.9443   age055_m52            0.0000     1.9445E+02    10.9727   3.7026    88.8519
 79      0.0000     0.0000E+00    0.0000E+00    6.610000E+06  0.00800  2.151E-02    0   0.9177   age061_m52            0.0000     1.1057E+02     8.4565   2.3976    95.2604
 80      0.0000     0.0000E+00    0.0000E+00    8.710000E+06  0.00800  1.628E-02    0   0.8948   age067_m52            0.0000     1.3154E+02     8.9929   2.7813    95.1937
 81      0.0000     0.0000E+00    0.0000E+00    1.000000E+07  0.00800  1.215E-02    0   0.8827   age070_m52            0.0000     1.6098E+02     9.9917   3.1208    93.3627
 82      0.0000     0.0000E+00    0.0000E+00    1.445000E+07  0.00800  8.739E-03    0   0.8552   age078_m52            0.0000     1.4459E+02     9.2050   3.1639    94.4581
 83      0.0000     0.0000E+00    0.0000E+00    2.512000E+07  0.00800  5.676E-03    0   0.8162   age090_m52            0.0000     1.3872E+02     8.0218   2.7767    98.7009
 84      0.0000     0.0000E+00    0.0000E+00    4.000000E+07  0.00800  3.939E-03    0   0.7841   age104_m52            0.0000     1.3925E+02     7.2894   2.6173   101.0559
 85      0.0000     0.0000E+00    0.0000E+00    5.500000E+07  0.00800  3.155E-03    0   0.7627   age110_m52            0.0000     1.5843E+02     7.0871   2.5862   102.6795
 86      0.0000     0.0000E+00    0.0000E+00    1.015200E+08  0.00800  2.206E-03    0   0.7226   age116_m52            0.0000     2.2481E+02     7.8574   2.3990   106.3395
 87      0.0000     0.0000E+00    0.0000E+00    1.609000E+08  0.00800  1.596E-03    0   0.6963   age120_m52            0.0000     2.6279E+02     8.5273   2.1825   108.0525
 88      0.0000     0.0000E+00    0.0000E+00    2.861200E+08  0.00800  1.002E-03    0   0.6665   age125_m52            0.0000     3.7254E+02    10.3974   1.8832   110.9627
 89      0.0000     0.0000E+00    0.0000E+00    5.088000E+08  0.00800  5.759E-04    0   0.6377   age130_m52            0.0000     3.8974E+02    10.9810   1.5219   115.2340
 90      0.0000     0.0000E+00    0.0000E+00    9.047900E+08  0.00800  2.972E-04    0   0.6086   age135_m52            0.0000     2.1869E+02     8.6424   0.9564   114.7546
 91      0.0000     0.0000E+00    0.0000E+00    1.278050E+09  0.00800  2.242E-04    0   0.5907   age138_m52            0.0000     1.0061E+02     6.3042   0.3267   113.5691
 92      0.0000     0.0000E+00    0.0000E+00    1.434000E+09  0.00800  1.645E-04    0   0.5787   age139_m52            0.0000     8.3417E+01     5.6550   0.4780   112.9190
 93      0.0000     0.0000E+00    0.0000E+00    2.500000E+09  0.00800  7.723E-05    0   0.5519   age150_m52            0.0000     6.5419E+01     5.3749   0.1235   109.3359
 94      5.4454     5.4321E+00    5.6871E+00    4.250000E+09  0.00800  4.151E-05    0   0.5320   age158_m52            0.0000     6.4104E+01     5.3643   0.0497   106.8035
 95      2.9354     4.0384E+00    4.1301E+00    6.250000E+09  0.00800  3.010E-05    0   0.5197   age166_m52            0.0000     9.9569E+01     6.4452  -0.1545   105.5450
 96      4.5180     7.5835E+00    7.6693E+00    7.500000E+09  0.00800  2.467E-05    0   0.5139   age171_m52            0.0000     1.1122E+02     6.7526  -0.1988   105.1721
 97      4.7292     1.0517E+01    1.0460E+01    1.000000E+10  0.00800  1.862E-05    0   0.5054   age181_m52            0.0000     1.5013E+02     7.7037  -0.3381   104.9031
 98      2.8141     8.1319E+00    7.9822E+00    1.300000E+10  0.00800  1.433E-05    0   0.4988   age193_m52            0.0000     1.9775E+02     8.7569  -0.4415   105.6596
 99      0.1206     4.0145E-01    3.8995E-01    1.500000E+10  0.00800  1.244E-05    0   0.4936   age201_m52            0.0000     2.1775E+02     9.1600  -0.4726   106.1652
100      0.0000     0.0000E+00    0.0000E+00    1.800000E+10  0.00800  1.070E-05    0   0.4888   age213_m52            0.0000     2.3202E+02     9.4528  -0.5100   106.0443
101      0.0000     0.0000E+00    0.0000E+00    1.000000E+06  0.02000  1.989E-02    0   1.0000   age020_m62            0.0000     3.1097E+02    13.3925   4.0000    84.8034
102      0.0000     0.0000E+00    0.0000E+00    3.160000E+06  0.02000  3.772E-02    0   0.9858   age045_m62            0.0000     2.7703E+02    12.7758   3.9521    85.4218
103      0.0000     0.0000E+00    0.0000E+00    5.010000E+06  0.02000  3.227E-02    0   0.9342   age055_m62            0.0000     1.3343E+02     8.9091   3.4427    92.3640
104      0.0000     0.0000E+00    0.0000E+00    6.610000E+06  0.02000  2.387E-02    0   0.9090   age061_m62            0.0000     1.9192E+02    10.8625   3.1953    91.9288
105      0.0000     0.0000E+00    0.0000E+00    8.710000E+06  0.02000  1.102E-02    0   0.8861   age067_m62            0.0000     5.0803E+02    17.1926   2.8146    87.8192
106      0.0000     0.0000E+00    0.0000E+00    1.000000E+07  0.02000  1.011E-02    0   0.8751   age070_m62            0.0000     3.4750E+02    14.4551   2.8338    90.2403
107      0.0000     0.0000E+00    0.0000E+00    1.445000E+07  0.02000  7.331E-03    0   0.8472   age078_m62            0.0000     2.4106E+02    12.2311   2.8462    91.6783
108      0.0000     0.0000E+00    0.0000E+00    2.512000E+07  0.02000  4.206E-03    0   0.8099   age090_m62            0.0000     2.4441E+02    12.3440   2.7480    91.2677
109      0.0000     0.0000E+00    0.0000E+00    4.000000E+07  0.02000  3.373E-03    0   0.7799   age104_m62            0.0000     1.1548E+02     7.6079   2.5602    99.4508
110      0.0000     0.0000E+00    0.0000E+00    5.500000E+07  0.02000  2.747E-03    0   0.7595   age110_m62            0.0000     1.3893E+02     7.0265   2.5004   102.6161
111      0.0000     0.0000E+00    0.0000E+00    1.015200E+08  0.02000  1.878E-03    0   0.7221   age116_m62            0.0000     2.5804E+02     8.4280   2.3711   107.0344
112      0.0000     0.0000E+00    0.0000E+00    1.609000E+08  0.02000  1.378E-03    0   0.6978   age120_m62            0.0000     3.5156E+02     9.7905   2.2195   109.5516
113      0.0000     0.0000E+00    0.0000E+00    2.861200E+08  0.02000  8.869E-04    0   0.6700   age125_m62            0.0000     5.0647E+02    11.8308   1.8477   113.8989
114      0.0000     0.0000E+00    0.0000E+00    5.088000E+08  0.02000  4.834E-04    0   0.6430   age130_m62            0.0000     4.3045E+02    11.4053   1.3849   116.8892
115      0.0000     0.0000E+00    0.0000E+00    9.047900E+08  0.02000  2.312E-04    0   0.6152   age135_m62            0.0000     1.9435E+02     7.9878   0.7568   116.6300
116      0.0000     0.0000E+00    0.0000E+00    1.278050E+09  0.02000  1.387E-04    0   0.5927   age138_m62            0.0000     8.2776E+01     5.6035   0.3579   112.5746
117      0.0000     0.0000E+00    0.0000E+00    1.434000E+09  0.02000  1.168E-04    0   0.5865   age139_m62            0.0000     6.9495E+01     5.2747   0.3274   111.0424
118      0.0000     0.0000E+00    0.0000E+00    2.500000E+09  0.02000  5.505E-05    0   0.5610   age150_m62            0.0000     8.4583E+01     6.0722  -0.0667   108.3787
119      0.0015     1.9865E-03    2.1137E-03    4.250000E+09  0.02000  3.070E-05    0   0.5407   age158_m62            0.0000     1.6434E+02     8.1440  -0.3824   108.6851
120      0.0000     0.0000E+00    0.0000E+00    6.250000E+09  0.02000  2.104E-05    0   0.5277   age166_m62            0.0000     2.1886E+02     9.2455  -0.5228   109.3020
121      0.0000     0.0000E+00    0.0000E+00    7.500000E+09  0.02000  1.770E-05    0   0.5223   age171_m62            0.0000     2.4904E+02     9.7940  -0.6176   109.8191
122      0.0000     0.0000E+00    0.0000E+00    1.000000E+10  0.02000  1.297E-05    0   0.5121   age181_m62            0.0000     3.1725E+02    10.9159  -0.7883   110.5809
123      0.0000     0.0000E+00    0.0000E+00    1.300000E+10  0.02000  9.691E-06    0   0.5047   age193_m62            0.0000     3.6725E+02    11.6567  -0.8785   111.1255
124      0.0000     0.0000E+00    0.0000E+00    1.500000E+10  0.02000  8.360E-06    0   0.4999   age201_m62            0.0000     4.1071E+02    12.2686  -0.9570   111.5420
125      0.0000     0.0000E+00    0.0000E+00    1.800000E+10  0.02000  6.911E-06    0   0.4946   age213_m62            0.0000     4.6735E+02    13.0122  -1.0000   111.1072
126      0.0000     0.0000E+00    0.0000E+00    1.000000E+06  0.05000  2.651E-02    0   0.9998   age020_m72            0.0000     2.8909E+02    12.8457   4.0000    85.7013
127      0.0000     0.0000E+00    0.0000E+00    3.160000E+06  0.05000  4.817E-02    0   0.9577   age045_m72            0.0000     2.0727E+02    11.1371   3.8086    88.4414
128      0.0000     0.0000E+00    0.0000E+00    5.010000E+06  0.05000  3.101E-02    0   0.9147   age055_m72            0.0000     1.9296E+02    10.8361   3.4582    91.0319
129      0.0000     0.0000E+00    0.0000E+00    6.610000E+06  0.05000  1.472E-02    0   0.8877   age061_m72            0.0000     3.8983E+02    14.8957   3.0193    89.4492
130      0.0000     0.0000E+00    0.0000E+00    8.710000E+06  0.05000  1.050E-02    0   0.8638   age067_m72            0.0000     2.6133E+02    12.3468   3.4057    89.9700
131      0.0000     0.0000E+00    0.0000E+00    1.000000E+07  0.05000  8.954E-03    0   0.8524   age070_m72            0.0000     1.9025E+02    10.6073   3.6795    90.0097
132      0.0000     0.0000E+00    0.0000E+00    1.445000E+07  0.05000  6.392E-03    0   0.8262   age078_m72            0.0000     1.6358E+02     9.8665   3.6231    91.0491
133      0.0000     0.0000E+00    0.0000E+00    2.512000E+07  0.05000  4.207E-03    0   0.7902   age090_m72            0.0000     1.1236E+02     7.9955   3.2414    95.4044
134      0.0000     0.0000E+00    0.0000E+00    4.000000E+07  0.05000  3.198E-03    0   0.7618   age104_m72            0.0000     1.6555E+02     6.8458   2.7324   102.9500
135      0.0000     0.0000E+00    0.0000E+00    5.500000E+07  0.05000  2.593E-03    0   0.7432   age110_m72            0.0000     2.1291E+02     7.6376   2.6452   104.6920
136      0.0000     0.0000E+00    0.0000E+00    1.015200E+08  0.05000  1.716E-03    0   0.7092   age116_m72            0.0000     3.0527E+02     9.1325   2.4560   107.2246
137      0.0000     0.0000E+00    0.0000E+00    1.609000E+08  0.05000  1.218E-03    0   0.6876   age120_m72            0.0000     4.0305E+02    10.4173   2.1884   109.9675
138      0.0000     0.0000E+00    0.0000E+00    2.861200E+08  0.05000  7.047E-04    0   0.6618   age125_m72            0.0000     4.7653E+02    11.7870   1.6275   114.4200
139      0.0000     0.0000E+00    0.0000E+00    5.088000E+08  0.05000  3.590E-04    0   0.6356   age130_m72            0.0000     3.5753E+02    10.6609   1.0241   117.7367
140      0.0000     0.0000E+00    0.0000E+00    9.047900E+08  0.05000  1.484E-04    0   0.6088   age135_m72            0.0000     1.2235E+02     6.9829   0.2498   112.1293
141      5.1149     2.2449E+00    2.6171E+00    1.278050E+09  0.05000  9.435E-05    0   0.5924   age138_m72            0.0000     1.4004E+02     7.6707  -0.1838   109.5733
142      0.0000     0.0000E+00    0.0000E+00    1.434000E+09  0.05000  7.827E-05    0   0.5847   age139_m72            0.0000     1.3385E+02     7.5198  -0.1701   108.9503
143      0.0000     0.0000E+00    0.0000E+00    2.500000E+09  0.05000  3.759E-05    0   0.5583   age150_m72            0.0000     2.1065E+02     9.1671  -0.5147   108.5286
144      2.7395     6.1586E+00    6.5131E+00    4.250000E+09  0.05000  1.842E-05    0   0.5374   age158_m72            0.0000     3.0638E+02    10.7340  -0.8452   108.4328
145      0.8245     2.8286E+00    2.9179E+00    6.250000E+09  0.05000  1.207E-05    0   0.5242   age166_m72            0.0000     4.1702E+02    12.1935  -1.0000   106.2495
146      0.1463     6.0639E-01    6.1850E-01    7.500000E+09  0.05000  9.993E-06    0   0.5183   age171_m72            0.0000     4.3964E+02    12.4194  -1.0000   105.2274
147      0.0000     0.0000E+00    0.0000E+00    1.000000E+10  0.05000  7.291E-06    0   0.5081   age181_m72            0.0000     5.5342E+02    13.7267  -1.0000   102.2789
148      0.0000     0.0000E+00    0.0000E+00    1.300000E+10  0.05000  5.316E-06    0   0.5018   age193_m72            0.0000     7.7236E+02    16.3671  -1.0000    97.7488
149      0.0000     0.0000E+00    0.0000E+00    1.500000E+10  0.05000  4.497E-06    0   0.4972   age201_m72            0.0000     8.8557E+02    17.6514  -1.0000    96.1680
150      0.0000     0.0000E+00    0.0000E+00    1.800000E+10  0.05000  3.739E-06    0   0.4924   age213_m72            0.0000     1.0525E+03    19.3759  -1.0000    93.6445


## Synthesis Results - Average & Chains ##

# j      x_j: min, <> & last-chain-values for 1 ...  7 chains
  1      0.0000      0.0153      0.0000      0.0000      0.0354      0.0000      0.0000      0.0212      0.0000
  2     16.4459      9.8426     10.9001     10.8040     10.6493     11.1222     10.8315     11.0072     10.7239
  3      0.9959      3.4955      3.4767      3.4891      3.3770      3.4024      3.5977      3.1752      3.6292
  4      0.0000      0.0072      0.0000      0.0000      0.0000      0.0000      0.0000      0.0000      0.0000
  5      0.0000      0.0061      0.0000      0.0000      0.0000      0.0000      0.0000      0.0000      0.0000
  6      0.0000      0.0066      0.0000      0.0000      0.0000      0.0000      0.0000      0.0000      0.0000
  7      0.0000      0.0093      0.0000      0.0000      0.0000      0.0000      0.0000      0.0000      0.0000
  8      0.0000      0.0083      0.0642      0.0000      0.0000      0.0000      0.0000      0.0037      0.0000
  9      0.0000      0.0211      0.0139      0.0838      0.0000      0.0000      0.0000      0.0755      0.0000
 10      0.0000      0.0220      0.0000      0.0000      0.0000      0.0000      0.0627      0.0000      0.0000
 11      0.0000      0.0278      0.0000      0.0000      0.0000      0.0000      0.1598      0.0115      0.0000
 12      0.0000      0.0135      0.0462      0.0000      0.0000      0.0000      0.0000      0.0000      0.0000
 13      0.0000      0.0083      0.0619      0.0000      0.0000      0.0000      0.0000      0.0000      0.0000
 14      0.0000      0.0087      0.0000      0.0000      0.0000      0.1085      0.0000      0.0000      0.0000
 15      0.0000      0.0076      0.0000      0.0000      0.0000      0.0000      0.0000      0.0000      0.0000
 16      0.0000      0.0129      0.0000      0.0000      0.0000      0.0000      0.0000      0.0000      0.0000
 17      0.0000      0.0161      0.0000      0.0000      0.0000      0.0000      0.0000      0.0000      0.0000
 18      0.0000      0.0237      0.0000      0.0000      0.0000      0.0000      0.0048      0.0250      0.0000
 19      0.0000      0.0585      0.0000      0.0000      0.0000      0.0390      0.0000      0.0000      0.0000
 20      0.1469      0.2026      0.3566      0.5097      0.0000      0.6081      0.0000      0.0000      0.1856
 21      0.0000      0.2071      0.1984      0.2619      0.0000      0.0000      0.1227      1.2368      0.0000
 22      0.0000      0.3235      0.0000      1.0046      0.9323      0.6950      0.0000      0.0000      0.1392
 23      0.0000      0.3131      0.0091      0.1897      0.2846      0.0215      0.3931      0.4872      0.4088
 24      0.0000      0.2356      0.0000      0.1287      0.5179      0.3408      0.6806      0.3008      0.2242
 25      1.7853      0.7460      1.4924      1.0099      0.9402      0.2139      1.3035      0.0000      1.2950
 26      0.0000      0.0063      0.0000      0.0000      0.0000      0.0000      0.0000      0.0000      0.0210
 27      0.0000      0.0245      0.0000      0.0000      0.0000      0.0000      0.0074      0.0249      0.0000
 28      0.0000      0.0138      0.0000      0.0000      0.0000      0.0000      0.0000      0.0000      0.0437
 29      0.0000      0.0047      0.0000      0.0000      0.0000      0.0013      0.0194      0.0000      0.0000
 30      0.0000      0.0097      0.0000      0.0000      0.0000      0.0000      0.0000      0.0000      0.0024
 31      0.0000      0.0080      0.0000      0.0000      0.0817      0.0000      0.0000      0.0000      0.0000
 32      0.0000      0.0137      0.0000      0.0000      0.0000      0.0814      0.0139      0.0801      0.0000
 33      0.0000      0.0122      0.0000      0.0000      0.0000      0.0000      0.0000      0.0000      0.0000
 34      0.0000      0.0104      0.0000      0.0000      0.0000      0.0000      0.0350      0.0000      0.0000
 35      0.0000      0.0161      0.0000      0.0000      0.0000      0.0000      0.0000      0.0000      0.0000
 36      0.0000      0.0172      0.0000      0.0660      0.0000      0.0000      0.0000      0.0000      0.0194
 37      0.0000      0.0204      0.0000      0.0000      0.0000      0.0000      0.0122      0.0000      0.0000
 38      0.0000      0.0107      0.0000      0.0000      0.0000      0.0000      0.0000      0.0200      0.0420
 39      0.0000      0.0125      0.0000      0.0000      0.0000      0.0000      0.1271      0.0000      0.0000
 40      0.0000      0.0117      0.0000      0.0000      0.0000      0.0000      0.0000      0.0000      0.0000
 41      0.0000      0.0207      0.0062      0.0000      0.0000      0.0191      0.0000      0.0000      0.0000
 42      0.0000      0.0262      0.0000      0.0000      0.1498      0.2244      0.0000      0.0000      0.0000
 43      0.0000      0.0846      0.3024      0.2265      0.0000      0.0000      0.1583      0.0000      0.2336
 44      0.1702      0.3266      0.9078      0.1342      0.5297      0.2321      0.0000      0.6756      0.0163
 45      2.2492      1.7316      0.9096      1.8278      1.9551      1.6443      1.4962      1.3703      1.9278
 46     21.7312     20.8848     21.6790     20.5724     20.1456     21.1455     21.3392     21.0527     20.8711
 47     25.8163     28.2964     27.6081     28.5016     28.4218     27.2921     28.3835     28.6429     28.5952
 48      0.0000      0.3228      0.1403      0.0000      0.0000      0.1425      0.0000      0.5993      0.0000
 49      0.0000      0.2432      0.1471      0.0000      0.0054      0.9624      0.0000      0.0000      0.3220
 50      0.0000      0.1724      0.0220      0.1822      0.0000      0.3365      0.0000      0.0000      0.0129
 51      0.0000      0.0092      0.0000      0.0949      0.0000      0.0000      0.0000      0.0000      0.0000
 52      0.0000      0.0602      0.0662      0.0000      0.0000      0.0000      0.0000      0.0000      0.1395
 53      0.0000      0.0090      0.0000      0.0000      0.0000      0.0000      0.0000      0.0000      0.0000
 54      0.0000      0.1130      0.0142      0.0000      0.0391      0.0000      0.0000      0.0899      0.0000
 55      0.0000      0.0201      0.0000      0.0000      0.0000      0.0284      0.0000      0.0000      0.0252
 56      0.0000      0.0221      0.0000      0.0000      0.0715      0.0000      0.0000      0.0000      0.0000
 57      0.0000      0.0102      0.0403      0.0000      0.0265      0.0000      0.0000      0.0000      0.0000
 58      0.0000      0.0095      0.0000      0.0045      0.0000      0.0000      0.0000      0.0000      0.0000
 59      0.0000      0.0072      0.1132      0.0000      0.0000      0.0000      0.0000      0.0000      0.0000
 60      0.0000      0.0092      0.0010      0.0000      0.0000      0.0215      0.0000      0.0000      0.0000
 61      0.0000      0.0119      0.0032      0.0107      0.0000      0.0000      0.0000      0.0502      0.0000
 62      0.0000      0.0206      0.0666      0.0000      0.0000      0.0000      0.0000      0.0000      0.0000
 63      0.0000      0.0091      0.0000      0.0000      0.0000      0.0000      0.0000      0.0000      0.0000
 64      0.0000      0.0150      0.0000      0.0748      0.0038      0.1282      0.0000      0.0158      0.0000
 65      0.0000      0.0306      0.0787      0.0000      0.0431      0.0000      0.1138      0.0915      0.0000
 66      0.0000      0.0395      0.0000      0.0000      0.0475      0.0000      0.0000      0.0000      0.0000
 67      0.0000      0.0603      0.0242      0.0000      0.0000      0.0000      0.0096      0.0332      0.0000
 68      0.0000      0.2215      0.0000      0.4306      0.8407      0.0000      0.1979      0.0198      0.0792
 69      0.0000      0.1871      0.0000      0.7614      0.0000      0.0000      0.0000      0.0000      0.3392
 70      1.6520      3.0189      3.3604      2.4906      3.4380      2.4954      2.4851      3.4593      3.1936
 71      1.3768      3.2765      3.2297      3.0717      3.1887      3.4113      3.4324      2.6750      2.4712
 72      0.0000      0.2419      0.0250      0.0360      0.0000      0.3412      0.0915      0.0000      0.0000
 73      0.0013      0.1344      0.8375      0.0000      0.0904      0.3166      0.0000      0.3042      0.0000
 74      0.0000      0.1181      0.0000      0.0531      0.0000      0.0000      0.0000      0.0000      0.0000
 75      0.0000      0.0715      0.0000      0.0000      0.0000      0.0685      0.0000      0.0000      0.0000
 76      0.0000      0.0051      0.0000      0.0000      0.0277      0.0343      0.0000      0.0000      0.0000
 77      0.0000      0.0083      0.0000      0.0000      0.0000      0.0000      0.0000      0.0000      0.0000
 78      0.0000      0.0102      0.0000      0.0000      0.0000      0.0000      0.0000      0.0000      0.0000
 79      0.0000      0.0163      0.0000      0.0000      0.1959      0.0226      0.0073      0.0000      0.0000
 80      0.0000      0.0145      0.0000      0.0000      0.0000      0.1113      0.0000      0.0000      0.0000
 81      0.0000      0.0080      0.0000      0.0000      0.0000      0.0000      0.0000      0.0000      0.0000
 82      0.0000      0.0108      0.0000      0.0000      0.0000      0.0000      0.0000      0.0000      0.0000
 83      0.0000      0.0116      0.0000      0.0000      0.0000      0.0000      0.0000      0.0000      0.0000
 84      0.0000      0.0153      0.0000      0.0000      0.0000      0.0000      0.0000      0.0000      0.0000
 85      0.0000      0.0131      0.0000      0.0000      0.0000      0.0000      0.0000      0.0000      0.0000
 86      0.0000      0.0116      0.0000      0.0000      0.0000      0.0000      0.0000      0.0000      0.0734
 87      0.0000      0.0159      0.0000      0.0000      0.0000      0.0000      0.0000      0.0000      0.0000
 88      0.0000      0.0084      0.0000      0.0131      0.0000      0.0000      0.0045      0.0083      0.1073
 89      0.0000      0.0083      0.0000      0.0000      0.0000      0.0000      0.0000      0.0000      0.0000
 90      0.0000      0.0147      0.0000      0.0000      0.0111      0.0000      0.0000      0.0000      0.0022
 91      0.0000      0.0245      0.0026      0.0000      0.0000      0.0238      0.0000      0.0000      0.1519
 92      0.0000      0.0247      0.0000      0.0000      0.0000      0.0000      0.0000      0.0039      0.0000
 93      0.0000      0.1046      0.0000      0.0000      0.2367      0.0000      0.0365      0.0000      0.0000
 94      5.4454      2.2222      1.9754      2.1643      2.5714      2.7521      2.2732      2.6669      2.4893
 95      2.9354      0.8757      0.8983      0.8787      0.8962      0.5411      0.9010      1.0619      0.9630
 96      4.5180      2.0725      2.6951      2.2521      2.0280      2.0310      2.6638      1.6521      2.6333
 97      4.7292      2.1015      2.5862      2.2031      1.8253      2.7598      2.3060      2.1520      2.1690
 98      2.8141      1.3782      1.4709      1.6527      1.7888      1.3676      1.5424      1.9858      1.3721
 99      0.1206      0.5860      0.7671      0.6319      0.5946      0.6771      1.1982      0.7995      0.6077
100      0.0000      0.2484      0.1005      0.2771      0.2585      0.2851      0.3061      0.2986      0.3806
101      0.0000      0.0047      0.0000      0.0000      0.0000      0.0000      0.0000      0.0000      0.0443
102      0.0000      0.0050      0.0000      0.0000      0.0000      0.0000      0.0000      0.0000      0.0000
103      0.0000      0.0186      0.0000      0.0000      0.0000      0.0000      0.0000      0.0000      0.0000
104      0.0000      0.0146      0.0116      0.0000      0.0000      0.0000      0.0000      0.0000      0.0000
105      0.0000      0.0068      0.0000      0.0000      0.0000      0.0000      0.0000      0.0000      0.0000
106      0.0000      0.0067      0.0144      0.0000      0.0000      0.0001      0.0000      0.0000      0.0000
107      0.0000      0.0067      0.0000      0.0000      0.0000      0.0000      0.0000      0.0694      0.0000
108      0.0000      0.0058      0.0000      0.0000      0.0000      0.0000      0.0000      0.0000      0.0006
109      0.0000      0.0069      0.0000      0.0000      0.0462      0.0000      0.0000      0.0000      0.0000
110      0.0000      0.0089      0.0000      0.0000      0.0000      0.0000      0.0000      0.0000      0.0000
111      0.0000      0.0111      0.0000      0.0000      0.0168      0.0756      0.0000      0.0000      0.0000
112      0.0000      0.0091      0.0103      0.0000      0.0000      0.0000      0.0000      0.0744      0.0000
113      0.0000      0.0065      0.0000      0.0000      0.0000      0.0000      0.0000      0.0000      0.0000
114      0.0000      0.0086      0.0000      0.0000      0.0184      0.0000      0.0000      0.0000      0.0000
115      0.0000      0.0198      0.0208      0.0000      0.0267      0.0173      0.0000      0.0853      0.0000
116      0.0000      0.0377      0.0000      0.0000      0.0000      0.0000      0.0849      0.0081      0.0000
117      0.0000      0.0516      0.0000      0.0000      0.0000      0.0000      0.0000      0.0762      0.0000
118      0.0000      0.1024      0.0494      0.0000      0.0000      0.0000      0.0118      0.2597      0.2495
119      0.0015      1.2534      1.2602      1.0618      1.2663      1.6773      1.0021      1.2788      0.8036
120      0.0000      0.0640      0.0560      0.0000      0.0000      0.0000      0.0389      0.0000      0.0000
121      0.0000      0.0669      0.0000      0.0000      0.0794      0.0000      0.0000      0.0000      0.1762
122      0.0000      0.0327      0.0000      0.0000      0.0000      0.0098      0.0583      0.0000      0.0000
123      0.0000      0.4634      0.0000      0.6809      0.4200      0.3675      0.2552      0.4246      0.3355
124      0.0000      0.0278      0.0189      0.0000      0.0000      0.0000      0.0000      0.0826      0.0021
125      0.0000      0.0282      0.0000      0.2503      0.0000      0.0000      0.0000      0.0000      0.0000
126      0.0000      0.0036      0.0000      0.0000      0.0000      0.0000      0.0000      0.0000      0.0000
127      0.0000      0.0071      0.0000      0.0000      0.0000      0.0000      0.0000      0.0000      0.0000
128      0.0000      0.0156      0.0000      0.0000      0.0000      0.0000      0.0000      0.0000      0.0000
129      0.0000      0.0087      0.0000      0.0078      0.0000      0.0000      0.0000      0.0000      0.0000
130      0.0000      0.0049      0.0000      0.0000      0.0000      0.0060      0.0000      0.0000      0.0000
131      0.0000      0.0040      0.0275      0.0000      0.0000      0.0000      0.0000      0.0000      0.0000
132      0.0000      0.0084      0.0000      0.0000      0.0000      0.0000      0.0000      0.0000      0.0000
133      0.0000      0.0070      0.0000      0.0000      0.0000      0.0000      0.0000      0.0000      0.0000
134      0.0000      0.0082      0.0000      0.0000      0.0000      0.0000      0.0137      0.0000      0.0000
135      0.0000      0.0076      0.0000      0.0000      0.0000      0.0000      0.0000      0.0000      0.0000
136      0.0000      0.0093      0.0000      0.0000      0.0000      0.0000      0.0000      0.0000      0.0000
137      0.0000      0.0079      0.0000      0.0000      0.0491      0.0000      0.0000      0.0688      0.2740
138      0.0000      0.0081      0.0000      0.0000      0.0000      0.0000      0.0000      0.0000      0.0000
139      0.0000      0.0122      0.0000      0.0000      0.0154      0.0253      0.0409      0.0000      0.0000
140      0.0000      0.0330      0.0603      0.0000      0.0000      0.0000      0.0570      0.0425      0.0000
141      5.1149     11.4011     10.8207     11.0410     11.3631     10.8013     11.4239     10.3940     10.5634
142      0.0000      0.1040      0.0000      0.0000      0.0000      0.0000      0.1649      0.1104      0.0482
143      0.0000      0.2548      0.0000      0.2372      0.0000      0.4606      0.1687      0.2152      0.4474
144      2.7395      0.7654      1.3351      1.1884      1.0183      1.0754      0.7859      1.0270      1.1254
145      0.8245      0.5952      0.5141      0.5454      0.4806      0.5314      0.6891      0.7592      1.0541
146      0.1463      0.4532      0.6243      0.4499      0.5270      0.4992      0.4335      0.4768      0.5080
147      0.0000      0.0462      0.0000      0.0000      0.0000      0.0000      0.0000      0.0000      0.0000
148      0.0000      0.0159      0.0000      0.0000      0.0203      0.0000      0.0000      0.0000      0.0000
149      0.0000      0.0240      0.0000      0.0000      0.0000      0.0000      0.0218      0.0000      0.0000
150      0.0000      0.0108      0.0000      0.0000      0.0000      0.0000      0.0000      0.0000      0.0000

# j      m_j: min, <> & last-chain-values for 1 ...  7 chains
  1  0.0000E+00  1.6198E-04  0.0000E+00  0.0000E+00  3.7884E-04  0.0000E+00  0.0000E+00  2.2253E-04  0.0000E+00
  2  2.8161E-02  1.7842E-02  1.9736E-02  1.9297E-02  1.9531E-02  2.0123E-02  1.9483E-02  1.9776E-02  1.9283E-02
  3  4.0248E-03  1.4956E-02  1.4859E-02  1.4709E-02  1.4618E-02  1.4530E-02  1.5274E-02  1.3465E-02  1.5403E-02
  4  0.0000E+00  5.8011E-05  0.0000E+00  0.0000E+00  0.0000E+00  0.0000E+00  0.0000E+00  0.0000E+00  0.0000E+00
  5  0.0000E+00  6.2175E-05  0.0000E+00  0.0000E+00  0.0000E+00  0.0000E+00  0.0000E+00  0.0000E+00  0.0000E+00
  6  0.0000E+00  8.0098E-05  0.0000E+00  0.0000E+00  0.0000E+00  0.0000E+00  0.0000E+00  0.0000E+00  0.0000E+00
  7  0.0000E+00  1.4132E-04  0.0000E+00  0.0000E+00  0.0000E+00  0.0000E+00  0.0000E+00  0.0000E+00  0.0000E+00
  8  0.0000E+00  1.4284E-04  1.1020E-03  0.0000E+00  0.0000E+00  0.0000E+00  0.0000E+00  6.3030E-05  0.0000E+00
  9  0.0000E+00  3.9061E-04  2.5597E-04  1.5258E-03  0.0000E+00  0.0000E+00  0.0000E+00  1.3838E-03  0.0000E+00
 10  0.0000E+00  4.6559E-04  0.0000E+00  0.0000E+00  0.0000E+00  0.0000E+00  1.3178E-03  0.0000E+00  0.0000E+00
 11  0.0000E+00  7.0417E-04  0.0000E+00  0.0000E+00  0.0000E+00  0.0000E+00  4.0158E-03  2.8986E-04  0.0000E+00
 12  0.0000E+00  5.9763E-04  2.0461E-03  0.0000E+00  0.0000E+00  0.0000E+00  0.0000E+00  0.0000E+00  0.0000E+00
 13  0.0000E+00  4.2567E-04  3.1804E-03  0.0000E+00  0.0000E+00  0.0000E+00  0.0000E+00  0.0000E+00  0.0000E+00
 14  0.0000E+00  6.3619E-04  0.0000E+00  0.0000E+00  0.0000E+00  7.9130E-03  0.0000E+00  0.0000E+00  0.0000E+00
 15  0.0000E+00  8.4360E-04  0.0000E+00  0.0000E+00  0.0000E+00  0.0000E+00  0.0000E+00  0.0000E+00  0.0000E+00
 16  0.0000E+00  2.0683E-03  0.0000E+00  0.0000E+00  0.0000E+00  0.0000E+00  0.0000E+00  0.0000E+00  0.0000E+00
 17  0.0000E+00  2.8574E-03  0.0000E+00  0.0000E+00  0.0000E+00  0.0000E+00  0.0000E+00  0.0000E+00  0.0000E+00
 18  0.0000E+00  6.8342E-03  0.0000E+00  0.0000E+00  0.0000E+00  0.0000E+00  1.3706E-03  7.1597E-03  0.0000E+00
 19  0.0000E+00  2.5627E-02  0.0000E+00  0.0000E+00  0.0000E+00  1.7058E-02  0.0000E+00  0.0000E+00  0.0000E+00
 20  8.6854E-02  1.2687E-01  2.2301E-01  3.1440E-01  0.0000E+00  3.7997E-01  0.0000E+00  0.0000E+00  1.1527E-01
 21  0.0000E+00  1.5001E-01  1.4357E-01  1.8688E-01  0.0000E+00  0.0000E+00  8.8216E-02  8.8787E-01  0.0000E+00
 22  0.0000E+00  3.0228E-01  0.0000E+00  9.2503E-01  8.8147E-01  6.4827E-01  0.0000E+00  0.0000E+00  1.2901E-01
 23  0.0000E+00  3.7092E-01  1.0721E-02  2.2140E-01  3.4109E-01  2.5429E-02  4.6205E-01  5.7197E-01  4.8034E-01
 24  0.0000E+00  3.1918E-01  0.0000E+00  1.7177E-01  7.0987E-01  4.6077E-01  9.1495E-01  4.0382E-01  3.0127E-01
 25  2.7445E+00  1.2141E+00  2.4259E+00  1.6194E+00  1.5481E+00  3.4751E-01  2.1049E+00  0.0000E+00  2.0905E+00
 26  0.0000E+00  6.4396E-05  0.0000E+00  0.0000E+00  0.0000E+00  0.0000E+00  0.0000E+00  0.0000E+00  2.1273E-04
 27  0.0000E+00  5.3304E-05  0.0000E+00  0.0000E+00  0.0000E+00  0.0000E+00  1.5855E-05  5.3558E-05  0.0000E+00
 28  0.0000E+00  5.8832E-05  0.0000E+00  0.0000E+00  0.0000E+00  0.0000E+00  0.0000E+00  0.0000E+00  1.8427E-04
 29  0.0000E+00  3.1380E-05  0.0000E+00  0.0000E+00  0.0000E+00  8.7206E-06  1.2731E-04  0.0000E+00  0.0000E+00
 30  0.0000E+00  7.9579E-05  0.0000E+00  0.0000E+00  0.0000E+00  0.0000E+00  0.0000E+00  0.0000E+00  1.9643E-05
 31  0.0000E+00  7.6548E-05  0.0000E+00  0.0000E+00  7.8588E-04  0.0000E+00  0.0000E+00  0.0000E+00  0.0000E+00
 32  0.0000E+00  1.4458E-04  0.0000E+00  0.0000E+00  0.0000E+00  8.5569E-04  1.4478E-04  8.3585E-04  0.0000E+00
 33  0.0000E+00  1.8273E-04  0.0000E+00  0.0000E+00  0.0000E+00  0.0000E+00  0.0000E+00  0.0000E+00  0.0000E+00
 34  0.0000E+00  1.8914E-04  0.0000E+00  0.0000E+00  0.0000E+00  0.0000E+00  6.3145E-04  0.0000E+00  0.0000E+00
 35  0.0000E+00  3.5301E-04  0.0000E+00  0.0000E+00  0.0000E+00  0.0000E+00  0.0000E+00  0.0000E+00  0.0000E+00
 36  0.0000E+00  4.8534E-04  0.0000E+00  1.8318E-03  0.0000E+00  0.0000E+00  0.0000E+00  0.0000E+00  5.4283E-04
 37  0.0000E+00  7.1317E-04  0.0000E+00  0.0000E+00  0.0000E+00  0.0000E+00  4.2336E-04  0.0000E+00  0.0000E+00
 38  0.0000E+00  5.2018E-04  0.0000E+00  0.0000E+00  0.0000E+00  0.0000E+00  0.0000E+00  9.6667E-04  2.0328E-03
 39  0.0000E+00  9.1113E-04  0.0000E+00  0.0000E+00  0.0000E+00  0.0000E+00  9.1745E-03  0.0000E+00  0.0000E+00
 40  0.0000E+00  1.5024E-03  0.0000E+00  0.0000E+00  0.0000E+00  0.0000E+00  0.0000E+00  0.0000E+00  0.0000E+00
 41  0.0000E+00  3.5574E-03  1.0626E-03  0.0000E+00  0.0000E+00  3.2771E-03  0.0000E+00  0.0000E+00  0.0000E+00
 42  0.0000E+00  5.0363E-03  0.0000E+00  0.0000E+00  2.9093E-02  4.3001E-02  0.0000E+00  0.0000E+00  0.0000E+00
 43  0.0000E+00  2.6415E-02  9.4321E-02  6.9673E-02  0.0000E+00  0.0000E+00  4.9034E-02  0.0000E+00  7.2352E-02
 44  7.9396E-02  1.6131E-01  4.4778E-01  6.5290E-02  2.6464E-01  1.1442E-01  0.0000E+00  3.3066E-01  7.9618E-03
 45  1.4624E+00  1.1918E+00  6.2536E-01  1.2396E+00  1.3615E+00  1.1296E+00  1.0219E+00  9.3480E-01  1.3162E+00
 46  1.6831E+01  1.7124E+01  1.7755E+01  1.6621E+01  1.6712E+01  1.7305E+01  1.7362E+01  1.7109E+01  1.6975E+01
 47  2.6207E+01  3.0409E+01  2.9635E+01  3.0180E+01  3.0902E+01  2.9274E+01  3.0267E+01  3.0509E+01  3.0482E+01
 48  0.0000E+00  4.1305E-01  1.7931E-01  0.0000E+00  0.0000E+00  1.8203E-01  0.0000E+00  7.6007E-01  0.0000E+00
 49  0.0000E+00  3.4823E-01  2.1035E-01  0.0000E+00  7.8226E-03  1.3751E+00  0.0000E+00  0.0000E+00  4.5727E-01
 50  0.0000E+00  2.9025E-01  3.6959E-02  3.0224E-01  0.0000E+00  5.6556E-01  0.0000E+00  0.0000E+00  2.1539E-02
 51  0.0000E+00  7.1037E-05  0.0000E+00  7.2387E-04  0.0000E+00  0.0000E+00  0.0000E+00  0.0000E+00  0.0000E+00
 52  0.0000E+00  1.2745E-04  1.3995E-04  0.0000E+00  0.0000E+00  0.0000E+00  0.0000E+00  0.0000E+00  2.9308E-04
 53  0.0000E+00  2.9163E-05  0.0000E+00  0.0000E+00  0.0000E+00  0.0000E+00  0.0000E+00  0.0000E+00  0.0000E+00
 54  0.0000E+00  3.4785E-04  4.3583E-05  0.0000E+00  1.2180E-04  0.0000E+00  0.0000E+00  2.7452E-04  0.0000E+00
 55  0.0000E+00  9.1264E-05  0.0000E+00  0.0000E+00  0.0000E+00  1.2888E-04  0.0000E+00  0.0000E+00  1.1336E-04
 56  0.0000E+00  1.3278E-04  0.0000E+00  0.0000E+00  4.3507E-04  0.0000E+00  0.0000E+00  0.0000E+00  0.0000E+00
 57  0.0000E+00  9.8813E-05  3.8839E-04  0.0000E+00  2.5829E-04  0.0000E+00  0.0000E+00  0.0000E+00  0.0000E+00
 58  0.0000E+00  1.3256E-04  0.0000E+00  6.1582E-05  0.0000E+00  0.0000E+00  0.0000E+00  0.0000E+00  0.0000E+00
 59  0.0000E+00  1.4000E-04  2.1854E-03  0.0000E+00  0.0000E+00  0.0000E+00  0.0000E+00  0.0000E+00  0.0000E+00
 60  0.0000E+00  1.9799E-04  2.1869E-05  0.0000E+00  0.0000E+00  4.6233E-04  0.0000E+00  0.0000E+00  0.0000E+00
 61  0.0000E+00  3.2488E-04  8.6785E-05  2.8890E-04  0.0000E+00  0.0000E+00  0.0000E+00  1.3628E-03  0.0000E+00
 62  0.0000E+00  7.1578E-04  2.3114E-03  0.0000E+00  0.0000E+00  0.0000E+00  0.0000E+00  0.0000E+00  0.0000E+00
 63  0.0000E+00  4.8102E-04  0.0000E+00  0.0000E+00  0.0000E+00  0.0000E+00  0.0000E+00  0.0000E+00  0.0000E+00
 64  0.0000E+00  1.3031E-03  0.0000E+00  6.4093E-03  3.3095E-04  1.1128E-02  0.0000E+00  1.3589E-03  0.0000E+00
 65  0.0000E+00  4.4980E-03  1.1554E-02  0.0000E+00  6.4115E-03  0.0000E+00  1.6605E-02  1.3337E-02  0.0000E+00
 66  0.0000E+00  7.4297E-03  0.0000E+00  0.0000E+00  9.0310E-03  0.0000E+00  0.0000E+00  0.0000E+00  0.0000E+00
 67  0.0000E+00  1.5567E-02  6.2461E-03  0.0000E+00  0.0000E+00  0.0000E+00  2.4596E-03  8.4968E-03  0.0000E+00
 68  0.0000E+00  1.0633E-01  0.0000E+00  2.0367E-01  4.0826E-01  0.0000E+00  9.4271E-02  9.3969E-03  3.7689E-02
 69  0.0000E+00  1.5491E-01  0.0000E+00  6.2100E-01  0.0000E+00  0.0000E+00  0.0000E+00  0.0000E+00  2.7851E-01
 70  1.7979E+00  3.4781E+00  3.8671E+00  2.8273E+00  4.0075E+00  2.8694E+00  2.8410E+00  3.9502E+00  3.6497E+00
 71  1.7679E+00  4.4538E+00  4.3852E+00  4.1141E+00  4.3854E+00  4.6282E+00  4.6297E+00  3.6040E+00  3.3321E+00
 72  0.0000E+00  4.3279E-01  4.4731E-02  6.3399E-02  0.0000E+00  6.0946E-01  1.6241E-01  0.0000E+00  0.0000E+00
 73  2.7326E-03  3.0333E-01  1.8883E+00  0.0000E+00  2.0648E-01  7.1329E-01  0.0000E+00  6.8052E-01  0.0000E+00
 74  0.0000E+00  2.9743E-01  0.0000E+00  1.3170E-01  0.0000E+00  0.0000E+00  0.0000E+00  0.0000E+00  0.0000E+00
 75  0.0000E+00  2.0706E-01  0.0000E+00  0.0000E+00  0.0000E+00  1.9809E-01  0.0000E+00  0.0000E+00  0.0000E+00
 76  0.0000E+00  3.4155E-05  0.0000E+00  0.0000E+00  1.8832E-04  2.2975E-04  0.0000E+00  0.0000E+00  0.0000E+00
 77  0.0000E+00  2.2610E-05  0.0000E+00  0.0000E+00  0.0000E+00  0.0000E+00  0.0000E+00  0.0000E+00  0.0000E+00
 78  0.0000E+00  3.1241E-05  0.0000E+00  0.0000E+00  0.0000E+00  0.0000E+00  0.0000E+00  0.0000E+00  0.0000E+00
 79  0.0000E+00  6.0077E-05  0.0000E+00  0.0000E+00  7.2939E-04  8.3054E-05  2.6572E-05  0.0000E+00  0.0000E+00
 80  0.0000E+00  6.8916E-05  0.0000E+00  0.0000E+00  0.0000E+00  5.2682E-04  0.0000E+00  0.0000E+00  0.0000E+00
 81  0.0000E+00  5.0261E-05  0.0000E+00  0.0000E+00  0.0000E+00  0.0000E+00  0.0000E+00  0.0000E+00  0.0000E+00
 82  0.0000E+00  9.0964E-05  0.0000E+00  0.0000E+00  0.0000E+00  0.0000E+00  0.0000E+00  0.0000E+00  0.0000E+00
 83  0.0000E+00  1.4348E-04  0.0000E+00  0.0000E+00  0.0000E+00  0.0000E+00  0.0000E+00  0.0000E+00  0.0000E+00
 84  0.0000E+00  2.6291E-04  0.0000E+00  0.0000E+00  0.0000E+00  0.0000E+00  0.0000E+00  0.0000E+00  0.0000E+00
 85  0.0000E+00  2.7275E-04  0.0000E+00  0.0000E+00  0.0000E+00  0.0000E+00  0.0000E+00  0.0000E+00  0.0000E+00
 86  0.0000E+00  3.2869E-04  0.0000E+00  0.0000E+00  0.0000E+00  0.0000E+00  0.0000E+00  0.0000E+00  2.0581E-03
 87  0.0000E+00  5.9849E-04  0.0000E+00  0.0000E+00  0.0000E+00  0.0000E+00  0.0000E+00  0.0000E+00  0.0000E+00
 88  0.0000E+00  4.8127E-04  0.0000E+00  7.4334E-04  0.0000E+00  0.0000E+00  2.5768E-04  4.7361E-04  6.1074E-03
 89  0.0000E+00  7.9220E-04  0.0000E+00  0.0000E+00  0.0000E+00  0.0000E+00  0.0000E+00  0.0000E+00  0.0000E+00
 90  0.0000E+00  2.5987E-03  0.0000E+00  0.0000E+00  1.9843E-03  0.0000E+00  0.0000E+00  0.0000E+00  3.8293E-04
 91  0.0000E+00  5.5645E-03  5.7899E-04  0.0000E+00  0.0000E+00  5.4002E-03  0.0000E+00  0.0000E+00  3.4257E-02
 92  0.0000E+00  7.4919E-03  0.0000E+00  0.0000E+00  0.0000E+00  0.0000E+00  0.0000E+00  1.1668E-03  0.0000E+00
 93  0.0000E+00  6.4468E-02  0.0000E+00  0.0000E+00  1.4761E-01  0.0000E+00  2.2320E-02  0.0000E+00  0.0000E+00
 94  5.6871E+00  2.4569E+00  2.1816E+00  2.3578E+00  2.8763E+00  3.0370E+00  2.4939E+00  2.9225E+00  2.7300E+00
 95  4.1301E+00  1.3044E+00  1.3365E+00  1.2896E+00  1.3505E+00  8.0440E-01  1.3316E+00  1.5676E+00  1.4229E+00
 96  7.6693E+00  3.7243E+00  4.8376E+00  3.9877E+00  3.6873E+00  3.6427E+00  4.7501E+00  2.9426E+00  4.6940E+00
 97  1.0460E+01  4.9209E+00  6.0489E+00  5.0830E+00  4.3242E+00  6.4500E+00  5.3579E+00  4.9945E+00  5.0379E+00
 98  7.9822E+00  4.1383E+00  4.4119E+00  4.8899E+00  5.4345E+00  4.0989E+00  4.5958E+00  5.9102E+00  4.0868E+00
 99  3.8995E-01  2.0058E+00  2.6227E+00  2.1311E+00  2.0591E+00  2.3132E+00  4.0699E+00  2.7123E+00  2.0633E+00
100  0.0000E+00  9.7899E-01  3.9568E-01  1.0758E+00  1.0306E+00  1.1213E+00  1.1969E+00  1.1665E+00  1.4878E+00
101  0.0000E+00  2.0317E-05  0.0000E+00  0.0000E+00  0.0000E+00  0.0000E+00  0.0000E+00  0.0000E+00  1.9039E-04
102  0.0000E+00  1.1292E-05  0.0000E+00  0.0000E+00  0.0000E+00  0.0000E+00  0.0000E+00  0.0000E+00  0.0000E+00
103  0.0000E+00  4.6357E-05  0.0000E+00  0.0000E+00  0.0000E+00  0.0000E+00  0.0000E+00  0.0000E+00  0.0000E+00
104  0.0000E+00  4.8011E-05  3.8103E-05  0.0000E+00  0.0000E+00  0.0000E+00  0.0000E+00  0.0000E+00  0.0000E+00
105  0.0000E+00  4.7378E-05  0.0000E+00  0.0000E+00  0.0000E+00  0.0000E+00  0.0000E+00  0.0000E+00  0.0000E+00
106  0.0000E+00  4.9959E-05  1.0727E-04  0.0000E+00  0.0000E+00  9.2635E-07  0.0000E+00  0.0000E+00  0.0000E+00
107  0.0000E+00  6.7061E-05  0.0000E+00  0.0000E+00  0.0000E+00  0.0000E+00  0.0000E+00  6.8566E-04  0.0000E+00
108  0.0000E+00  9.5908E-05  0.0000E+00  0.0000E+00  0.0000E+00  0.0000E+00  0.0000E+00  0.0000E+00  9.2494E-06
109  0.0000E+00  1.3713E-04  0.0000E+00  0.0000E+00  9.3224E-04  0.0000E+00  0.0000E+00  0.0000E+00  0.0000E+00
110  0.0000E+00  2.1310E-04  0.0000E+00  0.0000E+00  0.0000E+00  0.0000E+00  0.0000E+00  0.0000E+00  0.0000E+00
111  0.0000E+00  3.6804E-04  0.0000E+00  0.0000E+00  5.6293E-04  2.5037E-03  0.0000E+00  0.0000E+00  0.0000E+00
112  0.0000E+00  3.9550E-04  4.5087E-04  0.0000E+00  0.0000E+00  0.0000E+00  0.0000E+00  3.2216E-03  0.0000E+00
113  0.0000E+00  4.2615E-04  0.0000E+00  0.0000E+00  0.0000E+00  0.0000E+00  0.0000E+00  0.0000E+00  0.0000E+00
114  0.0000E+00  9.8373E-04  0.0000E+00  0.0000E+00  2.1324E-03  0.0000E+00  0.0000E+00  0.0000E+00  0.0000E+00
115  0.0000E+00  4.5478E-03  4.7652E-03  0.0000E+00  6.2115E-03  3.9599E-03  0.0000E+00  1.9409E-02  0.0000E+00
116  0.0000E+00  1.3887E-02  0.0000E+00  0.0000E+00  0.0000E+00  0.0000E+00  3.1066E-02  2.9652E-03  0.0000E+00
117  0.0000E+00  2.2339E-02  0.0000E+00  0.0000E+00  0.0000E+00  0.0000E+00  0.0000E+00  3.2736E-02  0.0000E+00
118  0.0000E+00  9.0062E-02  4.3421E-02  0.0000E+00  0.0000E+00  0.0000E+00  1.0271E-02  2.2633E-01  2.1756E-01
119  2.1137E-03  1.9044E+00  1.9126E+00  1.5896E+00  1.9466E+00  2.5436E+00  1.5108E+00  1.9258E+00  1.2112E+00
120  0.0000E+00  1.3839E-01  1.2101E-01  0.0000E+00  0.0000E+00  0.0000E+00  8.3467E-02  0.0000E+00  0.0000E+00
121  0.0000E+00  1.7024E-01  0.0000E+00  0.0000E+00  2.0442E-01  0.0000E+00  0.0000E+00  0.0000E+00  4.4500E-01
122  0.0000E+00  1.1137E-01  0.0000E+00  0.0000E+00  0.0000E+00  3.3451E-02  1.9707E-01  0.0000E+00  0.0000E+00
123  0.0000E+00  2.0819E+00  0.0000E+00  3.0141E+00  1.9089E+00  1.6479E+00  1.1377E+00  1.8907E+00  1.4953E+00
124  0.0000E+00  1.4350E-01  9.7204E-02  0.0000E+00  0.0000E+00  0.0000E+00  0.0000E+00  4.2237E-01  1.0805E-02
125  0.0000E+00  1.7399E-01  0.0000E+00  1.5227E+00  0.0000E+00  0.0000E+00  0.0000E+00  0.0000E+00  0.0000E+00
126  0.0000E+00  1.1716E-05  0.0000E+00  0.0000E+00  0.0000E+00  0.0000E+00  0.0000E+00  0.0000E+00  0.0000E+00
127  0.0000E+00  1.2119E-05  0.0000E+00  0.0000E+00  0.0000E+00  0.0000E+00  0.0000E+00  0.0000E+00  0.0000E+00
128  0.0000E+00  3.9743E-05  0.0000E+00  0.0000E+00  0.0000E+00  0.0000E+00  0.0000E+00  0.0000E+00  0.0000E+00
129  0.0000E+00  4.5295E-05  0.0000E+00  4.0055E-05  0.0000E+00  0.0000E+00  0.0000E+00  0.0000E+00  0.0000E+00
130  0.0000E+00  3.4880E-05  0.0000E+00  0.0000E+00  0.0000E+00  4.2697E-05  0.0000E+00  0.0000E+00  0.0000E+00
131  0.0000E+00  3.3182E-05  2.2538E-04  0.0000E+00  0.0000E+00  0.0000E+00  0.0000E+00  0.0000E+00  0.0000E+00
132  0.0000E+00  9.4164E-05  0.0000E+00  0.0000E+00  0.0000E+00  0.0000E+00  0.0000E+00  0.0000E+00  0.0000E+00
133  0.0000E+00  1.1349E-04  0.0000E+00  0.0000E+00  0.0000E+00  0.0000E+00  0.0000E+00  0.0000E+00  0.0000E+00
134  0.0000E+00  1.6784E-04  0.0000E+00  0.0000E+00  0.0000E+00  0.0000E+00  2.8030E-04  0.0000E+00  0.0000E+00
135  0.0000E+00  1.8904E-04  0.0000E+00  0.0000E+00  0.0000E+00  0.0000E+00  0.0000E+00  0.0000E+00  0.0000E+00
136  0.0000E+00  3.3230E-04  0.0000E+00  0.0000E+00  0.0000E+00  0.0000E+00  0.0000E+00  0.0000E+00  0.0000E+00
137  0.0000E+00  3.8483E-04  0.0000E+00  0.0000E+00  2.4191E-03  0.0000E+00  0.0000E+00  3.3189E-03  1.3239E-02
138  0.0000E+00  6.5407E-04  0.0000E+00  0.0000E+00  0.0000E+00  0.0000E+00  0.0000E+00  0.0000E+00  0.0000E+00
139  0.0000E+00  1.8563E-03  0.0000E+00  0.0000E+00  2.3814E-03  3.8590E-03  6.1933E-03  0.0000E+00  0.0000E+00
140  0.0000E+00  1.1662E-02  2.1328E-02  0.0000E+00  0.0000E+00  0.0000E+00  2.0004E-02  1.4923E-02  0.0000E+00
141  2.6171E+00  6.1754E+00  5.8544E+00  5.8926E+00  6.2271E+00  5.8394E+00  6.1401E+00  5.5801E+00  5.6756E+00
142  0.0000E+00  6.7008E-02  0.0000E+00  0.0000E+00  0.0000E+00  0.0000E+00  1.0547E-01  7.0540E-02  3.0828E-02
143  0.0000E+00  3.2641E-01  0.0000E+00  2.9950E-01  0.0000E+00  5.8897E-01  2.1443E-01  2.7326E-01  5.6860E-01
144  6.5131E+00  1.9263E+00  3.3564E+00  2.9470E+00  2.5930E+00  2.7015E+00  1.9628E+00  2.5619E+00  2.8095E+00
145  2.9179E+00  2.2299E+00  1.9238E+00  2.0135E+00  1.8217E+00  1.9870E+00  2.5617E+00  2.8191E+00  3.9173E+00
146  6.1850E-01  2.0278E+00  2.7902E+00  1.9834E+00  2.3858E+00  2.2296E+00  1.9245E+00  2.1147E+00  2.2547E+00
147  0.0000E+00  2.7790E-01  0.0000E+00  0.0000E+00  0.0000E+00  0.0000E+00  0.0000E+00  0.0000E+00  0.0000E+00
148  0.0000E+00  1.2955E-01  0.0000E+00  0.0000E+00  1.6747E-01  0.0000E+00  0.0000E+00  0.0000E+00  0.0000E+00
149  0.0000E+00  2.2926E-01  0.0000E+00  0.0000E+00  0.0000E+00  0.0000E+00  2.0676E-01  0.0000E+00  0.0000E+00
150  0.0000E+00  1.2248E-01  0.0000E+00  0.0000E+00  0.0000E+00  0.0000E+00  0.0000E+00  0.0000E+00  0.0000E+00

# AV, chi2 & Mass for <> & i_chain = 1 ...  7 solutions
AV       0.5707      0.5694      0.5698      0.5692      0.5748      0.5706      0.5687      0.5684      0.5707
chi2 2.5638E+00  2.7384E+00  2.6971E+00  2.7064E+00  2.7137E+00  2.7023E+00  2.7028E+00  2.6995E+00  2.7052E+00
Mass 8.3042E-10  7.8302E-10  7.8436E-10  7.9448E-10  7.7954E-10  7.8582E-10  7.8841E-10  7.8897E-10  7.9081E-10
  -4.76                                  [v0_min (km/s) before EX0s...]
  62.06                                  [vd_min (km/s) before EX0s...]


## Synthetic spectrum (Best Model) ##l_obs f_obs f_syn wei
 3070    [Nl_obs]
 3359.00    0.27942   0.46426   -1.000
 3360.00    0.26790   0.44225   -1.000
 3361.00    0.26265   0.44696   -1.000
 3362.00    0.27853   0.47341   -1.000
 3363.00    0.30975   0.50761   -1.000
 3364.00    0.33149   0.53090   -1.000
 3365.00    0.33589   0.53392   -1.000
 3366.00    0.34116   0.52448   -1.000
 3367.00    0.34078   0.51181   -1.000
 3368.00    0.33385   0.49913   -1.000
 3369.00    0.32017   0.48538   -1.000
 3370.00    0.32890   0.46806   -1.000
 3371.00    0.32551   0.45578   -1.000
 3372.00    0.32141   0.45849   -1.000
 3373.00    0.33279   0.47747   -1.000
 3374.00    0.34744   0.50623   -1.000
 3375.00    0.35943   0.53406   -1.000
 3376.00    0.37975   0.54844   -1.000
 3377.00    0.40793   0.54397   -1.000
 3378.00    0.40167   0.52730   -1.000
 3379.00    0.39709   0.51290   -1.000
 3380.00    0.39291   0.50998   -1.000
 3381.00    0.39504   0.51682   -1.000
 3382.00    0.40164   0.52701   -1.000
 3383.00    0.39689   0.53613   -1.000
 3384.00    0.40618   0.54416   -1.000
 3385.00    0.41626   0.54978   -1.000
 3386.00    0.42098   0.54688   -1.000
 3387.00    0.43081   0.53724   -1.000
 3388.00    0.43153   0.53190   -1.000
 3389.00    0.44029   0.53720   -1.000
 3390.00    0.44575   0.54614   -1.000
 3391.00    0.44049   0.54781   -1.000
 3392.00    0.44082   0.53874   -1.000
 3393.00    0.43954   0.53078   -1.000
 3394.00    0.44051   0.53525   -1.000
 3395.00    0.45518   0.55025   -1.000
 3396.00    0.47558   0.56859   -1.000
 3397.00    0.48880   0.58449   -1.000
 3398.00    0.49115   0.59566   -1.000
 3399.00    0.49737   0.59933   -1.000
 3400.00    0.50752   0.59466   33.505
 3401.00    0.50799   0.58242   34.737
 3402.00    0.49575   0.56543   35.137
 3403.00    0.48212   0.55209   35.766
 3404.00    0.48406   0.54584   36.403
 3405.00    0.47365   0.54546   36.893
 3406.00    0.47138   0.54422   37.156
 3407.00    0.47133   0.53866   37.668
 3408.00    0.46816   0.53357   37.760
 3409.00    0.46256   0.53628   37.294
 3410.00    0.47160   0.54368   36.349
 3411.00    0.48637   0.54430   36.513
 3412.00    0.48808   0.53583   37.918
 3413.00    0.48088   0.52484   38.409
 3414.00    0.47458   0.52263   38.096
 3415.00    0.47276   0.53335   36.960
 3416.00    0.47687   0.54991   35.319
 3417.00    0.49241   0.56543   33.615
 3418.00    0.50273   0.57804   32.293
 3419.00    0.51053   0.58773   32.161
 3420.00    0.51659   0.59208   32.038
 3421.00    0.53056   0.58628   32.420
 3422.00    0.51750   0.57030   33.334
 3423.00    0.50331   0.55485   33.658
 3424.00    0.50919   0.54999   32.687
 3425.00    0.51590   0.55451   31.995
 3426.00    0.52623   0.56289   40.661
 3427.00    0.53748   0.57518   -1.000
 3428.00    0.53850   0.59265   -1.000
 3429.00    0.54663   0.60898   -1.000
 3430.00    0.55853   0.61224   -1.000
 3431.00    0.55256   0.59767   -1.000
 3432.00    0.54469   0.57760   31.953
 3433.00    0.54171   0.56864   40.659
 3434.00    0.53229   0.57670   -1.000
 3435.00    0.53846   0.59014   -1.000
 3436.00    0.54299   0.59250   32.132
 3437.00    0.52956   0.58062   33.755
 3438.00    0.51680   0.56056   35.950
 3439.00    0.50217   0.53721   38.486
 3440.00    0.48316   0.51403   39.653
 3441.00    0.46750   0.49596   39.647
 3442.00    0.46666   0.48883   39.113
 3443.00    0.46639   0.49334   37.392
 3444.00    0.47726   0.50536   35.332
 3445.00    0.50016   0.52198   33.562
 3446.00    0.52707   0.54361   41.992
 3447.00    0.54466   0.56757   -1.000
 3448.00    0.55582   0.58815   -1.000
 3449.00    0.56404   0.59806   -1.000
 3450.00    0.55942   0.59109   -1.000
 3451.00    0.56029   0.57275   -1.000
 3452.00    0.56681   0.55718  249.666
 3453.00    0.55941   0.55365  249.666
 3454.00    0.55529   0.56053  249.666
 3455.00    0.56339   0.56902  249.666
 3456.00    0.56949   0.57058  249.666
 3457.00    0.57343   0.56378   96.572
 3458.00    0.55773   0.55246   31.980
 3459.00    0.54614   0.54019   32.250
 3460.00    0.54526   0.52991   41.491
 3461.00    0.53666   0.52874  249.666
 3462.00    0.54916   0.54004  249.666
 3463.00    0.57020   0.55446   -1.000
 3464.00    0.59048   0.56069   -1.000
 3465.00    0.58306   0.55903   -1.000
 3466.00    0.57827   0.56046   -1.000
 3467.00    0.59164   0.57132   -1.000
 3468.00    0.59677   0.58790  249.666
 3469.00    0.59412   0.60166  249.666
 3470.00    0.60838   0.60502  249.666
 3471.00    0.61613   0.59653   -1.000
 3472.00    0.59966   0.57912   -1.000
 3473.00    0.58719   0.55552   95.647
 3474.00    0.56077   0.53297   32.443
 3475.00    0.54224   0.52006   33.160
 3476.00    0.52487   0.52246   42.389
 3477.00    0.52678   0.53879   -1.000
 3478.00    0.56259   0.55906  249.666
 3479.00    0.59860   0.57579   -1.000
 3480.00    0.61155   0.58642   -1.000
 3481.00    0.61261   0.58824   -1.000
 3482.00    0.61099   0.58249   -1.000
 3483.00    0.60482   0.57571   -1.000
 3484.00    0.60443   0.57569   -1.000
 3485.00    0.60636   0.58543   -1.000
 3486.00    0.61749   0.59723   -1.000
 3487.00    0.62896   0.59971   -1.000
 3488.00    0.63330   0.58868   -1.000
 3489.00    0.60505   0.56942   -1.000
 3490.00    0.56555   0.55458  249.666
 3491.00    0.56335   0.55345  249.666
 3492.00    0.57800   0.56134   -1.000
 3493.00    0.58611   0.56699   -1.000
 3494.00    0.58539   0.56502   -1.000
 3495.00    0.58107   0.55661   -1.000
 3496.00    0.56245   0.54967   -1.000
 3497.00    0.57305   0.55244   -1.000
 3498.00    0.58576   0.56365   -1.000
 3499.00    0.60071   0.57619   -1.000
 3500.00    0.61211   0.58339   -1.000
 3501.00    0.62162   0.58789   -1.000
 3502.00    0.63202   0.59428   -1.000
 3503.00    0.64005   0.59858   -1.000
 3504.00    0.63569   0.59571   -1.000
 3505.00    0.62997   0.58640   -1.000
 3506.00    0.61792   0.57724   -1.000
 3507.00    0.62070   0.57267   -1.000
 3508.00    0.63223   0.57137   -1.000
 3509.00    0.62772   0.57023   -1.000
 3510.00    0.61405   0.56695   -1.000
 3511.00    0.60887   0.56109   -1.000
 3512.00    0.60211   0.55255   -1.000
 3513.00    0.58943   0.54516   -1.000
 3514.00    0.57894   0.54687   -1.000
 3515.00    0.58560   0.56308   -1.000
 3516.00    0.60273   0.58937  249.666
 3517.00    0.61525   0.61068  249.666
 3518.00    0.62694   0.61431  249.666
 3519.00    0.62496   0.60024   -1.000
 3520.00    0.60549   0.58014   -1.000
 3521.00    0.58230   0.56343   -1.000
 3522.00    0.57703   0.55076   90.936
 3523.00    0.56514   0.53807   32.169
 3524.00    0.54530   0.52441   32.951
 3525.00    0.53385   0.51740   43.529
 3526.00    0.53283   0.52531  249.666
 3527.00    0.55567   0.54597  249.666
 3528.00    0.58536   0.57109   -1.000
 3529.00    0.60704   0.59132   -1.000
 3530.00    0.62148   0.60184   -1.000
 3531.00    0.61415   0.60312  249.666
 3532.00    0.60471   0.59668  249.666
 3533.00    0.60022   0.58683   -1.000
 3534.00    0.60634   0.58127   -1.000
 3535.00    0.62201   0.58502   -1.000
 3536.00    0.62465   0.59862   -1.000
 3537.00    0.62519   0.61602  249.666
 3538.00    0.63214   0.62969  249.666
 3539.00    0.64351   0.63563  249.666
 3540.00    0.64053   0.63365  249.666
 3541.00    0.62920   0.62894  249.666
 3542.00    0.62293   0.62853  249.666
 3543.00    0.62624   0.63409  249.666
 3544.00    0.63007   0.63946   -1.000
 3545.00    0.63058   0.63907  249.666
 3546.00    0.62887   0.63380  249.666
 3547.00    0.62673   0.62811  249.666
 3548.00    0.62377   0.62641  249.666
 3549.00    0.62499   0.62971  249.666
 3550.00    0.62683   0.63467  249.666
 3551.00    0.62387   0.63509   -1.000
 3552.00    0.60945   0.62660   -1.000
 3553.00    0.60177   0.61341   -1.000
 3554.00    0.59718   0.60526   -1.000
 3555.00    0.60235   0.60679  249.666
 3556.00    0.61022   0.61460  249.666
 3557.00    0.60101   0.62286   -1.000
 3558.00    0.59295   0.62696   -1.000
 3559.00    0.59882   0.62723   -1.000
 3560.00    0.60221   0.62811   -1.000
 3561.00    0.60937   0.63098   -1.000
 3562.00    0.61115   0.62992   -1.000
 3563.00    0.61031   0.61691   87.602
 3564.00    0.59270   0.59208   32.557
 3565.00    0.55983   0.56664   33.389
 3566.00    0.53447   0.55271   33.049
 3567.00    0.53037   0.55022   33.246
 3568.00    0.52759   0.54930   34.244
 3569.00    0.52366   0.54298   34.354
 3570.00    0.51588   0.53383   33.121
 3571.00    0.51838   0.52971   43.484
 3572.00    0.53817   0.53368  249.666
 3573.00    0.55242   0.54173  249.666
 3574.00    0.55537   0.55046  249.666
 3575.00    0.56237   0.55919  249.666
 3576.00    0.57476   0.56640  249.666
 3577.00    0.57620   0.56972   89.880
 3578.00    0.56568   0.56607   34.010
 3579.00    0.54989   0.55297   36.491
 3580.00    0.52857   0.53482   37.959
 3581.00    0.51240   0.52003   38.163
 3582.00    0.50117   0.51436   38.559
 3583.00    0.50510   0.51438   39.632
 3584.00    0.51113   0.50970   40.722
 3585.00    0.49677   0.49719   40.465
 3586.00    0.48633   0.48498   38.361
 3587.00    0.48956   0.48415   36.373
 3588.00    0.50260   0.49955   34.131
 3589.00    0.52059   0.52684   43.630
 3590.00    0.54713   0.55530  249.666
 3591.00    0.57112   0.57457  249.666
 3592.00    0.58630   0.58199  249.666
 3593.00    0.59367   0.58477  249.666
 3594.00    0.59734   0.59199  249.666
 3595.00    0.60320   0.60571  249.666
 3596.00    0.61185   0.62022  247.398
 3597.00    0.62577   0.63014  241.670
 3598.00    0.63577   0.63545  239.825
 3599.00    0.64147   0.63707  245.385
 3600.00    0.64343   0.63152  249.666
 3601.00    0.62959   0.61646  249.666
 3602.00    0.61163   0.59827   -1.000
 3603.00    0.59342   0.58553  249.666
 3604.00    0.58605   0.58198  249.666
 3605.00    0.58316   0.58293  249.666
 3606.00    0.58281   0.58083  249.666
 3607.00    0.58470   0.57311  249.666
 3608.00    0.57420   0.56359  249.666
 3609.00    0.55794   0.55889  249.666
 3610.00    0.55819   0.56194  249.666
 3611.00    0.56754   0.57085  249.666
 3612.00    0.58056   0.58155  249.666
 3613.00    0.58418   0.59252  249.666
 3614.00    0.59263   0.60593   -1.000
 3615.00    0.60675   0.61779   -1.000
 3616.00    0.60081   0.61595   -1.000
 3617.00    0.57862   0.59713   83.429
 3618.00    0.55635   0.57299   43.846
 3619.00    0.53549   0.56153   -1.000
 3620.00    0.55665   0.57112   -1.000
 3621.00    0.59136   0.59316  249.666
 3622.00    0.61066   0.61432  249.015
 3623.00    0.62424   0.62965  243.963
 3624.00    0.62747   0.64427   -1.000
 3625.00    0.63521   0.66430   -1.000
 3626.00    0.65412   0.68679   -1.000
 3627.00    0.66946   0.69976   -1.000
 3628.00    0.66533   0.69015   -1.000
 3629.00    0.64795   0.65661   -1.000
 3630.00    0.61100   0.61375  249.666
 3631.00    0.57128   0.58452   -1.000
 3632.00    0.55702   0.58046   -1.000
 3633.00    0.57284   0.59393   -1.000
 3634.00    0.59581   0.60897   -1.000
 3635.00    0.60435   0.61759   -1.000
 3636.00    0.60538   0.62512   -1.000
 3637.00    0.62096   0.63870   -1.000
 3638.00    0.64144   0.65576   -1.000
 3639.00    0.65805   0.66854   -1.000
 3640.00    0.66258   0.67177  238.508
 3641.00    0.65259   0.66404   -1.000
 3642.00    0.63747   0.64846   -1.000
 3643.00    0.62256   0.63127  249.666
 3644.00    0.60828   0.61727  249.666
 3645.00    0.59422   0.60759   -1.000
 3646.00    0.59261   0.60081   -1.000
 3647.00    0.59190   0.59654  249.666
 3648.00    0.58614   0.59616   -1.000
 3649.00    0.58729   0.60074   -1.000
 3650.00    0.60496   0.61108  243.801
 3651.00    0.62209   0.62689  234.992
 3652.00    0.63576   0.64553  230.091
 3653.00    0.65282   0.66247  227.718
 3654.00    0.66112   0.67636   -1.000
 3655.00    0.66166   0.68827   -1.000
 3656.00    0.66537   0.69842   -1.000
 3657.00    0.67262   0.70544   -1.000
 3658.00    0.68525   0.70824   -1.000
 3659.00    0.68277   0.70776   -1.000
 3660.00    0.67880   0.70365   -1.000
 3661.00    0.67118   0.69475   -1.000
 3662.00    0.66421   0.68354   -1.000
 3663.00    0.66643   0.67588  228.171
 3664.00    0.66555   0.67532  226.300
 3665.00    0.66673   0.67889   -1.000
 3666.00    0.66715   0.68046   -1.000
 3667.00    0.66489   0.67609   -1.000
 3668.00    0.65271   0.66668   -1.000
 3669.00    0.64067   0.65905   -1.000
 3670.00    0.64210   0.66024   -1.000
 3671.00    0.65698   0.67019   -1.000
 3672.00    0.66595   0.68206   -1.000
 3673.00    0.66983   0.68884   -1.000
 3674.00    0.66597   0.68784   -1.000
 3675.00    0.66146   0.67898   -1.000
 3676.00    0.65760   0.66299  240.843
 3677.00    0.64478   0.64399  247.761
 3678.00    0.63628   0.62926  249.666
 3679.00    0.62431   0.62446  248.855
 3680.00    0.62240   0.62906  242.006
 3681.00    0.63220   0.63804  236.613
 3682.00    0.64432   0.64602  237.156
 3683.00    0.64762   0.64881  244.395
 3684.00    0.64263   0.64379  249.666
 3685.00    0.62748   0.63178  249.666
 3686.00    0.61250   0.62098  249.666
 3687.00    0.60468   0.62198   -1.000
 3688.00    0.60943   0.63816   -1.000
 3689.00    0.63128   0.66241   -1.000
 3690.00    0.65647   0.68263   -1.000
 3691.00    0.67879   0.69240   -1.000
 3692.00    0.68682   0.69257  227.471
 3693.00    0.67690   0.68800  229.114
 3694.00    0.67539   0.68412  227.687
 3695.00    0.67229   0.68235  225.376
 3696.00    0.66679   0.68164   -1.000
 3697.00    0.67680   0.68594  214.198
 3698.00    0.68832   0.70008  209.684
 3699.00    0.70287   0.71958   -1.000
 3700.00    0.71267   0.73153   -1.000
 3701.00    0.70834   0.72201  228.797
 3702.00    0.68472   0.68838  249.666
 3703.00    0.64482   0.64301  249.666
 3704.00    0.61165   0.60485  249.666
 3705.00    0.58963   0.58635  249.666
 3706.00    0.58748   0.58778  249.666
 3707.00    0.60446   0.59989  249.666
 3708.00    0.61679   0.61234  249.666
 3709.00    0.62209   0.61889  243.154
 3710.00    0.62638   0.62121  231.061
 3711.00    0.63409   0.62726  218.615
 3712.00    0.65082   0.64420  209.967
 3713.00    0.68623   0.67198   -1.000
 3714.00    0.72429   0.70152   -1.000
 3715.00    0.74009   0.72184   -1.000
 3716.00    0.73721   0.72690   -1.000
 3717.00    0.72091   0.71327  249.666
 3718.00    0.68089   0.67714  249.666
 3719.00    0.62183   0.62122   78.089
 3720.00    0.56451   0.56333   46.867
 3721.00    0.53031   0.53070  249.666
 3722.00    0.53890   0.53747  249.666
 3723.00    0.58167   0.57796  236.066
 3724.00    0.64199   0.63214  230.506
 3725.00    0.68255   0.67347  234.472
 3726.00    0.69435   0.68979  240.247
 3727.00    0.68817   0.69185  240.003
 3728.00    0.67903   0.69371  238.230
 3729.00    0.68496   0.69618  243.740
 3730.00    0.68533   0.68774  249.666
 3731.00    0.65969   0.65519   74.713
 3732.00    0.61650   0.59903   33.007
 3733.00    0.55328   0.53827   36.063
 3734.00    0.50154   0.49439   36.237
 3735.00    0.48654   0.48279   33.795
 3736.00    0.50700   0.50702   46.165
 3737.00    0.55290   0.55697  249.666
 3738.00    0.60678   0.61651  246.797
 3739.00    0.65316   0.67075   -1.000
 3740.00    0.68627   0.70468   -1.000
 3741.00    0.69580   0.71114  249.666
 3742.00    0.69003   0.69513  249.666
 3743.00    0.67080   0.66909  249.666
 3744.00    0.64425   0.64223  249.666
 3745.00    0.61650   0.61744   76.067
 3746.00    0.58683   0.59160   32.919
 3747.00    0.56109   0.56026   34.428
 3748.00    0.52793   0.52759   50.785
 3749.00    0.50081   0.50773  249.666
 3750.00    0.51288   0.51619  249.666
 3751.00    0.56961   0.55557   -1.000
 3752.00    0.63867   0.61378   -1.000
 3753.00    0.69029   0.67382   -1.000
 3754.00    0.73003   0.71906   -1.000
 3755.00    0.75379   0.73771   -1.000
 3756.00    0.74170   0.72658   -1.000
 3757.00    0.70513   0.69410   -1.000
 3758.00    0.66372   0.66104  249.666
 3759.00    0.64216   0.64626  249.666
 3760.00    0.66368   0.65186  248.758
 3761.00    0.68983   0.66720   -1.000
 3762.00    0.69986   0.68061   -1.000
 3763.00    0.69989   0.68714   -1.000
 3764.00    0.70258   0.68667   -1.000
 3765.00    0.70642   0.67918   -1.000
 3766.00    0.68734   0.66430   -1.000
 3767.00    0.66377   0.64278   -1.000
 3768.00    0.65267   0.61650   -1.000
 3769.00    0.63600   0.59165   -1.000
 3770.00    0.61786   0.58043   -1.000
 3771.00    0.62748   0.59422   -1.000
 3772.00    0.66425   0.62986   -1.000
 3773.00    0.70192   0.67020   -1.000
 3774.00    0.72283   0.69933   -1.000
 3775.00    0.72644   0.71553   -1.000
 3776.00    0.73590   0.72754  217.584
 3777.00    0.75931   0.74363   -1.000
 3778.00    0.78049   0.76520   -1.000
 3779.00    0.79421   0.78751   -1.000
 3780.00    0.80561   0.80510  201.692
 3781.00    0.81898   0.81393  200.973
 3782.00    0.82592   0.81436   -1.000
 3783.00    0.82511   0.80911   -1.000
 3784.00    0.81921   0.79750   -1.000
 3785.00    0.79636   0.77727   -1.000
 3786.00    0.75795   0.75138   -1.000
 3787.00    0.73346   0.72712  249.363
 3788.00    0.72541   0.71261   -1.000
 3789.00    0.72303   0.71054   -1.000
 3790.00    0.73066   0.71523   -1.000
 3791.00    0.73027   0.71743   -1.000
 3792.00    0.71520   0.70903   -1.000
 3793.00    0.69729   0.68665   -1.000
 3794.00    0.66742   0.65326   -1.000
 3795.00    0.63384   0.61370   -1.000
 3796.00    0.60282   0.57280   -1.000
 3797.00    0.56427   0.53930   -1.000
 3798.00    0.54236   0.52969   -1.000
 3799.00    0.56859   0.55711   -1.000
 3800.00    0.62435   0.61455  236.097
 3801.00    0.68477   0.67800  227.855
 3802.00    0.73392   0.72791  224.325
 3803.00    0.76204   0.75702  224.914
 3804.00    0.77475   0.76774   -1.000
 3805.00    0.77513   0.76535   -1.000
 3806.00    0.76223   0.75903  237.967
 3807.00    0.75507   0.76024  230.357
 3808.00    0.76921   0.77331  223.819
 3809.00    0.79340   0.79223  224.064
 3810.00    0.80780   0.80414  231.511
 3811.00    0.80061   0.79683  244.930
 3812.00    0.77655   0.76901  249.666
 3813.00    0.74474   0.73305   -1.000
 3814.00    0.71039   0.70516  249.666
 3815.00    0.69744   0.69694  249.666
 3816.00    0.71013   0.70727  249.666
 3817.00    0.72799   0.72113  249.666
 3818.00    0.73088   0.72100  249.666
 3819.00    0.71303   0.70389  249.666
 3820.00    0.68895   0.68599  249.666
 3821.00    0.68752   0.68304  249.666
 3822.00    0.70200   0.69096   -1.000
 3823.00    0.69949   0.68993   74.021
 3824.00    0.67271   0.67120   33.560
 3825.00    0.64333   0.64727   33.875
 3826.00    0.62672   0.63100   33.467
 3827.00    0.62985   0.62381   32.917
 3828.00    0.63662   0.62129   32.750
 3829.00    0.64112   0.61800   33.595
 3830.00    0.63728   0.60766   35.596
 3831.00    0.61030   0.58438   37.795
 3832.00    0.57132   0.54793   38.159
 3833.00    0.53510   0.50682   37.053
 3834.00    0.50858   0.47602   35.816
 3835.00    0.50469   0.46631   35.652
 3836.00    0.51975   0.47724   36.481
 3837.00    0.54083   0.50056   36.749
 3838.00    0.55698   0.52813   35.470
 3839.00    0.57104   0.55760   52.395
 3840.00    0.60231   0.59208   -1.000
 3841.00    0.64937   0.63375   -1.000
 3842.00    0.70038   0.67775   -1.000
 3843.00    0.73395   0.71602   -1.000
 3844.00    0.74437   0.74218  249.666
 3845.00    0.75252   0.75721  249.666
 3846.00    0.76138   0.76713  249.666
 3847.00    0.76858   0.77302  249.666
 3848.00    0.76717   0.77131  249.666
 3849.00    0.75291   0.76379   -1.000
 3850.00    0.74300   0.76016   -1.000
 3851.00    0.75039   0.76797   -1.000
 3852.00    0.76620   0.78203   -1.000
 3853.00    0.77435   0.79013   -1.000
 3854.00    0.77063   0.78552   -1.000
 3855.00    0.75688   0.77137   -1.000
 3856.00    0.74450   0.75442   68.460
 3857.00    0.73614   0.73751   32.294
 3858.00    0.71348   0.72202   33.215
 3859.00    0.68753   0.71484   50.594
 3860.00    0.68900   0.72372   -1.000
 3861.00    0.72904   0.74722   -1.000
 3862.00    0.77972   0.77295  249.666
 3863.00    0.80259   0.78796   -1.000
 3864.00    0.79553   0.78988  249.666
 3865.00    0.78983   0.78606  249.666
 3866.00    0.78457   0.78460  249.666
 3867.00    0.77921   0.78733  249.666
 3868.00    0.77620   0.78898  249.666
 3869.00    0.76276   0.78230   69.113
 3870.00    0.73823   0.76514   49.888
 3871.00    0.71721   0.74340   -1.000
 3872.00    0.70681   0.72792   -1.000
 3873.00    0.71301   0.72902   -1.000
 3874.00    0.74337   0.74468  248.672
 3875.00    0.76976   0.75843   -1.000
 3876.00    0.75959   0.75457  249.666
 3877.00    0.72816   0.73520  249.666
 3878.00    0.70749   0.71764  249.666
 3879.00    0.70507   0.71399  249.666
 3880.00    0.71167   0.71954  249.666
 3881.00    0.70549   0.72196   -1.000
 3882.00    0.69261   0.71666   -1.000
 3883.00    0.69619   0.70635  249.666
 3884.00    0.70048   0.68729   -1.000
 3885.00    0.67763   0.65260   -1.000
 3886.00    0.63400   0.60553   -1.000
 3887.00    0.59207   0.56011   -1.000
 3888.00    0.57079   0.53476   -1.000
 3889.00    0.57609   0.54188   -1.000
 3890.00    0.61687   0.58075   -1.000
 3891.00    0.67461   0.63573   -1.000
 3892.00    0.71895   0.68380   -1.000
 3893.00    0.74197   0.71141   -1.000
 3894.00    0.74780   0.72389   -1.000
 3895.00    0.75322   0.73361   -1.000
 3896.00    0.77593   0.74613   -1.000
 3897.00    0.78725   0.75825   -1.000
 3898.00    0.78398   0.76458   -1.000
 3899.00    0.78624   0.76656   -1.000
 3900.00    0.79625   0.77079   -1.000
 3901.00    0.80400   0.77739   -1.000
 3902.00    0.80443   0.77950   -1.000
 3903.00    0.79644   0.77356   -1.000
 3904.00    0.78093   0.76325   -1.000
 3905.00    0.76518   0.75742  224.012
 3906.00    0.76175   0.76500  209.795
 3907.00    0.77891   0.78826  199.542
 3908.00    0.81240   0.81860  196.189
 3909.00    0.84236   0.84382  194.418
 3910.00    0.85988   0.85828  192.859
 3911.00    0.86471   0.86312  193.186
 3912.00    0.85983   0.85998  196.272
 3913.00    0.85127   0.85020  200.625
 3914.00    0.83821   0.83821  204.438
 3915.00    0.83177   0.82971  207.055
 3916.00    0.82804   0.82473  211.231
 3917.00    0.81676   0.81844  218.835
 3918.00    0.80124   0.80736  228.951
 3919.00    0.78305   0.79234  237.286
 3920.00    0.76626   0.77865  239.017
 3921.00    0.76146   0.77155  235.752
 3922.00    0.76925   0.77229  234.024
 3923.00    0.77476   0.77646  240.145
 3924.00    0.76772   0.77589  249.666
 3925.00    0.74420   0.76292   -1.000
 3926.00    0.70858   0.73378   72.154
 3927.00    0.66135   0.69054   37.580
 3928.00    0.60610   0.63706   44.032
 3929.00    0.54486   0.57560   51.750
 3930.00    0.47182   0.50450   60.983
 3931.00    0.39439   0.42465   69.402
 3932.00    0.32673   0.34979   71.660
 3933.00    0.29235   0.30370   65.569
 3934.00    0.30184   0.30648   55.568
 3935.00    0.34598   0.35817   45.771
 3936.00    0.41613   0.43840   37.998
 3937.00    0.49349   0.52442   55.450
 3938.00    0.56679   0.60284   -1.000
 3939.00    0.62827   0.66501   -1.000
 3940.00    0.66732   0.70772   -1.000
 3941.00    0.68754   0.73165   -1.000
 3942.00    0.69561   0.74088   -1.000
 3943.00    0.69996   0.74509   -1.000
 3944.00    0.71331   0.75468   -1.000
 3945.00    0.74456   0.77242   -1.000
 3946.00    0.78053   0.79150  216.403
 3947.00    0.79380   0.80335  211.967
 3948.00    0.79255   0.80738  204.458
 3949.00    0.79930   0.80931  201.124
 3950.00    0.81471   0.81153  203.052
 3951.00    0.82125   0.81302  203.148
 3952.00    0.82008   0.81645  198.781
 3953.00    0.82534   0.82398  196.911
 3954.00    0.83404   0.82943  201.382
 3955.00    0.82883   0.82605  207.070
 3956.00    0.80947   0.81623  207.227
 3957.00    0.79863   0.80838  207.177
 3958.00    0.80446   0.80498  219.434
 3959.00    0.79633   0.79519  245.384
 3960.00    0.75699   0.76809  249.666
 3961.00    0.70492   0.72828   -1.000
 3962.00    0.66101   0.68699   66.859
 3963.00    0.62346   0.64763   35.451
 3964.00    0.58010   0.60051   42.472
 3965.00    0.51459   0.53341   52.270
 3966.00    0.42707   0.44809   61.351
 3967.00    0.34349   0.36288   62.725
 3968.00    0.29118   0.30649   54.948
 3969.00    0.29157   0.29998   45.175
 3970.00    0.33870   0.34372   37.438
 3971.00    0.41487   0.42028   55.487
 3972.00    0.50156   0.50634  249.666
 3973.00    0.58085   0.58460  247.290
 3974.00    0.64886   0.65030  225.199
 3975.00    0.70514   0.70423  209.614
 3976.00    0.74487   0.74870  197.937
 3977.00    0.78386   0.78680  187.427
 3978.00    0.82016   0.81952  180.881
 3979.00    0.84924   0.84391  180.369
 3980.00    0.87238   0.85535   -1.000
 3981.00    0.87397   0.85583   -1.000
 3982.00    0.86311   0.85422  181.507
 3983.00    0.86381   0.85885  177.771
 3984.00    0.88359   0.87136  174.557
 3985.00    0.90246   0.88637   -1.000
 3986.00    0.91288   0.89936  168.943
 3987.00    0.92288   0.91012  168.371
 3988.00    0.93087   0.91806  168.255
 3989.00    0.93478   0.92249  165.838
 3990.00    0.93702   0.92670  161.848
 3991.00    0.94648   0.93436  160.586
 3992.00    0.96204   0.94405   -1.000
 3993.00    0.96254   0.94990  167.429
 3994.00    0.95240   0.94622  170.993
 3995.00    0.93581   0.93248  173.421
 3996.00    0.91924   0.91578  172.346
 3997.00    0.90846   0.90728  166.445
 3998.00    0.91613   0.91328  159.651
 3999.00    0.94461   0.93051  155.601
 4000.00    0.96796   0.94938  153.281
 4001.00    0.98346   0.96180   -1.000
 4002.00    0.99576   0.96329   -1.000
 4003.00    0.98823   0.95163   -1.000
 4004.00    0.95458   0.93000   -1.000
 4005.00    0.91888   0.91198  168.210
 4006.00    0.91828   0.91285  159.771
 4007.00    0.94800   0.93269  155.468
 4008.00    0.97024   0.95743  153.659
 4009.00    0.98350   0.97460  152.537
 4010.00    0.99747   0.98223  152.796
 4011.00    0.99557   0.98386  153.802
 4012.00    0.99047   0.98334  153.702
 4013.00    0.99539   0.98441  152.023
 4014.00    0.99813   0.98855  151.458
 4015.00    1.00059   0.99352  153.100
 4016.00    1.00492   0.99687  153.775
 4017.00    0.99936   0.99972  152.204
 4018.00    1.00155   1.00470  151.086
 4019.00    1.00978   1.01069  152.369
 4020.00    1.00928   1.01329  154.020
 4021.00    1.00429   1.00969  154.949
 4022.00    1.00000   1.00127  156.062
 4023.00    0.99204   0.99145  154.853
 4024.00    0.98506   0.98536  150.099
 4025.00    0.99684   0.98945  145.805
 4026.00    1.02023   1.00404  144.899
 4027.00    1.03580   1.01786  148.464
 4028.00    1.03522   1.01654  156.588
 4029.00    1.00578   0.99618  165.537
 4030.00    0.96358   0.96590  170.096
 4031.00    0.93639   0.94018  170.047
 4032.00    0.92926   0.92870  166.165
 4033.00    0.94011   0.93315  159.293
 4034.00    0.96117   0.95140  151.360
 4035.00    0.98906   0.97982  144.922
 4036.00    1.02181   1.01192  142.021
 4037.00    1.04880   1.03804  143.245
 4038.00    1.05816   1.04922  146.550
 4039.00    1.05098   1.04533  149.163
 4040.00    1.03426   1.03492  150.324
 4041.00    1.02008   1.02487  154.099
 4042.00    1.01688   1.01079  165.219
 4043.00    0.99719   0.98263  180.081
 4044.00    0.94212   0.94327  183.548
 4045.00    0.89277   0.91421   -1.000
 4046.00    0.89514   0.91689   -1.000
 4047.00    0.94850   0.95002  149.773
 4048.00    1.00467   0.99104  146.796
 4049.00    1.02727   1.01962  146.439
 4050.00    1.03420   1.03105  148.943
 4051.00    1.03199   1.02983  153.001
 4052.00    1.02039   1.02007  156.208
 4053.00    1.00627   1.00655  158.040
 4054.00    0.99400   0.99526  159.187
 4055.00    0.99060   0.98851  160.550
 4056.00    0.99304   0.98526  160.505
 4057.00    0.98977   0.98626  156.592
 4058.00    0.99079   0.99484  152.087
 4059.00    1.00517   1.00792  151.822
 4060.00    1.02022   1.01198  158.569
 4061.00    1.01667   0.99571   -1.000
 4062.00    0.97648   0.96408  174.880
 4063.00    0.93080   0.93585  168.947
 4064.00    0.92124   0.92540  162.572
 4065.00    0.94727   0.93236  158.461
 4066.00    0.97164   0.94788   -1.000
 4067.00    0.98242   0.96381   -1.000
 4068.00    1.00058   0.97501   -1.000
 4069.00    1.01529   0.97568   -1.000
 4070.00    1.00322   0.96286   -1.000
 4071.00    0.97563   0.94632   -1.000
 4072.00    0.96218   0.94166   -1.000
 4073.00    0.97827   0.94966   -1.000
 4074.00    0.99205   0.95406   -1.000
 4075.00    0.97155   0.94078   -1.000
 4076.00    0.92944   0.91478  178.375
 4077.00    0.89734   0.89595  169.033
 4078.00    0.90489   0.90099  157.267
 4079.00    0.94534   0.93032  149.441
 4080.00    0.98616   0.96675   -1.000
 4081.00    1.00931   0.99070   -1.000
 4082.00    1.00987   0.99439  156.247
 4083.00    0.99448   0.98390  156.236
 4084.00    0.97705   0.97262  152.328
 4085.00    0.97802   0.97200  146.752
 4086.00    1.00168   0.98496  141.547
 4087.00    1.02831   1.00482   -1.000
 4088.00    1.04323   1.02079   -1.000
 4089.00    1.04323   1.02549   -1.000
 4090.00    1.03335   1.01992  146.428
 4091.00    1.02096   1.01095  147.304
 4092.00    1.00985   1.00214  148.687
 4093.00    1.00609   0.99028   -1.000
 4094.00    0.99593   0.97172   -1.000
 4095.00    0.96679   0.94631   -1.000
 4096.00    0.93940   0.91791   -1.000
 4097.00    0.91671   0.88814   -1.000
 4098.00    0.88903   0.85078   -1.000
 4099.00    0.84514   0.79924   -1.000
 4100.00    0.77720   0.74017   -1.000
 4101.00    0.71650   0.69786   -1.000
 4102.00    0.70958   0.69764  176.186
 4103.00    0.76104   0.74328   -1.000
 4104.00    0.83575   0.81140   -1.000
 4105.00    0.89743   0.87326   -1.000
 4106.00    0.93365   0.91447   -1.000
 4107.00    0.95100   0.93599  157.824
 4108.00    0.95250   0.94460  160.577
 4109.00    0.94612   0.94756  160.718
 4110.00    0.94746   0.95186  157.794
 4111.00    0.96010   0.96128  154.626
 4112.00    0.97793   0.97567  152.123
 4113.00    0.99443   0.99247  150.222
 4114.00    1.00582   1.00837  149.888
 4115.00    1.01649   1.01885  151.914
 4116.00    1.02250   1.01874  156.177
 4117.00    1.01364   1.00762  159.773
 4118.00    0.99647   0.99223  159.595
 4119.00    0.98314   0.98195  157.701
 4120.00    0.98018   0.98126  156.988
 4121.00    0.98485   0.98628  156.234
 4122.00    0.99212   0.99197  153.948
 4123.00    1.00457   0.99826  152.319
 4124.00    1.01751   1.00591  153.154
 4125.00    1.02593   1.01136  155.914
 4126.00    1.02123   1.00977  158.258
 4127.00    1.00066   1.00203  159.266
 4128.00    0.98696   0.99417  160.678
 4129.00    0.98758   0.98864  164.286
 4130.00    0.98430   0.98071  169.558
 4131.00    0.97217   0.96801  172.409
 4132.00    0.95987   0.95780  169.566
 4133.00    0.95676   0.96068  162.274
 4134.00    0.97091   0.97852  155.526
 4135.00    0.99528   1.00334  151.836
 4136.00    1.02014   1.02655  149.466
 4137.00    1.03885   1.04491  148.031
 4138.00    1.04855   1.05787  149.335
 4139.00    1.05775   1.06229  154.925
 4140.00    1.05868   1.05191  165.712
 4141.00    1.02505   1.02491  177.243
 4142.00    0.97296   0.99053   -1.000
 4143.00    0.94248   0.96710   -1.000
 4144.00    0.94530   0.96827   -1.000
 4145.00    0.97697   0.98970  157.187
 4146.00    1.01088   1.01335  158.017
 4147.00    1.02504   1.02499  161.868
 4148.00    1.02111   1.02485  165.141
 4149.00    1.01197   1.02129  165.445
 4150.00    1.00982   1.01980  164.309
 4151.00    1.00848   1.01941  164.662
 4152.00    1.04181   1.01618   -1.000
 4153.00    1.11362   1.00920   -1.000
 4154.00    1.05605   1.00222   -1.000
 4155.00    0.90240   1.00062   -1.000
 4156.00    0.90353   1.00722   -1.000
 4157.00    1.00146   1.02016  158.150
 4158.00    1.03348   1.03480  158.513
 4159.00    1.03260   1.04631  155.401
 4160.00    1.03901   1.05311  152.160
 4161.00    1.04457   1.05735  151.894
 4162.00    1.05118   1.06171  153.695
 4163.00    1.05231   1.06602  156.145
 4164.00    1.04600   1.06757   -1.000
 4165.00    1.03910   1.06352   -1.000
 4166.00    1.02718   1.05425   -1.000
 4167.00    1.01922   1.04585   -1.000
 4168.00    1.02280   1.04240   -1.000
 4169.00    1.02585   1.03858  165.834
 4170.00    1.01314   1.02410  176.066
 4171.00    0.97632   0.99688   -1.000
 4172.00    0.94058   0.97021   -1.000
 4173.00    0.92919   0.96012   -1.000
 4174.00    0.94384   0.96956   -1.000
 4175.00    0.96760   0.98692   -1.000
 4176.00    0.97660   0.99832   -1.000
 4177.00    0.97254   1.00227   -1.000
 4178.00    0.97366   1.00660   -1.000
 4179.00    0.98930   1.01525   -1.000
 4180.00    1.00719   1.02333   -1.000
 4181.00    1.00650   1.02510   -1.000
 4182.00    0.99865   1.02474   -1.000
 4183.00    1.00498   1.02922   -1.000
 4184.00    1.01412   1.03540   -1.000
 4185.00    1.01681   1.03474   -1.000
 4186.00    1.00607   1.02507   -1.000
 4187.00    0.99100   1.01486   -1.000
 4188.00    0.99136   1.01368   -1.000
 4189.00    1.00128   1.02018   -1.000
 4190.00    1.00343   1.02755   -1.000
 4191.00    1.00682   1.03422   -1.000
 4192.00    1.02658   1.04156  155.393
 4193.00    1.04130   1.04683  162.047
 4194.00    1.03319   1.04275  169.005
 4195.00    1.01451   1.02571  173.125
 4196.00    0.99426   1.00193  174.677
 4197.00    0.97332   0.98084  173.749
 4198.00    0.95476   0.96807  171.304
 4199.00    0.94990   0.96450  169.774
 4200.00    0.95868   0.96732  169.016
 4201.00    0.96769   0.97216  167.039
 4202.00    0.97438   0.97875  165.155
 4203.00    0.98097   0.99048  162.880
 4204.00    0.98479   1.00665   -1.000
 4205.00    0.99190   1.02306   -1.000
 4206.00    1.00442   1.03739   -1.000
 4207.00    1.01680   1.04782   -1.000
 4208.00    1.02538   1.05209   -1.000
 4209.00    1.02847   1.05206   -1.000
 4210.00    1.02797   1.05316   -1.000
 4211.00    1.03179   1.05765   -1.000
 4212.00    1.03742   1.05955   -1.000
 4213.00    1.03236   1.04965   -1.000
 4214.00    1.01190   1.02922   -1.000
 4215.00    0.98480   1.01202   -1.000
 4216.00    0.97935   1.01153   -1.000
 4217.00    1.00161   1.02943   -1.000
 4218.00    1.03164   1.05365   -1.000
 4219.00    1.05373   1.07187  142.522
 4220.00    1.06346   1.07941  146.382
 4221.00    1.05862   1.07437  154.841
 4222.00    1.03825   1.05334   -1.000
 4223.00    1.00397   1.01399  188.249
 4224.00    0.95555   0.96035  208.476
 4225.00    0.89282   0.90869   -1.000
 4226.00    0.83967   0.88279   -1.000
 4227.00    0.84965   0.90008   -1.000
 4228.00    0.91938   0.95448   -1.000
 4229.00    0.99521   1.01647   -1.000
 4230.00    1.04236   1.05500  149.294
 4231.00    1.04916   1.06158  153.090
 4232.00    1.02749   1.04828   -1.000
 4233.00    1.00528   1.03003   -1.000
 4234.00    0.99571   1.01659   -1.000
 4235.00    0.98989   1.01123   -1.000
 4236.00    0.98673   1.01170   -1.000
 4237.00    0.99031   1.01660   -1.000
 4238.00    0.99392   1.02612   -1.000
 4239.00    0.99715   1.03903   -1.000
 4240.00    1.01586   1.05351   -1.000
 4241.00    1.03630   1.06732   -1.000
 4242.00    1.03831   1.07849   -1.000
 4243.00    1.04703   1.08588   -1.000
 4244.00    1.05887   1.08662   -1.000
 4245.00    1.04836   1.07617   -1.000
 4246.00    1.01865   1.05429   -1.000
 4247.00    0.99109   1.02949   -1.000
 4248.00    0.97782   1.01142   -1.000
 4249.00    0.97595   1.00386   -1.000
 4250.00    0.97667   1.00734   -1.000
 4251.00    0.98768   1.01929   -1.000
 4252.00    1.00878   1.03062   -1.000
 4253.00    1.01395   1.03413   -1.000
 4254.00    1.00583   1.03407   -1.000
 4255.00    1.00746   1.03954   -1.000
 4256.00    1.02422   1.04965   -1.000
 4257.00    1.03552   1.05138   -1.000
 4258.00    1.02148   1.03656   -1.000
 4259.00    0.98746   1.01472   -1.000
 4260.00    0.96968   1.00476   -1.000
 4261.00    0.98373   1.01767   -1.000
 4262.00    1.01512   1.04791   -1.000
 4263.00    1.04660   1.07950   -1.000
 4264.00    1.06692   1.09877   -1.000
 4265.00    1.07284   1.10250   -1.000
 4266.00    1.06765   1.09507   -1.000
 4267.00    1.05302   1.07953   -1.000
 4268.00    1.03640   1.05550   -1.000
 4269.00    1.01856   1.02362  175.724
 4270.00    0.98303   0.98897  181.422
 4271.00    0.94189   0.96186   -1.000
 4272.00    0.92749   0.95145   -1.000
 4273.00    0.94080   0.95892   -1.000
 4274.00    0.95712   0.97896   -1.000
 4275.00    0.98162   1.00730   -1.000
 4276.00    1.01681   1.03986   -1.000
 4277.00    1.04561   1.06621   -1.000
 4278.00    1.04781   1.07539   -1.000
 4279.00    1.02589   1.06739   -1.000
 4280.00    1.00678   1.05229   -1.000
 4281.00    0.99922   1.04204   -1.000
 4282.00    1.00148   1.03999   -1.000
 4283.00    1.00695   1.04064   -1.000
 4284.00    1.00620   1.03818   -1.000
 4285.00    0.99424   1.02950   -1.000
 4286.00    0.98230   1.01423   -1.000
 4287.00    0.96918   0.99289   -1.000
 4288.00    0.94409   0.96745   -1.000
 4289.00    0.91103   0.94625   -1.000
 4290.00    0.89598   0.94214   -1.000
 4291.00    0.91995   0.95840   -1.000
 4292.00    0.96370   0.98155   -1.000
 4293.00    0.98819   0.99416  164.665
 4294.00    0.98542   0.99227  168.026
 4295.00    0.97542   0.98283  174.596
 4296.00    0.96619   0.96740  187.209
 4297.00    0.94164   0.94155  202.397
 4298.00    0.89747   0.90673   -1.000
 4299.00    0.85228   0.87266   -1.000
 4300.00    0.83358   0.85088   -1.000
 4301.00    0.84252   0.84583  199.597
 4302.00    0.85395   0.85345  196.926
 4303.00    0.86713   0.86675  196.454
 4304.00    0.87814   0.87787  200.871
 4305.00    0.87861   0.87840  210.288
 4306.00    0.86625   0.86645  218.215
 4307.00    0.84330   0.85038  217.680
 4308.00    0.82516   0.84295   -1.000
 4309.00    0.83210   0.85176   -1.000
 4310.00    0.86342   0.87341  184.635
 4311.00    0.89553   0.89845  176.516
 4312.00    0.91578   0.92156  167.553
 4313.00    0.92813   0.94730   -1.000
 4314.00    0.95233   0.98488   -1.000
 4315.00    0.99905   1.03532   -1.000
 4316.00    1.05165   1.08694   -1.000
 4317.00    1.08592   1.12239   -1.000
 4318.00    1.09796   1.13383   -1.000
 4319.00    1.09152   1.12615   -1.000
 4320.00    1.07364   1.10801   -1.000
 4321.00    1.06009   1.08309   -1.000
 4322.00    1.03828   1.04964  170.125
 4323.00    1.00134   1.00782  180.586
 4324.00    0.95629   0.96881  176.048
 4325.00    0.92358   0.95412   -1.000
 4326.00    0.93656   0.97665   -1.000
 4327.00    0.98865   1.02367   -1.000
 4328.00    1.04051   1.06724   -1.000
 4329.00    1.06332   1.08918   -1.000
 4330.00    1.06236   1.09278   -1.000
 4331.00    1.05874   1.09174   -1.000
 4332.00    1.05590   1.09306   -1.000
 4333.00    1.05391   1.09245   -1.000
 4334.00    1.05288   1.08100   -1.000
 4335.00    1.04262   1.05035  154.872
 4336.00    1.00396   0.99554  169.743
 4337.00    0.93575   0.92019  184.496
 4338.00    0.86171   0.84014   -1.000
 4339.00    0.79218   0.78015  185.858
 4340.00    0.74927   0.76139  168.794
 4341.00    0.77462   0.79191  155.917
 4342.00    0.85297   0.85822  149.333
 4343.00    0.92676   0.93165  145.123
 4344.00    0.97554   0.99008  142.095
 4345.00    1.00882   1.03107   -1.000
 4346.00    1.03008   1.06149   -1.000
 4347.00    1.04326   1.08450   -1.000
 4348.00    1.05990   1.09540   -1.000
 4349.00    1.06878   1.08624   -1.000
 4350.00    1.04584   1.05841  158.184
 4351.00    1.00648   1.02934   -1.000
 4352.00    0.99505   1.02014   -1.000
 4353.00    1.02138   1.03743  142.379
 4354.00    1.05387   1.06870  138.925
 4355.00    1.07789   1.09657  137.880
 4356.00    1.09606   1.11180  139.830
 4357.00    1.10055   1.11426  142.155
 4358.00    1.08493   1.10989   -1.000
 4359.00    1.07087   1.10830   -1.000
 4360.00    1.08382   1.11574   -1.000
 4361.00    1.10451   1.12987   -1.000
 4362.00    1.11457   1.14437   -1.000
 4363.00    1.11977   1.15479   -1.000
 4364.00    1.12951   1.15860   -1.000
 4365.00    1.13189   1.15294   -1.000
 4366.00    1.11529   1.13705   -1.000
 4367.00    1.09047   1.11726   -1.000
 4368.00    1.07523   1.10303   -1.000
 4369.00    1.07779   1.09719   -1.000
 4370.00    1.08773   1.09509  141.171
 4371.00    1.09222   1.08950  145.323
 4372.00    1.08480   1.07467  151.318
 4373.00    1.06115   1.05172  153.647
 4374.00    1.02799   1.03212  149.497
 4375.00    1.01732   1.03140  142.304
 4376.00    1.03984   1.05346  138.024
 4377.00    1.07731   1.08496  137.736
 4378.00    1.10403   1.10669  139.665
 4379.00    1.11038   1.10860  144.755
 4380.00    1.10329   1.08931  157.320
 4381.00    1.07903   1.04939   -1.000
 4382.00    1.02059   0.99637   -1.000
 4383.00    0.95167   0.95248  173.258
 4384.00    0.92673   0.94098   -1.000
 4385.00    0.96365   0.96532  147.956
 4386.00    1.02505   1.00592  146.452
 4387.00    1.05932   1.03866  147.613
 4388.00    1.06342   1.05450  148.546
 4389.00    1.06011   1.05898  146.855
 4390.00    1.06262   1.06119  143.618
 4391.00    1.07390   1.06578  143.021
 4392.00    1.09263   1.06983  145.509
 4393.00    1.09405   1.06768  146.419
 4394.00    1.07222   1.06235  141.789
 4395.00    1.06204   1.06564  136.650
 4396.00    1.08402   1.08071  136.456
 4397.00    1.10617   1.09475  140.516
 4398.00    1.10534   1.09441  145.181
 4399.00    1.08630   1.08165  145.627
 4400.00    1.06276   1.07031  143.165
 4401.00    1.06383   1.06736  145.349
 4402.00    1.08597   1.06524  152.852
 4403.00    1.07704   1.05515  157.036
 4404.00    1.03955   1.04111  153.867
 4405.00    1.02657   1.03599  150.412
 4406.00    1.04183   1.04397  148.848
 4407.00    1.05332   1.05775  144.697
 4408.00    1.05163   1.07305   -1.000
 4409.00    1.06300   1.09338   -1.000
 4410.00    1.09821   1.11816   -1.000
 4411.00    1.12966   1.13710  132.602
 4412.00    1.14467   1.13845  138.924
 4413.00    1.12945   1.11934  145.185
 4414.00    1.08844   1.08870  146.439
 4415.00    1.05460   1.06398  142.654
 4416.00    1.05006   1.06040  136.940
 4417.00    1.06438   1.07926   -1.000
 4418.00    1.08706   1.10935   -1.000
 4419.00    1.11167   1.13480   -1.000
 4420.00    1.12147   1.14443   -1.000
 4421.00    1.11104   1.13867   -1.000
 4422.00    1.09669   1.12879   -1.000
 4423.00    1.09215   1.12431   -1.000
 4424.00    1.09931   1.12466   -1.000
 4425.00    1.10014   1.12518   -1.000
 4426.00    1.09179   1.12520   -1.000
 4427.00    1.08362   1.12707   -1.000
 4428.00    1.08606   1.13057   -1.000
 4429.00    1.09198   1.13320   -1.000
 4430.00    1.09873   1.13419   -1.000
 4431.00    1.10694   1.13377   -1.000
 4432.00    1.10695   1.12870   -1.000
 4433.00    1.08734   1.11555   -1.000
 4434.00    1.05561   1.09997   -1.000
 4435.00    1.04015   1.09618   -1.000
 4436.00    1.06637   1.11411   -1.000
 4437.00    1.11760   1.14657   -1.000
 4438.00    1.15519   1.17397  130.227
 4439.00    1.16110   1.17983   -1.000
 4440.00    1.14479   1.16109   -1.000
 4441.00    1.11465   1.12971   -1.000
 4442.00    1.07892   1.10441   -1.000
 4443.00    1.06042   1.10015   -1.000
 4444.00    1.07349   1.11869   -1.000
 4445.00    1.10865   1.14779   -1.000
 4446.00    1.13307   1.17075   -1.000
 4447.00    1.13427   1.18048   -1.000
 4448.00    1.13464   1.18117   -1.000
 4449.00    1.13566   1.17828   -1.000
 4450.00    1.12879   1.17437   -1.000
 4451.00    1.12770   1.16958   -1.000
 4452.00    1.13132   1.15996   -1.000
 4453.00    1.11628   1.14093   -1.000
 4454.00    1.08318   1.11677   -1.000
 4455.00    1.06359   1.10044   -1.000
 4456.00    1.07094   1.09927   -1.000
 4457.00    1.08419   1.10707   -1.000
 4458.00    1.09087   1.11300   -1.000
 4459.00    1.08973   1.11309   -1.000
 4460.00    1.08219   1.11115   -1.000
 4461.00    1.07440   1.11360   -1.000
 4462.00    1.08718   1.12396   -1.000
 4463.00    1.11389   1.13892   -1.000
 4464.00    1.13479   1.15100  134.443
 4465.00    1.13763   1.15522   -1.000
 4466.00    1.12603   1.15092   -1.000
 4467.00    1.11386   1.14053   -1.000
 4468.00    1.10054   1.13038   -1.000
 4469.00    1.09674   1.12895   -1.000
 4470.00    1.11316   1.14108   -1.000
 4471.00    1.13797   1.16369   -1.000
 4472.00    1.15922   1.18807   -1.000
 4473.00    1.18502   1.20672   -1.000
 4474.00    1.19997   1.21718  123.542
 4475.00    1.19705   1.22236   -1.000
 4476.00    1.20010   1.22572   -1.000
 4477.00    1.20783   1.22509  126.614
 4478.00    1.20295   1.21316  132.121
 4479.00    1.18073   1.18749  136.669
 4480.00    1.15078   1.15841  136.867
 4481.00    1.12553   1.14274  132.322
 4482.00    1.11984   1.15058   -1.000
 4483.00    1.14430   1.17779   -1.000
 4484.00    1.17648   1.20945   -1.000
 4485.00    1.19893   1.23047   -1.000
 4486.00    1.21482   1.23329  129.152
 4487.00    1.20804   1.21903  132.861
 4488.00    1.17775   1.19732   -1.000
 4489.00    1.14714   1.18221   -1.000
 4490.00    1.14224   1.18216   -1.000
 4491.00    1.15974   1.19257   -1.000
 4492.00    1.18031   1.19986   -1.000
 4493.00    1.18082   1.19522  134.572
 4494.00    1.16587   1.18388   -1.000
 4495.00    1.15226   1.17802   -1.000
 4496.00    1.15526   1.18349   -1.000
 4497.00    1.16952   1.19631   -1.000
 4498.00    1.18936   1.20728  125.359
 4499.00    1.19730   1.20940  126.372
 4500.00    1.18130   1.20479   -1.000
 4501.00    1.17710   1.20465   -1.000
 4502.00    1.19392   1.21737   -1.000
 4503.00    1.22137   1.23890  117.410
 4504.00    1.24426   1.25720  119.365
 4505.00    1.24715   1.26400  120.996
 4506.00    1.23975   1.25973   -1.000
 4507.00    1.23180   1.25130   -1.000
 4508.00    1.22544   1.24649   -1.000
 4509.00    1.22634   1.24782   -1.000
 4510.00    1.23378   1.25095  122.306
 4511.00    1.23276   1.24952  124.608
 4512.00    1.21738   1.24190   -1.000
 4513.00    1.20428   1.23154   -1.000
 4514.00    1.19786   1.22240   -1.000
 4515.00    1.20109   1.21677  126.370
 4516.00    1.20283   1.21406  127.410
 4517.00    1.19504   1.21188   -1.000
 4518.00    1.18815   1.21021   -1.000
 4519.00    1.19404   1.21146   -1.000
 4520.00    1.20444   1.21487  125.329
 4521.00    1.20192   1.21530  128.077
 4522.00    1.18612   1.20931   -1.000
 4523.00    1.16949   1.19912   -1.000
 4524.00    1.16684   1.18858   -1.000
 4525.00    1.16136   1.17712  138.896
 4526.00    1.14119   1.16178   -1.000
 4527.00    1.12507   1.14348   -1.000
 4528.00    1.11641   1.12884  138.967
 4529.00    1.11344   1.12486  136.424
 4530.00    1.12480   1.13151  135.177
 4531.00    1.14117   1.14043  137.585
 4532.00    1.14208   1.14113  142.121
 4533.00    1.12369   1.13189  142.377
 4534.00    1.09905   1.12385   -1.000
 4535.00    1.10101   1.13108   -1.000
 4536.00    1.13792   1.15693   -1.000
 4537.00    1.19076   1.19033  123.052
 4538.00    1.21405   1.21519  125.567
 4539.00    1.20411   1.22342   -1.000
 4540.00    1.23686   1.21947  125.723
 4541.00    1.00059   1.21364   -1.000
 4542.00    0.29349   1.21176   -1.000
 4543.00   -0.03751   1.21172   -2.000
 4544.00    0.22717   1.20939   -2.000
 4545.00    0.70682   1.20476   -2.000
 4546.00    0.48548   1.19931   -1.000
 4547.00    0.85190   1.19075   -1.000
 4548.00    1.16101   1.17708   93.660
 4549.00    1.14025   1.16447   -1.000
 4550.00    1.14142   1.16262   -1.000
 4551.00    1.16117   1.17108  132.443
 4552.00    1.17191   1.17775  133.961
 4553.00    1.15713   1.17448   -1.000
 4554.00    1.14087   1.16722   -1.000
 4555.00    1.14725   1.16842   -1.000
 4556.00    1.17249   1.18433  120.701
 4557.00    1.20341   1.20912  120.564
 4558.00    1.22458   1.23158  120.775
 4559.00    1.23166   1.24594  120.768
 4560.00    1.23152   1.25254   -1.000
 4561.00    1.23033   1.25064   -1.000
 4562.00    1.21939   1.23863   -1.000
 4563.00    1.19663   1.22070   -1.000
 4564.00    1.18074   1.20756   -1.000
 4565.00    1.18647   1.20812   -1.000
 4566.00    1.20534   1.22160  120.009
 4567.00    1.22810   1.23873  120.594
 4568.00    1.24242   1.24879  123.181
 4569.00    1.24327   1.24608  126.432
 4570.00    1.22103   1.23283  126.805
 4571.00    1.19128   1.21791   -1.000
 4572.00    1.19125   1.21307   -1.000
 4573.00    1.21173   1.22260  120.892
 4574.00    1.22486   1.23744  121.336
 4575.00    1.23174   1.24606  122.006
 4576.00    1.23228   1.24557  123.682
 4577.00    1.22443   1.23865  126.942
 4578.00    1.21235   1.22654  129.965
 4579.00    1.19833   1.21015  130.498
 4580.00    1.17652   1.19403   -1.000
 4581.00    1.16886   1.18373  127.794
 4582.00    1.17593   1.18002  127.794
 4583.00    1.17743   1.18036  128.499
 4584.00    1.17556   1.18410  127.496
 4585.00    1.18178   1.19170  124.559
 4586.00    1.19544   1.20259  121.697
 4587.00    1.21218   1.21525  120.807
 4588.00    1.22546   1.22634  122.038
 4589.00    1.22885   1.23175  124.212
 4590.00    1.22077   1.23017  126.447
 4591.00    1.20819   1.22338  127.190
 4592.00    1.19566   1.21565   -1.000
 4593.00    1.19087   1.21186   -1.000
 4594.00    1.19664   1.21298  124.854
 4595.00    1.20629   1.21663  124.583
 4596.00    1.22007   1.22120  124.308
 4597.00    1.22715   1.22551  124.997
 4598.00    1.22868   1.22741  126.144
 4599.00    1.22632   1.22535  126.728
 4600.00    1.21068   1.22043  125.864
 4601.00    1.19956   1.21630  124.439
 4602.00    1.20291   1.21574  124.173
 4603.00    1.21143   1.21832  124.117
 4604.00    1.21745   1.22228  123.088
 4605.00    1.22615   1.22729  120.945
 4606.00    1.23444   1.23515  118.385
 4607.00    1.24401   1.24696  116.656
 4608.00    1.26061   1.26022  116.645
 4609.00    1.27627   1.26977  117.974
 4610.00    1.27535   1.27132  119.399
 4611.00    1.26024   1.26584  120.329
 4612.00    1.24617   1.25871  120.119
 4613.00    1.24445   1.25480  119.158
 4614.00    1.24378   1.25518  118.503
 4615.00    1.24443   1.25716  118.943
 4616.00    1.24234   1.25744  119.828
 4617.00    1.24091   1.25519  120.004
 4618.00    1.24054   1.25213  119.130
 4619.00    1.24236   1.25148  117.425
 4620.00    1.24712   1.25577  116.851
 4621.00    1.26463   1.26382  117.087
 4622.00    1.27459   1.27094  117.342
 4623.00    1.27103   1.27295  118.180
 4624.00    1.26239   1.27008  118.714
 4625.00    1.25755   1.26576  118.736
 4626.00    1.25547   1.26246  119.264
 4627.00    1.25167   1.26032  119.682
 4628.00    1.24814   1.25826  119.312
 4629.00    1.24532   1.25716  118.132
 4630.00    1.24731   1.25907  118.110
 4631.00    1.25812   1.26270  119.539
 4632.00    1.25882   1.26358  121.005
 4633.00    1.25196   1.25954  121.291
 4634.00    1.25106   1.25326  121.942
 4635.00    1.25180   1.24844  123.411
 4636.00    1.24534   1.24496  124.247
 4637.00    1.23929   1.24126  124.240
 4638.00    1.23481   1.23830  122.647
 4639.00    1.23379   1.23893  119.853
 4640.00    1.23699   1.24504  117.835
 4641.00    1.25597   1.25462  117.755
 4642.00    1.27310   1.26204  119.514
 4643.00    1.27154   1.26199  122.607
 4644.00    1.26349   1.25301  126.050
 4645.00    1.24374   1.23776  127.404
 4646.00    1.21720   1.22161  125.850
 4647.00    1.20804   1.21248  123.045
 4648.00    1.22453   1.21593  121.021
 4649.00    1.23910   1.22979  120.435
 4650.00    1.24666   1.24613  120.221
 4651.00    1.25254   1.25724  121.190
 4652.00    1.24488   1.25957  123.668
 4653.00    1.23553   1.25384  125.518
 4654.00    1.22441   1.24390   -1.000
 4655.00    1.21507   1.23626   -1.000
 4656.00    1.22053   1.23733  117.311
 4657.00    1.24054   1.25006  114.162
 4658.00    1.27050   1.27130  113.417
 4659.00    1.29333   1.29166  114.459
 4660.00    1.30170   1.30121  116.929
 4661.00    1.29301   1.29696  119.420
 4662.00    1.27538   1.28378  120.246
 4663.00    1.26535   1.26804  121.728
 4664.00    1.26729   1.25159  126.123
 4665.00    1.26063   1.23177   -1.000
 4666.00    1.22586   1.20862  133.067
 4667.00    1.18687   1.18967  129.984
 4668.00    1.17331   1.18498  124.830
 4669.00    1.18968   1.19693  120.944
 4670.00    1.21951   1.21796  119.583
 4671.00    1.24661   1.23781  119.508
 4672.00    1.26183   1.25052  119.453
 4673.00    1.26265   1.25674  118.263
 4674.00    1.26480   1.26139  116.515
 4675.00    1.27189   1.26723  116.480
 4676.00    1.27857   1.27141  118.546
 4677.00    1.28136   1.26839  120.992
 4678.00    1.27174   1.25714  123.093
 4679.00    1.25987   1.24265  124.501
 4680.00    1.24531   1.23099  123.646
 4681.00    1.23700   1.22647  120.872
 4682.00    1.24013   1.23021  118.879
 4683.00    1.25175   1.23935  118.801
 4684.00    1.26754   1.24836  118.975
 4685.00    1.27807   1.25321  119.485
 4686.00    1.27686   1.25384  119.678
 4687.00    1.27673   1.25241  119.676
 4688.00    1.27417   1.25085  120.322
 4689.00    1.27008   1.24966  120.748
 4690.00    1.26642   1.24843  119.729
 4691.00    1.26829   1.24784  118.007
 4692.00    1.27443   1.24999  115.582
 4693.00    1.28232   1.25561  113.812
 4694.00    1.29191   1.26257   -1.000
 4695.00    1.30703   1.26729   -1.000
 4696.00    1.31363   1.26597   -1.000
 4697.00    1.29553   1.25655   -1.000
 4698.00    1.26793   1.24205  121.602
 4699.00    1.25978   1.22891   -1.000
 4700.00    1.26662   1.21990   -1.000
 4701.00    1.26406   1.21278   -1.000
 4702.00    1.24931   1.20700   -1.000
 4703.00    1.23935   1.20608   -1.000
 4704.00    1.24743   1.21188   -1.000
 4705.00    1.25843   1.21969   -1.000
 4706.00    1.25402   1.22210   -1.000
 4707.00    1.23573   1.21720  125.769
 4708.00    1.21964   1.21102  122.770
 4709.00    1.21813   1.21162  119.288
 4710.00    1.23973   1.22111  117.594
 4711.00    1.26927   1.23370   -1.000
 4712.00    1.28365   1.24127   -1.000
 4713.00    1.28214   1.24078   -1.000
 4714.00    1.27094   1.23770   -1.000
 4715.00    1.26395   1.24021  116.577
 4716.00    1.26950   1.25074  115.484
 4717.00    1.28448   1.26491  115.025
 4718.00    1.29761   1.27702  114.632
 4719.00    1.29692   1.28447  115.274
 4720.00    1.29422   1.28722  116.159
 4721.00    1.29445   1.28631  115.842
 4722.00    1.28689   1.28453  114.696
 4723.00    1.28496   1.28515  114.517
 4724.00    1.29618   1.28709  116.684
 4725.00    1.30086   1.28453  120.789
 4726.00    1.28386   1.27313  123.998
 4727.00    1.26379   1.25452  124.291
 4728.00    1.24885   1.23613  123.160
 4729.00    1.24544   1.22521  122.110
 4730.00    1.25298   1.22320   -1.000
 4731.00    1.26213   1.22824   -1.000
 4732.00    1.26146   1.23797  118.848
 4733.00    1.26475   1.24857  118.188
 4734.00    1.27091   1.25552  118.996
 4735.00    1.27482   1.25692  119.453
 4736.00    1.26976   1.25525  118.284
 4737.00    1.26351   1.25519  117.930
 4738.00    1.27672   1.25858  118.495
 4739.00    1.28436   1.26290  118.788
 4740.00    1.28169   1.26519  118.087
 4741.00    1.27503   1.26614  116.856
 4742.00    1.27917   1.26842  116.729
 4743.00    1.29131   1.27227  116.889
 4744.00    1.29414   1.27623  116.240
 4745.00    1.29126   1.27989  115.117
 4746.00    1.29324   1.28417  114.652
 4747.00    1.29364   1.28976  114.746
 4748.00    1.30057   1.29556  114.851
 4749.00    1.30829   1.30005  115.509
 4750.00    1.30699   1.30261  116.726
 4751.00    1.30218   1.30206  117.796
 4752.00    1.30159   1.29729  118.640
 4753.00    1.28918   1.28955  118.666
 4754.00    1.27820   1.28227  118.956
 4755.00    1.27194   1.27842  119.756
 4756.00    1.27088   1.27890  120.070
 4757.00    1.27152   1.28264  119.318
 4758.00    1.27349   1.28736  118.904
 4759.00    1.27574   1.29026  120.295
 4760.00    1.27383   1.28810  123.087
 4761.00    1.26573   1.27854  125.042
 4762.00    1.25015   1.26336  125.533
 4763.00    1.23437   1.24830  125.353
 4764.00    1.22735   1.23880  124.606
 4765.00    1.23547   1.23695  123.060
 4766.00    1.24441   1.24243  120.491
 4767.00    1.25361   1.25440  118.560
 4768.00    1.27311   1.27081  118.354
 4769.00    1.28861   1.28665  119.205
 4770.00    1.29160   1.29557  120.265
 4771.00    1.28209   1.29598  119.426
 4772.00    1.27337   1.29354  117.088
 4773.00    1.27825   1.29571  115.884
 4774.00    1.29377   1.30380  115.802
 4775.00    1.30782   1.31264  116.100
 4776.00    1.31038   1.31747  116.769
 4777.00    1.30639   1.31771  117.969
 4778.00    1.29439   1.31443   -1.000
 4779.00    1.28446   1.30875   -1.000
 4780.00    1.28271   1.30306   -1.000
 4781.00    1.28592   1.29903  120.600
 4782.00    1.28578   1.29540  120.784
 4783.00    1.27667   1.29067  121.073
 4784.00    1.27993   1.28562  122.113
 4785.00    1.27405   1.28097  122.945
 4786.00    1.26239   1.27648  122.998
 4787.00    1.25706   1.27325  122.486
 4788.00    1.25742   1.27297  121.756
 4789.00    1.25258   1.27574   -1.000
 4790.00    1.26286   1.28161  118.763
 4791.00    1.27231   1.29140  116.251
 4792.00    1.28423   1.30512   -1.000
 4793.00    1.30331   1.32083  113.367
 4794.00    1.31886   1.33466  114.189
 4795.00    1.32391   1.34182  116.268
 4796.00    1.31819   1.33951   -1.000
 4797.00    1.30393   1.32861   -1.000
 4798.00    1.28682   1.31415   -1.000
 4799.00    1.27395   1.30401   -1.000
 4800.00    1.27640   1.30392   -1.000
 4801.00    1.28697   1.31301   -1.000
 4802.00    1.30231   1.32414   -1.000
 4803.00    1.30408   1.32817   -1.000
 4804.00    1.29470   1.32161   -1.000
 4805.00    1.28444   1.31018   -1.000
 4806.00    1.28465   1.30174  119.244
 4807.00    1.28634   1.29944  118.754
 4808.00    1.29180   1.30222  117.787
 4809.00    1.29101   1.30756  116.887
 4810.00    1.28931   1.31286   -1.000
 4811.00    1.30014   1.31692  116.027
 4812.00    1.30945   1.32036  115.786
 4813.00    1.30882   1.32423  115.395
 4814.00    1.31462   1.32904  114.730
 4815.00    1.31369   1.33467   -1.000
 4816.00    1.31347   1.34062   -1.000
 4817.00    1.31789   1.34589   -1.000
 4818.00    1.31965   1.34934   -1.000
 4819.00    1.32169   1.35031   -1.000
 4820.00    1.32094   1.34781   -1.000
 4821.00    1.31938   1.33919   -1.000
 4822.00    1.30410   1.32322   -1.000
 4823.00    1.28335   1.30498   -1.000
 4824.00    1.27823   1.29405  115.843
 4825.00    1.28528   1.29560  115.851
 4826.00    1.30199   1.30497  117.070
 4827.00    1.30877   1.31255  117.950
 4828.00    1.29925   1.31319  118.069
 4829.00    1.29631   1.30868  118.920
 4830.00    1.29602   1.30294  119.327
 4831.00    1.29159   1.29803  117.832
 4832.00    1.29077   1.29546  116.172
 4833.00    1.29376   1.29708  115.517
 4834.00    1.30731   1.30263  115.594
 4835.00    1.31506   1.30881  116.081
 4836.00    1.31551   1.31214  117.463
 4837.00    1.31368   1.31152  119.484
 4838.00    1.30152   1.30706  119.989
 4839.00    1.28294   1.29987  119.774
 4840.00    1.27452   1.29319  119.239
 4841.00    1.27660   1.28965  118.402
 4842.00    1.28154   1.28885  117.275
 4843.00    1.29071   1.28999  115.559
 4844.00    1.29817   1.29371  114.707
 4845.00    1.30238   1.29929  116.454
 4846.00    1.30955   1.30229  118.365
 4847.00    1.30267   1.29840  118.708
 4848.00    1.28364   1.28999  117.348
 4849.00    1.27612   1.28433  116.776
 4850.00    1.27941   1.28437  117.270
 4851.00    1.28574   1.28586  118.215
 4852.00    1.28969   1.28242  121.241
 4853.00    1.27581   1.26942  124.760
 4854.00    1.24811   1.24657  125.252
 4855.00    1.21948   1.22048  124.129
 4856.00    1.20692   1.19906  126.560
 4857.00    1.20140   1.17927  135.968
 4858.00    1.17198   1.14491   -1.000
 4859.00    1.09232   1.08106  160.841
 4860.00    0.97896   0.99766   -1.000
 4861.00    0.90748   0.93300   -1.000
 4862.00    0.93689   0.92485  131.956
 4863.00    1.02881   0.97691   -1.000
 4864.00    1.11402   1.05647   -1.000
 4865.00    1.16966   1.12809   -1.000
 4866.00    1.20303   1.17854  121.668
 4867.00    1.22124   1.21085  122.415
 4868.00    1.23207   1.22924  125.415
 4869.00    1.23473   1.23312  128.619
 4870.00    1.21968   1.22251  128.360
 4871.00    1.19706   1.20588  125.142
 4872.00    1.19503   1.19811  122.669
 4873.00    1.21899   1.20763  121.498
 4874.00    1.24047   1.22825  120.792
 4875.00    1.24726   1.24772  120.340
 4876.00    1.24978   1.26059  118.847
 4877.00    1.25280   1.27004  117.474
 4878.00    1.25888   1.28095   -1.000
 4879.00    1.27274   1.29327  119.874
 4880.00    1.28373   1.30199  120.852
 4881.00    1.27817   1.30236   -1.000
 4882.00    1.27054   1.29537   -1.000
 4883.00    1.26861   1.28631   -1.000
 4884.00    1.27041   1.27821  123.647
 4885.00    1.25729   1.27147  123.230
 4886.00    1.24979   1.26715  122.952
 4887.00    1.25295   1.26547  124.388
 4888.00    1.25459   1.26273  127.001
 4889.00    1.24277   1.25433  126.886
 4890.00    1.22217   1.24202  122.555
 4891.00    1.22191   1.23696  116.946
 4892.00    1.25049   1.25115  113.100
 4893.00    1.29518   1.28357  110.759
 4894.00    1.32773   1.32090  109.935
 4895.00    1.34327   1.34998  110.036
 4896.00    1.34712   1.36540  112.014
 4897.00    1.34997   1.36834  114.656
 4898.00    1.34712   1.36194  116.212
 4899.00    1.32118   1.34997   -1.000
 4900.00    1.30746   1.33777   -1.000
 4901.00    1.30711   1.32930   -1.000
 4902.00    1.30803   1.32405  116.452
 4903.00    1.29969   1.32115  114.153
 4904.00    1.30514   1.32369  112.953
 4905.00    1.32706   1.33351  113.641
 4906.00    1.34167   1.34421  116.083
 4907.00    1.33535   1.34581  119.366
 4908.00    1.31896   1.33499  121.273
 4909.00    1.29527   1.31677   -1.000
 4910.00    1.27716   1.30016   -1.000
 4911.00    1.28459   1.29333  116.428
 4912.00    1.29879   1.29891  114.900
 4913.00    1.30499   1.31271  113.791
 4914.00    1.32092   1.32763  114.040
 4915.00    1.33660   1.33675  117.382
 4916.00    1.34063   1.33315  123.427
 4917.00    1.31869   1.31156  129.533
 4918.00    1.27050   1.27415  131.925
 4919.00    1.22802   1.23349  128.665
 4920.00    1.20378   1.20673  124.027
 4921.00    1.21060   1.20364  121.681
 4922.00    1.23806   1.21845  121.266
 4923.00    1.26098   1.23703  119.999
 4924.00    1.26755   1.25253  117.131
 4925.00    1.27183   1.26924  114.844
 4926.00    1.30076   1.29133  113.590
 4927.00    1.32823   1.31523  112.764
 4928.00    1.34191   1.33535  112.067
 4929.00    1.34559   1.34922  112.840
 4930.00    1.35380   1.35476  115.569
 4931.00    1.34876   1.34878  119.612
 4932.00    1.32359   1.33056  120.684
 4933.00    1.28961   1.30656  118.926
 4934.00    1.27016   1.28919  118.445
 4935.00    1.27842   1.28465  121.296
 4936.00    1.29445   1.28473  124.729
 4937.00    1.28299   1.27790  124.478
 4938.00    1.26164   1.26538  120.753
 4939.00    1.25246   1.26056  116.806
 4940.00    1.27962   1.27346  114.359
 4941.00    1.31400   1.30033  113.128
 4942.00    1.32940   1.32823  113.013
 4943.00    1.33631   1.34645  113.700
 4944.00    1.34244   1.35245  114.056
 4945.00    1.34119   1.35045  113.251
 4946.00    1.33331   1.34755  111.951
 4947.00    1.33166   1.34911  111.432
 4948.00    1.34293   1.35553  110.992
 4949.00    1.35012   1.36303  111.383
 4950.00    1.35212   1.36756  112.124
 4951.00    1.35428   1.36757  113.333
 4952.00    1.34813   1.36371  114.734
 4953.00    1.34731   1.35675  117.509
 4954.00    1.33938   1.34432  123.078
 4955.00    1.31901   1.32060  128.345
 4956.00    1.27740   1.28479  127.123
 4957.00    1.23382   1.25081  120.564
 4958.00    1.23262   1.24070  115.897
 4959.00    1.27227   1.26210  114.468
 4960.00    1.31456   1.29955  114.771
 4961.00    1.33208   1.33105  115.631
 4962.00    1.33640   1.34612  116.928
 4963.00    1.33563   1.34652  119.227
 4964.00    1.32383   1.33718  120.964
 4965.00    1.30446   1.32276   -1.000
 4966.00    1.29330   1.30945  120.961
 4967.00    1.29286   1.30224  120.157
 4968.00    1.29193   1.30152  118.934
 4969.00    1.30108   1.30562  117.655
 4970.00    1.30938   1.31351  116.270
 4971.00    1.31714   1.32410  115.121
 4972.00    1.32486   1.33552  114.546
 4973.00    1.33422   1.34504  115.129
 4974.00    1.33923   1.35002  116.282
 4975.00    1.34296   1.34949  117.807
 4976.00    1.34079   1.34378  119.681
 4977.00    1.33204   1.33393  121.242
 4978.00    1.31522   1.32217  122.920
 4979.00    1.30702   1.30954  126.579
 4980.00    1.29059   1.29333  130.728
 4981.00    1.26303   1.27074  131.462
 4982.00    1.23047   1.24520  129.378
 4983.00    1.22507   1.22716  125.922
 4984.00    1.23574   1.22596  121.985
 4985.00    1.25259   1.24192  118.813
 4986.00    1.28061   1.26773  118.402
 4987.00    1.30342   1.29368  119.893
 4988.00    1.31529   1.31044  121.231
 4989.00    1.30708   1.31340  121.484
 4990.00    1.29145   1.30675  120.579
 4991.00    1.28976   1.29968  119.967
 4992.00    1.30098   1.29825  119.840
 4993.00    1.30558   1.30209  119.316
 4994.00    1.30918   1.30839  118.714
 4995.00    1.31206   1.31536  119.217
 4996.00    1.32207   1.32053  120.680
 4997.00    1.31806   1.31938  122.997
 4998.00    1.30706   1.30865  124.705
 4999.00    1.28272   1.29028  125.032
 5000.00    1.26761   1.27226  124.042
 5001.00    1.27365   1.26259  123.156
 5002.00    1.28340   1.26195  124.501
 5003.00    1.28493   1.26339  127.478
 5004.00    1.28199   1.25874  128.622
 5005.00    1.26014   1.24673  126.068
 5006.00    1.23293   1.23633  122.312
 5007.00    1.24966   1.23918  120.611
 5008.00    1.29262   1.25606   -1.000
 5009.00    1.31406   1.27443   -1.000
 5010.00    1.30901   1.28053   -1.000
 5011.00    1.28600   1.27011  132.996
 5012.00    1.25349   1.24936  132.942
 5013.00    1.22653   1.22942  130.330
 5014.00    1.21707   1.21983  127.560
 5015.00    1.23264   1.22222  126.685
 5016.00    1.26021   1.22936   -1.000
 5017.00    1.26238   1.23318   -1.000
 5018.00    1.25485   1.23404  124.325
 5019.00    1.26917   1.23873   -1.000
 5020.00    1.28199   1.24925   -1.000
 5021.00    1.28836   1.26036   -1.000
 5022.00    1.28521   1.26860  123.166
 5023.00    1.29072   1.27653  122.261
 5024.00    1.29820   1.28630  122.631
 5025.00    1.30124   1.29465  123.229
 5026.00    1.29934   1.29720  122.363
 5027.00    1.29607   1.29527  120.219
 5028.00    1.30244   1.29494  118.414
 5029.00    1.31487   1.29998  116.524
 5030.00    1.33032   1.30962  115.095
 5031.00    1.33447   1.32159  115.057
 5032.00    1.34460   1.33281  118.227
 5033.00    1.35302   1.33754  122.826
 5034.00    1.33270   1.33027  125.307
 5035.00    1.29718   1.31242  125.979
 5036.00    1.27939   1.29342  127.363
 5037.00    1.28194   1.27998  131.869
 5038.00    1.27693   1.26736  137.256
 5039.00    1.24618   1.24707  138.143
 5040.00    1.20731   1.22168  132.371
 5041.00    1.19057   1.20720  124.380
 5042.00    1.24292   1.21805   -1.000
 5043.00    0.85281   1.25215   -1.000
 5044.00    0.33112   1.29416   -1.000
 5045.00    0.01966   1.32834   -1.000
 5046.00    0.65044   1.34548   -1.000
 5047.00    1.27875   1.34313   -1.000
 5048.00    1.32395   1.32524  132.308
 5049.00    1.29635   1.30129  123.635
 5050.00    1.28583   1.28156  121.658
 5051.00    1.28685   1.27261  118.611
 5052.00    1.30068   1.27756  116.332
 5053.00    1.33106   1.29556   -1.000
 5054.00    1.35826   1.31916   -1.000
 5055.00    1.36868   1.33848   -1.000
 5056.00    1.37441   1.34939  114.971
 5057.00    1.37119   1.35446  114.961
 5058.00    1.36793   1.35790  114.274
 5059.00    1.36715   1.36204  114.219
 5060.00    1.36773   1.36673  115.564
 5061.00    1.37123   1.36906  118.699
 5062.00    1.36645   1.36397  122.855
 5063.00    1.34555   1.34804  124.684
 5064.00    1.31456   1.32497  123.543
 5065.00    1.29112   1.30524  121.698
 5066.00    1.30586   1.29668  121.116
 5067.00    1.32352   1.29777  120.573
 5068.00    1.32136   1.30261  119.804
 5069.00    1.32437   1.30789  120.541
 5070.00    1.33834   1.31204  121.513
 5071.00    1.33739   1.31292  120.330
 5072.00    1.32758   1.31044  119.303
 5073.00    1.32830   1.30799  119.047
 5074.00    1.32951   1.30824  118.949
 5075.00    1.33517   1.31015  119.948
 5076.00    1.33410   1.30993  123.756
 5077.00    1.32650   1.30276  129.490
 5078.00    1.30227   1.28559  131.608
 5079.00    1.26261   1.26289  129.336
 5080.00    1.24755   1.24680  126.549
 5081.00    1.26350   1.24553  124.724
 5082.00    1.28899   1.25566   -1.000
 5083.00    1.30137   1.26987   -1.000
 5084.00    1.30797   1.28533  119.313
 5085.00    1.33270   1.30107   -1.000
 5086.00    1.35148   1.31421   -1.000
 5087.00    1.35600   1.32248   -1.000
 5088.00    1.35539   1.32724  117.022
 5089.00    1.35602   1.33144  116.412
 5090.00    1.36667   1.33654   -1.000
 5091.00    1.37105   1.34279   -1.000
 5092.00    1.37036   1.34998  114.874
 5093.00    1.37569   1.35611  117.130
 5094.00    1.38053   1.35690  119.666
 5095.00    1.37448   1.34835  122.534
 5096.00    1.35656   1.33035  125.157
 5097.00    1.32795   1.30774  125.817
 5098.00    1.30416   1.28832  123.109
 5099.00    1.29907   1.28054  119.573
 5100.00    1.31650   1.28818   -1.000
 5101.00    1.34251   1.30566   -1.000
 5102.00    1.35539   1.32171   -1.000
 5103.00    1.35676   1.32865   -1.000
 5104.00    1.35382   1.32627  123.266
 5105.00    1.34105   1.31750  124.812
 5106.00    1.31698   1.30466  124.820
 5107.00    1.29910   1.29099  124.076
 5108.00    1.29508   1.28112  123.191
 5109.00    1.29892   1.27849  121.513
 5110.00    1.30201   1.28418  119.990
 5111.00    1.31621   1.29721  118.526
 5112.00    1.33728   1.31387  117.416
 5113.00    1.35402   1.32913  116.742
 5114.00    1.36356   1.34045  115.574
 5115.00    1.36956   1.34878  114.576
 5116.00    1.37653   1.35601  114.777
 5117.00    1.38306   1.36207  116.166
 5118.00    1.38491   1.36449  117.901
 5119.00    1.38381   1.36051  119.835
 5120.00    1.37138   1.34949  122.809
 5121.00    1.35172   1.33283  126.476
 5122.00    1.32945   1.31282  127.670
 5123.00    1.30566   1.29348  126.724
 5124.00    1.29384   1.28005  126.041
 5125.00    1.29805   1.27514  125.304
 5126.00    1.30762   1.27599   -1.000
 5127.00    1.30519   1.27767   -1.000
 5128.00    1.30461   1.27837  123.825
 5129.00    1.30816   1.28026   -1.000
 5130.00    1.31129   1.28617  120.647
 5131.00    1.32614   1.29603   -1.000
 5132.00    1.33438   1.30711   -1.000
 5133.00    1.34150   1.31696  118.077
 5134.00    1.35716   1.32432   -1.000
 5135.00    1.36233   1.32708   -1.000
 5136.00    1.34649   1.32201  124.911
 5137.00    1.32265   1.30854  125.254
 5138.00    1.29739   1.29223  124.239
 5139.00    1.28754   1.28111  124.961
 5140.00    1.29145   1.27823  126.913
 5141.00    1.29242   1.27974  126.444
 5142.00    1.28938   1.28141  124.421
 5143.00    1.28713   1.28404  123.825
 5144.00    1.29918   1.28923  124.849
 5145.00    1.31654   1.29359  125.247
 5146.00    1.32066   1.29340   -1.000
 5147.00    1.31811   1.29089   -1.000
 5148.00    1.32482   1.29039   -1.000
 5149.00    1.32990   1.29132   -1.000
 5150.00    1.32157   1.28928   -1.000
 5151.00    1.30243   1.28290  127.092
 5152.00    1.28609   1.27632  124.807
 5153.00    1.29840   1.27479  121.687
 5154.00    1.31896   1.28115   -1.000
 5155.00    1.33590   1.29554   -1.000
 5156.00    1.36190   1.31492   -1.000
 5157.00    1.38123   1.33343   -1.000
 5158.00    1.38430   1.34605   -1.000
 5159.00    1.38293   1.35127   -1.000
 5160.00    1.38849   1.34982   -1.000
 5161.00    1.38460   1.34281   -1.000
 5162.00    1.37569   1.33142   -1.000
 5163.00    1.36555   1.31450   -1.000
 5164.00    1.34426   1.28594   -1.000
 5165.00    1.29464   1.23864   -1.000
 5166.00    1.21366   1.17636   -1.000
 5167.00    1.14537   1.12057  146.901
 5168.00    1.12579   1.09558   -1.000
 5169.00    1.16929   1.10379   -1.000
 5170.00    1.21001   1.12021   -1.000
 5171.00    1.19543   1.11933   -1.000
 5172.00    1.14510   1.10628   -1.000
 5173.00    1.14710   1.11068   -1.000
 5174.00    1.22199   1.15051   -1.000
 5175.00    1.29706   1.21200   -1.000
 5176.00    1.34071   1.26692   -1.000
 5177.00    1.36243   1.29989   -1.000
 5178.00    1.36368   1.31275   -1.000
 5179.00    1.36163   1.31009   -1.000
 5180.00    1.34681   1.28941   -1.000
 5181.00    1.30653   1.24557   -1.000
 5182.00    1.24161   1.18426   -1.000
 5183.00    1.16957   1.12961   -1.000
 5184.00    1.15848   1.11299   -1.000
 5185.00    1.22512   1.14542   -1.000
 5186.00    1.29703   1.20415   -1.000
 5187.00    1.33054   1.25563   -1.000
 5188.00    1.33649   1.28408   -1.000
 5189.00    1.33377   1.29246   -1.000
 5190.00    1.32431   1.28682   -1.000
 5191.00    1.29741   1.27133  129.874
 5192.00    1.26391   1.25416  127.692
 5193.00    1.26047   1.24610  125.778
 5194.00    1.28649   1.25034   -1.000
 5195.00    1.30522   1.26132   -1.000
 5196.00    1.31717   1.27419   -1.000
 5197.00    1.33066   1.28864   -1.000
 5198.00    1.34059   1.30437   -1.000
 5199.00    1.35471   1.31847   -1.000
 5200.00    1.36789   1.32692   -1.000
 5201.00    1.36009   1.32631   -1.000
 5202.00    1.34920   1.31477   -1.000
 5203.00    1.32952   1.29278   -1.000
 5204.00    1.29482   1.26446   -1.000
 5205.00    1.26877   1.23770   -1.000
 5206.00    1.26994   1.21981   -1.000
 5207.00    1.27025   1.21234   -1.000
 5208.00    1.26781   1.21300   -1.000
 5209.00    1.27207   1.22253   -1.000
 5210.00    1.29414   1.24421   -1.000
 5211.00    1.33544   1.27585   -1.000
 5212.00    1.36998   1.30731   -1.000
 5213.00    1.38829   1.32671   -1.000
 5214.00    1.38343   1.32852   -1.000
 5215.00    1.35375   1.31763   -1.000
 5216.00    1.33401   1.30657   -1.000
 5217.00    1.34317   1.30667   -1.000
 5218.00    1.36485   1.31985   -1.000
 5219.00    1.38376   1.33899   -1.000
 5220.00    1.40157   1.35508   -1.000
 5221.00    1.40786   1.36235   -1.000
 5222.00    1.40028   1.35799   -1.000
 5223.00    1.38446   1.34021   -1.000
 5224.00    1.34689   1.30858   -1.000
 5225.00    1.29524   1.26849  130.769
 5226.00    1.25235   1.23424  123.646
 5227.00    1.24474   1.22330  118.483
 5228.00    1.28710   1.24225   -1.000
 5229.00    1.34395   1.27885   -1.000
 5230.00    1.37627   1.31067   -1.000
 5231.00    1.37891   1.32228   -1.000
 5232.00    1.36297   1.31433   -1.000
 5233.00    1.34500   1.30008   -1.000
 5234.00    1.33895   1.29517   -1.000
 5235.00    1.35746   1.30629   -1.000
 5236.00    1.38529   1.32814   -1.000
 5237.00    1.40105   1.34982   -1.000
 5238.00    1.40743   1.36369   -1.000
 5239.00    1.40550   1.36914   -1.000
 5240.00    1.41054   1.36973   -1.000
 5241.00    1.41366   1.36880   -1.000
 5242.00    1.40844   1.36840   -1.000
 5243.00    1.40657   1.36938   -1.000
 5244.00    1.41385   1.36970   -1.000
 5245.00    1.40787   1.36438   -1.000
 5246.00    1.37764   1.35080  121.424
 5247.00    1.35062   1.33339  121.644
 5248.00    1.33853   1.31942  122.409
 5249.00    1.34233   1.31160   -1.000
 5250.00    1.33573   1.30872  120.216
 5251.00    1.33127   1.31032  119.005
 5252.00    1.35082   1.31540   -1.000
 5253.00    1.35932   1.32060   -1.000
 5254.00    1.35829   1.32435   -1.000
 5255.00    1.36290   1.33039   -1.000
 5256.00    1.38037   1.34357   -1.000
 5257.00    1.40469   1.36214   -1.000
 5258.00    1.42345   1.37697   -1.000
 5259.00    1.42941   1.37856   -1.000
 5260.00    1.40199   1.36295   -1.000
 5261.00    1.36447   1.33267   -1.000
 5262.00    1.32616   1.29467   -1.000
 5263.00    1.28746   1.25735   -1.000
 5264.00    1.26078   1.22853   -1.000
 5265.00    1.25357   1.21352   -1.000
 5266.00    1.26257   1.21160   -1.000
 5267.00    1.28707   1.21329   -1.000
 5268.00    1.28568   1.20669   -1.000
 5269.00    1.23990   1.19273   -1.000
 5270.00    1.22564   1.18859   -1.000
 5271.00    1.27311   1.20849   -1.000
 5272.00    1.32711   1.24520   -1.000
 5273.00    1.34447   1.27751   -1.000
 5274.00    1.34188   1.29426   -1.000
 5275.00    1.34893   1.30293   -1.000
 5276.00    1.37191   1.31649   -1.000
 5277.00    1.40206   1.33828   -1.000
 5278.00    1.42208   1.35927   -1.000
 5279.00    1.42624   1.36767   -1.000
 5280.00    1.40895   1.35976   -1.000
 5281.00    1.38403   1.34144   -1.000
 5282.00    1.35841   1.32265   -1.000
 5283.00    1.34319   1.31327   -1.000
 5284.00    1.35662   1.32031   -1.000
 5285.00    1.39368   1.34307   -1.000
 5286.00    1.42776   1.37148   -1.000
 5287.00    1.43930   1.39360   -1.000
 5288.00    1.43465   1.40518   -1.000
 5289.00    1.43708   1.40966   -1.000
 5290.00    1.43786   1.41075   -1.000
 5291.00    1.43691   1.40927   -1.000
 5292.00    1.43063   1.40531  112.713
 5293.00    1.42917   1.39918   -1.000
 5294.00    1.42088   1.38938   -1.000
 5295.00    1.40352   1.37249   -1.000
 5296.00    1.37542   1.34825   -1.000
 5297.00    1.34116   1.32423  119.642
 5298.00    1.33350   1.31172  117.400
 5299.00    1.35208   1.31532   -1.000
 5300.00    1.37544   1.32876   -1.000
 5301.00    1.38745   1.34335   -1.000
 5302.00    1.38575   1.35713   -1.000
 5303.00    1.40602   1.37261   -1.000
 5304.00    1.43115   1.38881   -1.000
 5305.00    1.43612   1.40001   -1.000
 5306.00    1.42243   1.40273  111.051
 5307.00    1.41687   1.40047  109.882
 5308.00    1.42428   1.40006  109.176
 5309.00    1.43848   1.40441   -1.000
 5310.00    1.44929   1.41036   -1.000
 5311.00    1.45295   1.41303   -1.000
 5312.00    1.45482   1.41066   -1.000
 5313.00    1.44979   1.40416   -1.000
 5314.00    1.44587   1.39450   -1.000
 5315.00    1.43275   1.38284   -1.000
 5316.00    1.40743   1.37248   -1.000
 5317.00    1.40034   1.36818   -1.000
 5318.00    1.41580   1.37176   -1.000
 5319.00    1.42911   1.37924   -1.000
 5320.00    1.42403   1.38398   -1.000
 5321.00    1.42085   1.38139   -1.000
 5322.00    1.40467   1.37055   -1.000
 5323.00    1.39640   1.35448   -1.000
 5324.00    1.38869   1.33801   -1.000
 5325.00    1.37853   1.32135   -1.000
 5326.00    1.35996   1.29835   -1.000
 5327.00    1.30801   1.26762   -1.000
 5328.00    1.26095   1.24308  119.956
 5329.00    1.28123   1.24470   -1.000
 5330.00    1.34487   1.27569   -1.000
 5331.00    1.39081   1.31688   -1.000
 5332.00    1.40738   1.34792   -1.000
 5333.00    1.40170   1.36486   -1.000
 5334.00    1.42113   1.37392   -1.000
 5335.00    1.42775   1.37915   -1.000
 5336.00    1.41886   1.38002   -1.000
 5337.00    1.41441   1.37498   -1.000
 5338.00    1.40974   1.36348   -1.000
 5339.00    1.38614   1.34726   -1.000
 5340.00    1.36536   1.33279   -1.000
 5341.00    1.37267   1.32930   -1.000
 5342.00    1.39826   1.33968   -1.000
 5343.00    1.41800   1.35562   -1.000
 5344.00    1.42433   1.36600   -1.000
 5345.00    1.41642   1.36695   -1.000
 5346.00    1.40626   1.36168   -1.000
 5347.00    1.40126   1.35462   -1.000
 5348.00    1.40041   1.34901   -1.000
 5349.00    1.39796   1.34834   -1.000
 5350.00    1.40494   1.35563   -1.000
 5351.00    1.42840   1.36953   -1.000
 5352.00    1.44402   1.38474   -1.000
 5353.00    1.43964   1.39742   -1.000
 5354.00    1.44574   1.40785   -1.000
 5355.00    1.45895   1.41747   -1.000
 5356.00    1.46280   1.42556   -1.000
 5357.00    1.47094   1.43010   -1.000
 5358.00    1.47280   1.43034   -1.000
 5359.00    1.46816   1.42641   -1.000
 5360.00    1.46017   1.41826   -1.000
 5361.00    1.44057   1.40650   -1.000
 5362.00    1.42168   1.39312   -1.000
 5363.00    1.42038   1.38065   -1.000
 5364.00    1.41684   1.37101   -1.000
 5365.00    1.40592   1.36518   -1.000
 5366.00    1.40252   1.36263   -1.000
 5367.00    1.40709   1.35989   -1.000
 5368.00    1.40581   1.35100   -1.000
 5369.00    1.38522   1.33281   -1.000
 5370.00    1.35633   1.31102   -1.000
 5371.00    1.34018   1.29928   -1.000
 5372.00    1.36258   1.30870   -1.000
 5373.00    1.41042   1.33715   -1.000
 5374.00    1.44832   1.37045   -1.000
 5375.00    1.46034   1.39464   -1.000
 5376.00    1.46700   1.40547   -1.000
 5377.00    1.46285   1.40733   -1.000
 5378.00    1.45712   1.40562   -1.000
 5379.00    1.45008   1.40188   -1.000
 5380.00    1.43621   1.39541   -1.000
 5381.00    1.42519   1.38701   -1.000
 5382.00    1.41918   1.37987   -1.000
 5383.00    1.42279   1.37754   -1.000
 5384.00    1.43183   1.38127   -1.000
 5385.00    1.44430   1.38891   -1.000
 5386.00    1.44887   1.39580   -1.000
 5387.00    1.44430   1.39749   -1.000
 5388.00    1.44104   1.39228   -1.000
 5389.00    1.42740   1.38179   -1.000
 5390.00    1.41457   1.36967   -1.000
 5391.00    1.40864   1.35948   -1.000
 5392.00    1.40654   1.35267   -1.000
 5393.00    1.40225   1.34820   -1.000
 5394.00    1.39715   1.34287   -1.000
 5395.00    1.38624   1.33323   -1.000
 5396.00    1.36603   1.32036   -1.000
 5397.00    1.35677   1.31220   -1.000
 5398.00    1.37318   1.31689   -1.000
 5399.00    1.40168   1.33323   -1.000
 5400.00    1.41915   1.35153   -1.000
 5401.00    1.42666   1.36199   -1.000
 5402.00    1.42271   1.35897   -1.000
 5403.00    1.39726   1.34141   -1.000
 5404.00    1.35952   1.31504   -1.000
 5405.00    1.33683   1.29280   -1.000
 5406.00    1.33997   1.28659   -1.000
 5407.00    1.36824   1.29619   -1.000
 5408.00    1.39394   1.31001   -1.000
 5409.00    1.38405   1.31883   -1.000
 5410.00    1.36830   1.32519   -1.000
 5411.00    1.39037   1.33670   -1.000
 5412.00    1.41768   1.35348   -1.000
 5413.00    1.43235   1.36806   -1.000
 5414.00    1.42797   1.37618   -1.000
 5415.00    1.42044   1.38124   -1.000
 5416.00    1.43032   1.38765   -1.000
 5417.00    1.44724   1.39442   -1.000
 5418.00    1.44508   1.39738   -1.000
 5419.00    1.43698   1.39542   -1.000
 5420.00    1.43467   1.39124   -1.000
 5421.00    1.43310   1.38698   -1.000
 5422.00    1.43530   1.38201   -1.000
 5423.00    1.42649   1.37592   -1.000
 5424.00    1.41666   1.37247   -1.000
 5425.00    1.41276   1.37661   -1.000
 5426.00    1.43462   1.38580   -1.000
 5427.00    1.44244   1.38884   -1.000
 5428.00    1.42015   1.37762   -1.000
 5429.00    1.37429   1.35791  117.044
 5430.00    1.36830   1.34381   -1.000
 5431.00    1.38937   1.34146   -1.000
 5432.00    1.39936   1.34345   -1.000
 5433.00    1.38306   1.34043   -1.000
 5434.00    1.36625   1.33357   -1.000
 5435.00    1.36764   1.33274   -1.000
 5436.00    1.38965   1.34487   -1.000
 5437.00    1.41911   1.36764   -1.000
 5438.00    1.45065   1.39275   -1.000
 5439.00    1.46917   1.41271   -1.000
 5440.00    1.47061   1.42484   -1.000
 5441.00    1.47187   1.43011   -1.000
 5442.00    1.46734   1.42923   -1.000
 5443.00    1.45277   1.42001   -1.000
 5444.00    1.43254   1.39934   -1.000
 5445.00    1.40130   1.36943   -1.000
 5446.00    1.36083   1.34147  116.690
 5447.00    1.35186   1.32973  113.477
 5448.00    1.37923   1.33988   -1.000
 5449.00    1.42160   1.36377   -1.000
 5450.00    1.44313   1.38647   -1.000
 5451.00    1.44814   1.39735   -1.000
 5452.00    1.44848   1.39378   -1.000
 5453.00    1.42770   1.37773   -1.000
 5454.00    1.39260   1.35468   -1.000
 5455.00    1.36452   1.33585   -1.000
 5456.00    1.36397   1.33398   -1.000
 5457.00    1.40649   1.35200   -1.000
 5458.00    1.44553   1.37841   -1.000
 5459.00    1.45219   1.39706   -1.000
 5460.00    1.43879   1.39999   -1.000
 5461.00    1.42808   1.39014   -1.000
 5462.00    1.41105   1.37625   -1.000
 5463.00    1.41100   1.36743   -1.000
 5464.00    1.41744   1.36832   -1.000
 5465.00    1.42834   1.37676   -1.000
 5466.00    1.43980   1.38686   -1.000
 5467.00    1.44060   1.39446   -1.000
 5468.00    1.45633   1.39849   -1.000
 5469.00    1.45273   1.39891   -1.000
 5470.00    1.43526   1.39584   -1.000
 5471.00    1.42932   1.39017   -1.000
 5472.00    1.43036   1.38294   -1.000
 5473.00    1.42639   1.37377   -1.000
 5474.00    1.40582   1.36087   -1.000
 5475.00    1.38873   1.34421   -1.000
 5476.00    1.36718   1.32921   -1.000
 5477.00    1.36531   1.32517   -1.000
 5478.00    1.39515   1.33581   -1.000
 5479.00    1.42648   1.35247   -1.000
 5480.00    1.42785   1.36257   -1.000
 5481.00    1.40855   1.36365   -1.000
 5482.00    1.40208   1.36402   -1.000
 5483.00    1.41589   1.37146   -1.000
 5484.00    1.43493   1.38447   -1.000
 5485.00    1.44216   1.39485   -1.000
 5486.00    1.43733   1.39648   -1.000
 5487.00    1.42388   1.39061   -1.000
 5488.00    1.42098   1.38376   -1.000
 5489.00    1.43241   1.38153   -1.000
 5490.00    1.42934   1.38458   -1.000
 5491.00    1.43158   1.38961   -1.000
 5492.00    1.44352   1.39312   -1.000
 5493.00    1.44406   1.39388   -1.000
 5494.00    1.44468   1.39246   -1.000
 5495.00    1.44993   1.38920   -1.000
 5496.00    1.43802   1.38432   -1.000
 5497.00    1.41760   1.38020   -1.000
 5498.00    1.42137   1.38002   -1.000
 5499.00    1.44008   1.38231   -1.000
 5500.00    1.43422   1.38123   -1.000
 5501.00    1.41981   1.37466   -1.000
 5502.00    1.41131   1.36745   -1.000
 5503.00    1.42397   1.36458   -1.000
 5504.00    1.43454   1.36431   -1.000
 5505.00    1.42727   1.36167   -1.000
 5506.00    1.40793   1.35697   -1.000
 5507.00    1.40265   1.35603   -1.000
 5508.00    1.41837   1.36203   -1.000
 5509.00    1.42856   1.37023   -1.000
 5510.00    1.43364   1.37267   -1.000
 5511.00    1.42553   1.36647   -1.000
 5512.00    1.40612   1.35601   -1.000
 5513.00    1.39457   1.34850   -1.000
 5514.00    1.39661   1.34868   -1.000
 5515.00    1.41904   1.35660   -1.000
 5516.00    1.43897   1.36942   -1.000
 5517.00    1.45359   1.38406   -1.000
 5518.00    1.46571   1.39775   -1.000
 5519.00    1.47111   1.40765   -1.000
 5520.00    1.47219   1.41217   -1.000
 5521.00    1.46314   1.41243   -1.000
 5522.00    1.46300   1.41101   -1.000
 5523.00    1.46101   1.40871   -1.000
 5524.00    1.45499   1.40315   -1.000
 5525.00    1.44743   1.39106   -1.000
 5526.00    1.42372   1.37239   -1.000
 5527.00    1.40167   1.35311   -1.000
 5528.00    1.39439   1.34293   -1.000
 5529.00    1.40726   1.34802   -1.000
 5530.00    1.43445   1.36480   -1.000
 5531.00    1.44944   1.38207   -1.000
 5532.00    1.44791   1.39049   -1.000
 5533.00    1.43960   1.38913   -1.000
 5534.00    1.42918   1.38362   -1.000
 5535.00    1.42402   1.38033   -1.000
 5536.00    1.43352   1.38216   -1.000
 5537.00    1.44342   1.38808   -1.000
 5538.00    1.44825   1.39565   -1.000
 5539.00    1.46020   1.40326   -1.000
 5540.00    1.47162   1.40954   -1.000
 5541.00    1.47498   1.41227   -1.000
 5542.00    1.46239   1.41008   -1.000
 5543.00    1.44401   1.40462   -1.000
 5544.00    1.44721   1.39974   -1.000
 5545.00    1.45791   1.39824   -1.000
 5546.00    1.45684   1.40065   -1.000
 5547.00    1.46325   1.40651   -1.000
 5548.00    1.47301   1.41480   -1.000
 5549.00    1.48260   1.42286   -1.000
 5550.00    1.48273   1.42741   -1.000
 5551.00    1.47888   1.42699   -1.000
 5552.00    1.47049   1.42241   -1.000
 5553.00    1.46248   1.41601   -1.000
 5554.00    1.44691   1.41073   -1.000
 5555.00    1.45465   1.40846   -1.000
 5556.00    1.46103   1.40885   -1.000
 5557.00    1.46654   1.41016   -1.000
 5558.00    1.46315   1.41118   -1.000
 5559.00    1.46945   1.41168   -1.000
 5560.00    1.46552   1.41101   -1.000
 5561.00    1.46230   1.40801   -1.000
 5562.00    1.45393   1.40276   -1.000
 5563.00    1.44336   1.39713   -1.000
 5564.00    1.43680   1.39294   -1.000
 5565.00    1.43036   1.39024   -1.000
 5566.00    1.42822   1.38802   -1.000
 5567.00    1.42793   1.38588   -1.000
 5568.00    1.42887   1.38416   -1.000
 5569.00    1.42144   1.38325   -1.000
 5570.00    1.41831   1.38282   -1.000
 5571.00    1.42913   1.38180   -1.000
 5572.00    1.42924   1.38045   -1.000
 5573.00    1.42482   1.38121   -1.000
 5574.00    1.37421   1.38581  112.384
 5575.00    1.30208   1.39277   -1.000
 5576.00    1.30378   1.39920   -1.000
 5577.00    1.37757   1.40410  117.028
 5578.00    1.46546   1.40820   -1.000
 5579.00    1.46910   1.41145   -1.000
 5580.00    1.45968   1.41272   -1.000
 5581.00    1.45462   1.41151   -1.000
 5582.00    1.44963   1.40869   -1.000
 5583.00    1.45454   1.40460   -1.000
 5584.00    1.45979   1.39674   -1.000
 5585.00    1.43904   1.38150   -1.000
 5586.00    1.41037   1.35951   -1.000
 5587.00    1.37364   1.33769   -1.000
 5588.00    1.36222   1.32493   -1.000
 5589.00    1.37652   1.32558   -1.000
 5590.00    1.39513   1.33682   -1.000
 5591.00    1.41192   1.35119   -1.000
 5592.00    1.42374   1.36199   -1.000
 5593.00    1.41803   1.36800   -1.000
 5594.00    1.41391   1.37324   -1.000
 5595.00    1.42155   1.38093   -1.000
 5596.00    1.43605   1.38801   -1.000
 5597.00    1.43537   1.38822   -1.000
 5598.00    1.41622   1.38029   -1.000
 5599.00    1.40769   1.36889   -1.000
 5600.00    1.40938   1.35843   -1.000
 5601.00    1.40127   1.35132   -1.000
 5602.00    1.39516   1.35093   -1.000
 5603.00    1.40262   1.36117   -1.000
 5604.00    1.42539   1.38152   -1.000
 5605.00    1.45974   1.40524   -1.000
 5606.00    1.47433   1.42418   -1.000
 5607.00    1.47608   1.43479   -1.000
 5608.00    1.48301   1.43874   -1.000
 5609.00    1.48210   1.43977   -1.000
 5610.00    1.48412   1.44036   -1.000
 5611.00    1.47969   1.43956   -1.000
 5612.00    1.47392   1.43283   -1.000
 5613.00    1.46479   1.41579   -1.000
 5614.00    1.43390   1.39039   -1.000
 5615.00    1.39849   1.36755   -1.000
 5616.00    1.39297   1.35956   -1.000
 5617.00    1.42152   1.36829   -1.000
 5618.00    1.44862   1.38429   -1.000
 5619.00    1.45540   1.39761   -1.000
 5620.00    1.45546   1.40553   -1.000
 5621.00    1.46194   1.40909   -1.000
 5622.00    1.46556   1.40737   -1.000
 5623.00    1.44655   1.39921   -1.000
 5624.00    1.42379   1.38830   -1.000
 5625.00    1.41864   1.38220   -1.000
 5626.00    1.43518   1.38562   -1.000
 5627.00    1.44740   1.39617   -1.000
 5628.00    1.45661   1.40798   -1.000
 5629.00    1.46752   1.41728   -1.000
 5630.00    1.47580   1.42327   -1.000
 5631.00    1.48196   1.42616   -1.000
 5632.00    1.48200   1.42609   -1.000
 5633.00    1.47660   1.42321   -1.000
 5634.00    1.47313   1.41786   -1.000
 5635.00    1.46424   1.41068   -1.000
 5636.00    1.45633   1.40305   -1.000
 5637.00    1.45118   1.39707   -1.000
 5638.00    1.44807   1.39409   -1.000
 5639.00    1.44441   1.39299   -1.000
 5640.00    1.44191   1.39168   -1.000
 5641.00    1.44403   1.39012   -1.000
 5642.00    1.45411   1.39044   -1.000
 5643.00    1.45777   1.39373   -1.000
 5644.00    1.45727   1.39861   -1.000
 5645.00    1.46263   1.40309   -1.000
 5646.00    1.46625   1.40620   -1.000
 5647.00    1.46655   1.40756   -1.000
 5648.00    1.46728   1.40726   -1.000
 5649.00    1.46099   1.40646   -1.000
 5650.00    1.46350   1.40711   -1.000
 5651.00    1.47180   1.40977   -1.000
 5652.00    1.46736   1.41238   -1.000
 5653.00    1.46477   1.41194   -1.000
 5654.00    1.46347   1.40693   -1.000
 5655.00    1.45608   1.39709   -1.000
 5656.00    1.44336   1.38217   -1.000
 5657.00    1.41513   1.36423   -1.000
 5658.00    1.38186   1.35014   -1.000
 5659.00    1.38451   1.34709   -1.000
 5660.00    1.41646   1.35479   -1.000
 5661.00    1.43324   1.36562   -1.000
 5662.00    1.42998   1.37435   -1.000
 5663.00    1.43391   1.38281   -1.000
 5664.00    1.45444   1.39279   -1.000
 5665.00    1.46374   1.40039   -1.000
 5666.00    1.45675   1.40101   -1.000
 5667.00    1.44895   1.39589   -1.000
 5668.00    1.44455   1.39080   -1.000
 5669.00    1.44390   1.39038   -1.000
 5670.00    1.45078   1.39527   -1.000
 5671.00    1.46243   1.40357   -1.000
 5672.00    1.46560   1.41274   -1.000
 5673.00    1.47953   1.42021   -1.000
 5674.00    1.48175   1.42443   -1.000
 5675.00    1.47757   1.42591   -1.000
 5676.00    1.47776   1.42625   -1.000
 5677.00    1.48515   1.42594   -1.000
 5678.00    1.47967   1.42403   -1.000
 5679.00    1.47493   1.41952   -1.000
 5680.00    1.46656   1.41228   -1.000
 5681.00    1.45833   1.40285   -1.000
 5682.00    1.44947   1.39299   -1.000
 5683.00    1.44439   1.38607   -1.000
 5684.00    1.44174   1.38445   -1.000
 5685.00    1.44475   1.38640   -1.000
 5686.00    1.44087   1.38784   -1.000
 5687.00    1.43233   1.38729   -1.000
 5688.00    1.43286   1.38726   -1.000
 5689.00    1.44734   1.39093   -1.000
 5690.00    1.46123   1.39879   -1.000
 5691.00    1.46893   1.40836   -1.000
 5692.00    1.47207   1.41642   -1.000
 5693.00    1.47346   1.42106   -1.000
 5694.00    1.47605   1.42232   -1.000
 5695.00    1.47707   1.42132   -1.000
 5696.00    1.47208   1.41861   -1.000
 5697.00    1.46871   1.41392   -1.000
 5698.00    1.45779   1.40727   -1.000
 5699.00    1.44513   1.39954   -1.000
 5700.00    1.43706   1.39215   -1.000
 5701.00    1.42617   1.38698   -1.000
 5702.00    1.42322   1.38598   -1.000
 5703.00    1.42943   1.38899   -1.000
 5704.00    1.43583   1.39216   -1.000
 5705.00    1.43587   1.39068   -1.000
 5706.00    1.42430   1.38279   -1.000
 5707.00    1.40718   1.37054   -1.000
 5708.00    1.39515   1.35783   -1.000
 5709.00    1.38813   1.34848   -1.000
 5710.00    1.38181   1.34555   -1.000
 5711.00    1.39149   1.35070   -1.000
 5712.00    1.41938   1.36339   -1.000
 5713.00    1.44484   1.38048   -1.000
 5714.00    1.46032   1.39685   -1.000
 5715.00    1.46375   1.40864   -1.000
 5716.00    1.46138   1.41581   -1.000
 5717.00    1.46116   1.42066   -1.000
 5718.00    1.46867   1.42510   -1.000
 5719.00    1.48168   1.42990   -1.000
 5720.00    1.48618   1.43488   -1.000
 5721.00    1.48795   1.43934   -1.000
 5722.00    1.48553   1.44265   -1.000
 5723.00    1.49204   1.44414   -1.000
 5724.00    1.49355   1.44266   -1.000
 5725.00    1.48126   1.43743   -1.000
 5726.00    1.46541   1.42995   -1.000
 5727.00    1.46181   1.42398   -1.000
 5728.00    1.46781   1.42212   -1.000
 5729.00    1.47251   1.42317   -1.000
 5730.00    1.47819   1.42410   -1.000
 5731.00    1.47268   1.42429   -1.000
 5732.00    1.47271   1.42605   -1.000
 5733.00    1.47864   1.43094   -1.000
 5734.00    1.48900   1.43701   -1.000
 5735.00    1.48339   1.44072   -1.000
 5736.00    1.47922   1.44087   -1.000
 5737.00    1.48268   1.43910   -1.000
 5738.00    1.48401   1.43739   -1.000
 5739.00    1.47778   1.43644   -1.000
 5740.00    1.47516   1.43580   -1.000
 5741.00    1.47897   1.43495   -1.000
 5742.00    1.47559   1.43445   -1.000
 5743.00    1.47485   1.43562   -1.000
 5744.00    1.47908   1.43860   -1.000
 5745.00    1.48637   1.44109   -1.000
 5746.00    1.48625   1.44024   -1.000
 5747.00    1.47600   1.43638   -1.000
 5748.00    1.46731   1.43331   -1.000
 5749.00    1.47114   1.43355   -1.000
 5750.00    1.47435   1.43436   -1.000
 5751.00    1.47296   1.43052   -1.000
 5752.00    1.45732   1.42080   -1.000
 5753.00    1.44169   1.41071   -1.000
 5754.00    1.44433   1.40803   -1.000
 5755.00    1.46218   1.41568   -1.000
 5756.00    1.48006   1.42935   -1.000
 5757.00    1.48430   1.44143   -1.000
 5758.00    1.48129   1.44627   -1.000
 5759.00    1.47966   1.44240   -1.000
 5760.00    1.47337   1.43224   -1.000
 5761.00    1.45985   1.42099   -1.000
 5762.00    1.45461   1.41478   -1.000
 5763.00    1.45789   1.41781   -1.000
 5764.00    1.46499   1.42923   -1.000
 5765.00    1.47884   1.44291   -1.000
 5766.00    1.49231   1.45252   -1.000
 5767.00    1.49436   1.45630   -1.000
 5768.00    1.48529   1.45611   -1.000
 5769.00    1.48640   1.45392   -1.000
 5770.00    1.48728   1.45063   -1.000
 5771.00    1.48095   1.44658   -1.000
 5772.00    1.47669   1.44217   -1.000
 5773.00    1.46908   1.43804   -1.000
 5774.00    1.46803   1.43502   -1.000
 5775.00    1.46662   1.43382   -1.000
 5776.00    1.46778   1.43407   -1.000
 5777.00    1.45401   1.43341  114.947
 5778.00    1.43861   1.42855  117.544
 5779.00    1.42225   1.41803  118.729
 5780.00    1.41845   1.40395  118.290
 5781.00    1.41917   1.39097   -1.000
 5782.00    1.43440   1.38313   -1.000
 5783.00    1.44831   1.38109   -1.000
 5784.00    1.44582   1.38292   -1.000
 5785.00    1.45035   1.38756   -1.000
 5786.00    1.46160   1.39553   -1.000
 5787.00    1.46884   1.40597   -1.000
 5788.00    1.47402   1.41539   -1.000
 5789.00    1.47477   1.42073   -1.000
 5790.00    1.47559   1.42211   -1.000
 5791.00    1.46909   1.42288   -1.000
 5792.00    1.46588   1.42672   -1.000
 5793.00    1.46904   1.43421   -1.000
 5794.00    1.46967   1.44219   -1.000
 5795.00    1.47676   1.44644   -1.000
 5796.00    1.48197   1.44527   -1.000
 5797.00    1.48097   1.44138   -1.000
 5798.00    1.48175   1.44009   -1.000
 5799.00    1.49170   1.44458   -1.000
 5800.00    1.50682   1.45272   -1.000
 5801.00    1.50940   1.45924   -1.000
 5802.00    1.50517   1.46015   -1.000
 5803.00    1.49655   1.45539   -1.000
 5804.00    1.48806   1.44840   -1.000
 5805.00    1.48443   1.44344   -1.000
 5806.00    1.48856   1.44266   -1.000
 5807.00    1.49350   1.44528   -1.000
 5808.00    1.49322   1.44918   -1.000
 5809.00    1.49465   1.45282   -1.000
 5810.00    1.50542   1.45569   -1.000
 5811.00    1.50720   1.45736   -1.000
 5812.00    1.50626   1.45693   -1.000
 5813.00    1.50668   1.45365   -1.000
 5814.00    1.49615   1.44796   -1.000
 5815.00    1.48818   1.44230   -1.000
 5816.00    1.48874   1.44032   -1.000
 5817.00    1.49052   1.44413   -1.000
 5818.00    1.49794   1.45197   -1.000
 5819.00    1.51187   1.45963   -1.000
 5820.00    1.51609   1.46418   -1.000
 5821.00    1.51288   1.46539   -1.000
 5822.00    1.51179   1.46454   -1.000
 5823.00    1.51542   1.46307   -1.000
 5824.00    1.51324   1.46208   -1.000
 5825.00    1.50884   1.46208   -1.000
 5826.00    1.50929   1.46311   -1.000
 5827.00    1.51428   1.46489   -1.000
 5828.00    1.51785   1.46700   -1.000
 5829.00    1.51773   1.46870   -1.000
 5830.00    1.52193   1.46920   -1.000
 5831.00    1.51653   1.46819   -1.000
 5832.00    1.51830   1.46590   -1.000
 5833.00    1.51283   1.46276   -1.000
 5834.00    1.50077   1.45965   -1.000
 5835.00    1.50914   1.45789   -1.000
 5836.00    1.51194   1.45806   -1.000
 5837.00    1.51722   1.45944   -1.000
 5838.00    1.51210   1.46141   -1.000
 5839.00    1.51380   1.46417   -1.000
 5840.00    1.51605   1.46761   -1.000
 5841.00    1.51667   1.47041   -1.000
 5842.00    1.52173   1.47099   -1.000
 5843.00    1.51979   1.46868   -1.000
 5844.00    1.51851   1.46399   -1.000
 5845.00    1.51036   1.45811   -1.000
 5846.00    1.49829   1.45238   -1.000
 5847.00    1.49281   1.44810   -1.000
 5848.00    1.49428   1.44598   -1.000
 5849.00    1.49061   1.44499   -1.000
 5850.00    1.49151   1.44248   -1.000
 5851.00    1.49587   1.43634   -1.000
 5852.00    1.47824   1.42753   -1.000
 5853.00    1.46754   1.41954   -1.000
 5854.00    1.46634   1.41439   -1.000
 5855.00    1.46131   1.40998   -1.000
 5856.00    1.45739   1.40327   -1.000
 5857.00    1.45034   1.39588   -1.000
 5858.00    1.45106   1.39354   -1.000
 5859.00    1.46154   1.39936   -1.000
 5860.00    1.47430   1.41018   -1.000
 5861.00    1.48101   1.42027   -1.000
 5862.00    1.49037   1.42670   -1.000
 5863.00    1.49088   1.42984   -1.000
 5864.00    1.48603   1.43055   -1.000
 5865.00    1.48195   1.42909   -1.000
 5866.00    1.47670   1.42685   -1.000
 5867.00    1.47658   1.42694   -1.000
 5868.00    1.48411   1.43138   -1.000
 5869.00    1.49788   1.43850   -1.000
 5870.00    1.50623   1.44441   -1.000
 5871.00    1.50478   1.44668   -1.000
 5872.00    1.50239   1.44570   -1.000
 5873.00    1.50139   1.44339   -1.000
 5874.00    1.50098   1.44116   -1.000
 5875.00    1.50150   1.43911   -1.000
 5876.00    1.49713   1.43645   -1.000
 5877.00    1.49463   1.43229   -1.000
 5878.00    1.48749   1.42640   -1.000
 5879.00    1.48159   1.41986   -1.000
 5880.00    1.47188   1.41452   -1.000
 5881.00    1.46821   1.41136   -1.000
 5882.00    1.47493   1.40944   -1.000
 5883.00    1.47280   1.40707   -1.000
 5884.00    1.46313   1.40327   -1.000
 5885.00    1.44404   1.39612   -1.000
 5886.00    1.40521   1.37949   -1.000
 5887.00    1.31957   1.34542   -1.000
 5888.00    1.24010   1.29450   -1.000
 5889.00    1.21065   1.24364   -1.000
 5890.00    1.24710   1.21721   -1.000
 5891.00    1.31525   1.22533   -1.000
 5892.00    1.34821   1.25277   -1.000
 5893.00    1.32140   1.27250   -1.000
 5894.00    1.28085   1.27026  130.884
 5895.00    1.26301   1.25544  126.631
 5896.00    1.30117   1.25033   -1.000
 5897.00    1.35778   1.26826   -1.000
 5898.00    1.40232   1.30263   -1.000
 5899.00    1.43687   1.33780   -1.000
 5900.00    1.45538   1.36474   -1.000
 5901.00    1.47094   1.38313   -1.000
 5902.00    1.47412   1.39509   -1.000
 5903.00    1.47388   1.40214   -1.000
 5904.00    1.47641   1.40573   -1.000
 5905.00    1.47511   1.40763   -1.000
 5906.00    1.46785   1.40958   -1.000
 5907.00    1.46488   1.41243   -1.000
 5908.00    1.47198   1.41580   -1.000
 5909.00    1.47823   1.41864   -1.000
 5910.00    1.47374   1.41983   -1.000
 5911.00    1.46959   1.41806   -1.000
 5912.00    1.46761   1.41224   -1.000
 5913.00    1.45456   1.40307   -1.000
 5914.00    1.44068   1.39389   -1.000
 5915.00    1.43365   1.38882   -1.000
 5916.00    1.43874   1.38976   -1.000
 5917.00    1.44582   1.39538   -1.000
 5918.00    1.45313   1.40273   -1.000
 5919.00    1.46038   1.40912   -1.000
 5920.00    1.46442   1.41304   -1.000
 5921.00    1.46348   1.41450   -1.000
 5922.00    1.46103   1.41487   -1.000
 5923.00    1.46138   1.41599   -1.000
 5924.00    1.47433   1.41869   -1.000
 5925.00    1.47992   1.42202   -1.000
 5926.00    1.47890   1.42386   -1.000
 5927.00    1.48015   1.42245   -1.000
 5928.00    1.47233   1.41789   -1.000
 5929.00    1.46335   1.41284   -1.000
 5930.00    1.45977   1.41093   -1.000
 5931.00    1.46474   1.41312   -1.000
 5932.00    1.47522   1.41637   -1.000
 5933.00    1.47771   1.41701   -1.000
 5934.00    1.47077   1.41510   -1.000
 5935.00    1.46568   1.41404   -1.000
 5936.00    1.46096   1.41630   -1.000
 5937.00    1.46479   1.42051   -1.000
 5938.00    1.46193   1.42299   -1.000
 5939.00    1.45709   1.42134   -1.000
 5940.00    1.45663   1.41627   -1.000
 5941.00    1.45634   1.41098   -1.000
 5942.00    1.45468   1.40886   -1.000
 5943.00    1.45657   1.41115   -1.000
 5944.00    1.46429   1.41600   -1.000
 5945.00    1.46821   1.41991   -1.000
 5946.00    1.46980   1.42011   -1.000
 5947.00    1.46045   1.41656   -1.000
 5948.00    1.45285   1.41207   -1.000
 5949.00    1.45535   1.41006   -1.000
 5950.00    1.46117   1.41105   -1.000
 5951.00    1.46613   1.41253   -1.000
 5952.00    1.45504   1.41264   -1.000
 5953.00    1.45454   1.41207   -1.000
 5954.00    1.45697   1.41173   -1.000
 5955.00    1.45516   1.41099   -1.000
 5956.00    1.44834   1.40957   -1.000
 5957.00    1.44824   1.40933   -1.000
 5958.00    1.45484   1.41259   -1.000
 5959.00    1.47017   1.41925   -1.000
 5960.00    1.47731   1.42676   -1.000
 5961.00    1.47956   1.43238   -1.000
 5962.00    1.48423   1.43473   -1.000
 5963.00    1.48634   1.43380   -1.000
 5964.00    1.47320   1.43062   -1.000
 5965.00    1.46591   1.42711   -1.000
 5966.00    1.46390   1.42545   -1.000
 5967.00    1.46882   1.42672   -1.000
 5968.00    1.48001   1.43006   -1.000
 5969.00    1.48676   1.43379   -1.000
 5970.00    1.48816   1.43681   -1.000
 5971.00    1.48913   1.43850   -1.000
 5972.00    1.47968   1.43821   -1.000
 5973.00    1.47038   1.43533   -1.000
 5974.00    1.46790   1.42967   -1.000
 5975.00    1.46324   1.42213   -1.000
 5976.00    1.45442   1.41521   -1.000
 5977.00    1.45354   1.41188   -1.000
 5978.00    1.46093   1.41345   -1.000
 5979.00    1.46565   1.41846   -1.000
 5980.00    1.47499   1.42327   -1.000
 5981.00    1.47223   1.42394   -1.000
 5982.00    1.46272   1.41896   -1.000
 5983.00    1.45061   1.41083   -1.000
 5984.00    1.44451   1.40471   -1.000
 5985.00    1.45128   1.40441   -1.000
 5986.00    1.45682   1.40959   -1.000
 5987.00    1.46239   1.41676   -1.000
 5988.00    1.47311   1.42261   -1.000
 5989.00    1.47911   1.42573   -1.000
 5990.00    1.47294   1.42667   -1.000
 5991.00    1.47178   1.42761   -1.000
 5992.00    1.47731   1.43082   -1.000
 5993.00    1.47902   1.43597   -1.000
 5994.00    1.48486   1.43970   -1.000
 5995.00    1.48681   1.43899   -1.000
 5996.00    1.47963   1.43425   -1.000
 5997.00    1.47209   1.42890   -1.000
 5998.00    1.46977   1.42622   -1.000
 5999.00    1.47246   1.42662   -1.000
 6000.00    1.47168   1.42780   -1.000
 6001.00    1.46948   1.42741   -1.000
 6002.00    1.46300   1.42531   -1.000
 6003.00    1.45358   1.42313   -1.000
 6004.00    1.45925   1.42152   -1.000
 6005.00    1.45586   1.41883   -1.000
 6006.00    1.44800   1.41350   -1.000
 6007.00    1.43669   1.40765   -1.000
 6008.00    1.43351   1.40599   -1.000
 6009.00    1.43916   1.41069   -1.000
 6010.00    1.45720   1.41822   -1.000
 6011.00    1.46442   1.42281   -1.000
 6012.00    1.45698   1.42249   -1.000
 6013.00    1.45523   1.42003   -1.000
 6014.00    1.46084   1.41855   -1.000
 6015.00    1.46534   1.41830   -1.000
 6016.00    1.46097   1.41787   -1.000
 6017.00    1.45512   1.41647   -1.000
 6018.00    1.45628   1.41415   -1.000
 6019.00    1.45332   1.41119   -1.000
 6020.00    1.44673   1.40857   -1.000
 6021.00    1.44327   1.40793   -1.000
 6022.00    1.44503   1.40994   -1.000
 6023.00    1.44872   1.41396   -1.000
 6024.00    1.44577   1.41922   -1.000
 6025.00    1.45225   1.42512   -1.000
 6026.00    1.45824   1.43077   -1.000
 6027.00    1.46137   1.43557   -1.000
 6028.00    1.47165   1.43958   -1.000
 6029.00    1.47796   1.44288   -1.000
 6030.00    1.47598   1.44539   -1.000
 6031.00    1.47468   1.44742   -1.000
 6032.00    1.47726   1.44962   -1.000
 6033.00    1.47900   1.45205   -1.000
 6034.00    1.47927   1.45420   -1.000
 6035.00    1.47525   1.45546  113.178
 6036.00    1.47733   1.45524   -1.000
 6037.00    1.47467   1.45322   -1.000
 6038.00    1.47683   1.44972   -1.000
 6039.00    1.47220   1.44576   -1.000
 6040.00    1.46684   1.44270   -1.000
 6041.00    1.46742   1.44148   -1.000
 6042.00    1.46705   1.44243   -1.000
 6043.00    1.47032   1.44558   -1.000
 6044.00    1.47130   1.45050   -1.000
 6045.00    1.47545   1.45570   -1.000
 6046.00    1.48103   1.45950   -1.000
 6047.00    1.48512   1.46145   -1.000
 6048.00    1.48810   1.46186   -1.000
 6049.00    1.48494   1.46111   -1.000
 6050.00    1.48313   1.45941   -1.000
 6051.00    1.48121   1.45678   -1.000
 6052.00    1.47958   1.45312   -1.000
 6053.00    1.47557   1.44863   -1.000
 6054.00    1.46768   1.44396   -1.000
 6055.00    1.46176   1.43994   -1.000
 6056.00    1.46631   1.43760   -1.000
 6057.00    1.45940   1.43783   -1.000
 6058.00    1.42186   1.44041  113.977
 6059.00    1.43300   1.44377  114.547
 6060.00    1.46357   1.44557  116.513
 6061.00    1.25306   1.44355   -1.000
 6062.00    0.80814   1.43674   -1.000
 6063.00    0.99385   1.42673   -1.000
 6064.00    1.44118   1.41779   39.560
 6065.00    1.40942   1.41507  129.052
 6066.00    1.42111   1.42104  113.984
 6067.00    1.47722   1.43322   -1.000
 6068.00    1.49582   1.44597   -1.000
 6069.00    1.48039   1.45504   -1.000
 6070.00    1.48597   1.45990   -1.000
 6071.00    1.48441   1.46189   -1.000
 6072.00    1.47869   1.46219  112.992
 6073.00    1.47896   1.46155  113.461
 6074.00    1.47835   1.46018  114.086
 6075.00    1.47307   1.45731  114.799
 6076.00    1.46273   1.45198  115.678
 6077.00    1.45401   1.44502  116.206
 6078.00    1.45160   1.43870  116.206
 6079.00    1.44769   1.43445  116.382
 6080.00    1.45140   1.43177   -1.000
 6081.00    1.44878   1.42942  116.591
 6082.00    1.44425   1.42733  116.494
 6083.00    1.43877   1.42644  116.315
 6084.00    1.44227   1.42716  115.920
 6085.00    1.44879   1.42911   -1.000
 6086.00    1.45160   1.43175   -1.000
 6087.00    1.45356   1.43403   -1.000
 6088.00    1.45123   1.43437  117.062
 6089.00    1.44542   1.43204  116.775
 6090.00    1.44207   1.42843  115.991
 6091.00    1.43850   1.42623  115.425
 6092.00    1.44237   1.42727  114.792
 6093.00    1.44798   1.43128  114.444
 6094.00    1.45258   1.43655  114.605
 6095.00    1.45620   1.44126  114.861
 6096.00    1.45885   1.44452  114.890
 6097.00    1.45810   1.44649  115.221
 6098.00    1.45919   1.44677  117.110
 6099.00    1.46104   1.44296  119.911
 6100.00    1.44476   1.43227  121.020
 6101.00    1.42334   1.41585  119.496
 6102.00    1.40482   1.40095  117.206
 6103.00    1.39849   1.39617  115.840
 6104.00    1.41568   1.40364  115.786
 6105.00    1.43424   1.41713  116.268
 6106.00    1.44412   1.42903  116.443
 6107.00    1.44607   1.43655  116.311
 6108.00    1.43946   1.44103  115.976
 6109.00    1.43569   1.44390  115.556
 6110.00    1.44560   1.44530  115.448
 6111.00    1.44374   1.44551  114.838
 6112.00    1.44423   1.44587  114.787
 6113.00    1.45275   1.44712  115.387
 6114.00    1.45600   1.44830  116.030
 6115.00    1.45185   1.44816  116.217
 6116.00    1.44621   1.44654  117.115
 6117.00    1.43988   1.44303  118.898
 6118.00    1.43765   1.43574  120.302
 6119.00    1.42923   1.42317  121.148
 6120.00    1.41493   1.40751  120.614
 6121.00    1.40178   1.39477  118.545
 6122.00    1.39352   1.39097  117.464
 6123.00    1.40631   1.39781  117.762
 6124.00    1.42130   1.41036  118.302
 6125.00    1.42553   1.42082  118.020
 6126.00    1.42584   1.42521  117.587
 6127.00    1.42073   1.42511  116.507
 6128.00    1.42069   1.42498  115.616
 6129.00    1.43034   1.42865  115.589
 6130.00    1.43733   1.43625  116.069
 6131.00    1.44246   1.44372  117.648
 6132.00    1.43647   1.44569  120.692
 6133.00    1.42796   1.43818  124.218
 6134.00    1.41174   1.41971  126.569
 6135.00    1.38123   1.39381  125.723
 6136.00    1.35230   1.37061  122.125
 6137.00    1.33988   1.36154  119.206
 6138.00    1.35673   1.36932  118.502
 6139.00    1.38631   1.38507  118.844
 6140.00    1.40395   1.39761  118.655
 6141.00    1.39847   1.40440  117.246
 6142.00    1.39849   1.41070  116.152
 6143.00    1.41740   1.42024  116.296
 6144.00    1.42850   1.43024  116.946
 6145.00    1.43350   1.43585  117.733
 6146.00    1.43410   1.43530  118.554
 6147.00    1.42881   1.43031  119.048
 6148.00    1.42248   1.42412  118.867
 6149.00    1.41222   1.41984  118.286
 6150.00    1.40885   1.41925  117.598
 6151.00    1.41546   1.42180  117.835
 6152.00    1.41796   1.42486  118.854
 6153.00    1.42011   1.42556  119.263
 6154.00    1.42148   1.42299  119.407
 6155.00    1.41733   1.41878  120.162
 6156.00    1.41173   1.41491  121.791
 6157.00    1.39992   1.41089  124.585
 6158.00    1.39252   1.40318  128.481
 6159.00    1.38398   1.38772  131.515
 6160.00    1.35978   1.36430  131.640
 6161.00    1.32734   1.33970  128.915
 6162.00    1.31054   1.32484  125.634
 6163.00    1.31636   1.32624  124.276
 6164.00    1.33927   1.34063  124.096
 6165.00    1.36151   1.35801  124.846
 6166.00    1.36661   1.36951  126.522
 6167.00    1.35847   1.37160  127.138
 6168.00    1.35422   1.36669  125.543
 6169.00    1.34118   1.36139  123.153
 6170.00    1.33835   1.36264  122.028
 6171.00    1.35273   1.37197  122.333
 6172.00    1.36705   1.38447  122.288
 6173.00    1.37432   1.39443  121.964
 6174.00    1.37885   1.40022  121.720
 6175.00    1.38441   1.40340  121.300
 6176.00    1.38490   1.40570  120.714
 6177.00    1.38723   1.40807  120.315
 6178.00    1.38765   1.41080  119.884
 6179.00    1.38777   1.41359  119.374
 6180.00    1.39190   1.41639  119.255
 6181.00    1.39632   1.41940  119.604
 6182.00    1.40011   1.42208  120.186
 6183.00    1.39845   1.42297  121.311
 6184.00    1.39420   1.42099  122.655
 6185.00    1.38998   1.41607  123.879
 6186.00    1.38629   1.40883  124.970
 6187.00    1.37847   1.40013  126.047
 6188.00    1.36256   1.39016   -1.000
 6189.00    1.35378   1.37872  127.625
 6190.00    1.34258   1.36785  125.458
 6191.00    1.32921   1.36277   -1.000
 6192.00    1.33432   1.36780   -1.000
 6193.00    1.35839   1.38150  120.514
 6194.00    1.37956   1.39730  120.657
 6195.00    1.38594   1.40908  121.731
 6196.00    1.39005   1.41435  123.090
 6197.00    1.38378   1.41331   -1.000
 6198.00    1.37099   1.40797   -1.000
 6199.00    1.35758   1.40257   -1.000
 6200.00    1.35575   1.40169   -1.000
 6201.00    1.36149   1.40663   -1.000
 6202.00    1.37437   1.41445   -1.000
 6203.00    1.38103   1.42135   -1.000
 6204.00    1.38750   1.42576   -1.000
 6205.00    1.39773   1.42815   -1.000
 6206.00    1.39763   1.42958   -1.000
 6207.00    1.39294   1.43015   -1.000
 6208.00    1.39227   1.42914   -1.000
 6209.00    1.38787   1.42562   -1.000
 6210.00    1.37643   1.41894   -1.000
 6211.00    1.36618   1.40882   -1.000
 6212.00    1.35501   1.39600   -1.000
 6213.00    1.34635   1.38315   -1.000
 6214.00    1.33853   1.37408   -1.000
 6215.00    1.33900   1.37092   -1.000
 6216.00    1.34341   1.37199   -1.000
 6217.00    1.34953   1.37362  125.839
 6218.00    1.35121   1.37341  125.388
 6219.00    1.34286   1.37222   -1.000
 6220.00    1.34363   1.37265   -1.000
 6221.00    1.34951   1.37601  128.501
 6222.00    1.36008   1.38091  124.248
 6223.00    1.36539   1.38519  124.688
 6224.00    1.36278   1.38808  124.890
 6225.00    1.36570   1.38964  125.978
 6226.00    1.36644   1.38881  127.920
 6227.00    1.36045   1.38337  129.931
 6228.00    1.34976   1.37213  130.866
 6229.00    1.33060   1.35750   -1.000
 6230.00    1.31355   1.34573   -1.000
 6231.00    1.31250   1.34323   -1.000
 6232.00    1.32157   1.35179   -1.000
 6233.00    1.34161   1.36710  123.595
 6234.00    1.36246   1.38216  124.689
 6235.00    1.36770   1.39105  125.983
 6236.00    1.36313   1.39152   -1.000
 6237.00    1.35864   1.38528   -1.000
 6238.00    1.35084   1.37654   -1.000
 6239.00    1.33966   1.36902   -1.000
 6240.00    1.32976   1.36415   -1.000
 6241.00    1.32554   1.36081   -1.000
 6242.00    1.32717   1.35702   -1.000
 6243.00    1.32393   1.35222   -1.000
 6244.00    1.32052   1.34835   -1.000
 6245.00    1.31837   1.34830   -1.000
 6246.00    1.31772   1.35368   -1.000
 6247.00    1.32741   1.36352   -1.000
 6248.00    1.34158   1.37387   -1.000
 6249.00    1.34691   1.37934   -1.000
 6250.00    1.34051   1.37669   -1.000
 6251.00    1.32644   1.36697   -1.000
 6252.00    1.31334   1.35497   -1.000
 6253.00    1.30363   1.34591   -1.000
 6254.00    1.29686   1.34148   -1.000
 6255.00    1.29320   1.33953   -1.000
 6256.00    1.29272   1.33778   -1.000
 6257.00    1.29338   1.33678   -1.000
 6258.00    1.29413   1.33933   -1.000
 6259.00    1.30324   1.34744   -1.000
 6260.00    1.31824   1.35988   -1.000
 6261.00    1.32781   1.37315   -1.000
 6262.00    1.33775   1.38355   -1.000
 6263.00    1.34565   1.38905   -1.000
 6264.00    1.33865   1.39020   -1.000
 6265.00    1.32925   1.38973   -1.000
 6266.00    1.32927   1.39008   -1.000
 6267.00    1.33661   1.39120   -1.000
 6268.00    1.34092   1.39147   -1.000
 6269.00    1.33685   1.39048   -1.000
 6270.00    1.33818   1.38960   -1.000
 6271.00    1.34012   1.38955   -1.000
 6272.00    1.33482   1.38899   -1.000
 6273.00    1.31998   1.38570   -1.000
 6274.00    1.29305   1.37863   -1.000
 6275.00    1.26870   1.36868   -1.000
 6276.00    1.25869   1.35777   -1.000
 6277.00    1.26470   1.34780   -1.000
 6278.00    1.26765   1.34022   -1.000
 6279.00    1.26185   1.33652   -1.000
 6280.00    1.25254   1.33804   -1.000
 6281.00    1.25168   1.34549   -1.000
 6282.00    1.26481   1.35752   -1.000
 6283.00    1.28407   1.37111   -1.000
 6284.00    1.30039   1.38329   -1.000
 6285.00    1.31500   1.39264   -1.000
 6286.00    1.32819   1.39904   -1.000
 6287.00    1.33316   1.40255   -1.000
 6288.00    1.33645   1.40264   -1.000
 6289.00    1.33377   1.39928   -1.000
 6290.00    1.33115   1.39383   -1.000
 6291.00    1.32582   1.38861   -1.000
 6292.00    1.32092   1.38497   -1.000
 6293.00    1.32587   1.38239   -1.000
 6294.00    1.33121   1.37909   -1.000
 6295.00    1.32773   1.37398   -1.000
 6296.00    1.33007   1.36797   -1.000
 6297.00    1.33226   1.36336   -1.000
 6298.00    1.32072   1.36129   -1.000
 6299.00    1.30511   1.36054   -1.000
 6300.00    1.30136   1.35960   -1.000
 6301.00    1.30082   1.35924   -1.000
 6302.00    1.30688   1.36191   -1.000
 6303.00    1.32309   1.36870   -1.000
 6304.00    1.32724   1.37792   -1.000
 6305.00    1.33006   1.38709   -1.000
 6306.00    1.33840   1.39488   -1.000
 6307.00    1.34529   1.40059   -1.000
 6308.00    1.34875   1.40350   -1.000
 6309.00    1.34582   1.40330   -1.000
 6310.00    1.34342   1.40084   -1.000
 6311.00    1.33590   1.39727   -1.000
 6312.00    1.33005   1.39299   -1.000
 6313.00    1.32639   1.38781   -1.000
 6314.00    1.32067   1.38190   -1.000
 6315.00    1.31543   1.37616   -1.000
 6316.00    1.31937   1.37176   -1.000
 6317.00    1.32234   1.36974   -1.000
 6318.00    1.32340   1.37122   -1.000
 6319.00    1.33207   1.37693   -1.000
 6320.00    1.33690   1.38540   -1.000
 6321.00    1.33899   1.39386   -1.000
 6322.00    1.33815   1.40097   -1.000
 6323.00    1.34442   1.40715   -1.000
 6324.00    1.34894   1.41244   -1.000
 6325.00    1.35651   1.41600   -1.000
 6326.00    1.36052   1.41744   -1.000
 6327.00    1.35711   1.41750   -1.000
 6328.00    1.35789   1.41723   -1.000
 6329.00    1.36248   1.41741   -1.000
 6330.00    1.38428   1.41835   -1.000
 6331.00    1.40021   1.41943  122.166
 6332.00    1.36285   1.41849   -1.000
 6333.00    1.35735   1.41300   -1.000
 6334.00    1.34474   1.40316   -1.000
 6335.00    1.32590   1.39319   -1.000
 6336.00    1.32745   1.38839   -1.000
 6337.00    1.33743   1.39096   -1.000
 6338.00    1.34768   1.39869   -1.000
 6339.00    1.35653   1.40739   -1.000
 6340.00    1.36579   1.41365   -1.000
 6341.00    1.36785   1.41553   -1.000
 6342.00    1.36590   1.41319   -1.000
 6343.00    1.35895   1.40905   -1.000
 6344.00    1.35826   1.40649   -1.000
 6345.00    1.36114   1.40767   -1.000
 6346.00    1.36525   1.41241   -1.000
 6347.00    1.37057   1.41911   -1.000
 6348.00    1.37270   1.42608   -1.000
 6349.00    1.37860   1.43171   -1.000
 6350.00    1.37925   1.43458   -1.000
 6351.00    1.37654   1.43385   -1.000
 6352.00    1.37366   1.42967   -1.000
 6353.00    1.36224   1.42322   -1.000
 6354.00    1.35320   1.41641   -1.000
 6355.00    1.34649   1.41066   -1.000
 6356.00    1.34570   1.40580   -1.000
 6357.00    1.34481   1.40050   -1.000
 6358.00    1.33845   1.39448   -1.000
 6359.00    1.33748   1.38899   -1.000
 6360.00    1.34370   1.38516   -1.000
 6361.00    1.34683   1.38320   -1.000
 6362.00    1.33555   1.38351   -1.000
 6363.00    1.32955   1.38686   -1.000
 6364.00    1.33620   1.39317   -1.000
 6365.00    1.34435   1.40115   -1.000
 6366.00    1.35083   1.40904   -1.000
 6367.00    1.35215   1.41530   -1.000
 6368.00    1.35462   1.41900   -1.000
 6369.00    1.35772   1.42036   -1.000
 6370.00    1.36319   1.42098   -1.000
 6371.00    1.36112   1.42287   -1.000
 6372.00    1.35739   1.42647   -1.000
 6373.00    1.35662   1.43047   -1.000
 6374.00    1.34777   1.43304   -1.000
 6375.00    1.34077   1.43323   -1.000
 6376.00    1.33718   1.43121   -1.000
 6377.00    1.33553   1.42762   -1.000
 6378.00    1.33224   1.42335   -1.000
 6379.00    1.32712   1.41964   -1.000
 6380.00    1.32383   1.41750   -1.000
 6381.00    1.32439   1.41711   -1.000
 6382.00    1.32125   1.41802   -1.000
 6383.00    1.31802   1.41956   -1.000
 6384.00    1.31612   1.42140   -1.000
 6385.00    1.31709   1.42364   -1.000
 6386.00    1.31271   1.42605   -1.000
 6387.00    1.30377   1.42786   -1.000
 6388.00    1.29413   1.42802   -1.000
 6389.00    1.28580   1.42553   -1.000
 6390.00    1.27907   1.41948   -1.000
 6391.00    1.26999   1.41012   -1.000
 6392.00    1.25541   1.40050   -1.000
 6393.00    1.23773   1.39569   -1.000
 6394.00    1.23404   1.39884   -1.000
 6395.00    1.23856   1.40747   -1.000
 6396.00    1.24192   1.41455   -1.000
 6397.00    1.23949   1.41421   -1.000
 6398.00    1.22541   1.40654   -1.000
 6399.00    1.20236   1.39758   -1.000
 6400.00    1.18930   1.39513   -1.000
 6401.00    1.18970   1.40245   -1.000
 6402.00    1.20131   1.41561   -1.000
 6403.00    1.21018   1.42716   -1.000
 6404.00    1.20949   1.43199   -1.000
 6405.00    1.20144   1.42963   -1.000
 6406.00    1.18705   1.42296   -1.000
 6407.00    1.16986   1.41626   -1.000
 6408.00    1.15892   1.41250   -1.000
 6409.00    1.15431   1.41167   -1.000
 6410.00    1.14628   1.41177   -1.000
 6411.00    1.13050   1.41160   -1.000
 6412.00    1.11955   1.41198   -1.000
 6413.00    1.11458   1.41373   -1.000
 6414.00    1.11393   1.41619   -1.000
 6415.00    1.11258   1.41819   -1.000
 6416.00    1.10548   1.41859   -1.000
 6417.00    1.08984   1.41614   -1.000
 6418.00    1.07385   1.41034   -1.000
 6419.00    1.06163   1.40323   -1.000
 6420.00    1.04665   1.39907   -1.000
 6421.00    1.03476   1.40161   -1.000
 6422.00    1.03308   1.41082   -1.000
 6423.00    1.03640   1.42282   -1.000
 6424.00    1.03145   1.43312   -1.000
 6425.00    1.01820   1.43956   -1.000
 6426.00    1.00919   1.44158   -1.000
 6427.00    1.00148   1.43845   -1.000
 6428.00    0.66888   1.42979   -1.000
