###################################################################
## OUTPUT of StarlightChains_v04.for    [Cid@UFSC - 01/Apr/2007] ##
###################################################################

## Some input info
NGC3201_b_1.cxt                          [arq_obs]
Base.BC03.S                              [arq_base]
NGC3201_b_1.msk                          [arq_masks]
StCv04.C99.config                        [arq_config]
  150                                    [N_base]
    0                                    [N_YAV_components = # of components with extra extinction!]
    0                                    [i_FitPowerLaw (1/0 = Yes/No)]
-9.99                                    [alpha_PowerLaw]
CCM                                      [red_law_option]
 1.458241                                [q_norm = A(l_norm)/A(V)]

## (Re)Sampling Parameters
 3359.00                                 [l_ini (A)]
 6428.00                                 [l_fin (A)]
    1.00                                 [dl    (A)]     (OBS: dl_cushion =    50.00 A)

## Normalization info
 4020.00                                 [l_norm (A) - for base]
 4010.00                                 [llow_norm (A) - window for f_obs]
 4060.00                                 [lupp_norm (A) - window for f_obs]
1.147975E-14                             [fobs_norm (in input units)]

## S/N
 4730.00                                 [llow_SN (A) - window for S/N]
 4780.00                                 [lupp_SN (A) - window for S/N]
  72.514                                 [S/N in S/N window]
  57.541                                 [S/N in norm. window]
  54.776                                 [S/N_err in S/N window]
  43.465                                 [S/N_err in norm. window]
  1.0000                                 [fscale_chi2]

## etc...
  2147483639                             [idum_orig]
  3055                                   [NOl_eff]
  1190                                   [Nl_eff]
  1865    NSIGMA                         [Ntot_cliped & clip_method]
  3025890                                [Nglobal_steps]
   7                                     [N_chains]
  23                                     [NEX0s_base = N_base in EX0s-fits]
 0   0   1      371   2.0   8.121E+02    [Clip-Bug, RC-Crash & Burn-In warning-flags, n_censored_weights, wei_nsig_threshold & wei_limit]
   112    111.803    111.791      0.012  [idt_all, wdt_TotTime, wdt_UsrTime & wdt_SysTime (sec)]

## Synthesis Results - Best model ##

 1.42682E+00                             [chi2/Nl_eff]
     1.41475                             [adev (%)]

   103.64494                             [sum-of-x (%)]
 4.27110E-14                             [Flux_tot (units of input spectrum!)]
 4.86528E-10                             [Mini_tot (???)]
 2.51057E-10                             [Mcor_tot (???)]

 -18.35                                  [v0_min  (km/s)]
  80.63                                  [vd_min  (km/s)]
 0.9516                                  [AV_min  (mag)]
 0.0000                                  [YAV_min (mag)]

# j     x_j(%)      Mini_j(%)     Mcor_j(%)     age_j(yr)     Z_j      (L/M)_j    YAV?  Mstars   component_j        a/Fe...       SSP_chi2r SSP_adev(%)   SSP_AV   SSP_x(%)
  1      0.0000     0.0000E+00    0.0000E+00    1.000000E+06  0.00010  8.160E-03    0   1.0000   age020_m22            0.0000     6.2886E+02    19.6853   4.0000    73.5732
  2     34.8988     6.2112E-02    1.2037E-01    3.160000E+06  0.00010  4.759E-02    0   1.0000   age045_m22            0.0000     3.5034E+01     4.0111   2.2861    97.9078
  3      0.0000     0.0000E+00    0.0000E+00    5.010000E+06  0.00010  1.932E-02    0   0.9582   age055_m22            0.0000     2.6461E+02     8.6072   3.1161    83.2282
  4      0.0000     0.0000E+00    0.0000E+00    6.610000E+06  0.00010  9.973E-03    0   0.9297   age061_m22            0.0000     5.1225E+02    18.8495   4.0000    76.4658
  5      0.0000     0.0000E+00    0.0000E+00    8.710000E+06  0.00010  7.690E-03    0   0.9030   age067_m22            0.0000     4.8483E+02    18.2704   4.0000    77.0419
  6      0.0000     0.0000E+00    0.0000E+00    1.000000E+07  0.00010  6.375E-03    0   0.8902   age070_m22            0.0000     4.7366E+02    18.0535   4.0000    77.3000
  7      0.0000     0.0000E+00    0.0000E+00    1.445000E+07  0.00010  4.874E-03    0   0.8589   age078_m22            0.0000     2.9987E+02    13.3738   4.0000    81.2704
  8      0.0000     0.0000E+00    0.0000E+00    2.512000E+07  0.00010  4.103E-03    0   0.8174   age090_m22            0.0000     1.3743E+02     6.7182   3.8063    89.2603
  9      0.0000     0.0000E+00    0.0000E+00    4.000000E+07  0.00010  3.654E-03    0   0.7830   age104_m22            0.0000     2.1180E+02     8.0531   3.2030    93.7158
 10      0.0000     0.0000E+00    0.0000E+00    5.500000E+07  0.00010  3.093E-03    0   0.7597   age110_m22            0.0000     2.6157E+02     8.8518   2.9727    95.6156
 11      0.8417     2.9325E-02    4.0565E-02    1.015200E+08  0.00010  2.431E-03    0   0.7138   age116_m22            0.0000     3.8498E+02    10.7767   2.4295    98.7366
 12      0.0000     0.0000E+00    0.0000E+00    1.609000E+08  0.00010  1.319E-03    0   0.6775   age120_m22            0.0000     3.7643E+02    10.2737   1.9047   102.3619
 13      0.0000     0.0000E+00    0.0000E+00    2.861200E+08  0.00010  1.075E-03    0   0.6412   age125_m22            0.0000     9.0546E+02    17.9740   1.2410   107.4049
 14      0.0000     0.0000E+00    0.0000E+00    5.088000E+08  0.00010  7.183E-04    0   0.6083   age130_m22            0.0000     1.0456E+03    20.4409   0.7122   110.7333
 15      0.0000     0.0000E+00    0.0000E+00    9.047900E+08  0.00010  4.524E-04    0   0.5785   age135_m22            0.0000     1.0269E+03    20.8399   0.4494   112.7110
 16      0.0000     0.0000E+00    0.0000E+00    1.278050E+09  0.00010  3.018E-04    0   0.5588   age138_m22            0.0000     4.6939E+02    13.5610   0.5426   110.9100
 17      0.0000     0.0000E+00    0.0000E+00    1.434000E+09  0.00010  2.691E-04    0   0.5532   age139_m22            0.0000     3.7181E+02    12.0848   0.4900   110.4136
 18      0.0000     0.0000E+00    0.0000E+00    2.500000E+09  0.00010  1.582E-04    0   0.5296   age150_m22            0.0000     3.3059E+02    11.4401   0.4796   110.4976
 19      0.0000     0.0000E+00    0.0000E+00    4.250000E+09  0.00010  1.007E-04    0   0.5110   age158_m22            0.0000     1.6639E+02     8.2021   0.5563   108.6818
 20      0.0000     0.0000E+00    0.0000E+00    6.250000E+09  0.00010  6.869E-05    0   0.4985   age166_m22            0.0000     6.2665E+01     5.1427   0.7020   105.5484
 21      0.0000     0.0000E+00    0.0000E+00    7.500000E+09  0.00010  5.873E-05    0   0.4931   age171_m22            0.0000     5.5676E+01     4.7750   0.7348   104.6189
 22      0.0000     0.0000E+00    0.0000E+00    1.000000E+10  0.00010  4.481E-05    0   0.4854   age181_m22            0.0000     5.2755E+01     4.6201   0.6998   104.2822
 23      0.0000     0.0000E+00    0.0000E+00    1.300000E+10  0.00010  3.489E-05    0   0.4791   age193_m22            0.0000     4.3285E+01     4.2013   0.6540   103.8717
 24      0.0000     0.0000E+00    0.0000E+00    1.500000E+10  0.00010  3.035E-05    0   0.4766   age201_m22            0.0000     3.8203E+01     3.9603   0.6247   103.7132
 25      0.1156     3.9010E-01    3.5796E-01    1.800000E+10  0.00010  2.510E-05    0   0.4735   age213_m22            0.0000     2.7188E+01     3.3826   0.5860   103.1367
 26      0.0000     0.0000E+00    0.0000E+00    1.000000E+06  0.00040  8.458E-03    0   1.0000   age020_m32            0.0000     6.0452E+02    19.7151   4.0000    74.2426
 27      0.0000     0.0000E+00    0.0000E+00    3.160000E+06  0.00040  3.973E-02    0   1.0000   age045_m32            0.0000     1.2050E+02     6.8575   3.7501    89.1378
 28      0.0000     0.0000E+00    0.0000E+00    5.010000E+06  0.00040  1.935E-02    0   0.9532   age055_m32            0.0000     2.4113E+02    10.9585   4.0000    82.0931
 29      0.0000     0.0000E+00    0.0000E+00    6.610000E+06  0.00040  1.204E-02    0   0.9243   age061_m32            0.0000     3.6985E+02    15.5404   4.0000    79.1618
 30      0.0000     0.0000E+00    0.0000E+00    8.710000E+06  0.00040  9.433E-03    0   0.9001   age067_m32            0.0000     3.2077E+02    14.4141   4.0000    80.3107
 31      0.0000     0.0000E+00    0.0000E+00    1.000000E+07  0.00040  8.053E-03    0   0.8877   age070_m32            0.0000     2.9773E+02    13.6234   4.0000    80.9728
 32      0.0000     0.0000E+00    0.0000E+00    1.445000E+07  0.00040  7.027E-03    0   0.8578   age078_m32            0.0000     1.4265E+02     7.5808   3.7753    87.4089
 33      0.0000     0.0000E+00    0.0000E+00    2.512000E+07  0.00040  4.707E-03    0   0.8166   age090_m32            0.0000     1.3500E+02     6.8769   3.3017    91.6085
 34      0.0000     0.0000E+00    0.0000E+00    4.000000E+07  0.00040  3.714E-03    0   0.7827   age104_m32            0.0000     1.8864E+02     7.6347   2.8772    95.1343
 35      0.0012     3.3764E-05    4.9683E-05    5.500000E+07  0.00040  2.982E-03    0   0.7593   age110_m32            0.0000     2.3488E+02     8.4043   2.7073    96.5209
 36      1.1043     4.2748E-02    5.9174E-02    1.015200E+08  0.00040  2.188E-03    0   0.7143   age116_m32            0.0000     5.2979E+02    12.6477   1.9733   101.9739
 37      0.9734     4.8787E-02    6.4820E-02    1.609000E+08  0.00040  1.690E-03    0   0.6856   age120_m32            0.0000     7.6916E+02    16.0303   1.4493   105.3310
 38      0.0000     0.0000E+00    0.0000E+00    2.861200E+08  0.00040  1.152E-03    0   0.6509   age125_m32            0.0000     9.2412E+02    18.6810   0.8915   109.5448
 39      0.0000     0.0000E+00    0.0000E+00    5.088000E+08  0.00040  7.331E-04    0   0.6182   age130_m32            0.0000     9.6252E+02    19.7486   0.5705   111.3486
 40      0.0000     0.0000E+00    0.0000E+00    9.047900E+08  0.00040  3.960E-04    0   0.5890   age135_m32            0.0000     4.6392E+02    13.5342   0.5846   110.9098
 41      0.0000     0.0000E+00    0.0000E+00    1.278050E+09  0.00040  2.854E-04    0   0.5687   age138_m32            0.0000     3.7403E+02    12.2719   0.4640   112.0613
 42      0.0000     0.0000E+00    0.0000E+00    1.434000E+09  0.00040  2.531E-04    0   0.5632   age139_m32            0.0000     3.6502E+02    12.1573   0.4141   111.9651
 43      0.0000     0.0000E+00    0.0000E+00    2.500000E+09  0.00040  1.488E-04    0   0.5386   age150_m32            0.0000     2.2721E+02     9.7353   0.2997   110.5242
 44     21.9030     2.0427E+01    2.0581E+01    4.250000E+09  0.00040  9.082E-05    0   0.5199   age158_m32            0.0000     5.0037E+01     4.9270   0.5251   106.7494
 45      5.0362     6.7049E+00    6.5955E+00    6.250000E+09  0.00040  6.362E-05    0   0.5076   age166_m32            0.0000     9.6587E+00     2.0123   0.7190   102.4734
 46      2.2311     3.5730E+00    3.4808E+00    7.500000E+09  0.00040  5.289E-05    0   0.5027   age171_m32            0.0000     1.1391E+01     1.7735   0.7122   101.2498
 47      0.0000     0.0000E+00    0.0000E+00    1.000000E+10  0.00040  3.972E-05    0   0.4948   age181_m32            0.0000     1.6650E+01     1.8282   0.6551   100.0673
 48      0.3563     9.1925E-01    8.6755E-01    1.300000E+10  0.00040  3.283E-05    0   0.4870   age193_m32            0.0000     1.1511E+01     2.3949   0.4942   103.2263
 49      0.0394     1.1402E-01    1.0726E-01    1.500000E+10  0.00040  2.925E-05    0   0.4854   age201_m32            0.0000     2.2123E+01     3.3466   0.4023   105.0441
 50      0.0000     0.0000E+00    0.0000E+00    1.800000E+10  0.00040  2.469E-05    0   0.4819   age213_m32            0.0000     2.8527E+01     3.7288   0.3304   105.7299
 51      0.0000     0.0000E+00    0.0000E+00    1.000000E+06  0.00400  1.114E-02    0   1.0000   age020_m42            0.0000     5.6102E+02    18.1772   4.0000    75.1111
 52      0.0000     0.0000E+00    0.0000E+00    3.160000E+06  0.00400  4.073E-02    0   0.9999   age045_m42            0.0000     7.6851E+01     5.2876   3.3482    92.8138
 53      0.0000     0.0000E+00    0.0000E+00    5.010000E+06  0.00400  2.534E-02    0   0.9488   age055_m42            0.0000     1.6583E+02     7.6937   3.9904    85.5684
 54      0.0000     0.0000E+00    0.0000E+00    6.610000E+06  0.00400  2.583E-02    0   0.9220   age061_m42            0.0000     1.1125E+02     6.2066   3.0576    93.0712
 55      0.0000     0.0000E+00    0.0000E+00    8.710000E+06  0.00400  1.706E-02    0   0.8983   age067_m42            0.0000     1.0366E+02     6.5758   3.0576    90.4860
 56      0.0000     0.0000E+00    0.0000E+00    1.000000E+07  0.00400  1.271E-02    0   0.8862   age070_m42            0.0000     1.2932E+02     7.4424   3.1472    88.4262
 57      0.0000     0.0000E+00    0.0000E+00    1.445000E+07  0.00400  7.666E-03    0   0.8571   age078_m42            0.0000     2.0046E+02     8.3397   3.6378    85.4843
 58      0.0000     0.0000E+00    0.0000E+00    2.512000E+07  0.00400  5.070E-03    0   0.8174   age090_m42            0.0000     1.2335E+02     6.6882   2.9741    90.5877
 59      0.0000     0.0000E+00    0.0000E+00    4.000000E+07  0.00400  3.505E-03    0   0.7851   age104_m42            0.0000     9.8200E+01     5.1072   2.5269    94.7338
 60      0.0011     3.0085E-05    4.4478E-05    5.500000E+07  0.00400  3.059E-03    0   0.7629   age110_m42            0.0000     2.1072E+02     7.0688   2.1870   100.1197
 61      0.0000     0.0000E+00    0.0000E+00    1.015200E+08  0.00400  2.268E-03    0   0.7207   age116_m42            0.0000     6.6039E+02    14.5354   1.4287   106.4389
 62      1.5752     7.7570E-02    1.0417E-01    1.609000E+08  0.00400  1.720E-03    0   0.6930   age120_m42            0.0000     6.7518E+02    15.2947   1.1611   109.5191
 63      0.0000     0.0000E+00    0.0000E+00    2.861200E+08  0.00400  1.079E-03    0   0.6613   age125_m42            0.0000     6.5671E+02    15.2547   0.7797   111.6043
 64      0.0000     0.0000E+00    0.0000E+00    5.088000E+08  0.00400  6.261E-04    0   0.6313   age130_m42            0.0000     7.5044E+02    17.3473   0.4290   114.8807
 65      0.0000     0.0000E+00    0.0000E+00    9.047900E+08  0.00400  3.535E-04    0   0.6024   age135_m42            0.0000     3.8552E+02    12.5777   0.3644   116.0763
 66      0.0000     0.0000E+00    0.0000E+00    1.278050E+09  0.00400  2.677E-04    0   0.5837   age138_m42            0.0000     8.4317E+01     6.5999  -0.0287   116.3575
 67      0.0000     0.0000E+00    0.0000E+00    1.434000E+09  0.00400  1.910E-04    0   0.5716   age139_m42            0.0000     1.1160E+02     7.4737   0.0643   116.6187
 68     14.2115     1.2260E+01    1.2980E+01    2.500000E+09  0.00400  9.818E-05    0   0.5463   age150_m42            0.0000     4.9716E+01     5.2337   0.1044   112.1734
 69      0.0040     6.1802E-03    6.3105E-03    4.250000E+09  0.00400  5.491E-05    0   0.5269   age158_m42            0.0000     1.0432E+02     5.9723   0.1078   108.9804
 70      3.8465     8.4470E+00    8.4320E+00    6.250000E+09  0.00400  3.857E-05    0   0.5151   age166_m42            0.0000     1.6916E+02     7.0893  -0.0036   108.1721
 71     12.2141     3.1900E+01    3.1590E+01    7.500000E+09  0.00400  3.243E-05    0   0.5110   age171_m42            0.0000     2.1519E+02     7.7958  -0.0840   108.0362
 72      4.2848     1.4972E+01    1.4589E+01    1.000000E+10  0.00400  2.424E-05    0   0.5028   age181_m42            0.0000     2.9349E+02     8.7463  -0.1617   107.9489
 73      0.0000     0.0000E+00    0.0000E+00    1.300000E+10  0.00400  1.883E-05    0   0.4927   age193_m42            0.0000     3.6697E+02     9.4912  -0.1868   107.9590
 74      0.0014     7.0458E-03    6.7165E-03    1.500000E+10  0.00400  1.685E-05    0   0.4919   age201_m42            0.0000     3.4705E+02     9.2848  -0.1780   107.8187
 75      0.0029     1.7159E-02    1.6207E-02    1.800000E+10  0.00400  1.452E-05    0   0.4874   age213_m42            0.0000     3.0958E+02     8.8731  -0.1586   107.8050
 76      0.0000     0.0000E+00    0.0000E+00    1.000000E+06  0.00800  1.286E-02    0   1.0000   age020_m52            0.0000     4.6325E+02    16.7366   4.0000    77.2790
 77      0.0000     0.0000E+00    0.0000E+00    3.160000E+06  0.00800  3.147E-02    0   0.9966   age045_m52            0.0000     3.8231E+02    15.2688   4.0000    79.0158
 78      0.0000     0.0000E+00    0.0000E+00    5.010000E+06  0.00800  2.664E-02    0   0.9443   age055_m52            0.0000     2.1314E+02     9.2199   4.0000    84.0125
 79      0.0000     0.0000E+00    0.0000E+00    6.610000E+06  0.00800  2.151E-02    0   0.9177   age061_m52            0.0000     1.1339E+02     5.9377   2.7347    91.9030
 80      0.0000     0.0000E+00    0.0000E+00    8.710000E+06  0.00800  1.628E-02    0   0.8948   age067_m52            0.0000     1.2033E+02     6.6060   3.0540    91.0130
 81      0.0000     0.0000E+00    0.0000E+00    1.000000E+07  0.00800  1.215E-02    0   0.8827   age070_m52            0.0000     1.5129E+02     7.5059   3.4450    88.7130
 82      0.0000     0.0000E+00    0.0000E+00    1.445000E+07  0.00800  8.739E-03    0   0.8552   age078_m52            0.0000     1.4908E+02     7.4044   3.4021    89.9303
 83      0.0015     2.2942E-05    3.6289E-05    2.512000E+07  0.00800  5.676E-03    0   0.8162   age090_m52            0.0000     1.9788E+02     8.0803   2.7863    94.4893
 84      0.0000     0.0000E+00    0.0000E+00    4.000000E+07  0.00800  3.939E-03    0   0.7841   age104_m52            0.0000     2.6011E+02     8.3626   2.4465    97.8459
 85      0.0000     0.0000E+00    0.0000E+00    5.500000E+07  0.00800  3.155E-03    0   0.7627   age110_m52            0.0000     3.3784E+02     9.4905   2.2432   100.3416
 86      0.0000     0.0000E+00    0.0000E+00    1.015200E+08  0.00800  2.206E-03    0   0.7226   age116_m52            0.0000     4.9987E+02    12.3211   1.6932   106.0792
 87      0.0000     0.0000E+00    0.0000E+00    1.609000E+08  0.00800  1.596E-03    0   0.6963   age120_m52            0.0000     5.7636E+02    13.7992   1.3096   109.0198
 88      0.0000     0.0000E+00    0.0000E+00    2.861200E+08  0.00800  1.002E-03    0   0.6665   age125_m52            0.0000     7.8272E+02    17.5251   0.5764   114.7850
 89      0.0000     0.0000E+00    0.0000E+00    5.088000E+08  0.00800  5.759E-04    0   0.6377   age130_m52            0.0000     6.8834E+02    17.8442   0.0835   122.2891
 90      0.0000     0.0000E+00    0.0000E+00    9.047900E+08  0.00800  2.972E-04    0   0.6086   age135_m52            0.0000     1.9468E+02    11.0822  -0.0112   124.1784
 91      0.0000     0.0000E+00    0.0000E+00    1.278050E+09  0.00800  2.242E-04    0   0.5907   age138_m52            0.0000     8.0095E+01     7.3723  -0.2437   121.9867
 92      0.0000     0.0000E+00    0.0000E+00    1.434000E+09  0.00800  1.645E-04    0   0.5787   age139_m52            0.0000     6.3195E+01     6.5638  -0.0383   120.2631
 93      0.0000     0.0000E+00    0.0000E+00    2.500000E+09  0.00800  7.723E-05    0   0.5519   age150_m52            0.0000     1.3683E+02     6.9373  -0.1877   116.3582
 94      0.0000     0.0000E+00    0.0000E+00    4.250000E+09  0.00800  4.151E-05    0   0.5320   age158_m52            0.0000     1.9777E+02     7.6006  -0.1825   113.6469
 95      0.0000     0.0000E+00    0.0000E+00    6.250000E+09  0.00800  3.010E-05    0   0.5197   age166_m52            0.0000     3.3174E+02     9.1139  -0.3669   113.0773
 96      0.0000     0.0000E+00    0.0000E+00    7.500000E+09  0.00800  2.467E-05    0   0.5139   age171_m52            0.0000     3.6825E+02     9.4973  -0.4133   112.9191
 97      0.0000     0.0000E+00    0.0000E+00    1.000000E+10  0.00800  1.862E-05    0   0.5054   age181_m52            0.0000     4.7732E+02    10.5516  -0.5728   113.4102
 98      0.0000     0.0000E+00    0.0000E+00    1.300000E+10  0.00800  1.433E-05    0   0.4988   age193_m52            0.0000     6.2614E+02    11.6392  -0.6807   114.8635
 99      0.0000     0.0000E+00    0.0000E+00    1.500000E+10  0.00800  1.244E-05    0   0.4936   age201_m52            0.0000     6.9065E+02    12.0240  -0.7132   115.6111
100      0.0000     0.0000E+00    0.0000E+00    1.800000E+10  0.00800  1.070E-05    0   0.4888   age213_m52            0.0000     7.2923E+02    12.3153  -0.7555   115.6854
101      0.0000     0.0000E+00    0.0000E+00    1.000000E+06  0.02000  1.989E-02    0   1.0000   age020_m62            0.0000     5.2600E+02    17.2555   4.0000    76.3065
102      0.0000     0.0000E+00    0.0000E+00    3.160000E+06  0.02000  3.772E-02    0   0.9858   age045_m62            0.0000     3.9309E+02    14.7883   4.0000    78.8728
103      0.0000     0.0000E+00    0.0000E+00    5.010000E+06  0.02000  3.227E-02    0   0.9342   age055_m62            0.0000     1.3961E+02     7.1993   3.6938    88.2741
104      0.0000     0.0000E+00    0.0000E+00    6.610000E+06  0.02000  2.387E-02    0   0.9090   age061_m62            0.0000     1.6256E+02     8.3908   3.5706    86.8707
105      0.0000     0.0000E+00    0.0000E+00    8.710000E+06  0.02000  1.102E-02    0   0.8861   age067_m62            0.0000     3.8000E+02    12.7639   3.4619    80.7882
106      0.0000     0.0000E+00    0.0000E+00    1.000000E+07  0.02000  1.011E-02    0   0.8751   age070_m62            0.0000     2.7989E+02    10.4812   3.3902    84.1344
107      0.0000     0.0000E+00    0.0000E+00    1.445000E+07  0.02000  7.331E-03    0   0.8472   age078_m62            0.0000     2.1779E+02     8.8423   3.3218    86.4532
108      0.0000     0.0000E+00    0.0000E+00    2.512000E+07  0.02000  4.206E-03    0   0.8099   age090_m62            0.0000     2.4393E+02     8.9471   3.2337    86.0997
109      0.0000     0.0000E+00    0.0000E+00    4.000000E+07  0.02000  3.373E-03    0   0.7799   age104_m62            0.0000     1.6644E+02     6.4095   2.6201    96.1456
110      0.0000     0.0000E+00    0.0000E+00    5.500000E+07  0.02000  2.747E-03    0   0.7595   age110_m62            0.0000     2.7659E+02     7.9179   2.2838   100.2831
111      0.0000     0.0000E+00    0.0000E+00    1.015200E+08  0.02000  1.878E-03    0   0.7221   age116_m62            0.0000     6.0888E+02    13.3973   1.6357   106.2425
112      0.0000     0.0000E+00    0.0000E+00    1.609000E+08  0.02000  1.378E-03    0   0.6978   age120_m62            0.0000     8.2293E+02    16.7634   1.1269   110.4281
113      0.0000     0.0000E+00    0.0000E+00    2.861200E+08  0.02000  8.869E-04    0   0.6700   age125_m62            0.0000     1.1465E+03    22.0700   0.1442   117.5574
114      0.0000     0.0000E+00    0.0000E+00    5.088000E+08  0.02000  4.834E-04    0   0.6430   age130_m62            0.0000     7.5354E+02    19.1363  -0.2078   124.8308
115      0.0000     0.0000E+00    0.0000E+00    9.047900E+08  0.02000  2.312E-04    0   0.6152   age135_m62            0.0000     1.8631E+02    10.5918  -0.1808   125.5626
116      0.0000     0.0000E+00    0.0000E+00    1.278050E+09  0.02000  1.387E-04    0   0.5927   age138_m62            0.0000     5.1095E+01     6.4559  -0.1633   119.7219
117      0.0000     0.0000E+00    0.0000E+00    1.434000E+09  0.02000  1.168E-04    0   0.5865   age139_m62            0.0000     5.1416E+01     6.1505  -0.1155   117.8913
118      0.0000     0.0000E+00    0.0000E+00    2.500000E+09  0.02000  5.505E-05    0   0.5610   age150_m62            0.0000     1.8768E+02     7.8704  -0.3719   115.8890
119      0.0000     0.0000E+00    0.0000E+00    4.250000E+09  0.02000  3.070E-05    0   0.5407   age158_m62            0.0000     4.1032E+02    10.3402  -0.7221   118.0410
120      0.0000     0.0000E+00    0.0000E+00    6.250000E+09  0.02000  2.104E-05    0   0.5277   age166_m62            0.0000     5.7673E+02    11.6138  -0.8730   119.5864
121      0.0000     0.0000E+00    0.0000E+00    7.500000E+09  0.02000  1.770E-05    0   0.5223   age171_m62            0.0000     6.5153E+02    12.1641  -0.9868   120.6771
122      0.0000     0.0000E+00    0.0000E+00    1.000000E+10  0.02000  1.297E-05    0   0.5121   age181_m62            0.0000     8.3887E+02    16.0631  -1.0000   123.3086
123      0.0000     0.0000E+00    0.0000E+00    1.300000E+10  0.02000  9.691E-06    0   0.5047   age193_m62            0.0000     9.8690E+02    18.6025  -1.0000   124.9902
124      0.0000     0.0000E+00    0.0000E+00    1.500000E+10  0.02000  8.360E-06    0   0.4999   age201_m62            0.0000     1.1123E+03    20.9387  -1.0000   126.4066
125      0.0000     0.0000E+00    0.0000E+00    1.800000E+10  0.02000  6.911E-06    0   0.4946   age213_m62            0.0000     1.2691E+03    23.7939  -1.0000   128.1343
126      0.0000     0.0000E+00    0.0000E+00    1.000000E+06  0.05000  2.651E-02    0   0.9998   age020_m72            0.0000     4.9022E+02    16.6022   4.0000    77.4116
127      0.0000     0.0000E+00    0.0000E+00    3.160000E+06  0.05000  4.817E-02    0   0.9577   age045_m72            0.0000     2.3572E+02    10.8099   4.0000    83.0224
128      0.0000     0.0000E+00    0.0000E+00    5.010000E+06  0.05000  3.101E-02    0   0.9147   age055_m72            0.0000     1.8266E+02     8.7786   3.8717    86.2593
129      0.0000     0.0000E+00    0.0000E+00    6.610000E+06  0.05000  1.472E-02    0   0.8877   age061_m72            0.0000     3.2470E+02    11.7165   3.5994    83.0310
130      0.0000     0.0000E+00    0.0000E+00    8.710000E+06  0.05000  1.050E-02    0   0.8638   age067_m72            0.0000     2.7122E+02     9.9489   3.9068    84.6588
131      0.0000     0.0000E+00    0.0000E+00    1.000000E+07  0.05000  8.954E-03    0   0.8524   age070_m72            0.0000     2.4156E+02     9.1110   4.0000    85.3838
132      0.0000     0.0000E+00    0.0000E+00    1.445000E+07  0.05000  6.392E-03    0   0.8262   age078_m72            0.0000     2.1355E+02     8.2204   4.0000    87.1026
133      0.0000     0.0000E+00    0.0000E+00    2.512000E+07  0.05000  4.207E-03    0   0.7902   age090_m72            0.0000     1.5457E+02     6.2342   3.4427    92.1564
134      0.0000     0.0000E+00    0.0000E+00    4.000000E+07  0.05000  3.198E-03    0   0.7618   age104_m72            0.0000     3.6085E+02     9.2490   2.3268   101.7691
135      0.0000     0.0000E+00    0.0000E+00    5.500000E+07  0.05000  2.593E-03    0   0.7432   age110_m72            0.0000     4.8296E+02    11.4162   2.0650   103.7161
136      0.0000     0.0000E+00    0.0000E+00    1.015200E+08  0.05000  1.716E-03    0   0.7092   age116_m72            0.0000     7.1509E+02    14.9720   1.5772   106.8460
137      0.0000     0.0000E+00    0.0000E+00    1.609000E+08  0.05000  1.218E-03    0   0.6876   age120_m72            0.0000     9.4498E+02    18.4501   0.9231   111.2016
138      0.0000     0.0000E+00    0.0000E+00    2.861200E+08  0.05000  7.047E-04    0   0.6618   age125_m72            0.0000     1.0083E+03    20.9998  -0.0627   119.2099
139      0.0000     0.0000E+00    0.0000E+00    5.088000E+08  0.05000  3.590E-04    0   0.6356   age130_m72            0.0000     5.2569E+02    16.1490  -0.4257   126.8826
140      0.0000     0.0000E+00    0.0000E+00    9.047900E+08  0.05000  1.484E-04    0   0.6088   age135_m72            0.0000     7.8608E+01     7.9963  -0.4044   121.2813
141      0.0010     8.5545E-04    9.8207E-04    1.278050E+09  0.05000  9.435E-05    0   0.5924   age138_m72            0.0000     1.8921E+02     8.8691  -0.6838   119.1970
142      0.0000     0.0000E+00    0.0000E+00    1.434000E+09  0.05000  7.827E-05    0   0.5847   age139_m72            0.0000     2.2332E+02     9.0106  -0.6096   118.2397
143      0.0000     0.0000E+00    0.0000E+00    2.500000E+09  0.05000  3.759E-05    0   0.5583   age150_m72            0.0000     5.1634E+02    11.4556  -0.8835   118.9517
144      0.0000     0.0000E+00    0.0000E+00    4.250000E+09  0.05000  1.842E-05    0   0.5374   age158_m72            0.0000     7.7543E+02    16.9368  -1.0000   121.2543
145      0.0000     0.0000E+00    0.0000E+00    6.250000E+09  0.05000  1.207E-05    0   0.5242   age166_m72            0.0000     1.0515E+03    24.3398  -1.0000   123.8206
146      0.0000     0.0000E+00    0.0000E+00    7.500000E+09  0.05000  9.993E-06    0   0.5183   age171_m72            0.0000     1.0835E+03    25.6550  -1.0000   124.1941
147      0.0000     0.0000E+00    0.0000E+00    1.000000E+10  0.05000  7.291E-06    0   0.5081   age181_m72            0.0000     1.2707E+03    30.5472  -1.0000   126.0664
148      0.0000     0.0000E+00    0.0000E+00    1.300000E+10  0.05000  5.316E-06    0   0.5018   age193_m72            0.0000     1.6212E+03    37.9852  -1.0000   128.6230
149      0.0000     0.0000E+00    0.0000E+00    1.500000E+10  0.05000  4.497E-06    0   0.4972   age201_m72            0.0000     1.8045E+03    41.3462  -1.0000   130.1763
150      0.0000     0.0000E+00    0.0000E+00    1.800000E+10  0.05000  3.739E-06    0   0.4924   age213_m72            0.0000     2.0875E+03    45.7991  -1.0000   131.7258


## Synthesis Results - Average & Chains ##

# j      x_j: min, <> & last-chain-values for 1 ...  7 chains
  1      0.0000      0.0050      0.0000      0.0000      0.0000      0.0000      0.0000      0.0000      0.0000
  2     34.8988     34.6026     35.1259     36.1269     35.6460     35.6111     34.6785     35.1690     34.4853
  3      0.0000      0.0047      0.0000      0.0000      0.0000      0.0000      0.0000      0.0000      0.0000
  4      0.0000      0.0022      0.0000      0.0000      0.0000      0.0000      0.0000      0.0000      0.0000
  5      0.0000      0.0073      0.0000      0.0000      0.0000      0.0000      0.0000      0.0000      0.0000
  6      0.0000      0.0019      0.0000      0.0000      0.0000      0.0000      0.0000      0.0000      0.0000
  7      0.0000      0.0033      0.0000      0.0000      0.0000      0.0000      0.0000      0.0000      0.0000
  8      0.0000      0.0177      0.0000      0.0000      0.0000      0.0000      0.0000      0.2048      0.0000
  9      0.0000      0.0575      0.3569      0.0000      0.0000      0.0000      0.0000      0.1908      0.0000
 10      0.0000      0.0480      0.0000      0.1246      0.0247      0.0072      0.1541      0.0000      0.0000
 11      0.8417      0.3358      0.6201      0.8769      0.5939      0.1123      0.3412      0.8439      0.5343
 12      0.0000      0.0564      0.0000      0.0000      0.0000      0.0143      0.0000      0.0000      0.0000
 13      0.0000      0.0264      0.0000      0.0000      0.0904      0.0000      0.0000      0.0000      0.0000
 14      0.0000      0.0118      0.0000      0.0000      0.0000      0.0000      0.0000      0.0000      0.0000
 15      0.0000      0.0158      0.0000      0.0000      0.0000      0.0000      0.0000      0.0000      0.0000
 16      0.0000      0.0195      0.0000      0.0000      0.0000      0.0000      0.0000      0.0000      0.1856
 17      0.0000      0.0167      0.0000      0.0000      0.0000      0.0000      0.0000      0.0000      0.0000
 18      0.0000      0.0297      0.0000      0.0000      0.0000      0.0082      0.0000      0.0243      0.0000
 19      0.0000      0.0649      0.0194      0.0800      0.1724      0.0000      0.0000      0.0000      0.0000
 20      0.0000      0.1175      0.0000      0.0428      0.0000      0.0328      0.0000      0.0000      0.0000
 21      0.0000      0.1360      0.0000      0.4774      0.0000      0.0000      0.0000      0.1100      0.0000
 22      0.0000      0.1224      0.0000      0.0000      0.0000      0.0119      0.2724      0.0000      0.2055
 23      0.0000      0.1596      0.0000      0.0000      0.0000      0.1370      0.0164      0.8404      0.1532
 24      0.0000      0.2008      0.0000      0.0000      0.2888      0.2017      0.0000      0.0000      0.0000
 25      0.1156      0.2982      0.6635      0.1526      0.2750      0.2462      0.8639      0.3921      0.0000
 26      0.0000      0.0028      0.0000      0.0000      0.0000      0.0000      0.0000      0.0000      0.0000
 27      0.0000      0.0297      0.0000      0.0000      0.0000      0.0000      0.0000      0.0000      0.1268
 28      0.0000      0.0064      0.0000      0.0000      0.0000      0.0000      0.0000      0.0000      0.0000
 29      0.0000      0.0026      0.0000      0.0000      0.0000      0.0000      0.0000      0.0000      0.0000
 30      0.0000      0.0048      0.0000      0.0000      0.0000      0.0740      0.0000      0.0000      0.0000
 31      0.0000      0.0039      0.0000      0.0000      0.0000      0.0000      0.0000      0.0000      0.0000
 32      0.0000      0.0154      0.0000      0.0000      0.0000      0.0000      0.0000      0.0000      0.0000
 33      0.0000      0.0133      0.0054      0.1791      0.0000      0.0000      0.0000      0.0000      0.0830
 34      0.0000      0.0375      0.0178      0.0000      0.0000      0.0000      0.0000      0.0197      0.1447
 35      0.0012      0.0567      0.0000      0.0000      0.0000      0.0000      0.2779      0.0000      0.0000
 36      1.1043      0.1506      0.1193      0.0000      0.2851      0.0361      0.3333      0.0000      0.3970
 37      0.9734      0.1019      0.0000      0.0000      0.0999      0.0000      0.4634      0.0903      0.1143
 38      0.0000      0.0205      0.0000      0.0804      0.0000      0.0000      0.0186      0.0000      0.0000
 39      0.0000      0.0169      0.0000      0.0000      0.0000      0.0000      0.0000      0.0000      0.0000
 40      0.0000      0.0139      0.0000      0.0000      0.0435      0.0000      0.0000      0.0000      0.0000
 41      0.0000      0.0248      0.0000      0.0000      0.0037      0.0000      0.0000      0.0000      0.0000
 42      0.0000      0.0301      0.0000      0.0000      0.0000      0.1080      0.0000      0.0000      0.0000
 43      0.0000      1.8405      1.8692      1.5718      0.9917      1.2686      0.0362      1.2934      0.5095
 44     21.9030     24.8992     25.8527     24.3622     25.7443     24.4176     23.9516     24.7680     25.2518
 45      5.0362      0.8165      0.1711      0.6985      0.2338      2.3523      1.6395      2.1285      1.5949
 46      2.2311      0.6937      0.4841      1.6389      0.5136      0.7905      1.4520      0.0000      0.2247
 47      0.0000      0.4274      1.1258      0.0000      1.0155      0.0473      0.0166      0.2692      0.3182
 48      0.3563      0.3694      0.0000      0.0000      0.0000      0.1347      0.3232      0.0997      0.7781
 49      0.0394      0.2998      0.0000      0.4922      0.7311      0.0000      1.1153      0.0000      0.8128
 50      0.0000      0.3957      0.0000      0.0000      0.1214      0.0000      0.2204      0.3064      0.2791
 51      0.0000      0.0022      0.0000      0.0000      0.0000      0.0000      0.0000      0.0000      0.0000
 52      0.0000      0.0600      0.0000      0.0000      0.0000      0.0000      0.0000      0.0422      0.0000
 53      0.0000      0.0062      0.0000      0.0000      0.0000      0.0000      0.0000      0.0000      0.0000
 54      0.0000      0.0569      0.2766      0.0460      0.0000      0.0000      0.0000      0.0000      0.2450
 55      0.0000      0.0683      0.1016      0.0000      0.2380      0.1627      0.0000      0.0000      0.0000
 56      0.0000      0.0199      0.0000      0.0000      0.0000      0.0000      0.0000      0.0000      0.0000
 57      0.0000      0.0109      0.0000      0.0000      0.0033      0.0000      0.0000      0.0000      0.0000
 58      0.0000      0.0200      0.0000      0.0000      0.0000      0.0000      0.0000      0.0000      0.0000
 59      0.0000      0.0220      0.0000      0.0000      0.0000      0.0000      0.0000      0.0000      0.0000
 60      0.0011      0.0575      0.0000      0.0000      0.2110      0.1315      0.3060      0.1574      0.2112
 61      0.0000      0.1400      0.2328      0.3352      0.0000      1.1166      0.0000      0.0000      0.0000
 62      1.5752      0.0882      0.0000      0.0000      0.0465      0.2820      0.8419      0.2722      0.0000
 63      0.0000      0.0403      0.0000      0.0000      0.0000      0.0000      0.0361      0.1426      0.2675
 64      0.0000      0.0327      0.0000      0.0717      0.0000      0.0045      0.0000      0.0000      0.0000
 65      0.0000      0.0476      0.0000      0.0000      0.2920      0.0418      0.0000      0.0000      0.0000
 66      0.0000      0.0646      0.2759      0.0000      0.0000      0.0340      0.0143      0.0000      0.0000
 67      0.0000      0.1061      0.0979      0.6478      0.0000      0.0724      0.0000      0.0964      0.0000
 68     14.2115     16.2676     15.8693     15.2380     16.4626     16.2164     16.1408     16.6273     16.2080
 69      0.0040      0.1420      0.1934      0.1052      0.0000      0.0000      0.3130      0.3021      0.0878
 70      3.8465      2.1280      2.3399      2.3059      1.8518      2.2000      2.3559      2.0690      1.9052
 71     12.2141     10.0742     10.6741     10.4141     10.2552     10.0295      9.8916     10.5443     11.0001
 72      4.2848      2.4180      2.5203      2.6686      3.0306      2.2880      2.6625      2.8143      2.3899
 73      0.0000      0.2402      0.3002      0.0000      0.1885      0.7096      0.0000      0.0000      0.0018
 74      0.0014      0.3191      0.6771      0.1635      0.3711      0.2729      0.5818      0.0000      0.6584
 75      0.0029      0.2592      0.5137      0.4656      0.4730      0.6241      0.3434      0.0426      0.1845
 76      0.0000      0.0029      0.0000      0.0000      0.0000      0.0000      0.0004      0.0000      0.0000
 77      0.0000      0.0024      0.0000      0.0000      0.0000      0.0000      0.0000      0.0000      0.0000
 78      0.0000      0.0071      0.0000      0.0000      0.0000      0.0000      0.0000      0.0000      0.0000
 79      0.0000      0.0217      0.0000      0.0000      0.0000      0.0000      0.0000      0.0125      0.0000
 80      0.0000      0.0205      0.0000      0.0000      0.0000      0.0000      0.0000      0.0000      0.0000
 81      0.0000      0.0109      0.0000      0.0000      0.0000      0.0361      0.0000      0.0000      0.0000
 82      0.0000      0.0268      0.0000      0.0725      0.0000      0.0000      0.0000      0.0682      0.0931
 83      0.0015      0.1430      0.0000      0.0133      0.0000      0.0000      0.2850      0.1331      0.2446
 84      0.0000      0.0764      0.0000      0.0000      0.0000      0.2211      0.3490      0.0000      0.0000
 85      0.0000      0.0671      0.4119      0.0000      0.7459      0.0000      0.0000      0.0442      0.0000
 86      0.0000      0.1384      0.0000      0.4296      0.0000      0.1079      0.0000      0.3790      0.9249
 87      0.0000      0.0755      0.2261      0.0000      0.0060      0.0000      0.0000      0.0000      0.0000
 88      0.0000      0.0198      0.0000      0.0000      0.1257      0.0000      0.0000      0.0000      0.0000
 89      0.0000      0.0130      0.0000      0.3405      0.0000      0.0000      0.0131      0.0000      0.0000
 90      0.0000      0.0072      0.0000      0.0000      0.0000      0.0000      0.0000      0.0000      0.0000
 91      0.0000      0.0223      0.0000      0.0000      0.0000      0.0733      0.0083      0.0000      0.0000
 92      0.0000      0.0166      0.0000      0.0692      0.0000      0.0000      0.0684      0.0000      0.0000
 93      0.0000      0.0485      0.0000      0.2317      0.0000      0.0000      0.0000      0.0000      0.0000
 94      0.0000      0.1200      0.1428      0.2565      0.0000      0.6598      0.0000      0.3016      0.0717
 95      0.0000      0.1232      0.2038      0.5068      0.0000      0.0000      0.2645      0.0000      0.3953
 96      0.0000      0.0909      0.0000      0.0000      0.0348      0.0000      0.2469      0.0960      0.0000
 97      0.0000      0.0538      0.0000      0.0487      0.0000      0.0000      0.1966      0.0000      0.0000
 98      0.0000      0.0539      0.0000      0.0000      0.0000      0.0000      0.0000      0.0000      0.0000
 99      0.0000      0.0497      0.0985      0.0000      0.1670      0.0000      0.0000      0.1036      0.0000
100      0.0000      0.0367      0.0000      0.1557      0.0000      0.0778      0.0000      0.0415      0.0156
101      0.0000      0.0052      0.0017      0.0000      0.0000      0.0000      0.0000      0.0000      0.0028
102      0.0000      0.0052      0.0000      0.0000      0.0000      0.0000      0.0000      0.0000      0.0000
103      0.0000      0.0132      0.0000      0.0578      0.0000      0.1271      0.0000      0.0000      0.0000
104      0.0000      0.0157      0.0143      0.0000      0.0000      0.0000      0.0000      0.0000      0.0785
105      0.0000      0.0041      0.0000      0.0000      0.0000      0.0000      0.0000      0.0000      0.0000
106      0.0000      0.0053      0.0000      0.0000      0.0000      0.0000      0.0000      0.0000      0.0000
107      0.0000      0.0065      0.0000      0.0000      0.0000      0.0000      0.0000      0.0000      0.0000
108      0.0000      0.0079      0.0000      0.0000      0.0000      0.0000      0.0000      0.0000      0.0000
109      0.0000      0.0179      0.0000      0.0156      0.0000      0.0000      0.0000      0.0000      0.0000
110      0.0000      0.0261      0.0000      0.0000      0.0000      0.0240      0.0128      0.0000      0.0000
111      0.0000      0.0414      0.0000      0.0000      0.0000      0.1631      0.0000      0.0503      0.0477
112      0.0000      0.0258      0.0000      0.0000      0.0000      0.0000      0.0000      0.0000      0.0000
113      0.0000      0.0139      0.0000      0.0000      0.0000      0.0000      0.0000      0.0000      0.0000
114      0.0000      0.0064      0.0568      0.0000      0.0000      0.0000      0.0000      0.0000      0.0000
115      0.0000      0.0245      0.0000      0.0000      0.0222      0.0000      0.0000      0.0000      0.0000
116      0.0000      0.0495      0.0000      0.0000      0.0000      0.1238      0.0000      0.0000      0.0000
117      0.0000      0.0535      0.0000      0.0000      0.0000      0.0000      0.0000      0.1516      0.0000
118      0.0000      0.0753      0.0000      0.0058      0.0000      0.0000      0.0000      0.1157      0.0000
119      0.0000      0.0416      0.0000      0.0000      0.0000      0.0000      0.0241      0.0123      0.2383
120      0.0000      0.0310      0.0000      0.2541      0.0000      0.0000      0.0000      0.0000      0.0114
121      0.0000      0.0292      0.0000      0.0000      0.1329      0.0000      0.0000      0.0070      0.0000
122      0.0000      0.0241      0.0000      0.0000      0.0000      0.0000      0.0000      0.0000      0.0000
123      0.0000      0.0181      0.0000      0.0000      0.0000      0.0000      0.0162      0.0000      0.0000
124      0.0000      0.0102      0.0000      0.0000      0.0000      0.0000      0.0000      0.0111      0.0000
125      0.0000      0.0208      0.0183      0.0000      0.0000      0.0000      0.0008      0.0000      0.0000
126      0.0000      0.0034      0.0000      0.0000      0.0000      0.0000      0.0000      0.0000      0.0000
127      0.0000      0.0126      0.0000      0.0000      0.0000      0.0000      0.0000      0.0000      0.0000
128      0.0000      0.0155      0.0000      0.0000      0.0000      0.0000      0.0000      0.0000      0.0000
129      0.0000      0.0060      0.0000      0.0000      0.0000      0.0000      0.0000      0.0000      0.0000
130      0.0000      0.0055      0.0000      0.0000      0.0000      0.0000      0.0000      0.0000      0.0000
131      0.0000      0.0032      0.0000      0.0000      0.0000      0.0068      0.0000      0.0000      0.0000
132      0.0000      0.0039      0.0000      0.0000      0.0000      0.0000      0.0000      0.0000      0.0000
133      0.0000      0.0080      0.0000      0.0000      0.0000      0.0000      0.0000      0.0000      0.0000
134      0.0000      0.0292      0.0000      0.0000      0.0000      0.0000      0.0000      0.0000      0.0000
135      0.0000      0.0469      0.3509      0.0247      0.0000      0.0000      0.0000      0.0000      0.0000
136      0.0000      0.0449      0.0000      0.0000      0.0443      0.0000      0.2175      0.0000      0.0000
137      0.0000      0.0317      0.0000      0.0000      0.0000      0.2539      0.0000      0.0000      0.0000
138      0.0000      0.0212      0.0000      0.0000      0.0000      0.0000      0.0000      0.0000      0.0000
139      0.0000      0.0237      0.0000      0.0000      0.0000      0.0000      0.0729      0.0000      0.0000
140      0.0000      0.0322      0.0000      0.0478      0.0000      0.0000      0.0000      0.3197      0.0933
141      0.0010      2.5055      1.9899      2.1994      2.3498      2.2117      2.6044      2.3838      2.4266
142      0.0000      0.0683      0.0000      0.0000      0.0889      0.2040      0.0000      0.0000      0.0000
143      0.0000      0.0332      0.0000      0.0000      0.0000      0.0000      0.0000      0.0000      0.0000
144      0.0000      0.0161      0.0000      0.0000      0.0000      0.0000      0.0000      0.0000      0.0000
145      0.0000      0.0095      0.0000      0.0000      0.0000      0.0000      0.0000      0.0000      0.0000
146      0.0000      0.0101      0.0000      0.0000      0.0005      0.0000      0.0000      0.0000      0.0000
147      0.0000      0.0124      0.0000      0.0000      0.0000      0.0000      0.0000      0.0000      0.0000
148      0.0000      0.0132      0.0000      0.0000      0.0000      0.0000      0.0000      0.0000      0.0000
149      0.0000      0.0175      0.0000      0.0000      0.0000      0.0000      0.0000      0.0000      0.0000
150      0.0000      0.0496      0.0000      0.0000      0.0000      0.0000      0.0000      0.0000      0.0000

# j      m_j: min, <> & last-chain-values for 1 ...  7 chains
  1  0.0000E+00  1.0180E-04  0.0000E+00  0.0000E+00  0.0000E+00  0.0000E+00  0.0000E+00  0.0000E+00  0.0000E+00
  2  1.2037E-01  1.2000E-01  1.2310E-01  1.2974E-01  1.2552E-01  1.2763E-01  1.1939E-01  1.2826E-01  1.2169E-01
  3  0.0000E+00  3.8398E-05  0.0000E+00  0.0000E+00  0.0000E+00  0.0000E+00  0.0000E+00  0.0000E+00  0.0000E+00
  4  0.0000E+00  3.4606E-05  0.0000E+00  0.0000E+00  0.0000E+00  0.0000E+00  0.0000E+00  0.0000E+00  0.0000E+00
  5  0.0000E+00  1.4124E-04  0.0000E+00  0.0000E+00  0.0000E+00  0.0000E+00  0.0000E+00  0.0000E+00  0.0000E+00
  6  0.0000E+00  4.3376E-05  0.0000E+00  0.0000E+00  0.0000E+00  0.0000E+00  0.0000E+00  0.0000E+00  0.0000E+00
  7  0.0000E+00  9.4600E-05  0.0000E+00  0.0000E+00  0.0000E+00  0.0000E+00  0.0000E+00  0.0000E+00  0.0000E+00
  8  0.0000E+00  5.8089E-04  0.0000E+00  0.0000E+00  0.0000E+00  0.0000E+00  0.0000E+00  7.0799E-03  0.0000E+00
  9  0.0000E+00  2.0327E-03  1.2757E-02  0.0000E+00  0.0000E+00  0.0000E+00  0.0000E+00  7.0960E-03  0.0000E+00
 10  0.0000E+00  1.9447E-03  0.0000E+00  5.2326E-03  1.0181E-03  3.0305E-04  6.2034E-03  0.0000E+00  0.0000E+00
 11  4.0565E-02  1.6274E-02  3.0367E-02  4.4004E-02  2.9224E-02  5.6236E-03  1.6413E-02  4.3005E-02  2.6347E-02
 12  0.0000E+00  4.7782E-03  0.0000E+00  0.0000E+00  0.0000E+00  1.2494E-03  0.0000E+00  0.0000E+00  0.0000E+00
 13  0.0000E+00  2.6018E-03  0.0000E+00  0.0000E+00  9.0339E-03  0.0000E+00  0.0000E+00  0.0000E+00  0.0000E+00
 14  0.0000E+00  1.6483E-03  0.0000E+00  0.0000E+00  0.0000E+00  0.0000E+00  0.0000E+00  0.0000E+00  0.0000E+00
 15  0.0000E+00  3.3444E-03  0.0000E+00  0.0000E+00  0.0000E+00  0.0000E+00  0.0000E+00  0.0000E+00  0.0000E+00
 16  0.0000E+00  5.9611E-03  0.0000E+00  0.0000E+00  0.0000E+00  0.0000E+00  0.0000E+00  0.0000E+00  5.7703E-02
 17  0.0000E+00  5.6773E-03  0.0000E+00  0.0000E+00  0.0000E+00  0.0000E+00  0.0000E+00  0.0000E+00  0.0000E+00
 18  0.0000E+00  1.6400E-02  0.0000E+00  0.0000E+00  0.0000E+00  4.6796E-03  0.0000E+00  1.4139E-02  0.0000E+00
 19  0.0000E+00  5.4313E-02  1.6401E-02  6.9413E-02  1.4662E-01  0.0000E+00  0.0000E+00  0.0000E+00  0.0000E+00
 20  0.0000E+00  1.4074E-01  0.0000E+00  5.3066E-02  0.0000E+00  4.0629E-02  0.0000E+00  0.0000E+00  0.0000E+00
 21  0.0000E+00  1.8842E-01  0.0000E+00  6.8506E-01  0.0000E+00  0.0000E+00  0.0000E+00  1.6034E-01  0.0000E+00
 22  0.0000E+00  2.1886E-01  0.0000E+00  0.0000E+00  0.0000E+00  2.2071E-02  4.8339E-01  0.0000E+00  3.7377E-01
 23  0.0000E+00  3.6172E-01  0.0000E+00  0.0000E+00  0.0000E+00  3.2080E-01  3.7010E-02  2.0027E+00  3.5334E-01
 24  0.0000E+00  5.2034E-01  0.0000E+00  0.0000E+00  7.5997E-01  5.4035E-01  0.0000E+00  0.0000E+00  0.0000E+00
 25  3.5796E-01  9.2853E-01  2.0876E+00  4.9210E-01  8.6939E-01  7.9220E-01  2.6701E+00  1.2837E+00  0.0000E+00
 26  0.0000E+00  5.4824E-05  0.0000E+00  0.0000E+00  0.0000E+00  0.0000E+00  0.0000E+00  0.0000E+00  0.0000E+00
 27  0.0000E+00  1.2343E-04  0.0000E+00  0.0000E+00  0.0000E+00  0.0000E+00  0.0000E+00  0.0000E+00  5.3608E-04
 28  0.0000E+00  5.2416E-05  0.0000E+00  0.0000E+00  0.0000E+00  0.0000E+00  0.0000E+00  0.0000E+00  0.0000E+00
 29  0.0000E+00  3.3260E-05  0.0000E+00  0.0000E+00  0.0000E+00  0.0000E+00  0.0000E+00  0.0000E+00  0.0000E+00
 30  0.0000E+00  7.5804E-05  0.0000E+00  0.0000E+00  0.0000E+00  1.2043E-03  0.0000E+00  0.0000E+00  0.0000E+00
 31  0.0000E+00  7.1199E-05  0.0000E+00  0.0000E+00  0.0000E+00  0.0000E+00  0.0000E+00  0.0000E+00  0.0000E+00
 32  0.0000E+00  3.0950E-04  0.0000E+00  0.0000E+00  0.0000E+00  0.0000E+00  0.0000E+00  0.0000E+00  0.0000E+00
 33  0.0000E+00  3.8017E-04  1.5716E-04  5.3118E-03  0.0000E+00  0.0000E+00  0.0000E+00  0.0000E+00  2.4177E-03
 34  0.0000E+00  1.3045E-03  6.2439E-04  0.0000E+00  0.0000E+00  0.0000E+00  0.0000E+00  7.2230E-04  5.1220E-03
 35  4.9683E-05  2.3842E-03  0.0000E+00  0.0000E+00  0.0000E+00  0.0000E+00  1.1595E-02  0.0000E+00  0.0000E+00
 36  5.9174E-02  8.1160E-03  6.4937E-03  0.0000E+00  1.5597E-02  2.0104E-03  1.7828E-02  0.0000E+00  2.1766E-02
 37  6.4820E-02  6.8193E-03  0.0000E+00  0.0000E+00  6.7889E-03  0.0000E+00  3.0800E-02  6.3585E-03  7.7854E-03
 38  0.0000E+00  1.9154E-03  0.0000E+00  7.7610E-03  0.0000E+00  0.0000E+00  1.7241E-03  0.0000E+00  0.0000E+00
 39  0.0000E+00  2.3493E-03  0.0000E+00  0.0000E+00  0.0000E+00  0.0000E+00  0.0000E+00  0.0000E+00  0.0000E+00
 40  0.0000E+00  3.4121E-03  0.0000E+00  0.0000E+00  1.0838E-02  0.0000E+00  0.0000E+00  0.0000E+00  0.0000E+00
 41  0.0000E+00  8.1566E-03  0.0000E+00  0.0000E+00  1.2245E-03  0.0000E+00  0.0000E+00  0.0000E+00  0.0000E+00
 42  0.0000E+00  1.1037E-02  0.0000E+00  0.0000E+00  0.0000E+00  4.0979E-02  0.0000E+00  0.0000E+00  0.0000E+00
 43  0.0000E+00  1.0995E+00  1.1285E+00  9.7237E-01  6.0153E-01  7.8321E-01  2.1456E-02  8.1251E-01  3.0969E-01
 44  2.0581E+01  2.3524E+01  2.4684E+01  2.3835E+01  2.4697E+01  2.3842E+01  2.2465E+01  2.4607E+01  2.4276E+01
 45  6.5955E+00  1.0752E+00  2.2772E-01  9.5247E-01  3.1255E-01  3.2012E+00  2.1432E+00  2.9474E+00  2.1370E+00
 46  3.4808E+00  1.0881E+00  7.6749E-01  2.6623E+00  8.1803E-01  1.2815E+00  2.2611E+00  0.0000E+00  3.5865E-01
 47  0.0000E+00  8.7881E-01  2.3390E+00  0.0000E+00  2.1199E+00  1.0056E-01  3.3822E-02  5.8197E-01  6.6566E-01
 48  8.6755E-01  9.0439E-01  0.0000E+00  0.0000E+00  0.0000E+00  3.4090E-01  7.8547E-01  2.5666E-01  1.9385E+00
 49  1.0726E-01  8.2102E-01  0.0000E+00  1.3959E+00  2.0331E+00  0.0000E+00  3.0324E+00  0.0000E+00  2.2650E+00
 50  0.0000E+00  1.2746E+00  0.0000E+00  0.0000E+00  3.9698E-01  0.0000E+00  7.0480E-01  1.0378E+00  9.1472E-01
 51  0.0000E+00  3.3112E-05  0.0000E+00  0.0000E+00  0.0000E+00  0.0000E+00  0.0000E+00  0.0000E+00  0.0000E+00
 52  0.0000E+00  2.4312E-04  0.0000E+00  0.0000E+00  0.0000E+00  0.0000E+00  0.0000E+00  1.7968E-04  0.0000E+00
 53  0.0000E+00  3.8588E-05  0.0000E+00  0.0000E+00  0.0000E+00  0.0000E+00  0.0000E+00  0.0000E+00  0.0000E+00
 54  0.0000E+00  3.3539E-04  1.6467E-03  2.8034E-04  0.0000E+00  0.0000E+00  0.0000E+00  0.0000E+00  1.4687E-03
 55  0.0000E+00  5.9352E-04  8.9201E-04  0.0000E+00  2.0997E-03  1.4611E-03  0.0000E+00  0.0000E+00  0.0000E+00
 56  0.0000E+00  2.2868E-04  0.0000E+00  0.0000E+00  0.0000E+00  0.0000E+00  0.0000E+00  0.0000E+00  0.0000E+00
 57  0.0000E+00  2.0042E-04  0.0000E+00  0.0000E+00  6.2200E-05  0.0000E+00  0.0000E+00  0.0000E+00  0.0000E+00
 58  0.0000E+00  5.3196E-04  0.0000E+00  0.0000E+00  0.0000E+00  0.0000E+00  0.0000E+00  0.0000E+00  0.0000E+00
 59  0.0000E+00  8.1393E-04  0.0000E+00  0.0000E+00  0.0000E+00  0.0000E+00  0.0000E+00  0.0000E+00  0.0000E+00
 60  4.4478E-05  2.3679E-03  0.0000E+00  0.0000E+00  8.8193E-03  5.5943E-03  1.2502E-02  6.8133E-03  8.8450E-03
 61  0.0000E+00  7.3420E-03  1.2338E-02  1.8202E-02  0.0000E+00  6.0518E-02  0.0000E+00  0.0000E+00  0.0000E+00
 62  1.0417E-01  5.8640E-03  0.0000E+00  0.0000E+00  3.1379E-03  1.9377E-02  5.5577E-02  1.9036E-02  0.0000E+00
 63  0.0000E+00  4.0796E-03  0.0000E+00  0.0000E+00  0.0000E+00  0.0000E+00  3.6206E-03  1.5163E-02  2.7534E-02
 64  0.0000E+00  5.4425E-03  0.0000E+00  1.2350E-02  0.0000E+00  7.6943E-04  0.0000E+00  0.0000E+00  0.0000E+00
 65  0.0000E+00  1.3391E-02  0.0000E+00  0.0000E+00  8.3387E-02  1.2136E-02  0.0000E+00  0.0000E+00  0.0000E+00
 66  0.0000E+00  2.3244E-02  1.0034E-01  0.0000E+00  0.0000E+00  1.2662E-02  5.1236E-03  0.0000E+00  0.0000E+00
 67  0.0000E+00  5.2404E-02  4.8857E-02  3.3135E-01  0.0000E+00  3.6981E-02  0.0000E+00  5.0046E-02  0.0000E+00
 68  1.2980E+01  1.4939E+01  1.4728E+01  1.4491E+01  1.5351E+01  1.5391E+01  1.4715E+01  1.6057E+01  1.5145E+01
 69  6.3105E-03  2.2481E-01  3.0949E-01  1.7251E-01  0.0000E+00  0.0000E+00  4.9215E-01  5.0315E-01  1.4155E-01
 70  8.4320E+00  4.6903E+00  5.2119E+00  5.2631E+00  4.1445E+00  5.0114E+00  5.1549E+00  4.7955E+00  4.2729E+00
 71  3.1590E+01  2.6198E+01  2.8052E+01  2.8045E+01  2.7080E+01  2.6955E+01  2.5537E+01  2.8835E+01  2.9108E+01
 72  1.4589E+01  8.2776E+00  8.7194E+00  9.4605E+00  1.0535E+01  8.0948E+00  9.0486E+00  1.0131E+01  8.3249E+00
 73  0.0000E+00  1.0372E+00  1.3101E+00  0.0000E+00  8.2648E-01  3.1667E+00  0.0000E+00  0.0000E+00  7.7302E-03
 74  6.7165E-03  1.5375E+00  3.2968E+00  8.1580E-01  1.8154E+00  1.3587E+00  2.7828E+00  0.0000E+00  3.2279E+00
 75  1.6207E-02  1.4361E+00  2.8760E+00  2.6710E+00  2.6611E+00  3.5731E+00  1.8888E+00  2.4792E-01  1.0401E+00
 76  0.0000E+00  3.7446E-05  0.0000E+00  0.0000E+00  0.0000E+00  0.0000E+00  4.6371E-06  0.0000E+00  0.0000E+00
 77  0.0000E+00  1.2463E-05  0.0000E+00  0.0000E+00  0.0000E+00  0.0000E+00  0.0000E+00  0.0000E+00  0.0000E+00
 78  0.0000E+00  4.1507E-05  0.0000E+00  0.0000E+00  0.0000E+00  0.0000E+00  0.0000E+00  0.0000E+00  0.0000E+00
 79  0.0000E+00  1.5290E-04  0.0000E+00  0.0000E+00  0.0000E+00  0.0000E+00  0.0000E+00  9.2872E-05  0.0000E+00
 80  0.0000E+00  1.8618E-04  0.0000E+00  0.0000E+00  0.0000E+00  0.0000E+00  0.0000E+00  0.0000E+00  0.0000E+00
 81  0.0000E+00  1.3081E-04  0.0000E+00  0.0000E+00  0.0000E+00  4.4757E-04  0.0000E+00  0.0000E+00  0.0000E+00
 82  0.0000E+00  4.3230E-04  0.0000E+00  1.2129E-03  0.0000E+00  0.0000E+00  0.0000E+00  1.1587E-03  1.5308E-03
 83  3.6289E-05  3.3927E-03  0.0000E+00  3.2674E-04  0.0000E+00  0.0000E+00  6.7137E-03  3.3228E-03  5.9066E-03
 84  0.0000E+00  2.5100E-03  0.0000E+00  0.0000E+00  0.0000E+00  7.5073E-03  1.1381E-02  0.0000E+00  0.0000E+00
 85  0.0000E+00  2.6765E-03  1.6606E-02  0.0000E+00  3.0216E-02  0.0000E+00  0.0000E+00  1.8529E-03  0.0000E+00
 86  0.0000E+00  7.4831E-03  0.0000E+00  2.4050E-02  0.0000E+00  6.0259E-03  0.0000E+00  2.1548E-02  5.0878E-02
 87  0.0000E+00  5.4332E-03  1.6451E-02  0.0000E+00  4.4178E-04  0.0000E+00  0.0000E+00  0.0000E+00  0.0000E+00
 88  0.0000E+00  2.1777E-03  0.0000E+00  0.0000E+00  1.4012E-02  0.0000E+00  0.0000E+00  0.0000E+00  0.0000E+00
 89  0.0000E+00  2.3803E-03  0.0000E+00  6.4447E-02  0.0000E+00  0.0000E+00  2.3794E-03  0.0000E+00  0.0000E+00
 90  0.0000E+00  2.4213E-03  0.0000E+00  0.0000E+00  0.0000E+00  0.0000E+00  0.0000E+00  0.0000E+00  0.0000E+00
 91  0.0000E+00  9.7035E-03  0.0000E+00  0.0000E+00  0.0000E+00  3.2924E-02  3.6032E-03  0.0000E+00  0.0000E+00
 92  0.0000E+00  9.6160E-03  0.0000E+00  4.1597E-02  0.0000E+00  0.0000E+00  3.9410E-02  0.0000E+00  0.0000E+00
 93  0.0000E+00  5.7175E-02  0.0000E+00  2.8293E-01  0.0000E+00  0.0000E+00  0.0000E+00  0.0000E+00  0.0000E+00
 94  0.0000E+00  2.5388E-01  3.0524E-01  5.6194E-01  0.0000E+00  1.4424E+00  0.0000E+00  6.7076E-01  1.5441E-01
 95  0.0000E+00  3.5105E-01  5.8693E-01  1.4954E+00  0.0000E+00  0.0000E+00  7.4819E-01  0.0000E+00  1.1463E+00
 96  0.0000E+00  3.1265E-01  0.0000E+00  0.0000E+00  1.2140E-01  0.0000E+00  8.4258E-01  3.4703E-01  0.0000E+00
 97  0.0000E+00  2.4106E-01  0.0000E+00  2.2582E-01  0.0000E+00  0.0000E+00  8.7441E-01  0.0000E+00  0.0000E+00
 98  0.0000E+00  3.0956E-01  0.0000E+00  0.0000E+00  0.0000E+00  0.0000E+00  0.0000E+00  0.0000E+00  0.0000E+00
 99  0.0000E+00  3.2548E-01  6.5158E-01  0.0000E+00  1.1103E+00  0.0000E+00  0.0000E+00  7.1324E-01  0.0000E+00
100  0.0000E+00  2.7697E-01  0.0000E+00  1.2155E+00  0.0000E+00  6.0612E-01  0.0000E+00  3.2892E-01  1.1958E-01
101  0.0000E+00  4.2940E-05  1.4448E-05  0.0000E+00  0.0000E+00  0.0000E+00  0.0000E+00  0.0000E+00  2.3965E-05
102  0.0000E+00  2.2409E-05  0.0000E+00  0.0000E+00  0.0000E+00  0.0000E+00  0.0000E+00  0.0000E+00  0.0000E+00
103  0.0000E+00  6.2957E-05  0.0000E+00  2.8589E-04  0.0000E+00  6.2752E-04  0.0000E+00  0.0000E+00  0.0000E+00
104  0.0000E+00  9.8550E-05  9.0612E-05  0.0000E+00  0.0000E+00  0.0000E+00  0.0000E+00  0.0000E+00  5.0198E-04
105  0.0000E+00  5.3876E-05  0.0000E+00  0.0000E+00  0.0000E+00  0.0000E+00  0.0000E+00  0.0000E+00  0.0000E+00
106  0.0000E+00  7.5569E-05  0.0000E+00  0.0000E+00  0.0000E+00  0.0000E+00  0.0000E+00  0.0000E+00  0.0000E+00
107  0.0000E+00  1.2326E-04  0.0000E+00  0.0000E+00  0.0000E+00  0.0000E+00  0.0000E+00  0.0000E+00  0.0000E+00
108  0.0000E+00  2.5024E-04  0.0000E+00  0.0000E+00  0.0000E+00  0.0000E+00  0.0000E+00  0.0000E+00  0.0000E+00
109  0.0000E+00  6.8367E-04  0.0000E+00  6.1717E-04  0.0000E+00  0.0000E+00  0.0000E+00  0.0000E+00  0.0000E+00
110  0.0000E+00  1.1915E-03  0.0000E+00  0.0000E+00  0.0000E+00  1.1320E-03  5.8110E-04  0.0000E+00  0.0000E+00
111  0.0000E+00  2.6298E-03  0.0000E+00  0.0000E+00  0.0000E+00  1.0696E-02  0.0000E+00  3.3570E-03  3.0798E-03
112  0.0000E+00  2.1585E-03  0.0000E+00  0.0000E+00  0.0000E+00  0.0000E+00  0.0000E+00  0.0000E+00  0.0000E+00
113  0.0000E+00  1.7301E-03  0.0000E+00  0.0000E+00  0.0000E+00  0.0000E+00  0.0000E+00  0.0000E+00  0.0000E+00
114  0.0000E+00  1.3984E-03  1.2595E-02  0.0000E+00  0.0000E+00  0.0000E+00  0.0000E+00  0.0000E+00  0.0000E+00
115  0.0000E+00  1.0748E-02  0.0000E+00  0.0000E+00  9.9169E-03  0.0000E+00  0.0000E+00  0.0000E+00  0.0000E+00
116  0.0000E+00  3.4916E-02  0.0000E+00  0.0000E+00  0.0000E+00  9.0211E-02  0.0000E+00  0.0000E+00  0.0000E+00
117  0.0000E+00  4.4305E-02  0.0000E+00  0.0000E+00  0.0000E+00  0.0000E+00  0.0000E+00  1.3208E-01  0.0000E+00
118  0.0000E+00  1.2669E-01  0.0000E+00  1.0118E-02  0.0000E+00  0.0000E+00  0.0000E+00  2.0455E-01  0.0000E+00
119  0.0000E+00  1.2101E-01  0.0000E+00  0.0000E+00  0.0000E+00  0.0000E+00  6.9467E-02  3.7685E-02  7.0487E-01
120  0.0000E+00  1.2851E-01  0.0000E+00  1.0892E+00  0.0000E+00  0.0000E+00  0.0000E+00  0.0000E+00  4.7814E-02
121  0.0000E+00  1.4214E-01  0.0000E+00  0.0000E+00  6.5735E-01  0.0000E+00  0.0000E+00  3.6005E-02  0.0000E+00
122  0.0000E+00  1.5675E-01  0.0000E+00  0.0000E+00  0.0000E+00  0.0000E+00  0.0000E+00  0.0000E+00  0.0000E+00
123  0.0000E+00  1.5535E-01  0.0000E+00  0.0000E+00  0.0000E+00  0.0000E+00  1.3856E-01  0.0000E+00  0.0000E+00
124  0.0000E+00  1.0058E-01  0.0000E+00  0.0000E+00  0.0000E+00  0.0000E+00  0.0000E+00  1.1517E-01  0.0000E+00
125  0.0000E+00  2.4615E-01  2.1881E-01  0.0000E+00  0.0000E+00  0.0000E+00  9.3874E-03  0.0000E+00  0.0000E+00
126  0.0000E+00  2.0875E-05  0.0000E+00  0.0000E+00  0.0000E+00  0.0000E+00  0.0000E+00  0.0000E+00  0.0000E+00
127  0.0000E+00  4.1230E-05  0.0000E+00  0.0000E+00  0.0000E+00  0.0000E+00  0.0000E+00  0.0000E+00  0.0000E+00
128  0.0000E+00  7.5676E-05  0.0000E+00  0.0000E+00  0.0000E+00  0.0000E+00  0.0000E+00  0.0000E+00  0.0000E+00
129  0.0000E+00  5.9882E-05  0.0000E+00  0.0000E+00  0.0000E+00  0.0000E+00  0.0000E+00  0.0000E+00  0.0000E+00
130  0.0000E+00  7.4679E-05  0.0000E+00  0.0000E+00  0.0000E+00  0.0000E+00  0.0000E+00  0.0000E+00  0.0000E+00
131  0.0000E+00  5.0189E-05  0.0000E+00  0.0000E+00  0.0000E+00  1.1060E-04  0.0000E+00  0.0000E+00  0.0000E+00
132  0.0000E+00  8.3376E-05  0.0000E+00  0.0000E+00  0.0000E+00  0.0000E+00  0.0000E+00  0.0000E+00  0.0000E+00
133  0.0000E+00  2.4716E-04  0.0000E+00  0.0000E+00  0.0000E+00  0.0000E+00  0.0000E+00  0.0000E+00  0.0000E+00
134  0.0000E+00  1.1462E-03  0.0000E+00  0.0000E+00  0.0000E+00  0.0000E+00  0.0000E+00  0.0000E+00  0.0000E+00
135  0.0000E+00  2.2188E-03  1.6775E-02  1.2120E-03  0.0000E+00  0.0000E+00  0.0000E+00  0.0000E+00  0.0000E+00
136  0.0000E+00  3.0623E-03  0.0000E+00  0.0000E+00  3.0701E-03  0.0000E+00  1.4729E-02  0.0000E+00  0.0000E+00
137  0.0000E+00  2.9517E-03  0.0000E+00  0.0000E+00  0.0000E+00  2.4448E-02  0.0000E+00  0.0000E+00  0.0000E+00
138  0.0000E+00  3.2896E-03  0.0000E+00  0.0000E+00  0.0000E+00  0.0000E+00  0.0000E+00  0.0000E+00  0.0000E+00
139  0.0000E+00  6.9289E-03  0.0000E+00  0.0000E+00  0.0000E+00  0.0000E+00  2.1159E-02  0.0000E+00  0.0000E+00
140  0.0000E+00  2.1811E-02  0.0000E+00  3.3527E-02  0.0000E+00  0.0000E+00  0.0000E+00  2.2759E-01  6.4267E-02
141  9.8207E-04  2.5963E+00  2.0839E+00  2.3602E+00  2.4724E+00  2.3686E+00  2.6793E+00  2.5976E+00  2.5587E+00
142  0.0000E+00  8.4215E-02  0.0000E+00  0.0000E+00  1.1129E-01  2.5994E-01  0.0000E+00  0.0000E+00  0.0000E+00
143  0.0000E+00  8.1383E-02  0.0000E+00  0.0000E+00  0.0000E+00  0.0000E+00  0.0000E+00  0.0000E+00  0.0000E+00
144  0.0000E+00  7.7421E-02  0.0000E+00  0.0000E+00  0.0000E+00  0.0000E+00  0.0000E+00  0.0000E+00  0.0000E+00
145  0.0000E+00  6.8261E-02  0.0000E+00  0.0000E+00  0.0000E+00  0.0000E+00  0.0000E+00  0.0000E+00  0.0000E+00
146  0.0000E+00  8.6099E-02  0.0000E+00  0.0000E+00  4.3423E-03  0.0000E+00  0.0000E+00  0.0000E+00  0.0000E+00
147  0.0000E+00  1.4272E-01  0.0000E+00  0.0000E+00  0.0000E+00  0.0000E+00  0.0000E+00  0.0000E+00  0.0000E+00
148  0.0000E+00  2.0512E-01  0.0000E+00  0.0000E+00  0.0000E+00  0.0000E+00  0.0000E+00  0.0000E+00  0.0000E+00
149  0.0000E+00  3.1971E-01  0.0000E+00  0.0000E+00  0.0000E+00  0.0000E+00  0.0000E+00  0.0000E+00  0.0000E+00
150  0.0000E+00  1.0771E+00  0.0000E+00  0.0000E+00  0.0000E+00  0.0000E+00  0.0000E+00  0.0000E+00  0.0000E+00

# AV, chi2 & Mass for <> & i_chain = 1 ...  7 solutions
AV       0.9516      0.9117      0.9264      0.9331      0.9287      0.9308      0.9229      0.9281      0.9245
chi2 1.4268E+00  1.5128E+00  1.4764E+00  1.4802E+00  1.4746E+00  1.4802E+00  1.4756E+00  1.4820E+00  1.4772E+00
Mass 2.5106E-10  2.3665E-10  2.3887E-10  2.3519E-10  2.3847E-10  2.3494E-10  2.4200E-10  2.3008E-10  2.3662E-10
 -18.58                                  [v0_min (km/s) before EX0s...]
  82.46                                  [vd_min (km/s) before EX0s...]


## Synthetic spectrum (Best Model) ##l_obs f_obs f_syn wei
 3070    [Nl_obs]
 3359.00    0.28369   0.48795   -1.000
 3360.00    0.27589   0.47582   -1.000
 3361.00    0.28074   0.48172   -1.000
 3362.00    0.32597   0.50234   -1.000
 3363.00    0.35416   0.52623   -1.000
 3364.00    0.36913   0.54088   -1.000
 3365.00    0.37495   0.54114   -1.000
 3366.00    0.36855   0.53094   -1.000
 3367.00    0.36397   0.51718   -1.000
 3368.00    0.36896   0.50502   -1.000
 3369.00    0.37183   0.49569   -1.000
 3370.00    0.37643   0.48834   -1.000
 3371.00    0.37276   0.48445   -1.000
 3372.00    0.36866   0.48817   -1.000
 3373.00    0.38155   0.50198   -1.000
 3374.00    0.37130   0.52296   -1.000
 3375.00    0.40860   0.54322   -1.000
 3376.00    0.43847   0.55307   -1.000
 3377.00    0.42135   0.54855   -1.000
 3378.00    0.40414   0.53538   -1.000
 3379.00    0.39817   0.52396   -1.000
 3380.00    0.38903   0.52135   -1.000
 3381.00    0.38830   0.52751   -1.000
 3382.00    0.41399   0.53737   -1.000
 3383.00    0.43661   0.54616   -1.000
 3384.00    0.42221   0.55297   -1.000
 3385.00    0.45688   0.55793   -1.000
 3386.00    0.44463   0.55913   -1.000
 3387.00    0.44231   0.55685   -1.000
 3388.00    0.45802   0.55483   -1.000
 3389.00    0.45191   0.55490   -1.000
 3390.00    0.42831   0.55479   -1.000
 3391.00    0.45506   0.55139   -1.000
 3392.00    0.46623   0.54585   -1.000
 3393.00    0.45306   0.54476   -1.000
 3394.00    0.45362   0.55237   -1.000
 3395.00    0.45524   0.56600   -1.000
 3396.00    0.44950   0.58043   -1.000
 3397.00    0.48998   0.59145   -1.000
 3398.00    0.50365   0.59597   -1.000
 3399.00    0.48099   0.59283   -1.000
 3400.00    0.49674   0.58393   -1.000
 3401.00    0.51676   0.57156   -1.000
 3402.00    0.49599   0.55890   -1.000
 3403.00    0.47702   0.55051   -1.000
 3404.00    0.45873   0.54782   -1.000
 3405.00    0.46320   0.54730   -1.000
 3406.00    0.49284   0.54458   -1.000
 3407.00    0.46808   0.54008   -1.000
 3408.00    0.45234   0.53816   -1.000
 3409.00    0.47758   0.54148   -1.000
 3410.00    0.46525   0.54639   -1.000
 3411.00    0.46909   0.54748   -1.000
 3412.00    0.49317   0.54447   -1.000
 3413.00    0.49471   0.54148   -1.000
 3414.00    0.47971   0.54293   -1.000
 3415.00    0.48602   0.54959   -1.000
 3416.00    0.48298   0.55914   -1.000
 3417.00    0.48723   0.56955   -1.000
 3418.00    0.50189   0.57967   -1.000
 3419.00    0.51275   0.58764   -1.000
 3420.00    0.52050   0.59081   -1.000
 3421.00    0.54052   0.58761   -1.000
 3422.00    0.53017   0.57999   -1.000
 3423.00    0.52029   0.57289   -1.000
 3424.00    0.51594   0.57011   -1.000
 3425.00    0.50965   0.57185   -1.000
 3426.00    0.50458   0.57732   -1.000
 3427.00    0.51445   0.58733   -1.000
 3428.00    0.52917   0.60065   -1.000
 3429.00    0.55524   0.61040   -1.000
 3430.00    0.55699   0.60913   -1.000
 3431.00    0.56355   0.59750   -1.000
 3432.00    0.55418   0.58451   -1.000
 3433.00    0.50910   0.57909   -1.000
 3434.00    0.53508   0.58317   -1.000
 3435.00    0.54485   0.59033   -1.000
 3436.00    0.53836   0.59216   -1.000
 3437.00    0.53471   0.58531   -1.000
 3438.00    0.54160   0.57105   -1.000
 3439.00    0.52891   0.55199  132.112
 3440.00    0.52590   0.53213  124.791
 3441.00    0.49598   0.51777  120.052
 3442.00    0.46859   0.51346   -1.000
 3443.00    0.48233   0.51833   -1.000
 3444.00    0.49610   0.52842   -1.000
 3445.00    0.49762   0.54157   -1.000
 3446.00    0.53118   0.55798   -1.000
 3447.00    0.57274   0.57624  812.114
 3448.00    0.57632   0.59142   -1.000
 3449.00    0.57999   0.59685   -1.000
 3450.00    0.58582   0.58970  812.114
 3451.00    0.58912   0.57517   -1.000
 3452.00    0.58470   0.56267   -1.000
 3453.00    0.55156   0.55869  133.943
 3454.00    0.55540   0.56273  117.728
 3455.00    0.58739   0.56894  117.263
 3456.00    0.59565   0.57077   -1.000
 3457.00    0.59139   0.56570   -1.000
 3458.00    0.56882   0.55624   -1.000
 3459.00    0.56320   0.54622   -1.000
 3460.00    0.56995   0.53975   -1.000
 3461.00    0.54548   0.54204   -1.000
 3462.00    0.54813   0.55341   -1.000
 3463.00    0.57580   0.56515   -1.000
 3464.00    0.57014   0.56950  812.114
 3465.00    0.57831   0.56863   -1.000
 3466.00    0.57679   0.56958   -1.000
 3467.00    0.58709   0.57600   -1.000
 3468.00    0.57947   0.58600   -1.000
 3469.00    0.59455   0.59433  131.403
 3470.00    0.61787   0.59595  121.257
 3471.00    0.60889   0.58976  119.356
 3472.00    0.60511   0.57761   -1.000
 3473.00    0.58237   0.56144   -1.000
 3474.00    0.55939   0.54517   -1.000
 3475.00    0.53699   0.53517  812.114
 3476.00    0.54787   0.53578   -1.000
 3477.00    0.57781   0.54531   -1.000
 3478.00    0.60010   0.55825   -1.000
 3479.00    0.62056   0.57019   -1.000
 3480.00    0.60722   0.57821   -1.000
 3481.00    0.58413   0.57995   -1.000
 3482.00    0.60524   0.57622   -1.000
 3483.00    0.60896   0.57236   -1.000
 3484.00    0.60534   0.57476   -1.000
 3485.00    0.58634   0.58429  812.114
 3486.00    0.59294   0.59395  812.114
 3487.00    0.62505   0.59556   -1.000
 3488.00    0.60974   0.58687   -1.000
 3489.00    0.58477   0.57306   -1.000
 3490.00    0.56626   0.56337   -1.000
 3491.00    0.56950   0.56277   -1.000
 3492.00    0.57758   0.56705   -1.000
 3493.00    0.58788   0.56851   -1.000
 3494.00    0.58122   0.56359   -1.000
 3495.00    0.57088   0.55488   -1.000
 3496.00    0.57404   0.55032   -1.000
 3497.00    0.55244   0.55598  812.114
 3498.00    0.57016   0.56890  812.114
 3499.00    0.59959   0.57990   -1.000
 3500.00    0.61592   0.58408   -1.000
 3501.00    0.62275   0.58518   -1.000
 3502.00    0.61025   0.58742   -1.000
 3503.00    0.60776   0.58876   -1.000
 3504.00    0.61713   0.58561   -1.000
 3505.00    0.61706   0.57937   -1.000
 3506.00    0.59956   0.57456   -1.000
 3507.00    0.60308   0.57304   -1.000
 3508.00    0.62839   0.57272   -1.000
 3509.00    0.61241   0.57069   -1.000
 3510.00    0.59627   0.56652   -1.000
 3511.00    0.57261   0.56155   -1.000
 3512.00    0.56952   0.55629   -1.000
 3513.00    0.58638   0.55285   -1.000
 3514.00    0.58013   0.55581   -1.000
 3515.00    0.58041   0.56783   -1.000
 3516.00    0.60034   0.58487   -1.000
 3517.00    0.63045   0.59772   -1.000
 3518.00    0.63660   0.59925   -1.000
 3519.00    0.59604   0.58991  120.396
 3520.00    0.60134   0.57624   -1.000
 3521.00    0.59123   0.56455   -1.000
 3522.00    0.55621   0.55542  812.114
 3523.00    0.53601   0.54630   -1.000
 3524.00    0.53694   0.53760  812.114
 3525.00    0.52513   0.53469   -1.000
 3526.00    0.51544   0.54219   -1.000
 3527.00    0.54128   0.55845   -1.000
 3528.00    0.59046   0.57683   -1.000
 3529.00    0.60724   0.59046   -1.000
 3530.00    0.61255   0.59672   -1.000
 3531.00    0.61431   0.59738   -1.000
 3532.00    0.63926   0.59523   -1.000
 3533.00    0.62790   0.59264   -1.000
 3534.00    0.62376   0.59170   -1.000
 3535.00    0.62886   0.59408   -1.000
 3536.00    0.61739   0.59996   -1.000
 3537.00    0.63169   0.60799   -1.000
 3538.00    0.63040   0.61581   -1.000
 3539.00    0.65647   0.62045   -1.000
 3540.00    0.62920   0.62063   -1.000
 3541.00    0.58556   0.61902   -1.000
 3542.00    0.61063   0.61946   -1.000
 3543.00    0.60852   0.62268   -1.000
 3544.00    0.64750   0.62557   -1.000
 3545.00    0.62535   0.62535  812.114
 3546.00    0.63075   0.62286   -1.000
 3547.00    0.61411   0.62092   -1.000
 3548.00    0.61521   0.62123   -1.000
 3549.00    0.62257   0.62316  812.114
 3550.00    0.62727   0.62470  812.114
 3551.00    0.62170   0.62325  812.114
 3552.00    0.60492   0.61806   -1.000
 3553.00    0.59039   0.61183   -1.000
 3554.00    0.60181   0.60837   -1.000
 3555.00    0.59465   0.60890   -1.000
 3556.00    0.59536   0.61181   -1.000
 3557.00    0.60215   0.61422   -1.000
 3558.00    0.60330   0.61456   -1.000
 3559.00    0.60554   0.61451  117.670
 3560.00    0.60229   0.61705  122.295
 3561.00    0.59944   0.62150  120.839
 3562.00    0.61354   0.62194  120.362
 3563.00    0.60274   0.61166  124.474
 3564.00    0.58446   0.59182  126.468
 3565.00    0.56103   0.57233  122.342
 3566.00    0.53525   0.56124   -1.000
 3567.00    0.53483   0.55794   -1.000
 3568.00    0.52864   0.55559   -1.000
 3569.00    0.52944   0.54929   -1.000
 3570.00    0.53036   0.54183   -1.000
 3571.00    0.54065   0.53902  812.114
 3572.00    0.54899   0.54192   -1.000
 3573.00    0.52937   0.54713  121.978
 3574.00    0.54149   0.55224  131.607
 3575.00    0.56840   0.55734  138.407
 3576.00    0.57831   0.56240  139.211
 3577.00    0.57006   0.56523  139.973
 3578.00    0.58194   0.56216  143.634
 3579.00    0.56510   0.55241  148.221
 3580.00    0.55169   0.54009  149.569
 3581.00    0.52721   0.53106  141.850
 3582.00    0.52128   0.52841  134.322
 3583.00    0.51297   0.52819  127.366
 3584.00    0.50267   0.52303  125.318
 3585.00    0.50598   0.51236   -1.000
 3586.00    0.49060   0.50377   -1.000
 3587.00    0.47836   0.50461   -1.000
 3588.00    0.48858   0.51620   -1.000
 3589.00    0.54031   0.53479   -1.000
 3590.00    0.55612   0.55443  812.114
 3591.00    0.55397   0.56944   -1.000
 3592.00    0.57794   0.57762  812.114
 3593.00    0.57065   0.58176   -1.000
 3594.00    0.57221   0.58701   -1.000
 3595.00    0.58490   0.59546   -1.000
 3596.00    0.59431   0.60511   -1.000
 3597.00    0.61662   0.61360  812.114
 3598.00    0.61203   0.61969   -1.000
 3599.00    0.61629   0.62160   -1.000
 3600.00    0.62406   0.61637   -1.000
 3601.00    0.60361   0.60401  812.114
 3602.00    0.58226   0.58912   -1.000
 3603.00    0.56438   0.57826   -1.000
 3604.00    0.55883   0.57488   -1.000
 3605.00    0.57519   0.57618  812.114
 3606.00    0.58094   0.57650   -1.000
 3607.00    0.57409   0.57281  812.114
 3608.00    0.55805   0.56701   -1.000
 3609.00    0.54388   0.56382   -1.000
 3610.00    0.55740   0.56552   -1.000
 3611.00    0.58048   0.57038   -1.000
 3612.00    0.57778   0.57601  542.602
 3613.00    0.57844   0.58251  130.418
 3614.00    0.58387   0.59135   -1.000
 3615.00    0.58159   0.59924   -1.000
 3616.00    0.59387   0.59787  812.114
 3617.00    0.58133   0.58536  812.114
 3618.00    0.53862   0.57120   -1.000
 3619.00    0.52016   0.56714   -1.000
 3620.00    0.53773   0.57590   -1.000
 3621.00    0.55608   0.59107   -1.000
 3622.00    0.57122   0.60468   -1.000
 3623.00    0.58629   0.61443   -1.000
 3624.00    0.61055   0.62449   -1.000
 3625.00    0.61614   0.63845   -1.000
 3626.00    0.62756   0.65363   -1.000
 3627.00    0.64644   0.66130   -1.000
 3628.00    0.64274   0.65297   -1.000
 3629.00    0.63499   0.62879   -1.000
 3630.00    0.60734   0.59975   -1.000
 3631.00    0.56373   0.58016   -1.000
 3632.00    0.54043   0.57720   -1.000
 3633.00    0.54700   0.58667   -1.000
 3634.00    0.55374   0.59824   -1.000
 3635.00    0.55828   0.60536   -1.000
 3636.00    0.58233   0.61056   -1.000
 3637.00    0.57962   0.61892   -1.000
 3638.00    0.60060   0.63017   -1.000
 3639.00    0.62141   0.63872   -1.000
 3640.00    0.63310   0.63935   -1.000
 3641.00    0.60059   0.63099   -1.000
 3642.00    0.61207   0.61725   -1.000
 3643.00    0.61316   0.60383   -1.000
 3644.00    0.59702   0.59477  812.114
 3645.00    0.57545   0.58986   -1.000
 3646.00    0.56328   0.58717   -1.000
 3647.00    0.55968   0.58637   -1.000
 3648.00    0.56483   0.58820   -1.000
 3649.00    0.56009   0.59302   -1.000
 3650.00    0.57843   0.60108   -1.000
 3651.00    0.59963   0.61227   -1.000
 3652.00    0.62455   0.62495  797.654
 3653.00    0.62920   0.63649   -1.000
 3654.00    0.64159   0.64555   -1.000
 3655.00    0.63258   0.65300   -1.000
 3656.00    0.64458   0.65940   -1.000
 3657.00    0.65265   0.66376   -1.000
 3658.00    0.62502   0.66506   -1.000
 3659.00    0.63212   0.66328   -1.000
 3660.00    0.62738   0.65878   -1.000
 3661.00    0.63411   0.65251   -1.000
 3662.00    0.64080   0.64631   -1.000
 3663.00    0.62630   0.64252   -1.000
 3664.00    0.62670   0.64216   -1.000
 3665.00    0.63128   0.64355   -1.000
 3666.00    0.63676   0.64370   -1.000
 3667.00    0.63110   0.64050   -1.000
 3668.00    0.61469   0.63573   -1.000
 3669.00    0.60617   0.63375   -1.000
 3670.00    0.59637   0.63745   -1.000
 3671.00    0.61127   0.64549   -1.000
 3672.00    0.63475   0.65313   -1.000
 3673.00    0.64806   0.65598   -1.000
 3674.00    0.65157   0.65267  812.114
 3675.00    0.65404   0.64399   -1.000
 3676.00    0.63217   0.63190  812.114
 3677.00    0.60907   0.61965   -1.000
 3678.00    0.59799   0.61162   -1.000
 3679.00    0.60305   0.61046   -1.000
 3680.00    0.61009   0.61513   -1.000
 3681.00    0.62238   0.62190  812.114
 3682.00    0.63501   0.62658   -1.000
 3683.00    0.62044   0.62629   -1.000
 3684.00    0.61403   0.61955   -1.000
 3685.00    0.60022   0.60892   -1.000
 3686.00    0.57564   0.60202   -1.000
 3687.00    0.57019   0.60672   -1.000
 3688.00    0.59731   0.62327   -1.000
 3689.00    0.61234   0.64346   -1.000
 3690.00    0.63558   0.65764   -1.000
 3691.00    0.64586   0.66311   -1.000
 3692.00    0.64334   0.66410   -1.000
 3693.00    0.64762   0.66457   -1.000
 3694.00    0.65868   0.66422   -1.000
 3695.00    0.66016   0.66112  783.382
 3696.00    0.64099   0.65768   -1.000
 3697.00    0.65021   0.66138   -1.000
 3698.00    0.67744   0.67669  812.114
 3699.00    0.69541   0.69723  812.114
 3700.00    0.70956   0.70798  812.114
 3701.00    0.70102   0.69667   -1.000
 3702.00    0.67596   0.66414   -1.000
 3703.00    0.63669   0.62413   -1.000
 3704.00    0.59432   0.59398  812.114
 3705.00    0.58207   0.58437  812.114
 3706.00    0.59254   0.59353  800.613
 3707.00    0.59679   0.61012   -1.000
 3708.00    0.61210   0.62140   -1.000
 3709.00    0.60940   0.62183   -1.000
 3710.00    0.60469   0.61628   -1.000
 3711.00    0.61494   0.61589  812.114
 3712.00    0.64291   0.62917   -1.000
 3713.00    0.66896   0.65605   -1.000
 3714.00    0.69460   0.68785  319.586
 3715.00    0.71989   0.71304  160.956
 3716.00    0.72877   0.72389   -1.000
 3717.00    0.72056   0.71553   -1.000
 3718.00    0.69610   0.68366   -1.000
 3719.00    0.62582   0.63247   -1.000
 3720.00    0.57536   0.58067   -1.000
 3721.00    0.56228   0.55009   -1.000
 3722.00    0.56281   0.55246   -1.000
 3723.00    0.61110   0.58643   -1.000
 3724.00    0.66751   0.63612   -1.000
 3725.00    0.70733   0.67765   -1.000
 3726.00    0.71434   0.69952   -1.000
 3727.00    0.71497   0.70868  120.079
 3728.00    0.72024   0.71455  131.528
 3729.00    0.71895   0.71533  132.519
 3730.00    0.69901   0.70049  123.755
 3731.00    0.66550   0.66233  162.864
 3732.00    0.62690   0.60674   -1.000
 3733.00    0.56849   0.55078   -1.000
 3734.00    0.52847   0.51376   -1.000
 3735.00    0.50781   0.50847  812.114
 3736.00    0.53553   0.53595  812.114
 3737.00    0.59618   0.58612   -1.000
 3738.00    0.64525   0.64488  812.114
 3739.00    0.69507   0.69638  812.114
 3740.00    0.72338   0.72760  286.930
 3741.00    0.71986   0.73458  120.094
 3742.00    0.71305   0.72341  125.688
 3743.00    0.69626   0.70300  182.755
 3744.00    0.66309   0.67868   -1.000
 3745.00    0.62499   0.65039   -1.000
 3746.00    0.60227   0.61620   -1.000
 3747.00    0.57935   0.57644   -1.000
 3748.00    0.54646   0.53812   -1.000
 3749.00    0.52006   0.51673  786.971
 3750.00    0.53816   0.52683   -1.000
 3751.00    0.59297   0.56871   -1.000
 3752.00    0.65027   0.62786   -1.000
 3753.00    0.68929   0.68575  812.114
 3754.00    0.73245   0.72830   -1.000
 3755.00    0.75800   0.74722   -1.000
 3756.00    0.75092   0.74006   -1.000
 3757.00    0.72882   0.71427   -1.000
 3758.00    0.68662   0.68713  812.114
 3759.00    0.67329   0.67391  812.114
 3760.00    0.69948   0.67727   -1.000
 3761.00    0.71555   0.69060   -1.000
 3762.00    0.71749   0.70560   -1.000
 3763.00    0.72071   0.71546   -1.000
 3764.00    0.72350   0.71575   -1.000
 3765.00    0.70995   0.70508   -1.000
 3766.00    0.69477   0.68428   -1.000
 3767.00    0.67865   0.65520   -1.000
 3768.00    0.65027   0.62168   -1.000
 3769.00    0.62576   0.59163   -1.000
 3770.00    0.60825   0.57792   -1.000
 3771.00    0.62557   0.59038   -1.000
 3772.00    0.67192   0.62505   -1.000
 3773.00    0.69764   0.66539   -1.000
 3774.00    0.71673   0.69809   -1.000
 3775.00    0.72783   0.72210   -1.000
 3776.00    0.73983   0.74394   -1.000
 3777.00    0.75991   0.76837   -1.000
 3778.00    0.77596   0.79420   -1.000
 3779.00    0.79906   0.81738   -1.000
 3780.00    0.82350   0.83436   -1.000
 3781.00    0.83019   0.84333   -1.000
 3782.00    0.83635   0.84445   -1.000
 3783.00    0.85416   0.83932   -1.000
 3784.00    0.85179   0.82753   -1.000
 3785.00    0.81796   0.80803   -1.000
 3786.00    0.79541   0.78386   -1.000
 3787.00    0.77939   0.76301   -1.000
 3788.00    0.76587   0.75206   -1.000
 3789.00    0.75848   0.75083   -1.000
 3790.00    0.76024   0.75291   -1.000
 3791.00    0.75618   0.74989   -1.000
 3792.00    0.74261   0.73542   -1.000
 3793.00    0.72280   0.70730   -1.000
 3794.00    0.68677   0.66777   -1.000
 3795.00    0.64435   0.62220   -1.000
 3796.00    0.61038   0.57723   -1.000
 3797.00    0.57959   0.54425   -1.000
 3798.00    0.56165   0.53921   -1.000
 3799.00    0.58644   0.57096   -1.000
 3800.00    0.64276   0.62977   -1.000
 3801.00    0.71220   0.69450   -1.000
 3802.00    0.76210   0.74697   -1.000
 3803.00    0.79114   0.78004   -1.000
 3804.00    0.79951   0.79447   -1.000
 3805.00    0.79532   0.79566  812.114
 3806.00    0.79443   0.79393  812.114
 3807.00    0.80388   0.80025  812.114
 3808.00    0.82228   0.81747   -1.000
 3809.00    0.83802   0.83751  812.114
 3810.00    0.84175   0.84721   -1.000
 3811.00    0.83078   0.83699   -1.000
 3812.00    0.80929   0.80854  812.114
 3813.00    0.78945   0.77482   -1.000
 3814.00    0.77785   0.75226   -1.000
 3815.00    0.77425   0.74958   -1.000
 3816.00    0.78294   0.76155   -1.000
 3817.00    0.79437   0.77313   -1.000
 3818.00    0.79141   0.77152   -1.000
 3819.00    0.77800   0.75712  122.767
 3820.00    0.76103   0.74308  123.583
 3821.00    0.76254   0.74064  122.009
 3822.00    0.78450   0.74443   -1.000
 3823.00    0.77606   0.73903   -1.000
 3824.00    0.73805   0.71990  123.203
 3825.00    0.72231   0.69770   -1.000
 3826.00    0.71600   0.68318   -1.000
 3827.00    0.70431   0.67683   -1.000
 3828.00    0.70848   0.67252   -1.000
 3829.00    0.70879   0.66404   -1.000
 3830.00    0.69568   0.64617   -1.000
 3831.00    0.66901   0.61532   -1.000
 3832.00    0.62033   0.57251   -1.000
 3833.00    0.57335   0.52722   -1.000
 3834.00    0.54586   0.49397   -1.000
 3835.00    0.54706   0.48302   -1.000
 3836.00    0.56401   0.49501   -1.000
 3837.00    0.58889   0.52291   -1.000
 3838.00    0.60662   0.55816   -1.000
 3839.00    0.62114   0.59624   -1.000
 3840.00    0.64934   0.63728   -1.000
 3841.00    0.69119   0.68091   -1.000
 3842.00    0.73626   0.72345   -1.000
 3843.00    0.77314   0.75921   -1.000
 3844.00    0.80028   0.78499   -1.000
 3845.00    0.81139   0.80201   -1.000
 3846.00    0.81578   0.81340  812.114
 3847.00    0.81956   0.81915  812.114
 3848.00    0.81480   0.81825  812.114
 3849.00    0.81070   0.81422   -1.000
 3850.00    0.81571   0.81485  812.114
 3851.00    0.83412   0.82379  198.816
 3852.00    0.84555   0.83552  118.895
 3853.00    0.83975   0.84069  120.875
 3854.00    0.83152   0.83533  227.240
 3855.00    0.82099   0.82268   -1.000
 3856.00    0.80868   0.80846  812.114
 3857.00    0.79463   0.79574   -1.000
 3858.00    0.77186   0.78634   -1.000
 3859.00    0.75376   0.78465   -1.000
 3860.00    0.75747   0.79480   -1.000
 3861.00    0.78647   0.81377   -1.000
 3862.00    0.83789   0.83167  812.114
 3863.00    0.86884   0.84110   -1.000
 3864.00    0.86307   0.84237   -1.000
 3865.00    0.84372   0.84078  230.988
 3866.00    0.84432   0.84154  812.114
 3867.00    0.84034   0.84580   -1.000
 3868.00    0.82428   0.84844   -1.000
 3869.00    0.81924   0.84198   -1.000
 3870.00    0.80133   0.82385   -1.000
 3871.00    0.77920   0.80027   -1.000
 3872.00    0.76763   0.78370   -1.000
 3873.00    0.77534   0.78409   -1.000
 3874.00    0.80496   0.79794   -1.000
 3875.00    0.82572   0.80919   -1.000
 3876.00    0.81048   0.80457   -1.000
 3877.00    0.77661   0.78725   -1.000
 3878.00    0.74901   0.77181   -1.000
 3879.00    0.75371   0.76728   -1.000
 3880.00    0.76576   0.76859  812.114
 3881.00    0.74247   0.76565   -1.000
 3882.00    0.72503   0.75490   -1.000
 3883.00    0.72819   0.73714   -1.000
 3884.00    0.71929   0.70951   -1.000
 3885.00    0.68213   0.66799   -1.000
 3886.00    0.63792   0.61674   -1.000
 3887.00    0.60470   0.56983   -1.000
 3888.00    0.57936   0.54409   -1.000
 3889.00    0.58617   0.55078   -1.000
 3890.00    0.63490   0.58897   -1.000
 3891.00    0.69016   0.64319   -1.000
 3892.00    0.73236   0.69217   -1.000
 3893.00    0.75297   0.72428   -1.000
 3894.00    0.75691   0.74252   -1.000
 3895.00    0.76842   0.75627   -1.000
 3896.00    0.78209   0.77041   -1.000
 3897.00    0.78376   0.78227  812.114
 3898.00    0.78618   0.78830  812.114
 3899.00    0.79824   0.79177   -1.000
 3900.00    0.80859   0.79903   -1.000
 3901.00    0.81275   0.80990  755.399
 3902.00    0.82375   0.81757   -1.000
 3903.00    0.82564   0.81742   -1.000
 3904.00    0.81590   0.81226  708.483
 3905.00    0.80853   0.80991  703.340
 3906.00    0.81601   0.81878   -1.000
 3907.00    0.83738   0.84154   -1.000
 3908.00    0.86445   0.87079   -1.000
 3909.00    0.88661   0.89469   -1.000
 3910.00    0.89511   0.90663   -1.000
 3911.00    0.90256   0.90619   -1.000
 3912.00    0.89405   0.89573   -1.000
 3913.00    0.87725   0.88090   -1.000
 3914.00    0.86925   0.86924  812.114
 3915.00    0.85918   0.86431   -1.000
 3916.00    0.85315   0.86313   -1.000
 3917.00    0.84081   0.86028   -1.000
 3918.00    0.84325   0.85299   -1.000
 3919.00    0.83921   0.84304   -1.000
 3920.00    0.81894   0.83503   -1.000
 3921.00    0.81210   0.83215   -1.000
 3922.00    0.83146   0.83361  142.289
 3923.00    0.83895   0.83509  166.650
 3924.00    0.83293   0.83062  196.451
 3925.00    0.80669   0.81472  230.891
 3926.00    0.74433   0.78518   -1.000
 3927.00    0.67481   0.74349   -1.000
 3928.00    0.64039   0.69283   -1.000
 3929.00    0.61800   0.63453  194.041
 3930.00    0.58118   0.56806  159.550
 3931.00    0.50111   0.49588  133.172
 3932.00    0.41420   0.43023  307.964
 3933.00    0.37489   0.39313   -1.000
 3934.00    0.38719   0.40163   -1.000
 3935.00    0.43288   0.45228   -1.000
 3936.00    0.51497   0.52547   -1.000
 3937.00    0.60754   0.60220   -1.000
 3938.00    0.67220   0.67130  812.114
 3939.00    0.72434   0.72718  812.114
 3940.00    0.75889   0.76659   -1.000
 3941.00    0.77999   0.78937   -1.000
 3942.00    0.77995   0.79980   -1.000
 3943.00    0.78098   0.80559   -1.000
 3944.00    0.79690   0.81373   -1.000
 3945.00    0.80867   0.82621   -1.000
 3946.00    0.83852   0.83879  738.176
 3947.00    0.84686   0.84613  720.982
 3948.00    0.84222   0.84777   -1.000
 3949.00    0.85249   0.84713  742.485
 3950.00    0.86746   0.84669   -1.000
 3951.00    0.86064   0.84781   -1.000
 3952.00    0.85515   0.85229  761.348
 3953.00    0.85482   0.85934   -1.000
 3954.00    0.86229   0.86303  812.114
 3955.00    0.86199   0.85829   -1.000
 3956.00    0.84928   0.84806  812.114
 3957.00    0.84662   0.83949  163.672
 3958.00    0.85544   0.83332   -1.000
 3959.00    0.84106   0.82137   -1.000
 3960.00    0.81108   0.79627   -1.000
 3961.00    0.76029   0.75999  230.250
 3962.00    0.69834   0.71970   -1.000
 3963.00    0.65521   0.67702   -1.000
 3964.00    0.63784   0.62510  156.167
 3965.00    0.57369   0.55649   -1.000
 3966.00    0.47783   0.47362   -1.000
 3967.00    0.39767   0.39362   -1.000
 3968.00    0.34165   0.34113  812.114
 3969.00    0.32036   0.33353   -1.000
 3970.00    0.36450   0.37157   -1.000
 3971.00    0.44130   0.44111  711.512
 3972.00    0.52013   0.52227  673.344
 3973.00    0.60014   0.60033  658.314
 3974.00    0.66530   0.66909  660.036
 3975.00    0.72141   0.72707   -1.000
 3976.00    0.76425   0.77419   -1.000
 3977.00    0.79613   0.81216   -1.000
 3978.00    0.83535   0.84258   -1.000
 3979.00    0.86031   0.86393  634.239
 3980.00    0.87520   0.87353   80.251
 3981.00    0.87791   0.87403   61.510
 3982.00    0.88648   0.87435   61.554
 3983.00    0.89539   0.88207   61.309
 3984.00    0.90459   0.89616   60.104
 3985.00    0.91974   0.90967   58.645
 3986.00    0.91946   0.91887   58.875
 3987.00    0.93382   0.92611   60.162
 3988.00    0.94661   0.93385   61.573
 3989.00    0.95123   0.94200   62.809
 3990.00    0.94908   0.95078   63.483
 3991.00    0.95666   0.96102   62.454
 3992.00    0.97176   0.97066   59.851
 3993.00    0.97976   0.97450   57.660
 3994.00    0.96575   0.96854   56.530
 3995.00    0.95034   0.95430   55.707
 3996.00    0.92389   0.93935   56.419
 3997.00    0.91541   0.93266   59.725
 3998.00    0.92488   0.93794   63.057
 3999.00    0.94915   0.95147   63.305
 4000.00    0.98040   0.96566   60.191
 4001.00    0.98742   0.97370   57.574
 4002.00    0.99961   0.97226   56.531
 4003.00    0.99225   0.96157   55.902
 4004.00    0.96394   0.94606   55.637
 4005.00    0.91857   0.93594   55.932
 4006.00    0.92049   0.94069   56.260
 4007.00    0.97370   0.95879   55.970
 4008.00    0.97397   0.97914   55.232
 4009.00    0.97475   0.99256   55.480
 4010.00    0.99265   0.99716   56.142
 4011.00    1.00318   0.99613   56.043
 4012.00    0.98296   0.99429   55.266
 4013.00    0.98090   0.99544   55.223
 4014.00    0.99562   1.00010   55.929
 4015.00    0.99350   1.00616   56.347
 4016.00    0.99062   1.01186   56.707
 4017.00    0.99794   1.01756   57.141
 4018.00    1.00231   1.02390   56.019
 4019.00    1.00613   1.02914   54.095
 4020.00    1.00624   1.02974   52.860
 4021.00    1.00390   1.02385   53.096
 4022.00    0.99257   1.01285   55.034
 4023.00    0.98517   1.00069   58.602
 4024.00    0.98719   0.99371   61.341
 4025.00    1.00000   0.99739   62.357
 4026.00    1.01239   1.00915   61.782
 4027.00    1.02339   1.01767   59.924
 4028.00    1.02093   1.01356   57.080
 4029.00    0.99923   0.99753   54.249
 4030.00    0.95816   0.97784   52.229
 4031.00    0.92768   0.96348   51.802
 4032.00    0.94220   0.95958   52.735
 4033.00    0.96146   0.96643   53.991
 4034.00    0.96165   0.98202   54.678
 4035.00    0.97842   1.00426   54.983
 4036.00    1.01776   1.02960   57.323
 4037.00    1.04142   1.05084   62.590
 4038.00    1.05785   1.06050   67.661
 4039.00    1.05546   1.05822   65.869
 4040.00    1.03384   1.05029   59.824
 4041.00    1.03004   1.04098   55.910
 4042.00    1.02538   1.02708   54.099
 4043.00    0.98678   1.00360   53.370
 4044.00    0.93809   0.97506   53.625
 4045.00    0.90681   0.95686   -1.000
 4046.00    0.91467   0.96152   -1.000
 4047.00    0.96711   0.98577   57.376
 4048.00    1.00824   1.01432   57.880
 4049.00    1.02651   1.03420   58.278
 4050.00    1.03573   1.04187   58.869
 4051.00    1.02453   1.03906   58.311
 4052.00    1.01894   1.02933   56.319
 4053.00    1.01442   1.01849   55.100
 4054.00    0.98536   1.01211   55.846
 4055.00    0.97781   1.01115   59.655
 4056.00    0.99452   1.01349   63.858
 4057.00    1.01334   1.01878   63.380
 4058.00    1.02032   1.02727   60.405
 4059.00    1.02248   1.03392   58.786
 4060.00    1.02519   1.03020   57.211
 4061.00    1.00963   1.01338   55.379
 4062.00    0.97633   0.98971   54.576
 4063.00    0.94987   0.96904   56.502
 4064.00    0.94525   0.95925   59.092
 4065.00    0.96871   0.96216   58.926
 4066.00    0.98938   0.97323   56.863
 4067.00    0.98520   0.98609   56.410
 4068.00    0.98790   0.99489   58.931
 4069.00    1.00175   0.99416   63.847
 4070.00    1.00515   0.98318   66.067
 4071.00    0.98339   0.97041   64.156
 4072.00    0.95636   0.96607   59.860
 4073.00    0.98100   0.96964   55.715
 4074.00    1.00418   0.96950   53.880
 4075.00    0.97139   0.95655   54.637
 4076.00    0.93108   0.93556   56.476
 4077.00    0.90826   0.92220   57.412
 4078.00    0.91703   0.92925   56.651
 4079.00    0.96066   0.95481   54.779
 4080.00    0.98749   0.98364   52.673
 4081.00    0.99919   1.00045   50.955
 4082.00    1.00118   1.00096   51.092
 4083.00    0.97270   0.99166   52.122
 4084.00    0.96064   0.98305   53.108
 4085.00    0.96857   0.98293   53.727
 4086.00    0.98106   0.99266   53.797
 4087.00    1.01109   1.00728   54.752
 4088.00    1.01912   1.01886   57.231
 4089.00    1.02698   1.02202   59.188
 4090.00    1.01460   1.01739   59.672
 4091.00    0.99849   1.00885   60.626
 4092.00    0.99747   0.99812   63.936
 4093.00    1.00005   0.98379   69.832
 4094.00    0.97247   0.96427   74.777
 4095.00    0.94078   0.93935   73.418
 4096.00    0.91991   0.90933   67.296
 4097.00    0.89285   0.87292   62.017
 4098.00    0.87441   0.82668   58.643
 4099.00    0.83398   0.76967   -1.000
 4100.00    0.74947   0.71160   56.515
 4101.00    0.68421   0.67452   57.047
 4102.00    0.68336   0.67862   58.164
 4103.00    0.73937   0.72445   59.033
 4104.00    0.82705   0.79124   58.313
 4105.00    0.87313   0.85311   56.988
 4106.00    0.90252   0.89614   56.006
 4107.00    0.93063   0.92070   55.142
 4108.00    0.93259   0.93332   54.601
 4109.00    0.92856   0.94117   54.871
 4110.00    0.93706   0.95017   56.050
 4111.00    0.95510   0.96321   57.966
 4112.00    0.97130   0.97994   58.643
 4113.00    0.98166   0.99826   57.896
 4114.00    1.00254   1.01499   57.295
 4115.00    1.01744   1.02565   57.361
 4116.00    1.02653   1.02665   56.735
 4117.00    0.99994   1.01890   55.715
 4118.00    0.98426   1.00818   55.538
 4119.00    0.98311   1.00101   56.308
 4120.00    0.98643   0.99949   57.544
 4121.00    0.99069   1.00098   58.005
 4122.00    1.00258   1.00371   58.294
 4123.00    1.01388   1.00924   59.043
 4124.00    1.01890   1.01733   60.950
 4125.00    1.02197   1.02262   62.885
 4126.00    1.02484   1.01996   63.002
 4127.00    1.02131   1.01088   60.853
 4128.00    0.99898   1.00191   57.725
 4129.00    1.01141   0.99629   55.875
 4130.00    1.01005   0.99110   55.003
 4131.00    0.98925   0.98441   54.145
 4132.00    0.97857   0.98109   53.961
 4133.00    0.96386   0.98799   55.137
 4134.00    0.97538   1.00574   58.150
 4135.00    1.00681   1.02838   63.159
 4136.00    1.02840   1.04951   66.361
 4137.00    1.04918   1.06624   63.699
 4138.00    1.06598   1.07774   59.817
 4139.00    1.06400   1.08112   57.657
 4140.00    1.06295   1.07196   57.145
 4141.00    1.03464   1.05005   58.314
 4142.00    0.98467   1.02333   59.959
 4143.00    0.95833   1.00550   -1.000
 4144.00    0.97335   1.00652   60.158
 4145.00    0.99835   1.02291   59.840
 4146.00    1.02475   1.04081   60.451
 4147.00    1.03867   1.04955   61.387
 4148.00    1.04681   1.04947   59.785
 4149.00    1.02263   1.04749   59.363
 4150.00    1.17588   1.04783   -1.000
 4151.00    1.46067   1.04830   -1.000
 4152.00    0.86063   1.04482   -1.000
 4153.00    0.64525   1.03737   -1.000
 4154.00    1.07062   1.03071   55.826
 4155.00    1.07342   1.02994   55.292
 4156.00    0.99041   1.03639   55.686
 4157.00    1.02223   1.04759   56.630
 4158.00    1.03847   1.05906   57.494
 4159.00    1.04580   1.06655   58.795
 4160.00    1.05773   1.06902   59.608
 4161.00    1.06455   1.06937   59.070
 4162.00    1.05475   1.07124   58.110
 4163.00    1.06529   1.07563   58.947
 4164.00    1.05579   1.08032   62.612
 4165.00    1.04904   1.08174   66.221
 4166.00    1.04997   1.07865   66.101
 4167.00    1.04420   1.07362   63.619
 4168.00    1.03314   1.06805   61.467
 4169.00    1.03355   1.05759   61.524
 4170.00    1.03498   1.03678   61.861
 4171.00    1.01139   1.00820   61.514
 4172.00    0.97587   0.98420   60.546
 4173.00    0.95744   0.97748   60.025
 4174.00    0.96249   0.98891   60.041
 4175.00    0.98854   1.00614   59.319
 4176.00    1.00705   1.01596   58.112
 4177.00    0.99138   1.01745   57.181
 4178.00    0.99037   1.01959   57.465
 4179.00    1.01752   1.02772   59.473
 4180.00    1.02515   1.03741   60.967
 4181.00    1.02104   1.04239   60.262
 4182.00    1.01343   1.04342   58.949
 4183.00    1.01492   1.04489   58.588
 4184.00    1.02160   1.04694   57.738
 4185.00    1.02018   1.04563   56.509
 4186.00    1.01385   1.03974   56.015
 4187.00    0.99670   1.03415   57.887
 4188.00    0.98769   1.03441   -1.000
 4189.00    1.01524   1.03987   62.773
 4190.00    1.03344   1.04670   63.740
 4191.00    1.03388   1.05386   63.747
 4192.00    1.05410   1.06125   62.976
 4193.00    1.07067   1.06528   62.042
 4194.00    1.05883   1.06059   61.881
 4195.00    1.03879   1.04585   61.402
 4196.00    1.00517   1.02562   60.469
 4197.00    0.98580   1.00652   59.965
 4198.00    0.97469   0.99356   58.720
 4199.00    0.96547   0.98867   57.274
 4200.00    0.97920   0.98991   56.275
 4201.00    0.98853   0.99382   56.094
 4202.00    0.97711   0.99965   56.303
 4203.00    0.97987   1.00862   56.132
 4204.00    0.98891   1.02059   55.818
 4205.00    1.00276   1.03410   56.375
 4206.00    1.00128   1.04726   58.400
 4207.00    1.01244   1.05702   60.983
 4208.00    1.05681   1.06137   62.083
 4209.00    1.06522   1.06254   59.549
 4210.00    1.04672   1.06483   55.842
 4211.00    1.03659   1.06896   53.542
 4212.00    1.03804   1.06991   52.217
 4213.00    1.02925   1.06166   51.841
 4214.00    1.00911   1.04512   52.597
 4215.00    0.98727   1.02990   55.073
 4216.00    0.98066   1.02692   59.261
 4217.00    1.01065   1.03872   65.534
 4218.00    1.04204   1.05734   73.989
 4219.00    1.05772   1.07255   78.076
 4220.00    1.07210   1.07857   71.773
 4221.00    1.07143   1.07257   62.304
 4222.00    1.05496   1.05244   56.528
 4223.00    1.02012   1.01875   54.095
 4224.00    0.96747   0.97785   54.035
 4225.00    0.92030   0.94247   55.361
 4226.00    0.88830   0.92828   56.676
 4227.00    0.89757   0.94516   -1.000
 4228.00    0.96033   0.98607   58.668
 4229.00    1.02442   1.02860   59.453
 4230.00    1.04912   1.05240   58.773
 4231.00    1.05325   1.05284   57.452
 4232.00    1.03907   1.03949   56.604
 4233.00    1.02933   1.02553   55.557
 4234.00    1.02745   1.01840   54.917
 4235.00    1.01001   1.01802   54.561
 4236.00    1.00188   1.02178   53.547
 4237.00    1.00092   1.02886   52.727
 4238.00    0.99263   1.03906   53.710
 4239.00    0.99546   1.05068   -1.000
 4240.00    1.02844   1.06109   58.198
 4241.00    1.04575   1.06869   59.467
 4242.00    1.04018   1.07395   59.848
 4243.00    1.05024   1.07698   59.409
 4244.00    1.06038   1.07475   57.630
 4245.00    1.05040   1.06386   56.405
 4246.00    1.02049   1.04639   57.062
 4247.00    1.00182   1.03020   58.195
 4248.00    1.00243   1.02155   57.007
 4249.00    0.99661   1.02073   55.084
 4250.00    0.98347   1.02554   55.247
 4251.00    0.99947   1.03360   57.692
 4252.00    1.02924   1.04069   60.585
 4253.00    1.04020   1.04361   61.226
 4254.00    1.02693   1.04507   58.415
 4255.00    1.01611   1.04928   54.901
 4256.00    1.02231   1.05398   52.631
 4257.00    1.03490   1.05205   51.700
 4258.00    1.01999   1.04100   51.838
 4259.00    0.98736   1.02791   52.931
 4260.00    0.98255   1.02395   54.704
 4261.00    1.00103   1.03535   56.465
 4262.00    1.02132   1.05843   59.024
 4263.00    1.05448   1.08234   62.959
 4264.00    1.08263   1.09758   66.077
 4265.00    1.08328   1.10141   66.102
 4266.00    1.07332   1.09598   64.487
 4267.00    1.05746   1.08346   62.532
 4268.00    1.04866   1.06429   59.340
 4269.00    1.03190   1.03906   55.707
 4270.00    0.99362   1.01145   53.794
 4271.00    0.94951   0.98900   54.462
 4272.00    0.93849   0.97916   56.885
 4273.00    0.94649   0.98382   58.374
 4274.00    0.96842   0.99987   58.197
 4275.00    0.98789   1.02352   57.409
 4276.00    1.02841   1.04966   57.229
 4277.00    1.04919   1.07016   58.272
 4278.00    1.04817   1.07841   59.977
 4279.00    1.03276   1.07487   61.305
 4280.00    1.01608   1.06593   -1.000
 4281.00    1.00725   1.05806   -1.000
 4282.00    1.01067   1.05367   -1.000
 4283.00    1.01851   1.05122   66.681
 4284.00    1.01443   1.04761   62.926
 4285.00    0.99982   1.03950   59.662
 4286.00    0.97824   1.02464   59.101
 4287.00    0.96611   1.00359   59.836
 4288.00    0.96350   0.98049   60.951
 4289.00    0.93770   0.96389   62.836
 4290.00    0.92036   0.96275   66.735
 4291.00    0.94953   0.97649   72.446
 4292.00    0.98136   0.99273   76.526
 4293.00    1.00690   0.99936   76.339
 4294.00    1.00056   0.99557   74.273
 4295.00    0.99310   0.98693   73.187
 4296.00    0.98384   0.97455   72.140
 4297.00    0.95047   0.95479   71.629
 4298.00    0.91240   0.92706   72.633
 4299.00    0.88348   0.89821   75.676
 4300.00    0.86225   0.87806   79.184
 4301.00    0.86580   0.87175   79.963
 4302.00    0.88136   0.87833   77.355
 4303.00    0.89106   0.89329   72.783
 4304.00    0.90317   0.90839   68.332
 4305.00    0.90310   0.91395   65.138
 4306.00    0.90253   0.90703   62.159
 4307.00    0.98601   0.89524   -1.000
 4308.00    1.05368   0.89051   -1.000
 4309.00    0.86261   0.89907   49.712
 4310.00    0.85298   0.91649   -1.000
 4311.00    0.87860   0.93323   48.907
 4312.00    0.90306   0.94566   49.818
 4313.00    0.93036   0.96028   51.150
 4314.00    0.95155   0.98653   53.171
 4315.00    1.00626   1.02566   56.259
 4316.00    1.06405   1.06698   60.793
 4317.00    1.09975   1.09643   65.344
 4318.00    1.10778   1.10727   65.434
 4319.00    1.10323   1.10214   59.973
 4320.00    1.08356   1.08764   54.238
 4321.00    1.05492   1.06792   51.401
 4322.00    1.02709   1.04277   50.934
 4323.00    0.98424   1.01261   51.023
 4324.00    0.94108   0.98561   50.498
 4325.00    0.92687   0.97625   49.715
 4326.00    0.94136   0.99217   49.365
 4327.00    0.99004   1.02345   49.612
 4328.00    1.03547   1.05067   51.321
 4329.00    1.05885   1.06300   55.330
 4330.00    1.06086   1.06415   60.736
 4331.00    1.05776   1.06261   66.169
 4332.00    1.05902   1.06075   70.239
 4333.00    1.05568   1.05395   69.138
 4334.00    1.03867   1.03528   63.111
 4335.00    1.02878   0.99820   57.709
 4336.00    0.98599   0.93971   54.891
 4337.00    0.90638   0.86613   53.308
 4338.00    0.82906   0.79409   52.070
 4339.00    0.76344   0.74379   51.335
 4340.00    0.72341   0.73151   50.687
 4341.00    0.74465   0.76195   50.210
 4342.00    0.82735   0.82196   51.381
 4343.00    0.90788   0.88809   54.748
 4344.00    0.95646   0.94430   57.636
 4345.00    0.99173   0.98848   57.037
 4346.00    1.01728   1.02370   54.479
 4347.00    1.03926   1.04920   52.312
 4348.00    1.04984   1.05978   50.938
 4349.00    1.05544   1.05207   50.325
 4350.00    1.03798   1.03194   50.818
 4351.00    0.99637   1.01450   51.785
 4352.00    0.98710   1.01362   51.733
 4353.00    1.00654   1.03141   50.427
 4354.00    1.03651   1.05833   49.262
 4355.00    1.05755   1.08210   48.897
 4356.00    1.07265   1.09600   48.563
 4357.00    1.06873   1.10039   48.207
 4358.00    1.05103   1.10038   48.816
 4359.00    1.05706   1.10246   50.515
 4360.00    1.08171   1.11009   51.846
 4361.00    1.10028   1.12155   51.909
 4362.00    1.09985   1.13281   51.436
 4363.00    1.09282   1.14077   51.243
 4364.00    1.09556   1.14295   51.444
 4365.00    1.10240   1.13696   52.653
 4366.00    1.09878   1.12331   54.863
 4367.00    1.08173   1.10721   56.121
 4368.00    1.07226   1.09494   55.027
 4369.00    1.08093   1.08872   52.441
 4370.00    1.09230   1.08564   50.534
 4371.00    1.08357   1.07997   50.225
 4372.00    1.06948   1.06720   50.832
 4373.00    1.05088   1.04902   52.417
 4374.00    1.02446   1.03543   56.377
 4375.00    1.03004   1.03779   62.885
 4376.00    1.06436   1.05715   67.163
 4377.00    1.09448   1.08230   64.356
 4378.00    1.10974   1.09970   58.128
 4379.00    1.11030   1.10178   54.279
 4380.00    1.09757   1.08602   53.450
 4381.00    1.07437   1.05275   53.797
 4382.00    1.03144   1.00916   54.215
 4383.00    0.97217   0.97238   53.800
 4384.00    0.95217   0.96043   52.629
 4385.00    0.98796   0.97685   52.149
 4386.00    1.03325   1.00818   52.939
 4387.00    1.05606   1.03698   53.508
 4388.00    1.06026   1.05444   52.164
 4389.00    1.06023   1.06173   50.106
 4390.00    1.06077   1.06459   49.698
 4391.00    1.06961   1.06675   51.019
 4392.00    1.08067   1.06595   52.787
 4393.00    1.08079   1.05932   53.286
 4394.00    1.06454   1.05216   52.414
 4395.00    1.05626   1.05405   52.780
 4396.00    1.08085   1.06526   55.350
 4397.00    1.10878   1.07471   57.302
 4398.00    1.11054   1.07370   56.470
 4399.00    1.09409   1.06623   55.018
 4400.00    1.07184   1.06275   54.412
 4401.00    1.06855   1.06635   53.127
 4402.00    1.08489   1.06953   50.905
 4403.00    1.08319   1.06573   48.941
 4404.00    1.05435   1.05824   47.838
 4405.00    1.04106   1.05470   48.232
 4406.00    1.05508   1.05752   50.346
 4407.00    1.06434   1.06396   52.785
 4408.00    1.06281   1.07319   53.527
 4409.00    1.08162   1.08738   52.331
 4410.00    1.10952   1.10500   50.263
 4411.00    1.11730   1.11820   48.507
 4412.00    1.12211   1.11836   48.006
 4413.00    1.11971   1.10236   48.855
 4414.00    1.09096   1.07598   49.979
 4415.00    1.05371   1.05265   50.249
 4416.00    1.03621   1.04568   49.944
 4417.00    1.04655   1.05940   49.928
 4418.00    1.07515   1.08682   50.157
 4419.00    1.10423   1.11391   50.086
 4420.00    1.11422   1.12877   49.794
 4421.00    1.09928   1.13022   49.971
 4422.00    1.08431   1.12643   50.324
 4423.00    1.08962   1.12433   50.069
 4424.00    1.10102   1.12380   49.558
 4425.00    1.09978   1.12219   50.258
 4426.00    1.09920   1.12018   52.438
 4427.00    1.09906   1.12041   53.974
 4428.00    1.09753   1.12340   52.978
 4429.00    1.10825   1.12724   50.124
 4430.00    1.11187   1.12986   47.540
 4431.00    1.10885   1.12975   46.593
 4432.00    1.10819   1.12513   47.400
 4433.00    1.09434   1.11539   49.392
 4434.00    1.06846   1.10549   51.648
 4435.00    1.06751   1.10500   52.711
 4436.00    1.09276   1.11912   51.600
 4437.00    1.12246   1.14183   49.445
 4438.00    1.14820   1.15969   47.988
 4439.00    1.16507   1.16151   47.637
 4440.00    1.15269   1.14488   47.725
 4441.00    1.10795   1.11745   48.067
 4442.00    1.07491   1.09370   48.585
 4443.00    1.06436   1.08744   48.576
 4444.00    1.08043   1.10242   48.579
 4445.00    1.10869   1.12870   49.768
 4446.00    1.12724   1.15126   51.929
 4447.00    1.13931   1.16212   53.593
 4448.00    1.14668   1.16274   53.482
 4449.00    1.13969   1.15865   52.488
 4450.00    1.13187   1.15449   52.117
 4451.00    1.13058   1.15088   52.319
 4452.00    1.12515   1.14357   52.761
 4453.00    1.11764   1.12903   53.277
 4454.00    1.10760   1.11158   52.839
 4455.00    1.09275   1.10082   51.118
 4456.00    1.09372   1.10124   49.555
 4457.00    1.10322   1.10818   49.064
 4458.00    1.10215   1.11422   49.087
 4459.00    1.10047   1.11635   49.438
 4460.00    1.09397   1.11667   50.256
 4461.00    1.08285   1.11886   50.841
 4462.00    1.08751   1.12456   50.508
 4463.00    1.10800   1.13213   49.226
 4464.00    1.12497   1.13813   47.554
 4465.00    1.12614   1.13914   46.120
 4466.00    1.11825   1.13302   45.403
 4467.00    1.11300   1.12143   45.330
 4468.00    1.10647   1.11139   45.128
 4469.00    1.09874   1.11110   44.799
 4470.00    1.10526   1.12338   44.953
 4471.00    1.12330   1.14399   46.157
 4472.00    1.14343   1.16577   48.155
 4473.00    1.17100   1.18301   49.850
 4474.00    1.18950   1.19341   50.000
 4475.00    1.18528   1.19798   48.392
 4476.00    1.17759   1.19884   46.442
 4477.00    1.18056   1.19568   45.175
 4478.00    1.18480   1.18510   44.880
 4479.00    1.17310   1.16557   45.580
 4480.00    1.13925   1.14349   47.103
 4481.00    1.12152   1.13105   48.481
 4482.00    1.12453   1.13623   48.522
 4483.00    1.14030   1.15616   47.447
 4484.00    1.16863   1.18011   46.489
 4485.00    1.18764   1.19664   46.686
 4486.00    1.19463   1.19900   47.903
 4487.00    1.18484   1.18807   49.116
 4488.00    1.16750   1.17192   49.122
 4489.00    1.14997   1.16079   47.775
 4490.00    1.13760   1.16015   46.296
 4491.00    1.15296   1.16757   45.548
 4492.00    1.16523   1.17549   45.764
 4493.00    1.15361   1.17807   46.139
 4494.00    1.14024   1.17629   45.416
 4495.00    1.12877   1.17549   43.941
 4496.00    1.13498   1.17884   42.909
 4497.00    1.16119   1.18459   42.867
 4498.00    1.18843   1.18807   43.578
 4499.00    1.18979   1.18611   44.177
 4500.00    1.17011   1.18183   44.331
 4501.00    1.16393   1.18347   44.103
 4502.00    1.18887   1.19561   43.776
 4503.00    1.20937   1.21369   43.930
 4504.00    1.21552   1.22848   44.660
 4505.00    1.22395   1.23362   45.501
 4506.00    1.22224   1.22927   45.951
 4507.00    1.20929   1.22117   45.873
 4508.00    1.20257   1.21667   45.767
 4509.00    1.21191   1.21879   46.147
 4510.00    1.21237   1.22370   46.523
 4511.00    1.21188   1.22537   46.048
 4512.00    1.20442   1.22108   45.151
 4513.00    1.19871   1.21222   44.971
 4514.00    1.19221   1.20248   45.779
 4515.00    1.19290   1.19567   46.781
 4516.00    1.18817   1.19256   47.343
 4517.00    1.18240   1.19028   48.011
 4518.00    1.17977   1.18667   49.297
 4519.00    1.17764   1.18299   50.746
 4520.00    1.18795   1.18061   51.597
 4521.00    1.19206   1.17822   51.492
 4522.00    1.17545   1.17435   50.716
 4523.00    1.16261   1.17011   49.786
 4524.00    1.16252   1.16662   49.351
 4525.00    1.16393   1.16185   50.282
 4526.00    1.15952   1.15258   51.949
 4527.00    1.14814   1.13934   51.958
 4528.00    1.13151   1.12781   49.553
 4529.00    1.11925   1.12407   46.608
 4530.00    1.12276   1.12778   44.942
 4531.00    1.13800   1.13116   44.951
 4532.00    1.14088   1.12689   45.894
 4533.00    1.11692   1.11727   46.173
 4534.00    1.09742   1.11331   45.890
 4535.00    1.10528   1.12421   45.669
 4536.00    1.13517   1.14892   58.717
 4537.00    1.22445   1.17743   -2.000
 4538.00    0.78091   1.19810   -2.000
 4539.00    0.16648   1.20524   -2.000
 4540.00   -0.00657   1.20200    0.000
 4541.00    0.53495   1.19638   -1.000
 4542.00    0.69515   1.19366   -1.000
 4543.00    0.57144   1.19310   -1.000
 4544.00    1.04165   1.19175   -1.000
 4545.00    1.19320   1.18867   48.404
 4546.00    1.18159   1.18303   48.938
 4547.00    1.17950   1.17201   48.485
 4548.00    1.14770   1.15577   46.938
 4549.00    1.12493   1.14227   45.067
 4550.00    1.13473   1.14067   44.026
 4551.00    1.15406   1.14910   44.041
 4552.00    1.15697   1.15552   44.095
 4553.00    1.14520   1.15249   44.097
 4554.00    1.13470   1.14565   44.887
 4555.00    1.13740   1.14636   46.011
 4556.00    1.16692   1.15963   46.887
 4557.00    1.19539   1.18037   46.665
 4558.00    1.21294   1.20033   45.607
 4559.00    1.21925   1.21542   44.398
 4560.00    1.21979   1.22428   43.788
 4561.00    1.21286   1.22432   44.075
 4562.00    1.19336   1.21440   45.071
 4563.00    1.18084   1.20003   46.262
 4564.00    1.16837   1.19111   46.264
 4565.00    1.17222   1.19359   45.063
 4566.00    1.19143   1.20502   44.251
 4567.00    1.20298   1.21772   44.146
 4568.00    1.21899   1.22419   44.322
 4569.00    1.21661   1.22064   44.571
 4570.00    1.19853   1.20846   45.232
 4571.00    1.17789   1.19523   46.480
 4572.00    1.17378   1.19103   47.543
 4573.00    1.19054   1.19887   47.630
 4574.00    1.21561   1.21098   47.047
 4575.00    1.23032   1.21842   46.629
 4576.00    1.22865   1.21935   46.678
 4577.00    1.21639   1.21564   46.949
 4578.00    1.21077   1.20757   46.482
 4579.00    1.19416   1.19510   45.353
 4580.00    1.18180   1.18061   44.337
 4581.00    1.17212   1.16727   44.108
 4582.00    1.15924   1.15757   44.633
 4583.00    1.16510   1.15447   45.445
 4584.00    1.17374   1.16000   46.257
 4585.00    1.17570   1.17142   46.440
 4586.00    1.19310   1.18309   46.113
 4587.00    1.21176   1.19133   45.739
 4588.00    1.21261   1.19564   45.575
 4589.00    1.21543   1.19691   45.478
 4590.00    1.20893   1.19620   45.376
 4591.00    1.20236   1.19488   45.691
 4592.00    1.19295   1.19495   46.108
 4593.00    1.18856   1.19809   46.285
 4594.00    1.19504   1.20413   45.892
 4595.00    1.21183   1.21131   45.373
 4596.00    1.21398   1.21765   45.353
 4597.00    1.22720   1.22128   45.308
 4598.00    1.22643   1.22079   44.877
 4599.00    1.21323   1.21631   44.044
 4600.00    1.20422   1.21005   43.104
 4601.00    1.19440   1.20522   42.531
 4602.00    1.19401   1.20407   42.621
 4603.00    1.20519   1.20652   43.158
 4604.00    1.21405   1.21088   43.660
 4605.00    1.21742   1.21583   43.973
 4606.00    1.21824   1.22146   43.825
 4607.00    1.22112   1.22824   43.452
 4608.00    1.22824   1.23540   43.246
 4609.00    1.24255   1.24085   43.475
 4610.00    1.24012   1.24241   43.799
 4611.00    1.22842   1.24006   43.807
 4612.00    1.22654   1.23631   43.433
 4613.00    1.21862   1.23338   42.772
 4614.00    1.21871   1.23103   42.670
 4615.00    1.22403   1.22745   42.769
 4616.00    1.22376   1.22198   42.857
 4617.00    1.22801   1.21583   43.215
 4618.00    1.22718   1.21141   43.359
 4619.00    1.22097   1.21155   43.349
 4620.00    1.22497   1.21785   43.594
 4621.00    1.23081   1.22843   43.712
 4622.00    1.24235   1.23822   43.526
 4623.00    1.23801   1.24306   43.050
 4624.00    1.22917   1.24282   43.164
 4625.00    1.24459   1.23971   43.756
 4626.00    1.24148   1.23509   44.261
 4627.00    1.23529   1.22923   44.275
 4628.00    1.22735   1.22349   44.590
 4629.00    1.22897   1.22125   45.164
 4630.00    1.23215   1.22474   45.393
 4631.00    1.24130   1.23121   45.350
 4632.00    1.24385   1.23472   44.643
 4633.00    1.24131   1.23258   43.570
 4634.00    1.22603   1.22807   42.926
 4635.00    1.23058   1.22571   43.035
 4636.00    1.22641   1.22639   43.790
 4637.00    1.22556   1.22843   44.998
 4638.00    1.23165   1.23126   46.253
 4639.00    1.23236   1.23597   46.543
 4640.00    1.23361   1.24308   45.791
 4641.00    1.25291   1.25092   44.729
 4642.00    1.26252   1.25613   44.080
 4643.00    1.25130   1.25584   43.966
 4644.00    1.24735   1.24944   43.878
 4645.00    1.23733   1.23860   44.358
 4646.00    1.21828   1.22694   45.362
 4647.00    1.22347   1.21963   45.925
 4648.00    1.23252   1.22023   45.589
 4649.00    1.23832   1.22750   44.194
 4650.00    1.22973   1.23656   42.504
 4651.00    1.23569   1.24260   41.506
 4652.00    1.23520   1.24336   41.414
 4653.00    1.22294   1.23911   41.904
 4654.00    1.21915   1.23187   42.913
 4655.00    1.21067   1.22538   43.775
 4656.00    1.20830   1.22463   43.916
 4657.00    1.23142   1.23322   44.606
 4658.00    1.25340   1.24951   46.480
 4659.00    1.27438   1.26603   48.431
 4660.00    1.29115   1.27492   48.571
 4661.00    1.27500   1.27365   47.132
 4662.00    1.25095   1.26520   45.163
 4663.00    1.24614   1.25369   43.912
 4664.00    1.25554   1.24043   43.619
 4665.00    1.24621   1.22427   43.646
 4666.00    1.21945   1.20599   43.604
 4667.00    1.19340   1.19097   43.051
 4668.00    1.17977   1.18555   42.400
 4669.00    1.19408   1.19167   42.590
 4670.00    1.21766   1.20604   43.505
 4671.00    1.23658   1.22276   44.372
 4672.00    1.25241   1.23666   45.111
 4673.00    1.25121   1.24603   45.554
 4674.00    1.24884   1.25247   45.003
 4675.00    1.26618   1.25743   43.868
 4676.00    1.27461   1.25936   43.282
 4677.00    1.26246   1.25551   43.423
 4678.00    1.24874   1.24622   43.442
 4679.00    1.24193   1.23533   43.690
 4680.00    1.22641   1.22698   43.694
 4681.00    1.20831   1.22330   43.698
 4682.00    1.22204   1.22446   44.014
 4683.00    1.25004   1.22909   44.107
 4684.00    1.26387   1.23478   43.581
 4685.00    1.26086   1.23941   42.929
 4686.00    1.27162   1.24235   41.967
 4687.00    1.25797   1.24403   41.432
 4688.00    1.25651   1.24487   41.643
 4689.00    1.26456   1.24481   42.860
 4690.00    1.25091   1.24399   44.163
 4691.00    1.23700   1.24359   44.669
 4692.00    1.25498   1.24513   44.296
 4693.00    1.26700   1.24860   44.640
 4694.00    1.27528   1.25231   45.444
 4695.00    1.27502   1.25415   45.670
 4696.00    1.29535   1.25201   44.777
 4697.00    1.27004   1.24495   44.119
 4698.00    1.25027   1.23484   44.769
 4699.00    1.24351   1.22487   45.681
 4700.00    1.24056   1.21631   46.109
 4701.00    1.22900   1.20871   45.847
 4702.00    1.22299   1.20292   44.456
 4703.00    1.22293   1.20169   43.237
 4704.00    1.22968   1.20576   42.835
 4705.00    1.24174   1.21082   43.278
 4706.00    1.24154   1.21128   44.119
 4707.00    1.22908   1.20671   44.086
 4708.00    1.21398   1.20266   43.171
 4709.00    1.20312   1.20475   42.341
 4710.00    1.22559   1.21329   42.104
 4711.00    1.25949   1.22364   41.959
 4712.00    1.26153   1.23043   41.815
 4713.00    1.24926   1.23173   42.200
 4714.00    1.23374   1.23072   42.497
 4715.00    1.23831   1.23254   42.217
 4716.00    1.25111   1.23905   41.746
 4717.00    1.25582   1.24743   41.841
 4718.00    1.26153   1.25390   42.921
 4719.00    1.26707   1.25718   44.602
 4720.00    1.26034   1.25813   45.554
 4721.00    1.25823   1.25823   45.310
 4722.00    1.26764   1.25884   44.830
 4723.00    1.27173   1.26055   44.482
 4724.00    1.28019   1.26213   43.933
 4725.00    1.27926   1.26091   43.563
 4726.00    1.25477   1.25499   43.323
 4727.00    1.24603   1.24511   43.092
 4728.00    1.24022   1.23428   43.597
 4729.00    1.24214   1.22544   43.612
 4730.00    1.25205   1.22025   43.019
 4731.00    1.24395   1.21988   43.082
 4732.00    1.24475   1.22443   43.343
 4733.00    1.24167   1.23106   43.376
 4734.00    1.24610   1.23558   42.998
 4735.00    1.26127   1.23632   42.537
 4736.00    1.25806   1.23504   42.657
 4737.00    1.24598   1.23455   42.678
 4738.00    1.24798   1.23613   42.332
 4739.00    1.25028   1.23903   41.908
 4740.00    1.24786   1.24213   41.847
 4741.00    1.24993   1.24531   41.918
 4742.00    1.25662   1.24908   41.955
 4743.00    1.27083   1.25321   42.287
 4744.00    1.26895   1.25670   42.774
 4745.00    1.27189   1.25918   43.122
 4746.00    1.27306   1.26165   43.396
 4747.00    1.26274   1.26532   43.309
 4748.00    1.26913   1.26992   43.503
 4749.00    1.27540   1.27402   43.821
 4750.00    1.28945   1.27623   43.828
 4751.00    1.28969   1.27546   43.455
 4752.00    1.26503   1.27131   43.440
 4753.00    1.25377   1.26500   44.192
 4754.00    1.24879   1.25919   45.295
 4755.00    1.24632   1.25631   45.811
 4756.00    1.25341   1.25703   45.839
 4757.00    1.25984   1.26013   45.719
 4758.00    1.25804   1.26337   45.361
 4759.00    1.27089   1.26413   44.683
 4760.00    1.25329   1.25954   43.672
 4761.00    1.25215   1.24817   43.140
 4762.00    1.24117   1.23254   43.274
 4763.00    1.22630   1.21893   43.660
 4764.00    1.22237   1.21303   43.974
 4765.00    1.23169   1.21609   43.376
 4766.00    1.24345   1.22555   42.475
 4767.00    1.24553   1.23809   42.249
 4768.00    1.24935   1.25075   42.308
 4769.00    1.26442   1.26036   42.451
 4770.00    1.27874   1.26462   42.757
 4771.00    1.26306   1.26443   43.230
 4772.00    1.26125   1.26367   43.458
 4773.00    1.27384   1.26579   43.569
 4774.00    1.28043   1.27089   43.803
 4775.00    1.28202   1.27608   44.128
 4776.00    1.29093   1.27819   44.106
 4777.00    1.30159   1.27556   44.296
 4778.00    1.29732   1.26884   44.736
 4779.00    1.27451   1.26135   44.950
 4780.00    1.26395   1.25716   44.869
 4781.00    1.26950   1.25708   44.632
 4782.00    1.26799   1.25805   44.331
 4783.00    1.27188   1.25718   43.825
 4784.00    1.26527   1.25425   43.059
 4785.00    1.24761   1.25049   42.109
 4786.00    1.24059   1.24735   41.467
 4787.00    1.23857   1.24619   41.414
 4788.00    1.23864   1.24776   41.915
 4789.00    1.24569   1.25192   42.780
 4790.00    1.25571   1.25827   43.541
 4791.00    1.25765   1.26636   43.926
 4792.00    1.27687   1.27555   43.425
 4793.00    1.28461   1.28483   42.553
 4794.00    1.29463   1.29233   42.046
 4795.00    1.30954   1.29554   42.212
 4796.00    1.30293   1.29298   42.802
 4797.00    1.28405   1.28595   43.326
 4798.00    1.26479   1.27829   43.655
 4799.00    1.27053   1.27427   43.608
 4800.00    1.28010   1.27581   43.481
 4801.00    1.29252   1.28084   43.251
 4802.00    1.29052   1.28441   42.860
 4803.00    1.28263   1.28262   42.570
 4804.00    1.27332   1.27633   42.383
 4805.00    1.26630   1.27040   42.341
 4806.00    1.27222   1.26887   42.226
 4807.00    1.27049   1.27174   42.053
 4808.00    1.28009   1.27634   41.782
 4809.00    1.27557   1.28018   41.538
 4810.00    1.27540   1.28236   41.398
 4811.00    1.27483   1.28380   41.394
 4812.00    1.28843   1.28630   41.457
 4813.00    1.29972   1.29068   41.964
 4814.00    1.29173   1.29607   43.064
 4815.00    1.28829   1.30104   43.713
 4816.00    1.29453   1.30476   43.464
 4817.00    1.30754   1.30682   42.678
 4818.00    1.30723   1.30716   42.171
 4819.00    1.29559   1.30569   42.445
 4820.00    1.29521   1.30139   42.922
 4821.00    1.29039   1.29224   43.126
 4822.00    1.28937   1.27810   43.177
 4823.00    1.27196   1.26356   43.539
 4824.00    1.26870   1.25590   43.448
 4825.00    1.27757   1.25844   42.737
 4826.00    1.29543   1.26723   42.254
 4827.00    1.29791   1.27529   42.160
 4828.00    1.29248   1.27865   42.266
 4829.00    1.29144   1.27779   42.549
 4830.00    1.29445   1.27465   43.187
 4831.00    1.29693   1.27069   43.821
 4832.00    1.28669   1.26738   43.788
 4833.00    1.29159   1.26617   43.664
 4834.00    1.29823   1.26710   43.416
 4835.00    1.29313   1.26882   43.064
 4836.00    1.29374   1.26997   42.575
 4837.00    1.29223   1.26967   41.988
 4838.00    1.28977   1.26727   42.018
 4839.00    1.27812   1.26298   42.875
 4840.00    1.26704   1.25858   43.365
 4841.00    1.26941   1.25607   43.199
 4842.00    1.26624   1.25583   42.677
 4843.00    1.27593   1.25687   42.676
 4844.00    1.27654   1.25826   42.961
 4845.00    1.28202   1.25891   43.537
 4846.00    1.29514   1.25676   44.871
 4847.00    1.28497   1.25102   45.828
 4848.00    1.27557   1.24454   45.583
 4849.00    1.26134   1.24133   45.495
 4850.00    1.25245   1.24152   47.411
 4851.00    1.25703   1.24073   51.974
 4852.00    1.23024   1.23363   57.374
 4853.00    1.19085   1.21732   58.416
 4854.00    1.17437   1.19343   54.195
 4855.00    1.17817   1.16739   49.718
 4856.00    1.19832   1.14258   -1.000
 4857.00    1.18086   1.11394   -1.000
 4858.00    1.14661   1.06986   -1.000
 4859.00    1.07031   1.00538   -1.000
 4860.00    0.95150   0.93517   44.480
 4861.00    0.87841   0.88969   45.107
 4862.00    0.91557   0.89263   46.379
 4863.00    1.02475   0.94089   -1.000
 4864.00    1.10376   1.00975   -1.000
 4865.00    1.14772   1.07488   -1.000
 4866.00    1.18109   1.12547   -1.000
 4867.00    1.20777   1.16057   44.226
 4868.00    1.21549   1.18093   44.012
 4869.00    1.21448   1.18686   43.734
 4870.00    1.20890   1.18136   43.123
 4871.00    1.18477   1.17273   42.896
 4872.00    1.17619   1.17110   43.397
 4873.00    1.20635   1.18064   44.005
 4874.00    1.23020   1.19641   44.138
 4875.00    1.22823   1.21044   44.081
 4876.00    1.23323   1.21976   44.456
 4877.00    1.23941   1.22761   45.037
 4878.00    1.24395   1.23799   45.126
 4879.00    1.26059   1.25041   44.919
 4880.00    1.27367   1.26005   45.070
 4881.00    1.26870   1.26242   45.861
 4882.00    1.26649   1.25771   46.511
 4883.00    1.27544   1.25049   45.692
 4884.00    1.27191   1.24530   43.717
 4885.00    1.25975   1.24344   41.890
 4886.00    1.25322   1.24339   40.808
 4887.00    1.25475   1.24244   40.223
 4888.00    1.25208   1.23778   40.130
 4889.00    1.23062   1.22854   40.459
 4890.00    1.21192   1.21889   41.390
 4891.00    1.21631   1.21765   42.219
 4892.00    1.23700   1.23143   42.464
 4893.00    1.27761   1.25764   42.318
 4894.00    1.30619   1.28624   42.529
 4895.00    1.31555   1.30804   42.762
 4896.00    1.33038   1.31953   42.122
 4897.00    1.33163   1.32118   41.384
 4898.00    1.31046   1.31523   41.300
 4899.00    1.30044   1.30564   41.897
 4900.00    1.30010   1.29713   42.997
 4901.00    1.30126   1.29205   44.032
 4902.00    1.30153   1.28958   44.201
 4903.00    1.29080   1.28921   43.514
 4904.00    1.28951   1.29267   42.780
 4905.00    1.30111   1.30024   42.208
 4906.00    1.31736   1.30757   41.716
 4907.00    1.31910   1.30877   41.538
 4908.00    1.30431   1.30139   42.163
 4909.00    1.28792   1.28816   43.955
 4910.00    1.28191   1.27550   46.302
 4911.00    1.28360   1.27003   47.948
 4912.00    1.30577   1.27420   47.723
 4913.00    1.31735   1.28488   46.052
 4914.00    1.31580   1.29607   44.713
 4915.00    1.32546   1.30158   44.286
 4916.00    1.32183   1.29598   44.076
 4917.00    1.30145   1.27660   43.289
 4918.00    1.26814   1.24675   42.264
 4919.00    1.23240   1.21606   41.643
 4920.00    1.21241   1.19544   41.297
 4921.00    1.21052   1.18979   41.028
 4922.00    1.22599   1.19554   41.012
 4923.00    1.24693   1.20659   41.688
 4924.00    1.25369   1.22136   42.985
 4925.00    1.27047   1.24116   44.040
 4926.00    1.29986   1.26433   43.782
 4927.00    1.31816   1.28601   43.248
 4928.00    1.32783   1.30231   43.711
 4929.00    1.33844   1.31164   45.010
 4930.00    1.34346   1.31289   45.646
 4931.00    1.33652   1.30476   44.767
 4932.00    1.31518   1.28829   43.245
 4933.00    1.27936   1.26982   42.079
 4934.00    1.25874   1.25820   41.462
 4935.00    1.26652   1.25657   41.246
 4936.00    1.28123   1.25886   41.386
 4937.00    1.27815   1.25737   41.610
 4938.00    1.25549   1.25261   41.515
 4939.00    1.24517   1.25246   41.083
 4940.00    1.26656   1.26278   40.733
 4941.00    1.29850   1.28134   40.598
 4942.00    1.32279   1.30032   40.575
 4943.00    1.34024   1.31290   40.823
 4944.00    1.34554   1.31736   41.182
 4945.00    1.33590   1.31661   41.680
 4946.00    1.33079   1.31538   42.436
 4947.00    1.33390   1.31713   44.002
 4948.00    1.34160   1.32199   46.119
 4949.00    1.35054   1.32708   46.836
 4950.00    1.34920   1.32944   45.101
 4951.00    1.34824   1.32831   42.902
 4952.00    1.34741   1.32474   41.910
 4953.00    1.34166   1.31878   41.821
 4954.00    1.33136   1.30750   42.085
 4955.00    1.31494   1.28712   42.492
 4956.00    1.28054   1.25983   43.166
 4957.00    1.24637   1.23759   43.948
 4958.00    1.25131   1.23396   44.278
 4959.00    1.28421   1.25119   44.218
 4960.00    1.32576   1.27845   44.002
 4961.00    1.34683   1.30213   43.609
 4962.00    1.34502   1.31526   43.139
 4963.00    1.33876   1.31780   42.652
 4964.00    1.33230   1.31271   42.185
 4965.00    1.31744   1.30367   41.886
 4966.00    1.31088   1.29473   41.919
 4967.00    1.31307   1.28888   42.286
 4968.00    1.31664   1.28713   42.793
 4969.00    1.31794   1.28920   43.430
 4970.00    1.32043   1.29439   44.067
 4971.00    1.32842   1.30160   44.644
 4972.00    1.33716   1.30930   45.647
 4973.00    1.34585   1.31582   47.166
 4974.00    1.34964   1.31960   48.018
 4975.00    1.35211   1.31970   47.582
 4976.00    1.34793   1.31622   46.466
 4977.00    1.33810   1.30999   45.072
 4978.00    1.32912   1.30168   43.777
 4979.00    1.31623   1.29048   43.205
 4980.00    1.29970   1.27431   43.536
 4981.00    1.27302   1.25303   44.103
 4982.00    1.25111   1.23153   44.355
 4983.00    1.25017   1.21816   44.173
 4984.00    1.25818   1.21896   43.867
 4985.00    1.27199   1.23326   43.762
 4986.00    1.30359   1.25444   43.648
 4987.00    1.32492   1.27403   -1.000
 4988.00    1.32043   1.28548   43.431
 4989.00    1.31306   1.28677   43.854
 4990.00    1.30846   1.28127   44.591
 4991.00    1.30511   1.27521   45.340
 4992.00    1.30690   1.27324   45.647
 4993.00    1.30980   1.27627   45.446
 4994.00    1.32149   1.28264   45.069
 4995.00    1.33792   1.28980   -1.000
 4996.00    1.34063   1.29446   -1.000
 4997.00    1.33431   1.29275   46.884
 4998.00    1.32325   1.28241   46.433
 4999.00    1.31412   1.26608   -1.000
 5000.00    1.30705   1.25125   -1.000
 5001.00    1.29833   1.24445   -1.000
 5002.00    1.30425   1.24537   -1.000
 5003.00    1.31523   1.24763   -1.000
 5004.00    1.31539   1.24501   -1.000
 5005.00    1.29710   1.23747   -1.000
 5006.00    1.27595   1.23170   -1.000
 5007.00    1.28301   1.23463   -1.000
 5008.00    1.31040   1.24575   -1.000
 5009.00    1.32631   1.25708   -1.000
 5010.00    1.32076   1.25999   -1.000
 5011.00    1.30313   1.25163   -1.000
 5012.00    1.27603   1.23638   45.437
 5013.00    1.25119   1.22231   45.596
 5014.00    1.24662   1.21516   45.508
 5015.00    1.26102   1.21427   45.125
 5016.00    1.27996   1.21448   -1.000
 5017.00    1.28574   1.21289   -1.000
 5018.00    1.28426   1.21296   -1.000
 5019.00    1.29223   1.21986   -1.000
 5020.00    1.30113   1.23312   -1.000
 5021.00    1.30506   1.24702   -1.000
 5022.00    1.30470   1.25768   42.762
 5023.00    1.30781   1.26611   42.171
 5024.00    1.31500   1.27404   41.984
 5025.00    1.30760   1.28025   42.740
 5026.00    1.30276   1.28259   44.314
 5027.00    1.31183   1.28167   45.538
 5028.00    1.32512   1.28033   45.956
 5029.00    1.33705   1.28101   -1.000
 5030.00    1.34278   1.28497   -1.000
 5031.00    1.34445   1.29211   -1.000
 5032.00    1.35572   1.29973   -1.000
 5033.00    1.35853   1.30281   -1.000
 5034.00    1.33820   1.29784   46.264
 5035.00    1.31674   1.28646   43.935
 5036.00    1.30128   1.27388   42.642
 5037.00    1.30653   1.26281   41.335
 5038.00    1.26421   1.25062   41.317
 5039.00    0.85562   1.23429   -1.000
 5040.00    0.37349   1.21766   -1.000
 5041.00    0.16357   1.21084   -1.000
 5042.00    0.67565   1.22124   -1.000
 5043.00    1.26607   1.24640   44.710
 5044.00    1.35050   1.27608   -1.000
 5045.00    1.34861   1.29998   42.688
 5046.00    1.36076   1.31223   42.128
 5047.00    1.35561   1.31142   41.885
 5048.00    1.34308   1.29955   41.877
 5049.00    1.32000   1.28134   41.958
 5050.00    1.29968   1.26324   41.981
 5051.00    1.30386   1.25264   41.804
 5052.00    1.32294   1.25550   -1.000
 5053.00    1.34155   1.27130   -1.000
 5054.00    1.35895   1.29187   -1.000
 5055.00    1.36710   1.30842   -1.000
 5056.00    1.37060   1.31837   -1.000
 5057.00    1.37013   1.32413   -1.000
 5058.00    1.36482   1.32819   44.612
 5059.00    1.36400   1.33113   44.253
 5060.00    1.37120   1.33236   44.079
 5061.00    1.37666   1.33060   43.818
 5062.00    1.36971   1.32400   43.916
 5063.00    1.35423   1.31209   44.279
 5064.00    1.33371   1.29791   44.082
 5065.00    1.32310   1.28673   43.644
 5066.00    1.33041   1.28166   -1.000
 5067.00    1.34098   1.28154   -1.000
 5068.00    1.34504   1.28337   -1.000
 5069.00    1.35317   1.28524   -1.000
 5070.00    1.35935   1.28622   -1.000
 5071.00    1.35068   1.28555   -1.000
 5072.00    1.34665   1.28360   -1.000
 5073.00    1.34986   1.28230   -1.000
 5074.00    1.34894   1.28321   -1.000
 5075.00    1.35475   1.28509   -1.000
 5076.00    1.36991   1.28420   -1.000
 5077.00    1.36154   1.27700   -1.000
 5078.00    1.33086   1.26383   -1.000
 5079.00    1.29426   1.25006   43.330
 5080.00    1.28019   1.24228   43.047
 5081.00    1.29734   1.24301   -1.000
 5082.00    1.31613   1.24997   -1.000
 5083.00    1.32998   1.26005   -1.000
 5084.00    1.33852   1.27159   -1.000
 5085.00    1.35088   1.28321   -1.000
 5086.00    1.36501   1.29303   -1.000
 5087.00    1.36433   1.30005   -1.000
 5088.00    1.36922   1.30503   -1.000
 5089.00    1.37926   1.30939   -1.000
 5090.00    1.38306   1.31396   -1.000
 5091.00    1.37715   1.31893   -1.000
 5092.00    1.38273   1.32388   -1.000
 5093.00    1.39226   1.32714   -1.000
 5094.00    1.38500   1.32573   -1.000
 5095.00    1.38503   1.31733   -1.000
 5096.00    1.37465   1.30267   -1.000
 5097.00    1.35373   1.28601   -1.000
 5098.00    1.33276   1.27328   -1.000
 5099.00    1.32839   1.26911   -1.000
 5100.00    1.34224   1.27437   -1.000
 5101.00    1.36522   1.28543   -1.000
 5102.00    1.38213   1.29634   -1.000
 5103.00    1.38161   1.30234   -1.000
 5104.00    1.37124   1.30160   -1.000
 5105.00    1.35355   1.29472   -1.000
 5106.00    1.34388   1.28418   -1.000
 5107.00    1.33525   1.27400   -1.000
 5108.00    1.32110   1.26814   -1.000
 5109.00    1.31957   1.26871   -1.000
 5110.00    1.32498   1.27553   -1.000
 5111.00    1.34531   1.28667   -1.000
 5112.00    1.37318   1.29931   -1.000
 5113.00    1.38313   1.31077   -1.000
 5114.00    1.38162   1.31984   -1.000
 5115.00    1.38441   1.32668   -1.000
 5116.00    1.39412   1.33165   -1.000
 5117.00    1.40608   1.33426   -1.000
 5118.00    1.41053   1.33348   -1.000
 5119.00    1.40374   1.32864   -1.000
 5120.00    1.38928   1.31997   -1.000
 5121.00    1.37775   1.30843   -1.000
 5122.00    1.36079   1.29544   -1.000
 5123.00    1.33625   1.28313   -1.000
 5124.00    1.32814   1.27388   -1.000
 5125.00    1.33126   1.26872   -1.000
 5126.00    1.33460   1.26638   -1.000
 5127.00    1.33846   1.26494   -1.000
 5128.00    1.34483   1.26419   -1.000
 5129.00    1.34724   1.26574   -1.000
 5130.00    1.35465   1.27070   -1.000
 5131.00    1.35736   1.27822   -1.000
 5132.00    1.35882   1.28642   -1.000
 5133.00    1.36625   1.29370   -1.000
 5134.00    1.37892   1.29869   -1.000
 5135.00    1.37584   1.29972   -1.000
 5136.00    1.36935   1.29548   -1.000
 5137.00    1.35346   1.28659   -1.000
 5138.00    1.33007   1.27621   -1.000
 5139.00    1.32093   1.26845   -1.000
 5140.00    1.32912   1.26552   -1.000
 5141.00    1.33453   1.26666   -1.000
 5142.00    1.33026   1.26993   -1.000
 5143.00    1.33341   1.27418   -1.000
 5144.00    1.34987   1.27851   -1.000
 5145.00    1.35578   1.28142   -1.000
 5146.00    1.35037   1.28215   -1.000
 5147.00    1.35437   1.28189   -1.000
 5148.00    1.37051   1.28185   -1.000
 5149.00    1.36730   1.28105   -1.000
 5150.00    1.35180   1.27748   -1.000
 5151.00    1.35574   1.27113   -1.000
 5152.00    1.35247   1.26481   -1.000
 5153.00    1.35175   1.26253   -1.000
 5154.00    1.36272   1.26742   -1.000
 5155.00    1.37476   1.27955   -1.000
 5156.00    1.40527   1.29557   -1.000
 5157.00    1.42362   1.31055   -1.000
 5158.00    1.43348   1.32094   -1.000
 5159.00    1.43936   1.32576   -1.000
 5160.00    1.42814   1.32559   -1.000
 5161.00    1.42337   1.32129   -1.000
 5162.00    1.41193   1.31279   -1.000
 5163.00    1.40691   1.29742   -1.000
 5164.00    1.39453   1.26972   -1.000
 5165.00    1.34486   1.22648   -1.000
 5166.00    1.27272   1.17409   -1.000
 5167.00    1.20119   1.12949   -1.000
 5168.00    1.18602   1.10831   -1.000
 5169.00    1.23728   1.10995   -1.000
 5170.00    1.26294   1.11883   -1.000
 5171.00    1.24568   1.12186   -1.000
 5172.00    1.21253   1.12351   -1.000
 5173.00    1.22838   1.13919   -1.000
 5174.00    1.30012   1.17550   -1.000
 5175.00    1.37403   1.22253   -1.000
 5176.00    1.41485   1.26394   -1.000
 5177.00    1.42002   1.29020   -1.000
 5178.00    1.41623   1.30035   -1.000
 5179.00    1.41892   1.29508   -1.000
 5180.00    1.40889   1.27276   -1.000
 5181.00    1.37336   1.23328   -1.000
 5182.00    1.31220   1.18562   -1.000
 5183.00    1.24310   1.14868   -1.000
 5184.00    1.23308   1.13996   -1.000
 5185.00    1.29009   1.16182   -1.000
 5186.00    1.35527   1.19922   -1.000
 5187.00    1.40378   1.23324   -1.000
 5188.00    1.42491   1.25427   -1.000
 5189.00    1.41843   1.26270   -1.000
 5190.00    1.40661   1.26204   -1.000
 5191.00    1.39399   1.25603   -1.000
 5192.00    1.37259   1.24934   -1.000
 5193.00    1.36117   1.24653   -1.000
 5194.00    1.35310   1.24888   -1.000
 5195.00    1.35051   1.25467   -1.000
 5196.00    1.36456   1.26246   -1.000
 5197.00    1.36639   1.27257   -1.000
 5198.00    1.38065   1.28487   -1.000
 5199.00    1.39488   1.29687   -1.000
 5200.00    1.40284   1.30421   -1.000
 5201.00    1.40209   1.30300   -1.000
 5202.00    1.39098   1.29160   -1.000
 5203.00    1.36279   1.27179   -1.000
 5204.00    1.33254   1.24875   -1.000
 5205.00    1.32331   1.22918   -1.000
 5206.00    1.31402   1.21741   -1.000
 5207.00    1.31459   1.21380   -1.000
 5208.00    1.31417   1.21711   -1.000
 5209.00    1.32840   1.22745   -1.000
 5210.00    1.36196   1.24552   -1.000
 5211.00    1.38649   1.26929   -1.000
 5212.00    1.41379   1.29253   -1.000
 5213.00    1.43532   1.30753   -1.000
 5214.00    1.42005   1.31037   -1.000
 5215.00    1.40180   1.30433   -1.000
 5216.00    1.38744   1.29807   -1.000
 5217.00    1.38834   1.29955   -1.000
 5218.00    1.40888   1.31044   -1.000
 5219.00    1.42613   1.32628   -1.000
 5220.00    1.43263   1.34049   -1.000
 5221.00    1.43595   1.34792   -1.000
 5222.00    1.42932   1.34541   -1.000
 5223.00    1.41932   1.33069   -1.000
 5224.00    1.39401   1.30330   -1.000
 5225.00    1.33554   1.26905   -1.000
 5226.00    1.28728   1.24092   -1.000
 5227.00    1.28752   1.23209   -1.000
 5228.00    1.32917   1.24515   -1.000
 5229.00    1.37789   1.26956   -1.000
 5230.00    1.40716   1.28994   -1.000
 5231.00    1.41399   1.29690   -1.000
 5232.00    1.39753   1.29176   -1.000
 5233.00    1.37106   1.28371   -1.000
 5234.00    1.37670   1.28253   -1.000
 5235.00    1.39367   1.29206   -1.000
 5236.00    1.40861   1.30889   -1.000
 5237.00    1.43535   1.32613   -1.000
 5238.00    1.44014   1.33877   -1.000
 5239.00    1.43797   1.34578   -1.000
 5240.00    1.44035   1.34868   -1.000
 5241.00    1.44147   1.34949   -1.000
 5242.00    1.43314   1.34998   -1.000
 5243.00    1.44752   1.35094   -1.000
 5244.00    1.45531   1.35101   -1.000
 5245.00    1.44443   1.34755   -1.000
 5246.00    1.42885   1.33947   -1.000
 5247.00    1.40075   1.32884   -1.000
 5248.00    1.39386   1.31916   -1.000
 5249.00    1.39013   1.31279   -1.000
 5250.00    1.38274   1.31027   -1.000
 5251.00    1.37257   1.31096   -1.000
 5252.00    1.39167   1.31329   -1.000
 5253.00    1.40524   1.31569   -1.000
 5254.00    1.40681   1.31850   -1.000
 5255.00    1.41358   1.32402   -1.000
 5256.00    1.43685   1.33366   -1.000
 5257.00    1.46087   1.34506   -1.000
 5258.00    1.47303   1.35244   -1.000
 5259.00    1.47609   1.34999   -1.000
 5260.00    1.45118   1.33512   -1.000
 5261.00    1.41354   1.30978   -1.000
 5262.00    1.37950   1.27938   -1.000
 5263.00    1.34983   1.25057   -1.000
 5264.00    1.32489   1.22950   -1.000
 5265.00    1.31397   1.21927   -1.000
 5266.00    1.32585   1.21723   -1.000
 5267.00    1.34056   1.21600   -1.000
 5268.00    1.32715   1.20998   -1.000
 5269.00    1.29028   1.20250   -1.000
 5270.00    1.28841   1.20355   -1.000
 5271.00    1.33824   1.21830   -1.000
 5272.00    1.37827   1.24104   -1.000
 5273.00    1.39231   1.26140   -1.000
 5274.00    1.39517   1.27457   -1.000
 5275.00    1.39420   1.28463   -1.000
 5276.00    1.41191   1.29802   -1.000
 5277.00    1.39826   1.31569   -1.000
 5278.00    1.40875   1.33177   -1.000
 5279.00    1.45575   1.33888   -1.000
 5280.00    1.44434   1.33436   -1.000
 5281.00    1.42969   1.32172   -1.000
 5282.00    1.40611   1.30821   -1.000
 5283.00    1.38555   1.30180   -1.000
 5284.00    1.39921   1.30759   -1.000
 5285.00    1.43859   1.32465   -1.000
 5286.00    1.45960   1.34621   -1.000
 5287.00    1.47217   1.36443   -1.000
 5288.00    1.47833   1.37557   -1.000
 5289.00    1.47408   1.38046   -1.000
 5290.00    1.47373   1.38142   -1.000
 5291.00    1.48110   1.38019   -1.000
 5292.00    1.47161   1.37755   -1.000
 5293.00    1.45639   1.37307   -1.000
 5294.00    1.46922   1.36512   -1.000
 5295.00    1.45378   1.35212   -1.000
 5296.00    1.42071   1.33526   -1.000
 5297.00    1.39813   1.31971   -1.000
 5298.00    1.38866   1.31136   -1.000
 5299.00    1.40054   1.31223   -1.000
 5300.00    1.42677   1.31946   -1.000
 5301.00    1.42836   1.32886   -1.000
 5302.00    1.42827   1.33866   -1.000
 5303.00    1.44496   1.34860   -1.000
 5304.00    1.47139   1.35734   -1.000
 5305.00    1.48268   1.36273   -1.000
 5306.00    1.46373   1.36422   -1.000
 5307.00    1.45533   1.36424   -1.000
 5308.00    1.46466   1.36613   -1.000
 5309.00    1.47757   1.37080   -1.000
 5310.00    1.48339   1.37608   -1.000
 5311.00    1.48026   1.37871   -1.000
 5312.00    1.48479   1.37661   -1.000
 5313.00    1.47976   1.36937   -1.000
 5314.00    1.48347   1.35789   -1.000
 5315.00    1.47585   1.34510   -1.000
 5316.00    1.45096   1.33612   -1.000
 5317.00    1.44723   1.33550   -1.000
 5318.00    1.46872   1.34318   -1.000
 5319.00    1.48969   1.35359   -1.000
 5320.00    1.47944   1.35968   -1.000
 5321.00    1.46577   1.35721   -1.000
 5322.00    1.45644   1.34650   -1.000
 5323.00    1.43312   1.33128   -1.000
 5324.00    1.42462   1.31514   -1.000
 5325.00    1.43252   1.29836   -1.000
 5326.00    1.41543   1.27896   -1.000
 5327.00    1.35104   1.25904   -1.000
 5328.00    1.31918   1.24763   -1.000
 5329.00    1.36140   1.25345   -1.000
 5330.00    1.40924   1.27564   -1.000
 5331.00    1.45028   1.30344   -1.000
 5332.00    1.45237   1.32553   -1.000
 5333.00    1.44645   1.33787   -1.000
 5334.00    1.46248   1.34239   -1.000
 5335.00    1.47088   1.34239   -1.000
 5336.00    1.45796   1.33982   -1.000
 5337.00    1.45584   1.33513   -1.000
 5338.00    1.45045   1.32821   -1.000
 5339.00    1.43672   1.32015   -1.000
 5340.00    1.41497   1.31466   -1.000
 5341.00    1.42154   1.31604   -1.000
 5342.00    1.44976   1.32465   -1.000
 5343.00    1.46195   1.33551   -1.000
 5344.00    1.47514   1.34241   -1.000
 5345.00    1.45561   1.34284   -1.000
 5346.00    1.45106   1.33884   -1.000
 5347.00    1.45205   1.33435   -1.000
 5348.00    1.44105   1.33238   -1.000
 5349.00    1.44755   1.33468   -1.000
 5350.00    1.45341   1.34145   -1.000
 5351.00    1.47575   1.35099   -1.000
 5352.00    1.47962   1.36064   -1.000
 5353.00    1.47544   1.36891   -1.000
 5354.00    1.48465   1.37617   -1.000
 5355.00    1.49615   1.38300   -1.000
 5356.00    1.48917   1.38891   -1.000
 5357.00    1.50002   1.39257   -1.000
 5358.00    1.51526   1.39294   -1.000
 5359.00    1.51436   1.38950   -1.000
 5360.00    1.50042   1.38196   -1.000
 5361.00    1.49423   1.37102   -1.000
 5362.00    1.49029   1.35879   -1.000
 5363.00    1.47488   1.34799   -1.000
 5364.00    1.45929   1.34081   -1.000
 5365.00    1.44770   1.33761   -1.000
 5366.00    1.45013   1.33646   -1.000
 5367.00    1.45288   1.33378   -1.000
 5368.00    1.44323   1.32618   -1.000
 5369.00    1.42145   1.31317   -1.000
 5370.00    1.40954   1.29936   -1.000
 5371.00    1.40103   1.29296   -1.000
 5372.00    1.41238   1.30009   -1.000
 5373.00    1.44364   1.31964   -1.000
 5374.00    1.47755   1.34372   -1.000
 5375.00    1.48927   1.36374   -1.000
 5376.00    1.50196   1.37532   -1.000
 5377.00    1.50983   1.37870   -1.000
 5378.00    1.50427   1.37612   -1.000
 5379.00    1.48958   1.36993   -1.000
 5380.00    1.47888   1.36235   -1.000
 5381.00    1.48093   1.35557   -1.000
 5382.00    1.47414   1.35167   -1.000
 5383.00    1.47766   1.35219   -1.000
 5384.00    1.48233   1.35744   -1.000
 5385.00    1.49694   1.36569   -1.000
 5386.00    1.50196   1.37341   -1.000
 5387.00    1.50722   1.37726   -1.000
 5388.00    1.50308   1.37568   -1.000
 5389.00    1.48960   1.36943   -1.000
 5390.00    1.48210   1.36069   -1.000
 5391.00    1.46783   1.35157   -1.000
 5392.00    1.45964   1.34358   -1.000
 5393.00    1.45874   1.33698   -1.000
 5394.00    1.46200   1.33005   -1.000
 5395.00    1.45635   1.32114   -1.000
 5396.00    1.43487   1.31185   -1.000
 5397.00    1.42277   1.30710   -1.000
 5398.00    1.44142   1.31098   -1.000
 5399.00    1.46681   1.32197   -1.000
 5400.00    1.47143   1.33369   -1.000
 5401.00    1.47472   1.33943   -1.000
 5402.00    1.47049   1.33520   -1.000
 5403.00    1.44894   1.32168   -1.000
 5404.00    1.41548   1.30445   -1.000
 5405.00    1.39482   1.29158   -1.000
 5406.00    1.40484   1.28840   -1.000
 5407.00    1.42897   1.29364   -1.000
 5408.00    1.44450   1.30113   -1.000
 5409.00    1.43631   1.30683   -1.000
 5410.00    1.43242   1.31198   -1.000
 5411.00    1.44709   1.31923   -1.000
 5412.00    1.46619   1.32838   -1.000
 5413.00    1.48090   1.33662   -1.000
 5414.00    1.49097   1.34262   -1.000
 5415.00    1.47873   1.34787   -1.000
 5416.00    1.48376   1.35372   -1.000
 5417.00    1.49562   1.35961   -1.000
 5418.00    1.49114   1.36394   -1.000
 5419.00    1.49281   1.36573   -1.000
 5420.00    1.49788   1.36505   -1.000
 5421.00    1.50634   1.36189   -1.000
 5422.00    1.49105   1.35637   -1.000
 5423.00    1.47154   1.35017   -1.000
 5424.00    1.46447   1.34667   -1.000
 5425.00    1.46837   1.34830   -1.000
 5426.00    1.49085   1.35241   -1.000
 5427.00    1.49687   1.35256   -1.000
 5428.00    1.47613   1.34553   -1.000
 5429.00    1.44149   1.33479   -1.000
 5430.00    1.42796   1.32700   -1.000
 5431.00    1.43831   1.32454   -1.000
 5432.00    1.45329   1.32400   -1.000
 5433.00    1.44023   1.32235   -1.000
 5434.00    1.42535   1.32133   -1.000
 5435.00    1.42121   1.32577   -1.000
 5436.00    1.44078   1.33812   -1.000
 5437.00    1.47477   1.35555   -1.000
 5438.00    1.49338   1.37253   -1.000
 5439.00    1.49950   1.38493   -1.000
 5440.00    1.51210   1.39209   -1.000
 5441.00    1.51569   1.39452   -1.000
 5442.00    1.51171   1.39173   -1.000
 5443.00    1.50105   1.38202   -1.000
 5444.00    1.47723   1.36468   -1.000
 5445.00    1.44894   1.34339   -1.000
 5446.00    1.42395   1.32606   -1.000
 5447.00    1.42186   1.32042   -1.000
 5448.00    1.45852   1.32855   -1.000
 5449.00    1.50507   1.34498   -1.000
 5450.00    1.52230   1.36122   -1.000
 5451.00    1.51189   1.37008   -1.000
 5452.00    1.50228   1.36832   -1.000
 5453.00    1.49430   1.35691   -1.000
 5454.00    1.46726   1.34109   -1.000
 5455.00    1.43820   1.32953   -1.000
 5456.00    1.44304   1.32975   -1.000
 5457.00    1.48045   1.34199   -1.000
 5458.00    1.51606   1.35913   -1.000
 5459.00    1.51718   1.37202   -1.000
 5460.00    1.51168   1.37543   -1.000
 5461.00    1.50900   1.37021   -1.000
 5462.00    1.48519   1.36142   -1.000
 5463.00    1.47443   1.35511   -1.000
 5464.00    1.49119   1.35473   -1.000
 5465.00    1.50985   1.35978   -1.000
 5466.00    1.50632   1.36720   -1.000
 5467.00    1.51005   1.37422   -1.000
 5468.00    1.52261   1.37943   -1.000
 5469.00    1.52292   1.38209   -1.000
 5470.00    1.51582   1.38172   -1.000
 5471.00    1.50844   1.37826   -1.000
 5472.00    1.50926   1.37189   -1.000
 5473.00    1.50381   1.36259   -1.000
 5474.00    1.48824   1.35011   -1.000
 5475.00    1.46274   1.33600   -1.000
 5476.00    1.43565   1.32498   -1.000
 5477.00    1.43010   1.32238   -1.000
 5478.00    1.45085   1.32930   -1.000
 5479.00    1.47743   1.34107   -1.000
 5480.00    1.47922   1.35136   -1.000
 5481.00    1.47996   1.35781   -1.000
 5482.00    1.47890   1.36222   -1.000
 5483.00    1.48972   1.36753   -1.000
 5484.00    1.50224   1.37384   -1.000
 5485.00    1.51553   1.37848   -1.000
 5486.00    1.51634   1.37934   -1.000
 5487.00    1.50259   1.37677   -1.000
 5488.00    1.50029   1.37350   -1.000
 5489.00    1.50343   1.37213   -1.000
 5490.00    1.50160   1.37330   -1.000
 5491.00    1.50830   1.37610   -1.000
 5492.00    1.51529   1.37876   -1.000
 5493.00    1.51668   1.38006   -1.000
 5494.00    1.51917   1.37907   -1.000
 5495.00    1.51148   1.37533   -1.000
 5496.00    1.49382   1.36977   -1.000
 5497.00    1.48714   1.36472   -1.000
 5498.00    1.49223   1.36188   -1.000
 5499.00    1.48775   1.36041   -1.000
 5500.00    1.48374   1.35803   -1.000
 5501.00    1.48289   1.35455   -1.000
 5502.00    1.48520   1.35228   -1.000
 5503.00    1.49834   1.35207   -1.000
 5504.00    1.50926   1.35201   -1.000
 5505.00    1.50697   1.34974   -1.000
 5506.00    1.48925   1.34607   -1.000
 5507.00    1.48552   1.34483   -1.000
 5508.00    1.49711   1.34785   -1.000
 5509.00    1.50380   1.35294   -1.000
 5510.00    1.50750   1.35598   -1.000
 5511.00    1.50880   1.35473   -1.000
 5512.00    1.49643   1.35083   -1.000
 5513.00    1.47843   1.34807   -1.000
 5514.00    1.48279   1.34960   -1.000
 5515.00    1.50477   1.35596   -1.000
 5516.00    1.51582   1.36546   -1.000
 5517.00    1.52172   1.37556   -1.000
 5518.00    1.52865   1.38408   -1.000
 5519.00    1.53329   1.38967   -1.000
 5520.00    1.53173   1.39222   -1.000
 5521.00    1.52214   1.39246   -1.000
 5522.00    1.52432   1.39090   -1.000
 5523.00    1.52704   1.38667   -1.000
 5524.00    1.51770   1.37790   -1.000
 5525.00    1.49701   1.36379   -1.000
 5526.00    1.47533   1.34689   -1.000
 5527.00    1.45448   1.33323   -1.000
 5528.00    1.45120   1.32886   -1.000
 5529.00    1.46718   1.33582   -1.000
 5530.00    1.49576   1.34980   -1.000
 5531.00    1.51769   1.36291   -1.000
 5532.00    1.51763   1.36937   -1.000
 5533.00    1.50928   1.36870   -1.000
 5534.00    1.50353   1.36538   -1.000
 5535.00    1.50676   1.36462   -1.000
 5536.00    1.51121   1.36833   -1.000
 5537.00    1.51605   1.37473   -1.000
 5538.00    1.52321   1.38098   -1.000
 5539.00    1.52511   1.38562   -1.000
 5540.00    1.53022   1.38832   -1.000
 5541.00    1.53519   1.38863   -1.000
 5542.00    1.53286   1.38656   -1.000
 5543.00    1.52560   1.38325   -1.000
 5544.00    1.52193   1.38093   -1.000
 5545.00    1.52553   1.38121   -1.000
 5546.00    1.52823   1.38408   -1.000
 5547.00    1.52857   1.38877   -1.000
 5548.00    1.52929   1.39398   -1.000
 5549.00    1.54026   1.39814   -1.000
 5550.00    1.54853   1.40015   -1.000
 5551.00    1.55137   1.39969   -1.000
 5552.00    1.54194   1.39738   -1.000
 5553.00    1.52674   1.39445   -1.000
 5554.00    1.52676   1.39228   -1.000
 5555.00    1.53417   1.39174   -1.000
 5556.00    1.54130   1.39265   -1.000
 5557.00    1.54091   1.39422   -1.000
 5558.00    1.54160   1.39563   -1.000
 5559.00    1.54107   1.39606   -1.000
 5560.00    1.54087   1.39466   -1.000
 5561.00    1.54343   1.39112   -1.000
 5562.00    1.52080   1.38637   -1.000
 5563.00    1.43731   1.38186   -1.000
 5564.00    1.20236   1.37837   -1.000
 5565.00    0.21555   1.37564   -1.000
 5566.00   -2.38551   1.37310    0.000
 5567.00   -4.11361   1.37049    0.000
 5568.00   -2.56041   1.36782    0.000
 5569.00    0.83265   1.36544   -1.000
 5570.00    3.77542   1.36298   -1.000
 5571.00    3.45592   1.36037   -1.000
 5572.00    1.98184   1.35861   -1.000
 5573.00    1.54579   1.35906   -1.000
 5574.00    1.53117   1.36218   -1.000
 5575.00    1.51480   1.36685   -1.000
 5576.00    1.51327   1.37204   -1.000
 5577.00    1.52088   1.37711   -1.000
 5578.00    1.52995   1.38154   -1.000
 5579.00    1.53496   1.38461   -1.000
 5580.00    1.54460   1.38579   -1.000
 5581.00    1.54968   1.38565   -1.000
 5582.00    1.54397   1.38463   -1.000
 5583.00    1.53541   1.38182   -1.000
 5584.00    1.52491   1.37491   -1.000
 5585.00    1.50548   1.36195   -1.000
 5586.00    1.47897   1.34463   -1.000
 5587.00    1.45324   1.32848   -1.000
 5588.00    1.44363   1.31902   -1.000
 5589.00    1.45820   1.31928   -1.000
 5590.00    1.47606   1.32741   -1.000
 5591.00    1.48721   1.33853   -1.000
 5592.00    1.48976   1.34776   -1.000
 5593.00    1.48902   1.35337   -1.000
 5594.00    1.49640   1.35685   -1.000
 5595.00    1.50773   1.35987   -1.000
 5596.00    1.51434   1.36177   -1.000
 5597.00    1.50704   1.36076   -1.000
 5598.00    1.48942   1.35677   -1.000
 5599.00    1.48148   1.35141   -1.000
 5600.00    1.47877   1.34597   -1.000
 5601.00    1.47280   1.34266   -1.000
 5602.00    1.47033   1.34439   -1.000
 5603.00    1.47859   1.35305   -1.000
 5604.00    1.50183   1.36773   -1.000
 5605.00    1.52852   1.38428   -1.000
 5606.00    1.54702   1.39815   -1.000
 5607.00    1.55113   1.40729   -1.000
 5608.00    1.55081   1.41204   -1.000
 5609.00    1.55014   1.41406   -1.000
 5610.00    1.54941   1.41417   -1.000
 5611.00    1.55165   1.41139   -1.000
 5612.00    1.54649   1.40337   -1.000
 5613.00    1.53365   1.38905   -1.000
 5614.00    1.51059   1.37151   -1.000
 5615.00    1.48510   1.35769   -1.000
 5616.00    1.47837   1.35404   -1.000
 5617.00    1.49421   1.36051   -1.000
 5618.00    1.51345   1.37200   -1.000
 5619.00    1.52138   1.38276   -1.000
 5620.00    1.52598   1.38970   -1.000
 5621.00    1.52848   1.39223   -1.000
 5622.00    1.52146   1.39057   -1.000
 5623.00    1.50769   1.38586   -1.000
 5624.00    1.49996   1.38111   -1.000
 5625.00    1.50602   1.37957   -1.000
 5626.00    1.51603   1.38270   -1.000
 5627.00    1.52574   1.38941   -1.000
 5628.00    1.53739   1.39705   -1.000
 5629.00    1.54281   1.40348   -1.000
 5630.00    1.54832   1.40758   -1.000
 5631.00    1.55763   1.40891   -1.000
 5632.00    1.55517   1.40771   -1.000
 5633.00    1.54067   1.40484   -1.000
 5634.00    1.53099   1.40095   -1.000
 5635.00    1.53050   1.39683   -1.000
 5636.00    1.53143   1.39294   -1.000
 5637.00    1.53084   1.38969   -1.000
 5638.00    1.52104   1.38729   -1.000
 5639.00    1.51402   1.38553   -1.000
 5640.00    1.51351   1.38423   -1.000
 5641.00    1.51476   1.38411   -1.000
 5642.00    1.51932   1.38554   -1.000
 5643.00    1.51858   1.38818   -1.000
 5644.00    1.52536   1.39141   -1.000
 5645.00    1.52957   1.39443   -1.000
 5646.00    1.53245   1.39666   -1.000
 5647.00    1.53892   1.39782   -1.000
 5648.00    1.54259   1.39788   -1.000
 5649.00    1.54862   1.39728   -1.000
 5650.00    1.54377   1.39697   -1.000
 5651.00    1.53928   1.39697   -1.000
 5652.00    1.54051   1.39665   -1.000
 5653.00    1.53364   1.39470   -1.000
 5654.00    1.52469   1.38956   -1.000
 5655.00    1.51392   1.38026   -1.000
 5656.00    1.50102   1.36723   -1.000
 5657.00    1.47808   1.35415   -1.000
 5658.00    1.45911   1.34634   -1.000
 5659.00    1.46599   1.34639   -1.000
 5660.00    1.48874   1.35217   -1.000
 5661.00    1.50052   1.35967   -1.000
 5662.00    1.50029   1.36679   -1.000
 5663.00    1.50308   1.37373   -1.000
 5664.00    1.51031   1.38027   -1.000
 5665.00    1.51765   1.38455   -1.000
 5666.00    1.52082   1.38542   -1.000
 5667.00    1.51334   1.38408   -1.000
 5668.00    1.50893   1.38323   -1.000
 5669.00    1.51355   1.38494   -1.000
 5670.00    1.51943   1.38911   -1.000
 5671.00    1.52474   1.39440   -1.000
 5672.00    1.53243   1.39915   -1.000
 5673.00    1.53866   1.40265   -1.000
 5674.00    1.53623   1.40459   -1.000
 5675.00    1.53767   1.40560   -1.000
 5676.00    1.54079   1.40611   -1.000
 5677.00    1.53994   1.40606   -1.000
 5678.00    1.53684   1.40475   -1.000
 5679.00    1.52538   1.40129   -1.000
 5680.00    1.52109   1.39513   -1.000
 5681.00    1.52102   1.38692   -1.000
 5682.00    1.51440   1.37859   -1.000
 5683.00    1.50524   1.37276   -1.000
 5684.00    1.50415   1.37108   -1.000
 5685.00    1.51161   1.37260   -1.000
 5686.00    1.51378   1.37463   -1.000
 5687.00    1.50766   1.37570   -1.000
 5688.00    1.50811   1.37637   -1.000
 5689.00    1.51584   1.37866   -1.000
 5690.00    1.53291   1.38360   -1.000
 5691.00    1.53075   1.39017   -1.000
 5692.00    1.52990   1.39665   -1.000
 5693.00    1.52263   1.40151   -1.000
 5694.00    1.51872   1.40447   -1.000
 5695.00    1.52214   1.40550   -1.000
 5696.00    1.52233   1.40492   -1.000
 5697.00    1.52187   1.40252   -1.000
 5698.00    1.52579   1.39829   -1.000
 5699.00    1.52460   1.39295   -1.000
 5700.00    1.50708   1.38777   -1.000
 5701.00    1.49602   1.38451   -1.000
 5702.00    1.49494   1.38368   -1.000
 5703.00    1.51139   1.38455   -1.000
 5704.00    1.51954   1.38482   -1.000
 5705.00    1.50595   1.38255   -1.000
 5706.00    1.49319   1.37690   -1.000
 5707.00    1.48180   1.36833   -1.000
 5708.00    1.47117   1.35880   -1.000
 5709.00    1.45877   1.35144   -1.000
 5710.00    1.45427   1.34924   -1.000
 5711.00    1.45847   1.35349   -1.000
 5712.00    1.48265   1.36321   -1.000
 5713.00    1.50423   1.37520   -1.000
 5714.00    1.51024   1.38632   -1.000
 5715.00    1.52160   1.39450   -1.000
 5716.00    1.52902   1.40002   -1.000
 5717.00    1.52922   1.40381   -1.000
 5718.00    1.52591   1.40713   -1.000
 5719.00    1.51994   1.41049   -1.000
 5720.00    1.52344   1.41386   -1.000
 5721.00    1.53167   1.41677   -1.000
 5722.00    1.53643   1.41890   -1.000
 5723.00    1.53749   1.41982   -1.000
 5724.00    1.53218   1.41921   -1.000
 5725.00    1.52276   1.41668   -1.000
 5726.00    1.51343   1.41297   -1.000
 5727.00    1.51517   1.40952   -1.000
 5728.00    1.52734   1.40747   -1.000
 5729.00    1.52614   1.40723   -1.000
 5730.00    1.52172   1.40780   -1.000
 5731.00    1.52591   1.40875   -1.000
 5732.00    1.51865   1.41033   -1.000
 5733.00    1.52147   1.41290   -1.000
 5734.00    1.52993   1.41595   -1.000
 5735.00    1.52615   1.41827   -1.000
 5736.00    1.52538   1.41937   -1.000
 5737.00    1.53313   1.41933   -1.000
 5738.00    1.53243   1.41892   -1.000
 5739.00    1.52577   1.41856   -1.000
 5740.00    1.52073   1.41827   -1.000
 5741.00    1.52050   1.41784   -1.000
 5742.00    1.51887   1.41764   -1.000
 5743.00    1.52724   1.41780   -1.000
 5744.00    1.52759   1.41830   -1.000
 5745.00    1.52689   1.41833   -1.000
 5746.00    1.53128   1.41764   -1.000
 5747.00    1.51985   1.41681   -1.000
 5748.00    1.51760   1.41658   -1.000
 5749.00    1.53286   1.41662   -1.000
 5750.00    1.53000   1.41521   -1.000
 5751.00    1.52442   1.41122   -1.000
 5752.00    1.50497   1.40569   -1.000
 5753.00    1.49153   1.40135   -1.000
 5754.00    1.48808   1.40121   -1.000
 5755.00    1.50192   1.40557   -1.000
 5756.00    1.51382   1.41268   -1.000
 5757.00    1.52328   1.41936   -1.000
 5758.00    1.52858   1.42298   -1.000
 5759.00    1.52490   1.42239   -1.000
 5760.00    1.52030   1.41823   -1.000
 5761.00    1.51433   1.41247   -1.000
 5762.00    1.50569   1.40837   -1.000
 5763.00    1.50124   1.40840   -1.000
 5764.00    1.50633   1.41272   -1.000
 5765.00    1.50844   1.41906   -1.000
 5766.00    1.51292   1.42445   -1.000
 5767.00    1.51891   1.42741   -1.000
 5768.00    1.50697   1.42812   -1.000
 5769.00    1.47683   1.42743   -1.000
 5770.00    1.45463   1.42589   -1.000
 5771.00    1.45730   1.42360   -1.000
 5772.00    1.46671   1.42066   -1.000
 5773.00    1.48759   1.41778   -1.000
 5774.00    1.51194   1.41553   -1.000
 5775.00    1.51750   1.41456   -1.000
 5776.00    1.52131   1.41417   -1.000
 5777.00    1.52227   1.41268   -1.000
 5778.00    1.51461   1.40874   -1.000
 5779.00    1.51089   1.40251   -1.000
 5780.00    1.51810   1.39549   -1.000
 5781.00    1.51201   1.39004   -1.000
 5782.00    1.50530   1.38743   -1.000
 5783.00    1.49900   1.38779   -1.000
 5784.00    1.49518   1.39010   -1.000
 5785.00    1.49971   1.39337   -1.000
 5786.00    1.49545   1.39743   -1.000
 5787.00    1.49642   1.40180   -1.000
 5788.00    1.50165   1.40553   -1.000
 5789.00    1.49485   1.40777   -1.000
 5790.00    1.49850   1.40852   -1.000
 5791.00    1.50787   1.40945   -1.000
 5792.00    1.52688   1.41189   -1.000
 5793.00    1.52975   1.41599   -1.000
 5794.00    1.52729   1.42047   -1.000
 5795.00    1.52034   1.42355   -1.000
 5796.00    1.51726   1.42442   -1.000
 5797.00    1.52164   1.42388   -1.000
 5798.00    1.52349   1.42383   -1.000
 5799.00    1.53034   1.42516   -1.000
 5800.00    1.53616   1.42755   -1.000
 5801.00    1.53804   1.42976   -1.000
 5802.00    1.54025   1.43045   -1.000
 5803.00    1.53025   1.42931   -1.000
 5804.00    1.52264   1.42730   -1.000
 5805.00    1.52429   1.42576   -1.000
 5806.00    1.52977   1.42566   -1.000
 5807.00    1.52999   1.42678   -1.000
 5808.00    1.52565   1.42835   -1.000
 5809.00    1.52886   1.42989   -1.000
 5810.00    1.53072   1.43115   -1.000
 5811.00    1.53036   1.43188   -1.000
 5812.00    1.53167   1.43165   -1.000
 5813.00    1.53651   1.43021   -1.000
 5814.00    1.52858   1.42796   -1.000
 5815.00    1.52663   1.42589   -1.000
 5816.00    1.52573   1.42539   -1.000
 5817.00    1.52758   1.42703   -1.000
 5818.00    1.54261   1.43002   -1.000
 5819.00    1.53615   1.43301   -1.000
 5820.00    1.53260   1.43506   -1.000
 5821.00    1.53220   1.43614   -1.000
 5822.00    1.53466   1.43658   -1.000
 5823.00    1.53978   1.43676   -1.000
 5824.00    1.53270   1.43683   -1.000
 5825.00    1.53772   1.43722   -1.000
 5826.00    1.54195   1.43802   -1.000
 5827.00    1.53465   1.43917   -1.000
 5828.00    1.53092   1.44014   -1.000
 5829.00    1.53771   1.44054   -1.000
 5830.00    1.54253   1.44032   -1.000
 5831.00    1.53455   1.43955   -1.000
 5832.00    1.53214   1.43824   -1.000
 5833.00    1.53695   1.43666   -1.000
 5834.00    1.53122   1.43540   -1.000
 5835.00    1.51460   1.43527   -1.000
 5836.00    1.51815   1.43643   -1.000
 5837.00    1.53227   1.43828   -1.000
 5838.00    1.53881   1.44004   -1.000
 5839.00    1.52491   1.44113   -1.000
 5840.00    1.51972   1.44146   -1.000
 5841.00    1.52390   1.44103   -1.000
 5842.00    1.52315   1.43992   -1.000
 5843.00    1.52978   1.43833   -1.000
 5844.00    1.53065   1.43629   -1.000
 5845.00    1.53114   1.43402   -1.000
 5846.00    1.54522   1.43187   -1.000
 5847.00    1.53885   1.43021   -1.000
 5848.00    1.53353   1.42895   -1.000
 5849.00    1.54510   1.42702   -1.000
 5850.00    1.53433   1.42348   -1.000
 5851.00    1.52403   1.41778   -1.000
 5852.00    1.52142   1.41100   -1.000
 5853.00    1.50914   1.40469   -1.000
 5854.00    1.50646   1.39943   -1.000
 5855.00    1.51131   1.39428   -1.000
 5856.00    1.50357   1.38838   -1.000
 5857.00    1.49525   1.38369   -1.000
 5858.00    1.49929   1.38301   -1.000
 5859.00    1.51137   1.38726   -1.000
 5860.00    1.52417   1.39473   -1.000
 5861.00    1.52764   1.40251   -1.000
 5862.00    1.51819   1.40861   -1.000
 5863.00    1.51637   1.41264   -1.000
 5864.00    1.53392   1.41411   -1.000
 5865.00    1.52391   1.41345   -1.000
 5866.00    1.51589   1.41211   -1.000
 5867.00    1.51632   1.41184   -1.000
 5868.00    1.51629   1.41395   -1.000
 5869.00    1.53099   1.41785   -1.000
 5870.00    1.53225   1.42168   -1.000
 5871.00    1.52877   1.42362   -1.000
 5872.00    1.53289   1.42306   -1.000
 5873.00    1.53803   1.42068   -1.000
 5874.00    1.51741   1.41768   -1.000
 5875.00    1.50599   1.41505   -1.000
 5876.00    1.46373   1.41317   -1.000
 5877.00    1.31308   1.41140   43.953
 5878.00    1.04872   1.40923   -1.000
 5879.00    0.72638   1.40617   -1.000
 5880.00    0.62733   1.40230   -1.000
 5881.00    0.91527   1.39742   -1.000
 5882.00    1.26418   1.39152   -1.000
 5883.00    1.35417   1.38481   46.250
 5884.00    1.21899   1.37709   -1.000
 5885.00    1.03273   1.36605   -1.000
 5886.00    0.97275   1.34638   -1.000
 5887.00    1.12388   1.31417   -1.000
 5888.00    1.32964   1.27377   -1.000
 5889.00    1.38272   1.23845   -1.000
 5890.00    1.37610   1.22274   -1.000
 5891.00    1.41101   1.22726   -1.000
 5892.00    1.44253   1.24066   -1.000
 5893.00    1.46271   1.24848   -1.000
 5894.00    1.43738   1.24553   -1.000
 5895.00    1.42028   1.23979   -1.000
 5896.00    1.41589   1.24279   -1.000
 5897.00    1.44475   1.25968   -1.000
 5898.00    1.47762   1.28632   -1.000
 5899.00    1.48334   1.31494   -1.000
 5900.00    1.49886   1.34025   -1.000
 5901.00    1.50287   1.36016   -1.000
 5902.00    1.51409   1.37466   -1.000
 5903.00    1.51093   1.38444   -1.000
 5904.00    1.50804   1.39048   -1.000
 5905.00    1.50524   1.39436   -1.000
 5906.00    1.50172   1.39704   -1.000
 5907.00    1.51585   1.39918   -1.000
 5908.00    1.51358   1.40094   -1.000
 5909.00    1.50126   1.40213   -1.000
 5910.00    1.48990   1.40200   -1.000
 5911.00    1.49563   1.40010   -1.000
 5912.00    1.48675   1.39599   -1.000
 5913.00    1.48749   1.39065   -1.000
 5914.00    1.48223   1.38593   -1.000
 5915.00    1.48089   1.38338   -1.000
 5916.00    1.49327   1.38384   -1.000
 5917.00    1.51290   1.38708   -1.000
 5918.00    1.50596   1.39210   -1.000
 5919.00    1.51791   1.39693   -1.000
 5920.00    1.51553   1.40047   -1.000
 5921.00    1.51533   1.40220   -1.000
 5922.00    1.51777   1.40301   -1.000
 5923.00    1.52407   1.40395   -1.000
 5924.00    1.53158   1.40561   -1.000
 5925.00    1.53610   1.40746   -1.000
 5926.00    1.53331   1.40841   -1.000
 5927.00    1.53027   1.40732   -1.000
 5928.00    1.51347   1.40423   -1.000
 5929.00    1.49985   1.40099   -1.000
 5930.00    1.49839   1.39938   -1.000
 5931.00    1.48998   1.40007   -1.000
 5932.00    1.49061   1.40183   -1.000
 5933.00    1.49095   1.40312   -1.000
 5934.00    1.48967   1.40385   -1.000
 5935.00    1.49267   1.40466   -1.000
 5936.00    1.49869   1.40595   -1.000
 5937.00    1.51065   1.40689   -1.000
 5938.00    1.51223   1.40624   -1.000
 5939.00    1.51568   1.40403   -1.000
 5940.00    1.52323   1.40115   -1.000
 5941.00    1.51528   1.39915   -1.000
 5942.00    1.51079   1.39857   -1.000
 5943.00    1.52656   1.39960   -1.000
 5944.00    1.53499   1.40124   -1.000
 5945.00    1.53250   1.40232   -1.000
 5946.00    1.53393   1.40209   -1.000
 5947.00    1.51972   1.40067   -1.000
 5948.00    1.50731   1.39967   -1.000
 5949.00    1.50874   1.39966   -1.000
 5950.00    1.50702   1.40051   -1.000
 5951.00    1.51481   1.40117   -1.000
 5952.00    1.51075   1.40107   -1.000
 5953.00    1.50570   1.40063   -1.000
 5954.00    1.52406   1.39992   -1.000
 5955.00    1.51492   1.39907   -1.000
 5956.00    1.49518   1.39879   -1.000
 5957.00    1.49480   1.39967   -1.000
 5958.00    1.49200   1.40227   -1.000
 5959.00    1.50955   1.40606   -1.000
 5960.00    1.51519   1.40995   -1.000
 5961.00    1.51830   1.41302   -1.000
 5962.00    1.52513   1.41457   -1.000
 5963.00    1.53685   1.41442   -1.000
 5964.00    1.52953   1.41290   -1.000
 5965.00    1.52418   1.41099   -1.000
 5966.00    1.52784   1.40967   -1.000
 5967.00    1.53725   1.40959   -1.000
 5968.00    1.52861   1.41067   -1.000
 5969.00    1.54398   1.41261   -1.000
 5970.00    1.53530   1.41472   -1.000
 5971.00    1.53605   1.41627   -1.000
 5972.00    1.52814   1.41656   -1.000
 5973.00    1.52923   1.41511   -1.000
 5974.00    1.51876   1.41181   -1.000
 5975.00    1.52433   1.40748   -1.000
 5976.00    1.51751   1.40362   -1.000
 5977.00    1.51097   1.40189   -1.000
 5978.00    1.51332   1.40290   -1.000
 5979.00    1.52546   1.40574   -1.000
 5980.00    1.52909   1.40821   -1.000
 5981.00    1.51587   1.40839   -1.000
 5982.00    1.51290   1.40580   -1.000
 5983.00    1.50657   1.40185   -1.000
 5984.00    1.50411   1.39891   -1.000
 5985.00    1.51117   1.39841   -1.000
 5986.00    1.51483   1.40035   -1.000
 5987.00    1.51409   1.40334   -1.000
 5988.00    1.53074   1.40613   -1.000
 5989.00    1.52619   1.40787   -1.000
 5990.00    1.51481   1.40918   -1.000
 5991.00    1.52124   1.41098   -1.000
 5992.00    1.53131   1.41405   -1.000
 5993.00    1.53676   1.41767   -1.000
 5994.00    1.53839   1.42010   -1.000
 5995.00    1.53186   1.42058   -1.000
 5996.00    1.52486   1.41922   -1.000
 5997.00    1.52664   1.41749   -1.000
 5998.00    1.52700   1.41625   -1.000
 5999.00    1.52804   1.41543   -1.000
 6000.00    1.52295   1.41431   -1.000
 6001.00    1.51734   1.41247   -1.000
 6002.00    1.51355   1.41017   -1.000
 6003.00    1.51271   1.40819   -1.000
 6004.00    1.51783   1.40648   -1.000
 6005.00    1.52362   1.40434   -1.000
 6006.00    1.52469   1.40126   -1.000
 6007.00    1.52564   1.39840   -1.000
 6008.00    1.51584   1.39760   -1.000
 6009.00    1.51223   1.39973   -1.000
 6010.00    1.53211   1.40355   -1.000
 6011.00    1.53816   1.40663   -1.000
 6012.00    1.53328   1.40800   -1.000
 6013.00    1.52289   1.40776   -1.000
 6014.00    1.52348   1.40713   -1.000
 6015.00    1.52259   1.40638   -1.000
 6016.00    1.51647   1.40544   -1.000
 6017.00    1.51061   1.40386   -1.000
 6018.00    1.51345   1.40150   -1.000
 6019.00    1.51836   1.39886   -1.000
 6020.00    1.51580   1.39652   -1.000
 6021.00    1.50872   1.39545   -1.000
 6022.00    1.50426   1.39581   -1.000
 6023.00    1.51504   1.39774   -1.000
 6024.00    1.51608   1.40121   -1.000
 6025.00    1.51314   1.40584   -1.000
 6026.00    1.52445   1.41072   -1.000
 6027.00    1.53140   1.41528   -1.000
 6028.00    1.53619   1.41914   -1.000
 6029.00    1.53503   1.42220   -1.000
 6030.00    1.53720   1.42450   -1.000
 6031.00    1.54003   1.42608   -1.000
 6032.00    1.53380   1.42732   -1.000
 6033.00    1.52782   1.42845   -1.000
 6034.00    1.53519   1.42948   -1.000
 6035.00    1.53707   1.42990   -1.000
 6036.00    1.53966   1.42933   -1.000
 6037.00    1.54902   1.42770   -1.000
 6038.00    1.55394   1.42528   -1.000
 6039.00    1.54677   1.42217   -1.000
 6040.00    1.54102   1.41867   -1.000
 6041.00    1.53854   1.41510   -1.000
 6042.00    1.53925   1.41250   -1.000
 6043.00    1.54116   1.41315   -1.000
 6044.00    1.53736   1.41678   -1.000
 6045.00    1.54375   1.42197   -1.000
 6046.00    1.54824   1.42636   -1.000
 6047.00    1.54406   1.42885   -1.000
 6048.00    1.54052   1.42935   -1.000
 6049.00    1.54174   1.42870   -1.000
 6050.00    1.54117   1.42792   -1.000
 6051.00    1.54873   1.42715   -1.000
 6052.00    1.52970   1.42613   -1.000
 6053.00    1.46345   1.42427   -1.000
 6054.00    1.41861   1.42168   46.739
 6055.00    1.24265   1.41927   -1.000
 6056.00    0.80503   1.41799   -1.000
 6057.00    1.28543   1.41842   -1.000
 6058.00    1.56994   1.42009   -1.000
 6059.00    1.44856   1.42204   -1.000
 6060.00    1.35875   1.42279   40.280
 6061.00    1.24162   1.42113   -1.000
 6062.00    0.78594   1.41644   -1.000
 6063.00    1.21932   1.40974   -1.000
 6064.00    1.56283   1.40345   -1.000
 6065.00    1.49687   1.40068   -1.000
 6066.00    1.50434   1.40289   -1.000
 6067.00    1.52364   1.40883   -1.000
 6068.00    1.54617   1.41608   -1.000
 6069.00    1.55375   1.42228   -1.000
 6070.00    1.54531   1.42665   -1.000
 6071.00    1.54202   1.42941   -1.000
 6072.00    1.54085   1.43108   -1.000
 6073.00    1.54401   1.43183   -1.000
 6074.00    1.54649   1.43138   -1.000
 6075.00    1.53482   1.42943   -1.000
 6076.00    1.52830   1.42617   -1.000
 6077.00    1.52653   1.42237   -1.000
 6078.00    1.52375   1.41903   -1.000
 6079.00    1.52457   1.41662   -1.000
 6080.00    1.52471   1.41477   -1.000
 6081.00    1.52697   1.41290   -1.000
 6082.00    1.52769   1.41098   -1.000
 6083.00    1.52403   1.40949   -1.000
 6084.00    1.52252   1.40929   -1.000
 6085.00    1.52488   1.41054   -1.000
 6086.00    1.52924   1.41285   -1.000
 6087.00    1.53154   1.41512   -1.000
 6088.00    1.52959   1.41636   -1.000
 6089.00    1.52623   1.41633   -1.000
 6090.00    1.52520   1.41545   -1.000
 6091.00    1.52594   1.41498   -1.000
 6092.00    1.52992   1.41560   -1.000
 6093.00    1.53391   1.41759   -1.000
 6094.00    1.53978   1.42040   -1.000
 6095.00    1.54112   1.42338   -1.000
 6096.00    1.53706   1.42582   -1.000
 6097.00    1.53612   1.42659   -1.000
 6098.00    1.53603   1.42452   -1.000
 6099.00    1.53603   1.41824   -1.000
 6100.00    1.52646   1.40790   -1.000
 6101.00    1.50154   1.39583   -1.000
 6102.00    1.49037   1.38657   -1.000
 6103.00    1.49070   1.38410   -1.000
 6104.00    1.49783   1.38895   -1.000
 6105.00    1.51651   1.39813   -1.000
 6106.00    1.52922   1.40797   -1.000
 6107.00    1.52292   1.41586   -1.000
 6108.00    1.51593   1.42146   -1.000
 6109.00    1.52486   1.42468   -1.000
 6110.00    1.53710   1.42600   -1.000
 6111.00    1.54275   1.42593   -1.000
 6112.00    1.53534   1.42558   -1.000
 6113.00    1.53663   1.42562   -1.000
 6114.00    1.54064   1.42633   -1.000
 6115.00    1.53385   1.42694   -1.000
 6116.00    1.52840   1.42654   -1.000
 6117.00    1.53265   1.42392   -1.000
 6118.00    1.52285   1.41755   -1.000
 6119.00    1.51572   1.40722   -1.000
 6120.00    1.50869   1.39417   -1.000
 6121.00    1.49534   1.38230   -1.000
 6122.00    1.49045   1.37650   -1.000
 6123.00    1.49861   1.37819   -1.000
 6124.00    1.51157   1.38587   -1.000
 6125.00    1.51891   1.39453   -1.000
 6126.00    1.51644   1.40074   -1.000
 6127.00    1.52335   1.40338   -1.000
 6128.00    1.53122   1.40498   -1.000
 6129.00    1.52461   1.40887   -1.000
 6130.00    1.51844   1.41508   -1.000
 6131.00    1.52547   1.42124   -1.000
 6132.00    1.53208   1.42343   -1.000
 6133.00    1.52120   1.41861   -1.000
 6134.00    1.50264   1.40650   -1.000
 6135.00    1.47765   1.38974   -1.000
 6136.00    1.44856   1.37434   -1.000
 6137.00    1.43257   1.36556   -1.000
 6138.00    1.44512   1.36442   -1.000
 6139.00    1.47476   1.36773   -1.000
 6140.00    1.49755   1.37282   -1.000
 6141.00    1.49752   1.37937   -1.000
 6142.00    1.48579   1.38813   -1.000
 6143.00    1.49863   1.39798   -1.000
 6144.00    1.52397   1.40592   -1.000
 6145.00    1.53508   1.40971   -1.000
 6146.00    1.53474   1.40920   -1.000
 6147.00    1.53307   1.40615   -1.000
 6148.00    1.52585   1.40287   -1.000
 6149.00    1.51980   1.40106   -1.000
 6150.00    1.51615   1.40140   -1.000
 6151.00    1.51365   1.40343   -1.000
 6152.00    1.50918   1.40570   -1.000
 6153.00    1.50837   1.40651   -1.000
 6154.00    1.51058   1.40532   -1.000
 6155.00    1.50869   1.40263   -1.000
 6156.00    1.50124   1.39933   -1.000
 6157.00    1.50119   1.39484   -1.000
 6158.00    1.50962   1.38718   -1.000
 6159.00    1.49709   1.37422   -1.000
 6160.00    1.47166   1.35683   -1.000
 6161.00    1.45364   1.33966   -1.000
 6162.00    1.44212   1.32888   -1.000
 6163.00    1.44446   1.32772   -1.000
 6164.00    1.46239   1.33437   -1.000
 6165.00    1.47247   1.34392   -1.000
 6166.00    1.46795   1.35118   -1.000
 6167.00    1.46150   1.35417   -1.000
 6168.00    1.46438   1.35373   -1.000
 6169.00    1.46268   1.35380   -1.000
 6170.00    1.46106   1.35714   -1.000
 6171.00    1.47244   1.36425   -1.000
 6172.00    1.47438   1.37335   -1.000
 6173.00    1.47670   1.38193   -1.000
 6174.00    1.48815   1.38880   -1.000
 6175.00    1.49430   1.39342   -1.000
 6176.00    1.49543   1.39638   -1.000
 6177.00    1.49403   1.39823   -1.000
 6178.00    1.49199   1.39968   -1.000
 6179.00    1.49318   1.40124   -1.000
 6180.00    1.50140   1.40322   -1.000
 6181.00    1.50755   1.40548   -1.000
 6182.00    1.50995   1.40745   -1.000
 6183.00    1.51402   1.40833   -1.000
 6184.00    1.51534   1.40772   -1.000
 6185.00    1.50917   1.40540   -1.000
 6186.00    1.49431   1.40139   -1.000
 6187.00    1.48924   1.39560   -1.000
 6188.00    1.48932   1.38796   -1.000
 6189.00    1.48283   1.37937   -1.000
 6190.00    1.47021   1.37196   -1.000
 6191.00    1.44956   1.36903   -1.000
 6192.00    1.44309   1.37195   -1.000
 6193.00    1.46424   1.37935   -1.000
 6194.00    1.49052   1.38825   -1.000
 6195.00    1.50304   1.39559   -1.000
 6196.00    1.50265   1.40004   -1.000
 6197.00    1.49563   1.40122   -1.000
 6198.00    1.49380   1.39995   -1.000
 6199.00    1.48935   1.39806   -1.000
 6200.00    1.48027   1.39750   -1.000
 6201.00    1.48816   1.39923   -1.000
 6202.00    1.49950   1.40296   -1.000
 6203.00    1.50074   1.40735   -1.000
 6204.00    1.50415   1.41128   -1.000
 6205.00    1.50304   1.41405   -1.000
 6206.00    1.50263   1.41564   -1.000
 6207.00    1.49707   1.41603   -1.000
 6208.00    1.50330   1.41517   -1.000
 6209.00    1.50217   1.41255   -1.000
 6210.00    1.48985   1.40786   -1.000
 6211.00    1.49543   1.40106   -1.000
 6212.00    1.49526   1.39332   -1.000
 6213.00    1.48198   1.38623   -1.000
 6214.00    1.47553   1.38130   -1.000
 6215.00    1.47750   1.37849   -1.000
 6216.00    1.47840   1.37695   -1.000
 6217.00    1.47673   1.37540   -1.000
 6218.00    1.47647   1.37415   -1.000
 6219.00    1.47901   1.37400   -1.000
 6220.00    1.48203   1.37590   -1.000
 6221.00    1.48850   1.37943   -1.000
 6222.00    1.49874   1.38322   -1.000
 6223.00    1.49928   1.38629   -1.000
 6224.00    1.48824   1.38784   -1.000
 6225.00    1.49159   1.38766   -1.000
 6226.00    1.49621   1.38503   -1.000
 6227.00    1.49656   1.37928   -1.000
 6228.00    1.49627   1.37073   -1.000
 6229.00    1.48459   1.36153   -1.000
 6230.00    1.46448   1.35495   -1.000
 6231.00    1.45440   1.35379   -1.000
 6232.00    1.46195   1.35821   -1.000
 6233.00    1.47905   1.36596   -1.000
 6234.00    1.49320   1.37331   -1.000
 6235.00    1.50051   1.37753   -1.000
 6236.00    1.50127   1.37765   -1.000
 6237.00    1.48861   1.37501   -1.000
 6238.00    1.48480   1.37175   -1.000
 6239.00    1.48235   1.36943   -1.000
 6240.00    1.47367   1.36798   -1.000
 6241.00    1.46979   1.36605   -1.000
 6242.00    1.46978   1.36221   -1.000
 6243.00    1.46065   1.35649   -1.000
 6244.00    1.45153   1.35042   -1.000
 6245.00    1.46014   1.34682   -1.000
 6246.00    1.46213   1.34796   -1.000
 6247.00    1.46160   1.35383   -1.000
 6248.00    1.48069   1.36186   -1.000
 6249.00    1.49172   1.36782   -1.000
 6250.00    1.47816   1.36879   -1.000
 6251.00    1.46254   1.36465   -1.000
 6252.00    1.45011   1.35807   -1.000
 6253.00    1.43714   1.35236   -1.000
 6254.00    1.43167   1.34923   -1.000
 6255.00    1.43146   1.34871   -1.000
 6256.00    1.43021   1.34962   -1.000
 6257.00    1.42289   1.35169   -1.000
 6258.00    1.41917   1.35487   -1.000
 6259.00    1.43600   1.35970   -1.000
 6260.00    1.44697   1.36564   -1.000
 6261.00    1.44431   1.37204   -1.000
 6262.00    1.44845   1.37754   -1.000
 6263.00    1.45146   1.38151   -1.000
 6264.00    1.43704   1.38406   -1.000
 6265.00    1.41143   1.38586   -1.000
 6266.00    1.39620   1.38733   48.252
 6267.00    1.39086   1.38792   49.246
 6268.00    1.38444   1.38705   49.704
 6269.00    1.38594   1.38494   49.634
 6270.00    1.39648   1.38256   -1.000
 6271.00    1.39769   1.38039   -1.000
 6272.00    1.39237   1.37762   -1.000
 6273.00    1.39672   1.37256   -1.000
 6274.00    1.40457   1.36456   -1.000
 6275.00    1.41581   1.35446   -1.000
 6276.00    1.43307   1.34448   -1.000
 6277.00    1.44473   1.33693   -1.000
 6278.00    1.44243   1.33304   -1.000
 6279.00    1.43801   1.33355   -1.000
 6280.00    1.44130   1.33819   -1.000
 6281.00    1.44892   1.34616   -1.000
 6282.00    1.45427   1.35594   -1.000
 6283.00    1.47372   1.36568   -1.000
 6284.00    1.51666   1.37392   -1.000
 6285.00    1.58612   1.37986   -1.000
 6286.00    1.69041   1.38330   -1.000
 6287.00    1.85592   1.38440   -1.000
 6288.00    2.12366   1.38341   -1.000
 6289.00    2.61056   1.38121   -1.000
 6290.00    3.08754   1.37875   -1.000
 6291.00    3.20099   1.37695   -1.000
 6292.00    2.72011   1.37593   -1.000
 6293.00    1.94062   1.37506   -1.000
 6294.00    1.55937   1.37341   -1.000
 6295.00    1.51406   1.37045   -1.000
 6296.00    1.48494   1.36654   -1.000
 6297.00    1.46035   1.36253   -1.000
 6298.00    1.44928   1.35915   -1.000
 6299.00    1.44322   1.35657   -1.000
 6300.00    1.43883   1.35518   -1.000
 6301.00    1.44120   1.35597   -1.000
 6302.00    1.44952   1.35986   -1.000
 6303.00    1.44814   1.36652   -1.000
 6304.00    1.45281   1.37425   -1.000
 6305.00    1.45926   1.38103   -1.000
 6306.00    1.46406   1.38580   -1.000
 6307.00    1.46885   1.38853   -1.000
 6308.00    1.46035   1.38990   -1.000
 6309.00    1.45732   1.39040   -1.000
 6310.00    1.46042   1.39007   -1.000
 6311.00    1.45275   1.38880   -1.000
 6312.00    1.45597   1.38618   -1.000
 6313.00    1.45881   1.38250   -1.000
 6314.00    1.44798   1.37818   -1.000
 6315.00    1.43863   1.37392   -1.000
 6316.00    1.43662   1.37064   -1.000
 6317.00    1.43388   1.36933   -1.000
 6318.00    1.43258   1.37093   -1.000
 6319.00    1.43734   1.37519   -1.000
 6320.00    1.45138   1.38100   -1.000
 6321.00    1.46071   1.38696   -1.000
 6322.00    1.45963   1.39253   -1.000
 6323.00    1.45450   1.39744   -1.000
 6324.00    1.49415   1.40133   -1.000
 6325.00    1.53535   1.40379   -1.000
 6326.00    1.48672   1.40461   -1.000
 6327.00    1.46893   1.40446   -1.000
 6328.00    1.46810   1.40407   -1.000
 6329.00    1.46531   1.40399   -1.000
 6330.00    1.46968   1.40406   -1.000
 6331.00    1.47285   1.40333   -1.000
 6332.00    1.47727   1.40062   -1.000
 6333.00    1.46888   1.39550   -1.000
 6334.00    1.45896   1.38903   -1.000
 6335.00    1.43686   1.38370   -1.000
 6336.00    1.42518   1.38165   -1.000
 6337.00    1.42484   1.38358   -1.000
 6338.00    1.44010   1.38835   -1.000
 6339.00    1.45289   1.39414   -1.000
 6340.00    1.46263   1.39899   -1.000
 6341.00    1.46588   1.40182   -1.000
 6342.00    1.46086   1.40202   -1.000
 6343.00    1.45719   1.40014   -1.000
 6344.00    1.45553   1.39735   -1.000
 6345.00    1.46340   1.39541   -1.000
 6346.00    1.47501   1.39602   -1.000
 6347.00    1.49231   1.39968   -1.000
 6348.00    1.52828   1.40543   -1.000
 6349.00    1.57995   1.41112   -1.000
 6350.00    1.64458   1.41482   -1.000
 6351.00    1.74560   1.41560   -1.000
 6352.00    1.87274   1.41386   -1.000
 6353.00    1.97124   1.41060   -1.000
 6354.00    1.98681   1.40699   -1.000
 6355.00    1.88159   1.40374   -1.000
 6356.00    1.60076   1.40089   -1.000
 6357.00    1.51300   1.39822   -1.000
 6358.00    1.46822   1.39568   -1.000
 6359.00    1.44284   1.39327   -1.000
 6360.00    1.43474   1.39114   -1.000
 6361.00    1.43416   1.38950   -1.000
 6362.00    1.42773   1.38877   -1.000
 6363.00    1.42484   1.38941   -1.000
 6364.00    1.43308   1.39133   -1.000
 6365.00    1.43044   1.39392   -1.000
 6366.00    1.42647   1.39621   -1.000
 6367.00    1.42555   1.39727   -1.000
 6368.00    1.40457   1.39683   44.553
 6369.00    1.40198   1.39559   44.597
 6370.00    1.42504   1.39503   -1.000
 6371.00    1.42891   1.39648   -1.000
 6372.00    1.42491   1.39979   -1.000
 6373.00    1.42066   1.40362   -1.000
 6374.00    1.41125   1.40631   44.856
 6375.00    1.40435   1.40705   44.831
 6376.00    1.40869   1.40604   44.949
 6377.00    1.40113   1.40405   45.095
 6378.00    1.40423   1.40154   45.447
 6379.00    1.39400   1.39894   45.810
 6380.00    1.38159   1.39635   46.319
 6381.00    1.38549   1.39426   47.015
 6382.00    1.39133   1.39305   47.448
 6383.00    1.37092   1.39322   47.348
 6384.00    1.36316   1.39463   46.682
 6385.00    1.35394   1.39687   46.540
 6386.00    1.35606   1.39899   46.805
 6387.00    1.35729   1.40022   47.485
 6388.00    1.33876   1.39995   48.555
 6389.00    1.33253   1.39790   48.985
 6390.00    1.32253   1.39399   48.540
 6391.00    1.31406   1.38899   47.773
 6392.00    1.29343   1.38455   47.492
 6393.00    1.28378   1.38272   47.601
 6394.00    1.27821   1.38414   47.855
 6395.00    1.27767   1.38729   48.520
 6396.00    1.27520   1.38929   49.277
 6397.00    1.27304   1.38815   49.797
 6398.00    1.26194   1.38449   -1.000
 6399.00    1.22801   1.38124   -1.000
 6400.00    1.21212   1.38124   -1.000
 6401.00    1.22347   1.38546   -1.000
 6402.00    1.23480   1.39214   -1.000
 6403.00    1.22693   1.39822   -1.000
 6404.00    1.22568   1.40111   -1.000
 6405.00    1.22327   1.39997   -1.000
 6406.00    1.20698   1.39611   -1.000
 6407.00    1.19612   1.39169   -1.000
 6408.00    1.17865   1.38916   -1.000
 6409.00    1.17906   1.38870   -1.000
 6410.00    1.17821   1.38966   -1.000
 6411.00    1.16560   1.39116   -1.000
 6412.00    1.14223   1.39217   -1.000
 6413.00    1.13820   1.39284   -1.000
 6414.00    1.13344   1.39299   -1.000
 6415.00    1.12233   1.39334   -1.000
 6416.00    1.12246   1.39339   -1.000
 6417.00    1.10804   1.39290   -1.000
 6418.00    1.09026   1.39103   -1.000
 6419.00    1.06783   1.38843   -1.000
 6420.00    0.12378   1.38720   -1.000
 6421.00    0.00000   1.38923   -2.000
 6422.00    0.00000   1.39465   -2.000
 6423.00    0.00000   1.40187   -2.000
 6424.00    0.00000   1.40886   -2.000
 6425.00    0.00000   1.41354   -2.000
 6426.00    0.00000   1.41507   -2.000
 6427.00    0.00000   1.41261   -2.000
 6428.00    0.00000   1.40671   -2.000
