###################################################################
## OUTPUT of StarlightChains_v04.for    [Cid@UFSC - 01/Apr/2007] ##
###################################################################

## Some input info
NGC3201_a_1.cxt                          [arq_obs]
Base.BC03.S                              [arq_base]
NGC3201_a_1.msk                          [arq_masks]
StCv04.C99.config                        [arq_config]
  150                                    [N_base]
    0                                    [N_YAV_components = # of components with extra extinction!]
    0                                    [i_FitPowerLaw (1/0 = Yes/No)]
-9.99                                    [alpha_PowerLaw]
CCM                                      [red_law_option]
 1.458241                                [q_norm = A(l_norm)/A(V)]

## (Re)Sampling Parameters
 3359.00                                 [l_ini (A)]
 6428.00                                 [l_fin (A)]
    1.00                                 [dl    (A)]     (OBS: dl_cushion =    50.00 A)

## Normalization info
 4020.00                                 [l_norm (A) - for base]
 4010.00                                 [llow_norm (A) - window for f_obs]
 4060.00                                 [lupp_norm (A) - window for f_obs]
1.250092E-14                             [fobs_norm (in input units)]

## S/N
 4730.00                                 [llow_SN (A) - window for S/N]
 4780.00                                 [lupp_SN (A) - window for S/N]
  72.417                                 [S/N in S/N window]
  61.465                                 [S/N in norm. window]
  55.763                                 [S/N_err in S/N window]
  47.330                                 [S/N_err in norm. window]
  1.0000                                 [fscale_chi2]

## etc...
  2147483640                             [idum_orig]
  3049                                   [NOl_eff]
  1842                                   [Nl_eff]
  1207    NSIGMA                         [Ntot_cliped & clip_method]
  3591140                                [Nglobal_steps]
   7                                     [N_chains]
  25                                     [NEX0s_base = N_base in EX0s-fits]
 0   0   1      371   2.0   8.847E+02    [Clip-Bug, RC-Crash & Burn-In warning-flags, n_censored_weights, wei_nsig_threshold & wei_limit]
   130    130.395    130.387      0.008  [idt_all, wdt_TotTime, wdt_UsrTime & wdt_SysTime (sec)]

## Synthesis Results - Best model ##

 1.68637E+00                             [chi2/Nl_eff]
     1.61032                             [adev (%)]

   101.51262                             [sum-of-x (%)]
 4.13826E-14                             [Flux_tot (units of input spectrum!)]
 5.40960E-10                             [Mini_tot (???)]
 2.78320E-10                             [Mcor_tot (???)]

 -14.07                                  [v0_min  (km/s)]
  60.66                                  [vd_min  (km/s)]
 0.8801                                  [AV_min  (mag)]
 0.0000                                  [YAV_min (mag)]

# j     x_j(%)      Mini_j(%)     Mcor_j(%)     age_j(yr)     Z_j      (L/M)_j    YAV?  Mstars   component_j        a/Fe...       SSP_chi2r SSP_adev(%)   SSP_AV   SSP_x(%)
  1      0.0000     0.0000E+00    0.0000E+00    1.000000E+06  0.00010  8.160E-03    0   1.0000   age020_m22            0.0000     4.2525E+02    14.9296   4.0000    71.1511
  2     13.3268     2.1103E-02    4.1017E-02    3.160000E+06  0.00010  4.759E-02    0   1.0000   age045_m22            0.0000     2.6820E+01     3.4548   2.2203    93.7699
  3      0.0000     0.0000E+00    0.0000E+00    5.010000E+06  0.00010  1.932E-02    0   0.9582   age055_m22            0.0000     2.6215E+02    10.7709   2.7132    76.8432
  4      0.0000     0.0000E+00    0.0000E+00    6.610000E+06  0.00010  9.973E-03    0   0.9297   age061_m22            0.0000     3.7310E+02    13.9923   4.0000    73.8556
  5      0.0000     0.0000E+00    0.0000E+00    8.710000E+06  0.00010  7.690E-03    0   0.9030   age067_m22            0.0000     3.5108E+02    13.4175   4.0000    74.4536
  6      0.0000     0.0000E+00    0.0000E+00    1.000000E+07  0.00010  6.375E-03    0   0.8902   age070_m22            0.0000     3.4183E+02    13.4137   4.0000    74.7961
  7      0.0000     0.0000E+00    0.0000E+00    1.445000E+07  0.00010  4.874E-03    0   0.8589   age078_m22            0.0000     2.0303E+02     8.1703   4.0000    78.2582
  8      0.0000     0.0000E+00    0.0000E+00    2.512000E+07  0.00010  4.103E-03    0   0.8174   age090_m22            0.0000     5.8156E+01     5.7530   3.6519    85.9376
  9      1.2499     2.5777E-02    3.9229E-02    4.000000E+07  0.00010  3.654E-03    0   0.7830   age104_m22            0.0000     3.9802E+01     3.5382   3.2692    92.2025
 10      1.4892     3.6283E-02    5.3575E-02    5.500000E+07  0.00010  3.093E-03    0   0.7597   age110_m22            0.0000     5.0956E+01     3.1729   3.1294    94.8197
 11      0.0098     3.0334E-04    4.2085E-04    1.015200E+08  0.00010  2.431E-03    0   0.7138   age116_m22            0.0000     9.7746E+01     3.2976   2.7338    98.9618
 12      0.0000     0.0000E+00    0.0000E+00    1.609000E+08  0.00010  1.319E-03    0   0.6775   age120_m22            0.0000     8.6925E+01     3.3327   2.2291   102.7592
 13      0.0000     0.0000E+00    0.0000E+00    2.861200E+08  0.00010  1.075E-03    0   0.6412   age125_m22            0.0000     3.1067E+02     7.4652   2.1116   111.7196
 14      0.0000     0.0000E+00    0.0000E+00    5.088000E+08  0.00010  7.183E-04    0   0.6083   age130_m22            0.0000     3.8480E+02     9.1996   1.7997   116.4579
 15      0.0000     0.0000E+00    0.0000E+00    9.047900E+08  0.00010  4.524E-04    0   0.5785   age135_m22            0.0000     3.9121E+02     9.6481   1.5772   118.6646
 16      0.0000     0.0000E+00    0.0000E+00    1.278050E+09  0.00010  3.018E-04    0   0.5588   age138_m22            0.0000     1.5493E+02     6.7238   1.1721   113.0480
 17      0.0000     0.0000E+00    0.0000E+00    1.434000E+09  0.00010  2.691E-04    0   0.5532   age139_m22            0.0000     1.1777E+02     6.1943   1.0355   111.9296
 18      0.0000     0.0000E+00    0.0000E+00    2.500000E+09  0.00010  1.582E-04    0   0.5296   age150_m22            0.0000     9.7355E+01     5.3595   0.9533   111.6326
 19      0.0000     0.0000E+00    0.0000E+00    4.250000E+09  0.00010  1.007E-04    0   0.5110   age158_m22            0.0000     3.7972E+01     3.8430   0.8601   108.1446
 20      0.0000     0.0000E+00    0.0000E+00    6.250000E+09  0.00010  6.869E-05    0   0.4985   age166_m22            0.0000     7.6726E+00     2.4227   0.8592   103.6551
 21      0.3874     4.9713E-01    4.7646E-01    7.500000E+09  0.00010  5.873E-05    0   0.4931   age171_m22            0.0000     5.3872E+00     2.0806   0.8632   102.5848
 22      0.5936     9.9825E-01    9.4180E-01    1.000000E+10  0.00010  4.481E-05    0   0.4854   age181_m22            0.0000     4.7138E+00     2.0764   0.8257   102.2217
 23      0.0093     2.0016E-02    1.8639E-02    1.300000E+10  0.00010  3.489E-05    0   0.4791   age193_m22            0.0000     3.6554E+00     2.0565   0.7718   101.6427
 24      0.0611     1.5175E-01    1.4057E-01    1.500000E+10  0.00010  3.035E-05    0   0.4766   age201_m22            0.0000     3.2358E+00     2.0055   0.7362   101.3655
 25      2.6545     7.9696E+00    7.3346E+00    1.800000E+10  0.00010  2.510E-05    0   0.4735   age213_m22            0.0000     3.0274E+00     1.8985   0.6774   100.5052
 26      0.0000     0.0000E+00    0.0000E+00    1.000000E+06  0.00040  8.458E-03    0   1.0000   age020_m32            0.0000     4.2019E+02    15.2019   4.0000    71.8421
 27      0.0000     0.0000E+00    0.0000E+00    3.160000E+06  0.00040  3.973E-02    0   1.0000   age045_m32            0.0000     7.0387E+01     6.3555   3.5706    85.2937
 28      0.0000     0.0000E+00    0.0000E+00    5.010000E+06  0.00040  1.935E-02    0   0.9532   age055_m32            0.0000     1.9507E+02     9.9095   3.8900    77.6731
 29      0.0000     0.0000E+00    0.0000E+00    6.610000E+06  0.00040  1.204E-02    0   0.9243   age061_m32            0.0000     2.6269E+02     9.8412   4.0000    76.1439
 30      0.0000     0.0000E+00    0.0000E+00    8.710000E+06  0.00040  9.433E-03    0   0.9001   age067_m32            0.0000     2.2472E+02     8.9190   4.0000    77.2649
 31      0.0000     0.0000E+00    0.0000E+00    1.000000E+07  0.00040  8.053E-03    0   0.8877   age070_m32            0.0000     2.0738E+02     8.5649   4.0000    77.7898
 32      0.0000     0.0000E+00    0.0000E+00    1.445000E+07  0.00040  7.027E-03    0   0.8578   age078_m32            0.0000     8.8821E+01     7.2587   3.5551    83.4385
 33      0.0000     0.0000E+00    0.0000E+00    2.512000E+07  0.00040  4.707E-03    0   0.8166   age090_m32            0.0000     4.0410E+01     5.1116   3.1982    88.7169
 34      1.6229     3.2930E-02    5.0096E-02    4.000000E+07  0.00040  3.714E-03    0   0.7827   age104_m32            0.0000     3.1407E+01     3.3989   2.9298    93.4745
 35      0.1783     4.5060E-03    6.6501E-03    5.500000E+07  0.00040  2.982E-03    0   0.7593   age110_m32            0.0000     4.1579E+01     3.0582   2.8375    95.4516
 36      0.0000     0.0000E+00    0.0000E+00    1.015200E+08  0.00040  2.188E-03    0   0.7143   age116_m32            0.0000     1.5209E+02     4.1642   2.4442   103.3298
 37      0.0000     0.0000E+00    0.0000E+00    1.609000E+08  0.00040  1.690E-03    0   0.6856   age120_m32            0.0000     2.5960E+02     5.8357   2.1573   108.3757
 38      0.0000     0.0000E+00    0.0000E+00    2.861200E+08  0.00040  1.152E-03    0   0.6509   age125_m32            0.0000     3.2320E+02     8.0298   1.8330   114.0662
 39      0.0000     0.0000E+00    0.0000E+00    5.088000E+08  0.00040  7.331E-04    0   0.6182   age130_m32            0.0000     3.5288E+02     9.0475   1.6238   116.5516
 40      0.0000     0.0000E+00    0.0000E+00    9.047900E+08  0.00040  3.960E-04    0   0.5890   age135_m32            0.0000     1.5597E+02     7.3784   1.2351   113.3548
 41      0.0000     0.0000E+00    0.0000E+00    1.278050E+09  0.00040  2.854E-04    0   0.5687   age138_m32            0.0000     1.1848E+02     5.9901   0.9951   113.4562
 42      0.0000     0.0000E+00    0.0000E+00    1.434000E+09  0.00040  2.531E-04    0   0.5632   age139_m32            0.0000     1.1468E+02     5.8507   0.9372   113.2739
 43      0.0000     0.0000E+00    0.0000E+00    2.500000E+09  0.00040  1.488E-04    0   0.5386   age150_m32            0.0000     6.5685E+01     4.9228   0.7111   110.5209
 44     67.8717     5.6317E+01    5.6909E+01    4.250000E+09  0.00040  9.082E-05    0   0.5199   age158_m32            0.0000     7.0781E+00     2.7640   0.7026   104.5364
 45      8.8054     1.0430E+01    1.0290E+01    6.250000E+09  0.00040  6.362E-05    0   0.5076   age166_m32            0.0000     1.0321E+01     1.7955   0.7359    98.9444
 46      0.0007     9.7969E-04    9.5724E-04    7.500000E+09  0.00040  5.289E-05    0   0.5027   age171_m32            0.0000     1.7063E+01     1.9834   0.7080    97.5399
 47      0.0000     0.0000E+00    0.0000E+00    1.000000E+10  0.00040  3.972E-05    0   0.4948   age181_m32            0.0000     2.3750E+01     2.2338   0.6455    96.3320
 48      0.0000     0.0000E+00    0.0000E+00    1.300000E+10  0.00040  3.283E-05    0   0.4870   age193_m32            0.0000     8.1293E+00     2.1944   0.5645   100.1077
 49      0.0009     2.4308E-03    2.2934E-03    1.500000E+10  0.00040  2.925E-05    0   0.4854   age201_m32            0.0000     4.9816E+00     2.4702   0.5236   102.3404
 50      0.0109     3.3132E-02    3.1034E-02    1.800000E+10  0.00040  2.469E-05    0   0.4819   age213_m32            0.0000     5.4117E+00     2.6910   0.4733   103.1668
 51      0.0000     0.0000E+00    0.0000E+00    1.000000E+06  0.00400  1.114E-02    0   1.0000   age020_m42            0.0000     3.8172E+02    13.0410   4.0000    72.5149
 52      0.0000     0.0000E+00    0.0000E+00    3.160000E+06  0.00400  4.073E-02    0   0.9999   age045_m42            0.0000     4.4347E+01     4.7607   3.2260    89.0238
 53      0.0000     0.0000E+00    0.0000E+00    5.010000E+06  0.00400  2.534E-02    0   0.9488   age055_m42            0.0000     1.2897E+02     7.8219   3.7179    80.9955
 54      0.0011     3.1041E-06    5.5626E-06    6.610000E+06  0.00400  2.583E-02    0   0.9220   age061_m42            0.0000     3.3716E+01     3.9128   3.0207    90.2001
 55      0.0000     0.0000E+00    0.0000E+00    8.710000E+06  0.00400  1.706E-02    0   0.8983   age067_m42            0.0000     5.4326E+01     5.7560   2.9083    86.8212
 56      0.0000     0.0000E+00    0.0000E+00    1.000000E+07  0.00400  1.271E-02    0   0.8862   age070_m42            0.0000     8.3404E+01     7.3362   2.9334    84.4056
 57      0.0000     0.0000E+00    0.0000E+00    1.445000E+07  0.00400  7.666E-03    0   0.8571   age078_m42            0.0000     1.4114E+02     8.2069   3.3577    81.1520
 58      0.0000     0.0000E+00    0.0000E+00    2.512000E+07  0.00400  5.070E-03    0   0.8174   age090_m42            0.0000     7.5097E+01     6.6223   2.7813    86.7160
 59      0.0000     0.0000E+00    0.0000E+00    4.000000E+07  0.00400  3.505E-03    0   0.7851   age104_m42            0.0000     5.2731E+01     4.7590   2.4177    91.1075
 60      0.0000     0.0000E+00    0.0000E+00    5.500000E+07  0.00400  3.059E-03    0   0.7629   age110_m42            0.0000     3.6562E+01     2.2113   2.3474    99.0087
 61      0.0000     0.0000E+00    0.0000E+00    1.015200E+08  0.00400  2.268E-03    0   0.7207   age116_m42            0.0000     2.1698E+02     5.7699   2.0755   109.1979
 62      0.0000     0.0000E+00    0.0000E+00    1.609000E+08  0.00400  1.720E-03    0   0.6930   age120_m42            0.0000     2.3794E+02     6.7366   1.8878   112.5148
 63      0.0000     0.0000E+00    0.0000E+00    2.861200E+08  0.00400  1.079E-03    0   0.6613   age125_m42            0.0000     2.2580E+02     7.3549   1.5100   114.3826
 64      0.0000     0.0000E+00    0.0000E+00    5.088000E+08  0.00400  6.261E-04    0   0.6313   age130_m42            0.0000     2.8171E+02     8.2426   1.2698   118.9009
 65      0.0000     0.0000E+00    0.0000E+00    9.047900E+08  0.00400  3.535E-04    0   0.6024   age135_m42            0.0000     1.3962E+02     6.9383   0.9290   117.6343
 66      0.0000     0.0000E+00    0.0000E+00    1.278050E+09  0.00400  2.677E-04    0   0.5837   age138_m42            0.0000     5.2642E+01     6.8214   0.2969   114.4620
 67      0.0000     0.0000E+00    0.0000E+00    1.434000E+09  0.00400  1.910E-04    0   0.5716   age139_m42            0.0000     5.1184E+01     6.7542   0.4457   115.6182
 68      0.0000     0.0000E+00    0.0000E+00    2.500000E+09  0.00400  9.818E-05    0   0.5463   age150_m42            0.0000     5.0186E+01     5.6139   0.2633   108.3904
 69      0.0000     0.0000E+00    0.0000E+00    4.250000E+09  0.00400  5.491E-05    0   0.5269   age158_m42            0.0000     9.1509E+01     5.0994   0.1841   104.2811
 70      0.0000     0.0000E+00    0.0000E+00    6.250000E+09  0.00400  3.857E-05    0   0.5151   age166_m42            0.0000     1.3069E+02     5.9269   0.0000   103.1023
 71      0.0000     0.0000E+00    0.0000E+00    7.500000E+09  0.00400  3.243E-05    0   0.5110   age171_m42            0.0000     1.5452E+02     5.9838  -0.0159   102.5535
 72      0.0000     0.0000E+00    0.0000E+00    1.000000E+10  0.00400  2.424E-05    0   0.5028   age181_m42            0.0000     1.9760E+02     6.4487  -0.0941   102.0455
 73      0.0000     0.0000E+00    0.0000E+00    1.300000E+10  0.00400  1.883E-05    0   0.4927   age193_m42            0.0000     2.3857E+02     6.7205  -0.1267   101.6593
 74      0.0000     0.0000E+00    0.0000E+00    1.500000E+10  0.00400  1.685E-05    0   0.4919   age201_m42            0.0000     2.2799E+02     6.5999  -0.1208   101.5766
 75      0.0019     1.0009E-02    9.4819E-03    1.800000E+10  0.00400  1.452E-05    0   0.4874   age213_m42            0.0000     2.0898E+02     6.3959  -0.1033   101.7000
 76      0.0000     0.0000E+00    0.0000E+00    1.000000E+06  0.00800  1.286E-02    0   1.0000   age020_m52            0.0000     3.2834E+02    11.6922   4.0000    74.5815
 77      0.0000     0.0000E+00    0.0000E+00    3.160000E+06  0.00800  3.147E-02    0   0.9966   age045_m52            0.0000     2.7229E+02     9.6288   4.0000    76.0470
 78      0.0000     0.0000E+00    0.0000E+00    5.010000E+06  0.00800  2.664E-02    0   0.9443   age055_m52            0.0000     1.6480E+02     8.4866   3.8552    79.7985
 79      0.0000     0.0000E+00    0.0000E+00    6.610000E+06  0.00800  2.151E-02    0   0.9177   age061_m52            0.0000     1.1193E+02     6.2744   2.5136    86.9737
 80      0.0000     0.0000E+00    0.0000E+00    8.710000E+06  0.00800  1.628E-02    0   0.8948   age067_m52            0.0000     7.5231E+01     6.2892   2.8772    87.1204
 81      0.0000     0.0000E+00    0.0000E+00    1.000000E+07  0.00800  1.215E-02    0   0.8827   age070_m52            0.0000     9.4424E+01     7.1364   3.2366    84.8227
 82      0.0000     0.0000E+00    0.0000E+00    1.445000E+07  0.00800  8.739E-03    0   0.8552   age078_m52            0.0000     6.9723E+01     6.2343   3.2509    86.5845
 83      0.0000     0.0000E+00    0.0000E+00    2.512000E+07  0.00800  5.676E-03    0   0.8162   age090_m52            0.0000     4.7481E+01     4.5506   2.7886    92.4266
 84      0.0000     0.0000E+00    0.0000E+00    4.000000E+07  0.00800  3.939E-03    0   0.7841   age104_m52            0.0000     5.4604E+01     3.0172   2.5647    96.7730
 85      0.0000     0.0000E+00    0.0000E+00    5.500000E+07  0.00800  3.155E-03    0   0.7627   age110_m52            0.0000     7.6579E+01     2.6470   2.4789   100.2553
 86      0.0000     0.0000E+00    0.0000E+00    1.015200E+08  0.00800  2.206E-03    0   0.7226   age116_m52            0.0000     1.5305E+02     4.6774   2.1819   107.6104
 87      0.0000     0.0000E+00    0.0000E+00    1.609000E+08  0.00800  1.596E-03    0   0.6963   age120_m52            0.0000     1.8811E+02     5.9575   1.9134   111.2566
 88      0.0000     0.0000E+00    0.0000E+00    2.861200E+08  0.00800  1.002E-03    0   0.6665   age125_m52            0.0000     2.9333E+02     9.0594   1.4872   119.0649
 89      0.0000     0.0000E+00    0.0000E+00    5.088000E+08  0.00800  5.759E-04    0   0.6377   age130_m52            0.0000     2.8670E+02    10.8062   1.0600   126.7739
 90      0.0000     0.0000E+00    0.0000E+00    9.047900E+08  0.00800  2.972E-04    0   0.6086   age135_m52            0.0000     9.8211E+01     9.7957   0.5919   124.4425
 91      0.0000     0.0000E+00    0.0000E+00    1.278050E+09  0.00800  2.242E-04    0   0.5907   age138_m52            0.0000     7.4129E+01     8.1747   0.0973   119.2222
 92      0.0000     0.0000E+00    0.0000E+00    1.434000E+09  0.00800  1.645E-04    0   0.5787   age139_m52            0.0000     5.9895E+01     7.3343   0.2696   117.4532
 93      0.0016     1.5578E-03    1.6711E-03    2.500000E+09  0.00800  7.723E-05    0   0.5519   age150_m52            0.0000     1.1781E+02     6.9510  -0.0086   111.7961
 94      0.0000     0.0000E+00    0.0000E+00    4.250000E+09  0.00800  4.151E-05    0   0.5320   age158_m52            0.0000     1.4330E+02     6.6237  -0.0536   108.3907
 95      0.0000     0.0000E+00    0.0000E+00    6.250000E+09  0.00800  3.010E-05    0   0.5197   age166_m52            0.0000     2.2140E+02     7.3791  -0.2460   107.2451
 96      0.0000     0.0000E+00    0.0000E+00    7.500000E+09  0.00800  2.467E-05    0   0.5139   age171_m52            0.0000     2.4248E+02     7.6290  -0.2906   107.0053
 97      0.0000     0.0000E+00    0.0000E+00    1.000000E+10  0.00800  1.862E-05    0   0.5054   age181_m52            0.0000     3.0660E+02     8.4752  -0.4350   107.3540
 98      0.0000     0.0000E+00    0.0000E+00    1.300000E+10  0.00800  1.433E-05    0   0.4988   age193_m52            0.0000     3.9748E+02     9.2140  -0.5367   108.4710
 99      0.0000     0.0000E+00    0.0000E+00    1.500000E+10  0.00800  1.244E-05    0   0.4936   age201_m52            0.0000     4.3684E+02     9.4572  -0.5657   109.0748
100      0.0000     0.0000E+00    0.0000E+00    1.800000E+10  0.00800  1.070E-05    0   0.4888   age213_m52            0.0000     4.5892E+02     9.6827  -0.6049   109.1252
101      0.0000     0.0000E+00    0.0000E+00    1.000000E+06  0.02000  1.989E-02    0   1.0000   age020_m62            0.0000     3.6668E+02    11.8340   4.0000    73.5388
102      0.0000     0.0000E+00    0.0000E+00    3.160000E+06  0.02000  3.772E-02    0   0.9858   age045_m62            0.0000     2.7354E+02     9.2457   4.0000    75.6180
103      0.0000     0.0000E+00    0.0000E+00    5.010000E+06  0.02000  3.227E-02    0   0.9342   age055_m62            0.0000     6.9204E+01     6.1784   3.5277    84.7253
104      0.0000     0.0000E+00    0.0000E+00    6.610000E+06  0.02000  2.387E-02    0   0.9090   age061_m62            0.0000     1.0890E+02     8.0418   3.3304    82.7049
105      0.0000     0.0000E+00    0.0000E+00    8.710000E+06  0.02000  1.102E-02    0   0.8861   age067_m62            0.0000     3.1547E+02    14.4156   3.0732    75.3071
106      0.0000     0.0000E+00    0.0000E+00    1.000000E+07  0.02000  1.011E-02    0   0.8751   age070_m62            0.0000     2.3282E+02    11.7766   3.0458    78.9312
107      0.0000     0.0000E+00    0.0000E+00    1.445000E+07  0.02000  7.331E-03    0   0.8472   age078_m62            0.0000     1.7688E+02     9.5571   3.0207    81.5521
108      0.0000     0.0000E+00    0.0000E+00    2.512000E+07  0.02000  4.206E-03    0   0.8099   age090_m62            0.0000     2.0320E+02     9.5935   2.9416    81.0432
109      0.0000     0.0000E+00    0.0000E+00    4.000000E+07  0.02000  3.373E-03    0   0.7799   age104_m62            0.0000     4.6318E+01     4.1673   2.5890    93.5953
110      0.0000     0.0000E+00    0.0000E+00    5.500000E+07  0.02000  2.747E-03    0   0.7595   age110_m62            0.0000     5.1127E+01     2.6963   2.4346    99.4840
111      0.0000     0.0000E+00    0.0000E+00    1.015200E+08  0.02000  1.878E-03    0   0.7221   age116_m62            0.0000     1.6879E+02     4.7789   2.1514   108.4815
112      0.0000     0.0000E+00    0.0000E+00    1.609000E+08  0.02000  1.378E-03    0   0.6978   age120_m62            0.0000     2.7072E+02     6.9854   1.9002   114.3990
113      0.0000     0.0000E+00    0.0000E+00    2.861200E+08  0.02000  8.869E-04    0   0.6700   age125_m62            0.0000     4.4987E+02    10.3262   1.3762   124.3925
114      0.0000     0.0000E+00    0.0000E+00    5.088000E+08  0.02000  4.834E-04    0   0.6430   age130_m62            0.0000     3.2275E+02    11.5470   0.8870   129.9232
115      0.0000     0.0000E+00    0.0000E+00    9.047900E+08  0.02000  2.312E-04    0   0.6152   age135_m62            0.0000     9.4656E+01     9.3189   0.4143   125.2446
116      0.0000     0.0000E+00    0.0000E+00    1.278050E+09  0.02000  1.387E-04    0   0.5927   age138_m62            0.0000     4.8460E+01     7.2914   0.1490   116.9860
117      0.0000     0.0000E+00    0.0000E+00    1.434000E+09  0.02000  1.168E-04    0   0.5865   age139_m62            0.0000     5.6129E+01     7.0063   0.1459   114.6807
118      0.0000     0.0000E+00    0.0000E+00    2.500000E+09  0.02000  5.505E-05    0   0.5610   age150_m62            0.0000     1.4166E+02     7.6059  -0.1957   111.0496
119      0.0000     0.0000E+00    0.0000E+00    4.250000E+09  0.02000  3.070E-05    0   0.5407   age158_m62            0.0000     2.7676E+02     9.4836  -0.5240   112.7982
120      0.0000     0.0000E+00    0.0000E+00    6.250000E+09  0.02000  2.104E-05    0   0.5277   age166_m62            0.0000     3.7403E+02    10.3629  -0.6711   114.1193
121      0.0000     0.0000E+00    0.0000E+00    7.500000E+09  0.02000  1.770E-05    0   0.5223   age171_m62            0.0000     4.1772E+02    10.8736  -0.7709   115.0723
122      0.0000     0.0000E+00    0.0000E+00    1.000000E+10  0.02000  1.297E-05    0   0.5121   age181_m62            0.0000     5.2221E+02    11.8434  -0.9505   116.6047
123      0.0000     0.0000E+00    0.0000E+00    1.300000E+10  0.02000  9.691E-06    0   0.5047   age193_m62            0.0000     6.0352E+02    12.3262  -1.0000   117.3446
124      0.0000     0.0000E+00    0.0000E+00    1.500000E+10  0.02000  8.360E-06    0   0.4999   age201_m62            0.0000     6.7258E+02    13.1707  -1.0000   117.8489
125      0.0000     0.0000E+00    0.0000E+00    1.800000E+10  0.02000  6.911E-06    0   0.4946   age213_m62            0.0000     7.6191E+02    14.9110  -1.0000   118.5193
126      0.0000     0.0000E+00    0.0000E+00    1.000000E+06  0.05000  2.651E-02    0   0.9998   age020_m72            0.0000     3.4900E+02    11.2733   4.0000    74.7118
127      0.0000     0.0000E+00    0.0000E+00    3.160000E+06  0.05000  4.817E-02    0   0.9577   age045_m72            0.0000     1.6654E+02     8.6282   3.9653    79.3696
128      0.0000     0.0000E+00    0.0000E+00    5.010000E+06  0.05000  3.101E-02    0   0.9147   age055_m72            0.0000     1.4046E+02     8.3006   3.6017    81.8598
129      0.0000     0.0000E+00    0.0000E+00    6.610000E+06  0.05000  1.472E-02    0   0.8877   age061_m72            0.0000     2.7727E+02    12.3706   3.2414    77.8196
130      0.0000     0.0000E+00    0.0000E+00    8.710000E+06  0.05000  1.050E-02    0   0.8638   age067_m72            0.0000     2.2143E+02     9.8453   3.5875    79.9699
131      0.0000     0.0000E+00    0.0000E+00    1.000000E+07  0.05000  8.954E-03    0   0.8524   age070_m72            0.0000     1.8521E+02     8.3128   3.8255    81.4113
132      0.0000     0.0000E+00    0.0000E+00    1.445000E+07  0.05000  6.392E-03    0   0.8262   age078_m72            0.0000     1.6106E+02     7.5640   3.7501    83.0292
133      0.0000     0.0000E+00    0.0000E+00    2.512000E+07  0.05000  4.207E-03    0   0.7902   age090_m72            0.0000     8.1314E+01     5.3148   3.3046    88.9957
134      0.0000     0.0000E+00    0.0000E+00    4.000000E+07  0.05000  3.198E-03    0   0.7618   age104_m72            0.0000     7.9601E+01     3.2851   2.5995   101.9899
135      0.0000     0.0000E+00    0.0000E+00    5.500000E+07  0.05000  2.593E-03    0   0.7432   age110_m72            0.0000     1.2418E+02     4.0364   2.4620   105.0263
136      0.0000     0.0000E+00    0.0000E+00    1.015200E+08  0.05000  1.716E-03    0   0.7092   age116_m72            0.0000     2.1959E+02     5.6885   2.1915   109.9528
137      0.0000     0.0000E+00    0.0000E+00    1.609000E+08  0.05000  1.218E-03    0   0.6876   age120_m72            0.0000     3.4099E+02     8.0353   1.8239   116.2228
138      0.0000     0.0000E+00    0.0000E+00    2.861200E+08  0.05000  7.047E-04    0   0.6618   age125_m72            0.0000     4.3045E+02    11.0654   1.1428   125.7332
139      0.0000     0.0000E+00    0.0000E+00    5.088000E+08  0.05000  3.590E-04    0   0.6356   age130_m72            0.0000     2.6087E+02    11.6270   0.5502   130.1274
140      0.0000     0.0000E+00    0.0000E+00    9.047900E+08  0.05000  1.484E-04    0   0.6088   age135_m72            0.0000     6.5449E+01     9.0568  -0.0138   118.7224
141      0.0000     0.0000E+00    0.0000E+00    1.278050E+09  0.05000  9.435E-05    0   0.5924   age138_m72            0.0000     1.4117E+02     9.8314  -0.3908   115.2541
142      0.0000     0.0000E+00    0.0000E+00    1.434000E+09  0.05000  7.827E-05    0   0.5847   age139_m72            0.0000     1.6163E+02     9.4624  -0.3567   113.9355
143      0.0000     0.0000E+00    0.0000E+00    2.500000E+09  0.05000  3.759E-05    0   0.5583   age150_m72            0.0000     3.3892E+02    10.3958  -0.6699   113.3862
144      0.0000     0.0000E+00    0.0000E+00    4.250000E+09  0.05000  1.842E-05    0   0.5374   age158_m72            0.0000     4.8232E+02    11.6059  -1.0000   114.2174
145      1.6175     1.0099E+01    1.0289E+01    6.250000E+09  0.05000  1.207E-05    0   0.5242   age166_m72            0.0000     6.4636E+02    16.3626  -1.0000   114.3582
146      1.2114     9.1351E+00    9.2027E+00    7.500000E+09  0.05000  9.993E-06    0   0.5183   age171_m72            0.0000     6.7243E+02    17.6226  -1.0000   114.2225
147      0.4054     4.1903E+00    4.1383E+00    1.000000E+10  0.05000  7.291E-06    0   0.5081   age181_m72            0.0000     8.0714E+02    21.9164  -1.0000   114.3550
148      0.0006     8.4223E-03    8.2145E-03    1.300000E+10  0.05000  5.316E-06    0   0.5018   age193_m72            0.0000     1.0756E+03    28.2136  -1.0000   113.7787
149      0.0002     2.7375E-03    2.6454E-03    1.500000E+10  0.05000  4.497E-06    0   0.4972   age201_m72            0.0000     1.2167E+03    30.7781  -1.0000   113.7808
150      0.0006     1.1898E-02    1.1387E-02    1.800000E+10  0.05000  3.739E-06    0   0.4924   age213_m72            0.0000     1.4359E+03    34.0880  -1.0000   113.0665


## Synthesis Results - Average & Chains ##

# j      x_j: min, <> & last-chain-values for 1 ...  7 chains
  1      0.0000      0.0057      0.0000      0.0000      0.0000      0.0000      0.0076      0.0000      0.0000
  2     13.3268     12.8273     12.9746     12.9025     12.3030     13.1400     12.5212     13.1909     12.4683
  3      0.0000      0.0161      0.0000      0.0000      0.0000      0.0000      0.0000      0.0000      0.0000
  4      0.0000      0.0065      0.0436      0.0000      0.0205      0.0000      0.0000      0.0000      0.0000
  5      0.0000      0.0050      0.0000      0.0000      0.0000      0.0000      0.0000      0.0000      0.0000
  6      0.0000      0.0099      0.0000      0.0000      0.0000      0.0000      0.0130      0.0000      0.0000
  7      0.0000      0.0188      0.0000      0.2069      0.0000      0.0840      0.0000      0.0522      0.0880
  8      0.0000      0.0352      0.0000      0.0000      0.0523      0.0000      0.0000      0.1708      0.0000
  9      1.2499      0.4311      0.8771      0.2879      1.1016      0.8490      0.2971      0.7418      0.5372
 10      1.4892      0.5720      0.9852      0.4851      0.9034      0.4913      0.9366      0.9591      1.2568
 11      0.0098      0.3485      0.3941      0.0217      0.3364      0.3252      0.8028      0.2169      0.4172
 12      0.0000      0.0333      0.0491      0.1946      0.0000      0.0000      0.0744      0.0000      0.0000
 13      0.0000      0.0142      0.0000      0.0000      0.0001      0.0000      0.0618      0.0000      0.0000
 14      0.0000      0.0066      0.0000      0.0000      0.0000      0.0000      0.0000      0.0000      0.0000
 15      0.0000      0.0078      0.0000      0.0000      0.0000      0.0000      0.0000      0.0000      0.0000
 16      0.0000      0.0111      0.0252      0.0000      0.0000      0.0000      0.0000      0.0000      0.0000
 17      0.0000      0.0109      0.0000      0.0000      0.0000      0.0000      0.0000      0.0058      0.0000
 18      0.0000      0.0283      0.0000      0.0000      0.2662      0.0000      0.0000      0.0000      0.0000
 19      0.0000      0.0799      0.0540      0.0000      0.0000      0.1225      0.0066      0.0000      0.0000
 20      0.0000      0.2086      0.0000      0.0177      0.1295      0.2254      0.0000      0.6945      0.0000
 21      0.3874      0.6428      1.0717      0.4181      0.3535      0.2127      1.2083      0.1911      0.0972
 22      0.5936      0.4718      0.7684      0.5359      0.1992      0.7797      0.3477      0.3025      0.9700
 23      0.0093      0.4218      0.5603      0.0675      0.0000      0.0000      0.0031      0.0000      0.0096
 24      0.0611      0.6435      0.9002      1.5364      1.2395      0.3288      0.9170      0.6855      0.6849
 25      2.6545      1.2541      1.0336      1.5243      1.5001      1.6519      2.2032      1.3322      1.2924
 26      0.0000      0.0122      0.0000      0.2039      0.0000      0.0000      0.0000      0.0000      0.1338
 27      0.0000      0.0374      0.0000      0.0000      0.1171      0.0089      0.0000      0.0000      0.0000
 28      0.0000      0.0111      0.0000      0.0000      0.0615      0.0000      0.0489      0.0000      0.0000
 29      0.0000      0.0064      0.0000      0.0000      0.0000      0.0000      0.0000      0.0000      0.0303
 30      0.0000      0.0103      0.0000      0.0000      0.0000      0.0000      0.0787      0.0000      0.0000
 31      0.0000      0.0080      0.0000      0.0169      0.0000      0.0000      0.0000      0.0000      0.0000
 32      0.0000      0.0322      0.0547      0.0000      0.1092      0.0000      0.0000      0.0000      0.0000
 33      0.0000      0.0910      0.0114      0.0000      0.0249      0.0000      0.1682      0.1009      0.0000
 34      1.6229      0.5623      0.5175      0.6671      0.5499      0.7931      0.8027      0.4740      0.7422
 35      0.1783      0.2967      0.8039      0.8514      0.4564      0.7410      0.2583      0.2081      0.2967
 36      0.0000      0.0593      0.0501      0.0465      0.0000      0.0000      0.0000      0.0000      0.1371
 37      0.0000      0.0443      0.0000      0.0000      0.0000      0.0000      0.0000      0.0000      0.0000
 38      0.0000      0.0127      0.0000      0.0000      0.0000      0.0000      0.0000      0.0000      0.0000
 39      0.0000      0.0083      0.0000      0.0000      0.0000      0.0000      0.0000      0.0000      0.0000
 40      0.0000      0.0054      0.0000      0.0000      0.0000      0.0000      0.0000      0.0000      0.0000
 41      0.0000      0.0204      0.0000      0.0000      0.0000      0.0000      0.0000      0.0121      0.0000
 42      0.0000      0.0295      0.0000      0.0000      0.0338      0.0000      0.0000      0.0000      0.0000
 43      0.0000      0.1043      0.0000      0.0473      0.0000      0.0900      0.0000      0.0000      0.0000
 44     67.8717     72.2780     68.7078     70.4663     70.8208     70.2560     69.5064     72.7264     72.4158
 45      8.8054      2.6234      5.1719      5.6988      4.4097      4.7294      4.7858      3.4563      4.3679
 46      0.0007      0.8339      0.7327      0.9547      1.7297      1.3128      1.1841      0.9715      0.8034
 47      0.0000      0.1636      0.1509      0.0000      0.0000      0.0000      0.0000      0.0000      0.1564
 48      0.0000      0.2304      0.0000      0.0000      0.0403      0.0000      0.0000      0.1112      0.0000
 49      0.0009      0.2628      0.8831      0.0000      0.1106      0.3120      0.4146      0.0000      0.0839
 50      0.0109      0.3042      0.2182      0.0192      0.0000      0.1707      0.0000      0.0541      0.3833
 51      0.0000      0.0048      0.0000      0.0000      0.0000      0.0000      0.0000      0.0000      0.0000
 52      0.0000      0.0919      0.1012      0.1918      0.2101      0.0000      0.0840      0.0581      0.2421
 53      0.0000      0.0106      0.0000      0.0000      0.0000      0.0000      0.1545      0.0389      0.0000
 54      0.0011      0.2281      0.2592      0.3146      0.2861      0.1852      0.3868      0.4301      0.0000
 55      0.0000      0.0691      0.0072      0.1599      0.1468      0.3262      0.0169      0.0544      0.1622
 56      0.0000      0.0900      0.0000      0.0000      0.0000      0.0149      0.1016      0.2398      0.1426
 57      0.0000      0.0210      0.0000      0.0000      0.0000      0.0000      0.1286      0.0000      0.0000
 58      0.0000      0.0513      0.0000      0.0000      0.0000      0.0000      0.1172      0.0000      0.0000
 59      0.0000      0.0141      0.0000      0.0000      0.0000      0.0905      0.0000      0.0431      0.0000
 60      0.0000      0.0120      0.0000      0.0000      0.0000      0.0000      0.0000      0.0000      0.0140
 61      0.0000      0.0210      0.0000      0.0000      0.0000      0.0103      0.0000      0.0000      0.0111
 62      0.0000      0.0319      0.0000      0.0000      0.0000      0.0301      0.0000      0.0000      0.0000
 63      0.0000      0.0107      0.0385      0.0000      0.0000      0.1384      0.0000      0.0000      0.0000
 64      0.0000      0.0227      0.0000      0.4449      0.0000      0.0000      0.0616      0.0000      0.0293
 65      0.0000      0.0437      0.0000      0.0000      0.3275      0.0000      0.3715      0.1851      0.0000
 66      0.0000      0.0192      0.0000      0.0000      0.1665      0.2897      0.0000      0.0000      0.0984
 67      0.0000      0.0185      0.0000      0.0000      0.0000      0.0000      0.0000      0.0000      0.0000
 68      0.0000      0.0172      0.0000      0.0000      0.0000      0.0151      0.0000      0.0910      0.0000
 69      0.0000      0.0241      0.0000      0.0000      0.0000      0.0000      0.0000      0.0000      0.0000
 70      0.0000      0.0176      0.0000      0.0000      0.0000      0.0000      0.0157      0.0364      0.0000
 71      0.0000      0.0527      0.0195      0.0000      0.0081      0.0000      0.0000      0.0467      0.0000
 72      0.0000      0.0191      0.0000      0.0000      0.0000      0.0362      0.0000      0.0000      0.0000
 73      0.0000      0.0190      0.0000      0.0000      0.0000      0.0371      0.0000      0.0000      0.0000
 74      0.0000      0.0166      0.1552      0.0000      0.0208      0.0000      0.0000      0.0000      0.0086
 75      0.0019      0.0170      0.2661      0.0000      0.0000      0.0181      0.0000      0.0000      0.1238
 76      0.0000      0.0063      0.0617      0.0000      0.0000      0.0607      0.0000      0.0000      0.0000
 77      0.0000      0.0039      0.0034      0.0000      0.0000      0.0000      0.0000      0.0000      0.0000
 78      0.0000      0.0079      0.0000      0.0000      0.0000      0.0000      0.0000      0.0000      0.0000
 79      0.0000      0.0119      0.0134      0.0000      0.0000      0.0000      0.0000      0.0000      0.0000
 80      0.0000      0.0132      0.0000      0.0000      0.0000      0.0000      0.0000      0.0000      0.0000
 81      0.0000      0.0114      0.0000      0.0000      0.0000      0.0000      0.0000      0.0000      0.0000
 82      0.0000      0.0105      0.0000      0.0000      0.0000      0.0000      0.0000      0.0000      0.0000
 83      0.0000      0.0323      0.0000      0.0000      0.0000      0.0000      0.0000      0.0000      0.0000
 84      0.0000      0.0250      0.0000      0.0000      0.0000      0.1322      0.0000      0.0000      0.0000
 85      0.0000      0.0258      0.0000      0.0000      0.0000      0.0000      0.0000      0.0000      0.0000
 86      0.0000      0.0305      0.0940      0.0581      0.0000      0.0000      0.0000      0.0007      0.0000
 87      0.0000      0.0234      0.0000      0.0000      0.0000      0.1765      0.0000      0.0000      0.0000
 88      0.0000      0.0083      0.0000      0.0000      0.0000      0.0000      0.0000      0.0000      0.0000
 89      0.0000      0.0078      0.0000      0.0434      0.0000      0.0000      0.0000      0.0000      0.0000
 90      0.0000      0.0035      0.0000      0.0000      0.0000      0.0000      0.0000      0.0000      0.0209
 91      0.0000      0.0101      0.0000      0.0000      0.0000      0.0095      0.0000      0.0000      0.0000
 92      0.0000      0.0139      0.0000      0.0000      0.0000      0.0745      0.0377      0.0000      0.0000
 93      0.0016      0.0256      0.2738      0.0000      0.0000      0.0495      0.1071      0.0000      0.0210
 94      0.0000      0.0288      0.2012      0.1083      0.0000      0.0000      0.0000      0.0352      0.1233
 95      0.0000      0.0308      0.0000      0.0000      0.0400      0.0207      0.0000      0.2243      0.0000
 96      0.0000      0.0313      0.0266      0.0000      0.0000      0.0000      0.0000      0.0000      0.3856
 97      0.0000      0.0220      0.0000      0.0000      0.0972      0.0000      0.0000      0.2310      0.0000
 98      0.0000      0.0278      0.0000      0.0000      0.2096      0.0000      0.0000      0.0000      0.0000
 99      0.0000      0.0301      0.0000      0.0000      0.0000      0.1581      0.0000      0.0942      0.0585
100      0.0000      0.0317      0.0000      0.0000      0.0000      0.0000      0.0000      0.0000      0.0000
101      0.0000      0.0031      0.0000      0.0000      0.0000      0.0000      0.0000      0.0000      0.0000
102      0.0000      0.0074      0.0000      0.0000      0.0000      0.0000      0.0000      0.0000      0.0000
103      0.0000      0.0500      0.0000      0.0000      0.0000      0.0000      0.0000      0.0000      0.0601
104      0.0000      0.0279      0.0000      0.0000      0.0000      0.0000      0.0000      0.1162      0.0061
105      0.0000      0.0238      0.0000      0.0000      0.0000      0.0000      0.0000      0.0000      0.0000
106      0.0000      0.0462      0.1684      0.0000      0.1302      0.0788      0.0000      0.0000      0.0057
107      0.0000      0.0276      0.0000      0.0183      0.0000      0.0000      0.0000      0.0119      0.0706
108      0.0000      0.0055      0.0000      0.0000      0.0000      0.0000      0.0000      0.0000      0.0147
109      0.0000      0.0114      0.0000      0.0000      0.0000      0.0000      0.0021      0.0000      0.0070
110      0.0000      0.0156      0.0000      0.0000      0.0000      0.0000      0.0000      0.0000      0.0000
111      0.0000      0.0168      0.0000      0.0000      0.0000      0.0000      0.0000      0.0000      0.0000
112      0.0000      0.0112      0.0628      0.0000      0.0000      0.0000      0.0000      0.0000      0.0000
113      0.0000      0.0073      0.0000      0.0449      0.0000      0.0000      0.0000      0.0000      0.0000
114      0.0000      0.0040      0.0000      0.0000      0.0000      0.0254      0.0000      0.0168      0.0000
115      0.0000      0.0082      0.0000      0.0000      0.0000      0.0000      0.0000      0.0000      0.0000
116      0.0000      0.0101      0.0000      0.0000      0.0000      0.0000      0.0000      0.0000      0.0000
117      0.0000      0.0099      0.0000      0.0000      0.0863      0.0000      0.0000      0.0079      0.0000
118      0.0000      0.0196      0.0226      0.0000      0.0000      0.0000      0.0000      0.0000      0.0000
119      0.0000      0.0222      0.0000      0.0000      0.0000      0.0000      0.1295      0.0551      0.0000
120      0.0000      0.0228      0.1124      0.0000      0.0000      0.0000      0.0000      0.0591      0.0099
121      0.0000      0.0246      0.0174      0.1552      0.0000      0.0450      0.0219      0.0000      0.0000
122      0.0000      0.0375      0.0000      0.0000      0.2814      0.2350      0.0000      0.0899      0.0000
123      0.0000      0.0284      0.0593      0.0000      0.0000      0.0000      0.0117      0.0000      0.0000
124      0.0000      0.0338      0.0999      0.0176      0.0000      0.0000      0.1550      0.0000      0.1362
125      0.0000      0.0286      0.0000      0.0000      0.0000      0.2087      0.0000      0.0000      0.0000
126      0.0000      0.0048      0.0000      0.0015      0.0000      0.0000      0.0000      0.0000      0.0000
127      0.0000      0.0067      0.0038      0.0000      0.0000      0.0000      0.0000      0.0000      0.0003
128      0.0000      0.0111      0.0000      0.0000      0.0000      0.0000      0.0000      0.0442      0.0000
129      0.0000      0.0072      0.0000      0.0000      0.0000      0.0000      0.0000      0.0000      0.0000
130      0.0000      0.0091      0.0000      0.0000      0.0220      0.0000      0.0000      0.1006      0.0000
131      0.0000      0.0064      0.0000      0.0247      0.0000      0.0000      0.0000      0.0000      0.0000
132      0.0000      0.0060      0.0000      0.0000      0.1046      0.0000      0.0000      0.0000      0.0000
133      0.0000      0.0091      0.0000      0.0000      0.0000      0.0000      0.0000      0.0000      0.0000
134      0.0000      0.0119      0.0000      0.0000      0.0000      0.0000      0.0000      0.0000      0.0000
135      0.0000      0.0178      0.0102      0.0000      0.0000      0.0000      0.0000      0.0000      0.0000
136      0.0000      0.0177      0.0113      0.0000      0.0000      0.0000      0.0000      0.0000      0.0000
137      0.0000      0.0117      0.0000      0.0000      0.0000      0.0028      0.0203      0.0000      0.0000
138      0.0000      0.0054      0.0000      0.0000      0.0000      0.0000      0.0000      0.0000      0.0000
139      0.0000      0.0056      0.0000      0.0000      0.0123      0.0000      0.0000      0.0000      0.0000
140      0.0000      0.0377      0.0000      0.0000      0.0000      0.0000      0.0000      0.0000      0.0000
141      0.0000      0.2355      0.0000      0.0000      0.0000      0.0000      0.1205      0.0000      0.0000
142      0.0000      0.5222      0.0914      0.0000      0.0000      0.0000      0.0000      0.0000      0.0000
143      0.0000      0.0183      0.0000      0.0917      0.0747      0.0000      0.0000      0.0000      0.0000
144      0.0000      0.0745      0.1273      0.0089      0.1324      0.1527      0.1163      0.0000      0.0000
145      1.6175      0.4647      0.4988      0.5019      0.5155      0.4922      0.6320      0.5639      0.3501
146      1.2114      0.5828      0.5496      0.5814      0.4423      0.7347      0.6272      0.6147      0.4310
147      0.4054      0.4386      0.3279      0.4139      0.4547      0.4415      0.5358      0.3691      0.4119
148      0.0006      0.5665      0.3788      0.5182      0.2897      0.2540      0.2681      0.5702      0.6791
149      0.0002      0.4199      0.2114      0.2993      0.3944      0.1987      0.3962      0.2886      0.4840
150      0.0006      0.5230      0.3801      0.6292      0.4566      0.4590      0.5463      0.4309      0.3290

# j      m_j: min, <> & last-chain-values for 1 ...  7 chains
  1  0.0000E+00  8.7848E-05  0.0000E+00  0.0000E+00  0.0000E+00  0.0000E+00  1.1851E-04  0.0000E+00  0.0000E+00
  2  4.1017E-02  3.4187E-02  3.6807E-02  3.4866E-02  3.4363E-02  3.6897E-02  3.3623E-02  3.6971E-02  3.4115E-02
  3  0.0000E+00  1.0133E-04  0.0000E+00  0.0000E+00  0.0000E+00  0.0000E+00  0.0000E+00  0.0000E+00  0.0000E+00
  4  0.0000E+00  7.6916E-05  5.4818E-04  0.0000E+00  2.5408E-04  0.0000E+00  0.0000E+00  0.0000E+00  0.0000E+00
  5  0.0000E+00  7.3778E-05  0.0000E+00  0.0000E+00  0.0000E+00  0.0000E+00  4.1233E-07  0.0000E+00  0.0000E+00
  6  0.0000E+00  1.7507E-04  0.0000E+00  0.0000E+00  0.0000E+00  0.0000E+00  2.3180E-04  0.0000E+00  0.0000E+00
  7  0.0000E+00  4.2106E-04  0.0000E+00  4.6893E-03  0.0000E+00  1.9782E-03  0.0000E+00  1.2272E-03  2.0200E-03
  8  0.0000E+00  8.8917E-04  0.0000E+00  0.0000E+00  1.3847E-03  0.0000E+00  0.0000E+00  4.5397E-03  0.0000E+00
  9  3.9229E-02  1.1716E-02  2.5374E-02  7.9344E-03  3.1377E-02  2.4312E-02  8.1361E-03  2.1203E-02  1.4990E-02
 10  5.3575E-02  1.7820E-02  3.2669E-02  1.5324E-02  2.9494E-02  1.6124E-02  2.9400E-02  3.1422E-02  4.0195E-02
 11  4.2085E-04  1.2979E-02  1.5623E-02  8.2003E-04  1.3129E-02  1.2759E-02  3.0123E-02  8.4937E-03  1.5949E-02
 12  0.0000E+00  2.1665E-03  3.4070E-03  1.2856E-02  0.0000E+00  0.0000E+00  4.8864E-03  0.0000E+00  0.0000E+00
 13  0.0000E+00  1.0731E-03  0.0000E+00  0.0000E+00  1.1747E-05  0.0000E+00  4.7139E-03  0.0000E+00  0.0000E+00
 14  0.0000E+00  7.1226E-04  0.0000E+00  0.0000E+00  0.0000E+00  0.0000E+00  0.0000E+00  0.0000E+00  0.0000E+00
 15  0.0000E+00  1.2654E-03  0.0000E+00  0.0000E+00  0.0000E+00  0.0000E+00  0.0000E+00  0.0000E+00  0.0000E+00
 16  0.0000E+00  2.5972E-03  6.3103E-03  0.0000E+00  0.0000E+00  0.0000E+00  0.0000E+00  0.0000E+00  0.0000E+00
 17  0.0000E+00  2.8305E-03  0.0000E+00  0.0000E+00  0.0000E+00  0.0000E+00  0.0000E+00  1.6027E-03  0.0000E+00
 18  0.0000E+00  1.1998E-02  0.0000E+00  0.0000E+00  1.1844E-01  0.0000E+00  0.0000E+00  0.0000E+00  0.0000E+00
 19  0.0000E+00  5.1435E-02  3.6982E-02  0.0000E+00  0.0000E+00  8.3088E-02  4.2964E-03  0.0000E+00  0.0000E+00
 20  0.0000E+00  1.9199E-01  0.0000E+00  1.6488E-02  1.2492E-01  2.1860E-01  0.0000E+00  6.7224E-01  0.0000E+00
 21  4.7646E-01  6.8454E-01  1.2148E+00  4.5144E-01  3.9452E-01  2.3866E-01  1.2964E+00  2.1401E-01  1.0627E-01
 22  9.4180E-01  6.4822E-01  1.1238E+00  7.4658E-01  2.8679E-01  1.1287E+00  4.8128E-01  4.3704E-01  1.3682E+00
 23  1.8639E-02  7.3472E-01  1.0387E+00  1.1921E-01  0.0000E+00  0.0000E+00  5.4457E-03  0.0000E+00  1.7189E-02
 24  1.4057E-01  1.2817E+00  1.9085E+00  3.1027E+00  2.5871E+00  6.8992E-01  1.8403E+00  1.4358E+00  1.4005E+00
 25  7.3346E+00  3.0006E+00  2.6324E+00  3.6979E+00  3.7614E+00  4.1642E+00  5.3113E+00  3.3520E+00  3.1746E+00
 26  0.0000E+00  1.8287E-04  0.0000E+00  3.0999E-03  0.0000E+00  0.0000E+00  0.0000E+00  0.0000E+00  2.0600E-03
 27  0.0000E+00  1.1934E-04  0.0000E+00  0.0000E+00  3.9174E-04  2.9778E-05  0.0000E+00  0.0000E+00  0.0000E+00
 28  0.0000E+00  6.9600E-05  0.0000E+00  0.0000E+00  4.0277E-04  0.0000E+00  3.0805E-04  0.0000E+00  0.0000E+00
 29  0.0000E+00  6.1900E-05  0.0000E+00  0.0000E+00  0.0000E+00  0.0000E+00  0.0000E+00  0.0000E+00  3.0280E-04
 30  0.0000E+00  1.2525E-04  0.0000E+00  0.0000E+00  0.0000E+00  0.0000E+00  9.5991E-04  0.0000E+00  0.0000E+00
 31  0.0000E+00  1.1149E-04  0.0000E+00  2.3963E-04  0.0000E+00  0.0000E+00  0.0000E+00  0.0000E+00  0.0000E+00
 32  0.0000E+00  4.9867E-04  9.0163E-04  0.0000E+00  1.7720E-03  0.0000E+00  0.0000E+00  0.0000E+00  0.0000E+00
 33  0.0000E+00  2.0024E-03  2.6633E-04  0.0000E+00  5.7500E-04  0.0000E+00  3.7283E-03  2.3353E-03  0.0000E+00
 34  5.0096E-02  1.5031E-02  1.4722E-02  1.8080E-02  1.5404E-02  2.2336E-02  2.1618E-02  1.3323E-02  2.0367E-02
 35  6.6501E-03  9.5806E-03  2.7635E-02  2.7878E-02  1.5447E-02  2.5213E-02  8.4040E-03  7.0691E-03  9.8382E-03
 36  0.0000E+00  2.4575E-03  2.2070E-03  1.9530E-03  0.0000E+00  0.0000E+00  0.0000E+00  0.0000E+00  5.8260E-03
 37  0.0000E+00  2.2780E-03  0.0000E+00  0.0000E+00  0.0000E+00  0.0000E+00  0.0000E+00  0.0000E+00  0.0000E+00
 38  0.0000E+00  9.0990E-04  0.0000E+00  0.0000E+00  0.0000E+00  0.0000E+00  0.0000E+00  0.0000E+00  0.0000E+00
 39  0.0000E+00  8.9031E-04  0.0000E+00  0.0000E+00  0.0000E+00  0.0000E+00  0.0000E+00  0.0000E+00  0.0000E+00
 40  0.0000E+00  1.0100E-03  0.0000E+00  0.0000E+00  0.0000E+00  0.0000E+00  0.0000E+00  0.0000E+00  0.0000E+00
 41  0.0000E+00  5.1578E-03  0.0000E+00  0.0000E+00  0.0000E+00  0.0000E+00  0.0000E+00  3.2176E-03  0.0000E+00
 42  0.0000E+00  8.3239E-03  0.0000E+00  0.0000E+00  1.0002E-02  0.0000E+00  0.0000E+00  0.0000E+00  0.0000E+00
 43  0.0000E+00  4.7863E-02  0.0000E+00  2.2026E-02  0.0000E+00  4.3536E-02  0.0000E+00  0.0000E+00  0.0000E+00
 44  5.6909E+01  5.2479E+01  5.3100E+01  5.1876E+01  5.3888E+01  5.3744E+01  5.0848E+01  5.5530E+01  5.3979E+01
 45  1.0290E+01  2.6548E+00  5.5709E+00  5.8473E+00  4.6766E+00  5.0424E+00  4.8797E+00  3.6782E+00  4.5378E+00
 46  9.5724E-04  1.0053E+00  9.4023E-01  1.1669E+00  2.1853E+00  1.6674E+00  1.4382E+00  1.2316E+00  9.9426E-01
 47  0.0000E+00  2.5846E-01  2.5378E-01  0.0000E+00  0.0000E+00  0.0000E+00  0.0000E+00  0.0000E+00  2.5366E-01
 48  0.0000E+00  4.3358E-01  0.0000E+00  0.0000E+00  7.9502E-02  0.0000E+00  0.0000E+00  2.2003E-01  0.0000E+00
 49  2.2934E-03  5.5306E-01  1.9786E+00  0.0000E+00  2.4393E-01  6.9196E-01  8.7932E-01  0.0000E+00  1.8121E-01
 50  3.1034E-02  7.5306E-01  5.7499E-01  4.8119E-02  0.0000E+00  4.4514E-01  0.0000E+00  1.4081E-01  9.7423E-01
 51  0.0000E+00  5.5167E-05  0.0000E+00  0.0000E+00  0.0000E+00  0.0000E+00  0.0000E+00  0.0000E+00  0.0000E+00
 52  0.0000E+00  2.8615E-04  3.3535E-04  6.0561E-04  6.8558E-04  0.0000E+00  2.6354E-04  1.9029E-04  7.7389E-04
 53  0.0000E+00  5.0113E-05  0.0000E+00  0.0000E+00  0.0000E+00  0.0000E+00  7.3948E-04  1.9441E-04  0.0000E+00
 54  5.5626E-06  1.0327E-03  1.2493E-03  1.4443E-03  1.3577E-03  8.8342E-04  1.7644E-03  2.0478E-03  0.0000E+00
 55  0.0000E+00  4.6163E-04  5.1165E-05  1.0825E-03  1.0274E-03  2.2949E-03  1.1385E-04  3.8199E-04  1.1118E-03
 56  0.0000E+00  7.9601E-04  0.0000E+00  0.0000E+00  0.0000E+00  1.3924E-04  9.0520E-04  2.2303E-03  1.2946E-03
 57  0.0000E+00  2.9823E-04  0.0000E+00  0.0000E+00  0.0000E+00  0.0000E+00  1.8368E-03  0.0000E+00  0.0000E+00
 58  0.0000E+00  1.0484E-03  0.0000E+00  0.0000E+00  0.0000E+00  0.0000E+00  2.4152E-03  0.0000E+00  0.0000E+00
 59  0.0000E+00  3.9926E-04  0.0000E+00  0.0000E+00  0.0000E+00  2.7077E-03  0.0000E+00  1.2885E-03  0.0000E+00
 60  0.0000E+00  3.7954E-04  0.0000E+00  0.0000E+00  0.0000E+00  0.0000E+00  0.0000E+00  0.0000E+00  4.5501E-04
 61  0.0000E+00  8.4595E-04  0.0000E+00  0.0000E+00  0.0000E+00  4.3615E-04  0.0000E+00  0.0000E+00  4.5903E-04
 62  0.0000E+00  1.6287E-03  0.0000E+00  0.0000E+00  0.0000E+00  1.6204E-03  0.0000E+00  0.0000E+00  0.0000E+00
 63  0.0000E+00  8.3516E-04  3.1872E-03  0.0000E+00  0.0000E+00  1.1336E-02  0.0000E+00  0.0000E+00  0.0000E+00
 64  0.0000E+00  2.9084E-03  0.0000E+00  5.7691E-02  0.0000E+00  0.0000E+00  7.9433E-03  0.0000E+00  3.8482E-03
 65  0.0000E+00  9.4443E-03  0.0000E+00  0.0000E+00  7.4192E-02  0.0000E+00  8.0900E-02  4.2062E-02  0.0000E+00
 66  0.0000E+00  5.3167E-03  0.0000E+00  0.0000E+00  4.8268E-02  8.4397E-02  0.0000E+00  0.0000E+00  2.7927E-02
 67  0.0000E+00  7.0114E-03  0.0000E+00  0.0000E+00  0.0000E+00  0.0000E+00  0.0000E+00  0.0000E+00  0.0000E+00
 68  0.0000E+00  1.2152E-02  0.0000E+00  0.0000E+00  0.0000E+00  1.1264E-02  0.0000E+00  6.7535E-02  0.0000E+00
 69  0.0000E+00  2.9303E-02  0.0000E+00  0.0000E+00  0.0000E+00  0.0000E+00  0.0000E+00  0.0000E+00  0.0000E+00
 70  0.0000E+00  2.9787E-02  0.0000E+00  0.0000E+00  0.0000E+00  0.0000E+00  2.6753E-02  6.4801E-02  0.0000E+00
 71  0.0000E+00  1.0529E-01  4.1462E-02  0.0000E+00  1.6887E-02  0.0000E+00  0.0000E+00  9.8224E-02  0.0000E+00
 72  0.0000E+00  5.0159E-02  0.0000E+00  0.0000E+00  0.0000E+00  1.0033E-01  0.0000E+00  0.0000E+00  0.0000E+00
 73  0.0000E+00  6.2891E-02  0.0000E+00  0.0000E+00  0.0000E+00  1.2956E-01  0.0000E+00  0.0000E+00  0.0000E+00
 74  0.0000E+00  6.1504E-02  6.1172E-01  0.0000E+00  8.0656E-02  0.0000E+00  0.0000E+00  0.0000E+00  3.2576E-02
 75  9.4819E-03  7.2317E-02  1.2061E+00  0.0000E+00  0.0000E+00  8.1080E-02  0.0000E+00  0.0000E+00  5.4132E-01
 76  0.0000E+00  6.2128E-05  6.4776E-04  0.0000E+00  0.0000E+00  6.3073E-04  0.0000E+00  0.0000E+00  0.0000E+00
 77  0.0000E+00  1.5644E-05  1.4357E-05  0.0000E+00  0.0000E+00  0.0000E+00  0.0000E+00  0.0000E+00  0.0000E+00
 78  0.0000E+00  3.5332E-05  0.0000E+00  0.0000E+00  0.0000E+00  0.0000E+00  0.0000E+00  0.0000E+00  0.0000E+00
 79  0.0000E+00  6.4461E-05  7.7126E-05  0.0000E+00  0.0000E+00  0.0000E+00  0.0000E+00  0.0000E+00  0.0000E+00
 80  0.0000E+00  9.1741E-05  0.0000E+00  0.0000E+00  0.0000E+00  0.0000E+00  0.0000E+00  0.0000E+00  0.0000E+00
 81  0.0000E+00  1.0494E-04  0.0000E+00  0.0000E+00  0.0000E+00  0.0000E+00  0.0000E+00  0.0000E+00  0.0000E+00
 82  0.0000E+00  1.3078E-04  0.0000E+00  0.0000E+00  0.0000E+00  0.0000E+00  0.0000E+00  0.0000E+00  0.0000E+00
 83  0.0000E+00  5.8985E-04  0.0000E+00  0.0000E+00  0.0000E+00  0.0000E+00  0.0000E+00  0.0000E+00  0.0000E+00
 84  0.0000E+00  6.3047E-04  0.0000E+00  0.0000E+00  0.0000E+00  3.5154E-03  0.0000E+00  0.0000E+00  0.0000E+00
 85  0.0000E+00  7.9180E-04  0.0000E+00  0.0000E+00  0.0000E+00  0.0000E+00  0.0000E+00  0.0000E+00  0.0000E+00
 86  0.0000E+00  1.2683E-03  4.1548E-03  2.4459E-03  0.0000E+00  0.0000E+00  0.0000E+00  3.0658E-05  0.0000E+00
 87  0.0000E+00  1.2941E-03  0.0000E+00  0.0000E+00  0.0000E+00  1.0289E-02  0.0000E+00  0.0000E+00  0.0000E+00
 88  0.0000E+00  7.0340E-04  0.0000E+00  0.0000E+00  0.0000E+00  0.0000E+00  0.0000E+00  0.0000E+00  0.0000E+00
 89  0.0000E+00  1.0928E-03  0.0000E+00  6.1743E-03  0.0000E+00  0.0000E+00  0.0000E+00  0.0000E+00  0.0000E+00
 90  0.0000E+00  9.1550E-04  0.0000E+00  0.0000E+00  0.0000E+00  0.0000E+00  0.0000E+00  0.0000E+00  5.5640E-03
 91  0.0000E+00  3.3825E-03  0.0000E+00  0.0000E+00  0.0000E+00  3.3550E-03  0.0000E+00  0.0000E+00  0.0000E+00
 92  0.0000E+00  6.2125E-03  0.0000E+00  0.0000E+00  0.0000E+00  3.5032E-02  1.6960E-02  0.0000E+00  0.0000E+00
 93  1.6711E-03  2.3226E-02  2.6415E-01  0.0000E+00  0.0000E+00  4.7302E-02  9.7824E-02  0.0000E+00  1.9558E-02
 94  0.0000E+00  4.6823E-02  3.4818E-01  1.7852E-01  0.0000E+00  0.0000E+00  0.0000E+00  6.0093E-02  2.0574E-01
 95  0.0000E+00  6.7388E-02  0.0000E+00  0.0000E+00  9.1733E-02  4.7792E-02  0.0000E+00  5.1649E-01  0.0000E+00
 96  0.0000E+00  8.2666E-02  7.4724E-02  0.0000E+00  0.0000E+00  0.0000E+00  0.0000E+00  0.0000E+00  1.0460E+00
 97  0.0000E+00  7.5596E-02  0.0000E+00  0.0000E+00  3.5071E-01  0.0000E+00  0.0000E+00  8.3634E-01  0.0000E+00
 98  0.0000E+00  1.2264E-01  0.0000E+00  0.0000E+00  9.6979E-01  0.0000E+00  0.0000E+00  0.0000E+00  0.0000E+00
 99  0.0000E+00  1.5129E-01  0.0000E+00  0.0000E+00  0.0000E+00  8.3812E-01  0.0000E+00  4.9854E-01  3.0228E-01
100  0.0000E+00  1.8339E-01  0.0000E+00  0.0000E+00  0.0000E+00  0.0000E+00  0.0000E+00  0.0000E+00  0.0000E+00
101  0.0000E+00  1.9651E-05  0.0000E+00  0.0000E+00  0.0000E+00  0.0000E+00  0.0000E+00  0.0000E+00  0.0000E+00
102  0.0000E+00  2.4526E-05  0.0000E+00  0.0000E+00  0.0000E+00  0.0000E+00  0.0000E+00  0.0000E+00  0.0000E+00
103  0.0000E+00  1.8351E-04  0.0000E+00  0.0000E+00  0.0000E+00  0.0000E+00  0.0000E+00  0.0000E+00  2.2673E-04
104  0.0000E+00  1.3485E-04  0.0000E+00  0.0000E+00  0.0000E+00  0.0000E+00  0.0000E+00  5.9048E-04  3.0199E-05
105  0.0000E+00  2.4236E-04  0.0000E+00  0.0000E+00  0.0000E+00  0.0000E+00  0.0000E+00  0.0000E+00  0.0000E+00
106  0.0000E+00  5.0699E-04  1.9674E-03  0.0000E+00  1.4980E-03  9.1194E-04  0.0000E+00  0.0000E+00  6.4211E-05
107  0.0000E+00  4.0441E-04  0.0000E+00  2.7138E-04  0.0000E+00  0.0000E+00  0.0000E+00  1.8405E-04  1.0618E-03
108  0.0000E+00  1.3420E-04  0.0000E+00  0.0000E+00  0.0000E+00  0.0000E+00  0.0000E+00  0.0000E+00  3.6944E-04
109  0.0000E+00  3.3358E-04  0.0000E+00  0.0000E+00  0.0000E+00  0.0000E+00  6.1825E-05  0.0000E+00  2.0999E-04
110  0.0000E+00  5.4747E-04  0.0000E+00  0.0000E+00  0.0000E+00  0.0000E+00  0.0000E+00  0.0000E+00  0.0000E+00
111  0.0000E+00  8.1738E-04  0.0000E+00  0.0000E+00  0.0000E+00  0.0000E+00  0.0000E+00  0.0000E+00  0.0000E+00
112  0.0000E+00  7.1891E-04  4.2900E-03  0.0000E+00  0.0000E+00  0.0000E+00  0.0000E+00  0.0000E+00  0.0000E+00
113  0.0000E+00  7.0169E-04  0.0000E+00  4.3620E-03  0.0000E+00  0.0000E+00  0.0000E+00  0.0000E+00  0.0000E+00
114  0.0000E+00  6.8323E-04  0.0000E+00  0.0000E+00  0.0000E+00  4.5208E-03  0.0000E+00  2.9754E-03  0.0000E+00
115  0.0000E+00  2.7526E-03  0.0000E+00  0.0000E+00  0.0000E+00  0.0000E+00  0.0000E+00  0.0000E+00  0.0000E+00
116  0.0000E+00  5.4922E-03  0.0000E+00  0.0000E+00  0.0000E+00  0.0000E+00  0.0000E+00  0.0000E+00  0.0000E+00
117  0.0000E+00  6.3331E-03  0.0000E+00  0.0000E+00  5.7595E-02  0.0000E+00  0.0000E+00  5.3120E-03  0.0000E+00
118  0.0000E+00  2.5314E-02  3.1079E-02  0.0000E+00  0.0000E+00  0.0000E+00  0.0000E+00  0.0000E+00  0.0000E+00
119  0.0000E+00  4.9572E-02  0.0000E+00  0.0000E+00  0.0000E+00  0.0000E+00  2.9151E-01  1.2942E-01  0.0000E+00
120  0.0000E+00  7.2445E-02  3.8075E-01  0.0000E+00  0.0000E+00  0.0000E+00  0.0000E+00  1.9783E-01  3.2303E-02
121  0.0000E+00  9.1926E-02  6.9332E-02  5.8907E-01  0.0000E+00  1.7739E-01  8.2744E-02  0.0000E+00  0.0000E+00
122  0.0000E+00  1.8791E-01  0.0000E+00  0.0000E+00  1.4770E+00  1.2399E+00  0.0000E+00  4.7326E-01  0.0000E+00
123  0.0000E+00  1.8741E-01  4.1698E-01  0.0000E+00  0.0000E+00  0.0000E+00  7.7792E-02  0.0000E+00  0.0000E+00
124  0.0000E+00  2.5633E-01  8.0624E-01  1.3539E-01  0.0000E+00  0.0000E+00  1.1842E+00  0.0000E+00  1.0605E+00
125  0.0000E+00  2.5918E-01  0.0000E+00  0.0000E+00  0.0000E+00  1.9962E+00  0.0000E+00  0.0000E+00  0.0000E+00
126  0.0000E+00  2.2741E-05  0.0000E+00  7.0733E-06  0.0000E+00  0.0000E+00  0.0000E+00  0.0000E+00  0.0000E+00
127  0.0000E+00  1.6959E-05  1.0244E-05  0.0000E+00  0.0000E+00  0.0000E+00  0.0000E+00  0.0000E+00  6.5189E-07
128  0.0000E+00  4.1711E-05  0.0000E+00  0.0000E+00  0.0000E+00  0.0000E+00  0.0000E+00  1.7395E-04  0.0000E+00
129  0.0000E+00  5.4987E-05  0.0000E+00  0.0000E+00  0.0000E+00  0.0000E+00  0.0000E+00  0.0000E+00  0.0000E+00
130  0.0000E+00  9.4545E-05  0.0000E+00  0.0000E+00  2.4049E-04  0.0000E+00  0.0000E+00  1.1041E-03  0.0000E+00
131  0.0000E+00  7.7326E-05  0.0000E+00  3.0288E-04  0.0000E+00  0.0000E+00  0.0000E+00  0.0000E+00  0.0000E+00
132  0.0000E+00  9.9081E-05  0.0000E+00  0.0000E+00  1.7967E-03  0.0000E+00  0.0000E+00  0.0000E+00  0.0000E+00
133  0.0000E+00  2.1573E-04  0.0000E+00  0.0000E+00  0.0000E+00  0.0000E+00  0.0000E+00  0.0000E+00  0.0000E+00
134  0.0000E+00  3.5890E-04  0.0000E+00  0.0000E+00  0.0000E+00  0.0000E+00  0.0000E+00  0.0000E+00  0.0000E+00
135  0.0000E+00  6.4618E-04  3.9549E-04  0.0000E+00  0.0000E+00  0.0000E+00  0.0000E+00  0.0000E+00  0.0000E+00
136  0.0000E+00  9.3032E-04  6.3123E-04  0.0000E+00  0.0000E+00  0.0000E+00  0.0000E+00  0.0000E+00  0.0000E+00
137  0.0000E+00  8.3441E-04  0.0000E+00  0.0000E+00  0.0000E+00  2.1044E-04  1.4645E-03  0.0000E+00  0.0000E+00
138  0.0000E+00  6.3932E-04  0.0000E+00  0.0000E+00  0.0000E+00  0.0000E+00  0.0000E+00  0.0000E+00  0.0000E+00
139  0.0000E+00  1.2515E-03  0.0000E+00  0.0000E+00  2.9046E-03  0.0000E+00  0.0000E+00  0.0000E+00  0.0000E+00
140  0.0000E+00  1.9591E-02  0.0000E+00  0.0000E+00  0.0000E+00  0.0000E+00  0.0000E+00  0.0000E+00  0.0000E+00
141  0.0000E+00  1.8751E-01  0.0000E+00  0.0000E+00  0.0000E+00  0.0000E+00  9.6678E-02  0.0000E+00  0.0000E+00
142  0.0000E+00  4.9480E-01  9.2179E-02  0.0000E+00  0.0000E+00  0.0000E+00  0.0000E+00  0.0000E+00  0.0000E+00
143  0.0000E+00  3.4547E-02  0.0000E+00  1.7512E-01  1.4740E-01  0.0000E+00  0.0000E+00  0.0000E+00  0.0000E+00
144  0.0000E+00  2.7586E-01  5.0148E-01  3.3364E-02  5.1325E-01  5.9535E-01  4.3358E-01  0.0000E+00  0.0000E+00
145  1.0289E+01  2.5599E+00  2.9248E+00  2.8029E+00  2.9758E+00  2.8566E+00  3.5079E+00  3.2667E+00  1.9796E+00
146  9.2027E+00  3.8338E+00  3.8481E+00  3.8779E+00  3.0491E+00  5.0920E+00  4.1572E+00  4.2523E+00  2.9108E+00
147  4.1383E+00  3.8768E+00  3.0849E+00  3.7090E+00  4.2122E+00  4.1113E+00  4.7714E+00  3.4311E+00  3.7375E+00
148  8.2145E-03  6.7829E+00  4.8279E+00  6.2905E+00  3.6351E+00  3.2035E+00  3.2342E+00  7.1797E+00  8.3466E+00
149  2.6454E-03  5.8883E+00  3.1562E+00  4.2562E+00  5.7966E+00  2.9351E+00  5.5986E+00  4.2567E+00  6.9675E+00
150  1.1387E-02  8.7358E+00  6.7570E+00  1.0655E+01  7.9935E+00  8.0782E+00  9.1940E+00  7.5687E+00  5.6414E+00

# AV, chi2 & Mass for <> & i_chain = 1 ...  7 solutions
AV       0.8801      0.8299      0.8712      0.8531      0.8627      0.8606      0.8518      0.8594      0.8558
chi2 1.6864E+00  1.7932E+00  1.7211E+00  1.7334E+00  1.7272E+00  1.7272E+00  1.7320E+00  1.7305E+00  1.7329E+00
Mass 2.7832E-10  3.0045E-10  2.9836E-10  3.0570E-10  2.9960E-10  2.9719E-10  3.0710E-10  2.9724E-10  3.0301E-10
 -13.84                                  [v0_min (km/s) before EX0s...]
  60.80                                  [vd_min (km/s) before EX0s...]


## Synthetic spectrum (Best Model) ##l_obs f_obs f_syn wei
 3070    [Nl_obs]
 3359.00    0.25238   0.41506   -1.000
 3360.00    0.24574   0.40569   -1.000
 3361.00    0.24522   0.41677   -1.000
 3362.00    0.24984   0.44008   -1.000
 3363.00    0.25762   0.46515   -1.000
 3364.00    0.26771   0.47900   -1.000
 3365.00    0.27466   0.47734   -1.000
 3366.00    0.27488   0.46998   -1.000
 3367.00    0.27125   0.46260   -1.000
 3368.00    0.28024   0.45471   -1.000
 3369.00    0.27468   0.44402   -1.000
 3370.00    0.26290   0.42904   -1.000
 3371.00    0.27390   0.41946   -1.000
 3372.00    0.27616   0.42373   -1.000
 3373.00    0.27832   0.44066   -1.000
 3374.00    0.31098   0.46248   -1.000
 3375.00    0.32853   0.48150   -1.000
 3376.00    0.34704   0.48991   -1.000
 3377.00    0.35677   0.48619   -1.000
 3378.00    0.35318   0.47576   -1.000
 3379.00    0.36423   0.46823   -1.000
 3380.00    0.36385   0.46883   -1.000
 3381.00    0.35247   0.47442   -1.000
 3382.00    0.35816   0.48063   -1.000
 3383.00    0.37300   0.48608   -1.000
 3384.00    0.37154   0.49098   -1.000
 3385.00    0.37823   0.49312   -1.000
 3386.00    0.38811   0.48753   -1.000
 3387.00    0.38222   0.47813   -1.000
 3388.00    0.39970   0.47527   -1.000
 3389.00    0.38303   0.48188   -1.000
 3390.00    0.39539   0.49082   -1.000
 3391.00    0.38036   0.49407   -1.000
 3392.00    0.35239   0.48877   -1.000
 3393.00    0.36941   0.48459   -1.000
 3394.00    0.39659   0.48918   -1.000
 3395.00    0.40483   0.50067   -1.000
 3396.00    0.42244   0.51423   -1.000
 3397.00    0.43073   0.52506   -1.000
 3398.00    0.44186   0.53169   -1.000
 3399.00    0.45237   0.53219   -1.000
 3400.00    0.44464   0.52651   -1.000
 3401.00    0.42293   0.51444   -1.000
 3402.00    0.43802   0.49946   -1.000
 3403.00    0.45240   0.49031   -1.000
 3404.00    0.42750   0.48822   -1.000
 3405.00    0.44100   0.49097   -1.000
 3406.00    0.42876   0.49079   -1.000
 3407.00    0.41190   0.48537   -1.000
 3408.00    0.42539   0.48020   -1.000
 3409.00    0.44058   0.48267   -1.000
 3410.00    0.42875   0.48918   -1.000
 3411.00    0.43303   0.48971   -1.000
 3412.00    0.43817   0.48488   -1.000
 3413.00    0.43928   0.47995   -1.000
 3414.00    0.44167   0.48260   -1.000
 3415.00    0.41783   0.49316   -1.000
 3416.00    0.40226   0.50472   -1.000
 3417.00    0.44203   0.51373   -1.000
 3418.00    0.46434   0.52056   -1.000
 3419.00    0.47653   0.52615   -1.000
 3420.00    0.48390   0.52946   -1.000
 3421.00    0.47843   0.52605   -1.000
 3422.00    0.46293   0.51430   -1.000
 3423.00    0.45349   0.50178   -1.000
 3424.00    0.47061   0.49721   -1.000
 3425.00    0.48881   0.50086   -1.000
 3426.00    0.49197   0.50830   -1.000
 3427.00    0.48676   0.51904   -1.000
 3428.00    0.48949   0.53307   -1.000
 3429.00    0.49480   0.54524   -1.000
 3430.00    0.48636   0.54605   -1.000
 3431.00    0.48496   0.53301   -1.000
 3432.00    0.48997   0.51820   -1.000
 3433.00    0.47780   0.51448   -1.000
 3434.00    0.47773   0.52454   -1.000
 3435.00    0.51510   0.53690   -1.000
 3436.00    0.51907   0.53866  157.764
 3437.00    0.50221   0.52922   -1.000
 3438.00    0.49283   0.51513  152.160
 3439.00    0.46100   0.50015   -1.000
 3440.00    0.44418   0.48527   -1.000
 3441.00    0.43203   0.47257   -1.000
 3442.00    0.43997   0.46668   -1.000
 3443.00    0.44873   0.46906   -1.000
 3444.00    0.44168   0.47787   -1.000
 3445.00    0.43767   0.49162   -1.000
 3446.00    0.46284   0.51020   -1.000
 3447.00    0.48786   0.52982   -1.000
 3448.00    0.50951   0.54421   -1.000
 3449.00    0.52665   0.54648   -1.000
 3450.00    0.53771   0.53346   -1.000
 3451.00    0.53339   0.51430   -1.000
 3452.00    0.50780   0.50154   -1.000
 3453.00    0.48941   0.50010  153.670
 3454.00    0.51851   0.50661  128.115
 3455.00    0.50928   0.51426  127.737
 3456.00    0.54537   0.51775   -1.000
 3457.00    0.54416   0.51584   -1.000
 3458.00    0.53288   0.50984   -1.000
 3459.00    0.52034   0.50146   -1.000
 3460.00    0.50416   0.49308   -1.000
 3461.00    0.48508   0.49138  884.742
 3462.00    0.49237   0.49900   -1.000
 3463.00    0.51277   0.50840   -1.000
 3464.00    0.52624   0.51174   -1.000
 3465.00    0.52428   0.50991   -1.000
 3466.00    0.53608   0.51173   -1.000
 3467.00    0.54012   0.52134   -1.000
 3468.00    0.54774   0.53503   -1.000
 3469.00    0.56027   0.54591  150.530
 3470.00    0.56439   0.54881  131.795
 3471.00    0.56572   0.54334   -1.000
 3472.00    0.53991   0.53139   -1.000
 3473.00    0.52965   0.51468   -1.000
 3474.00    0.51827   0.49991   -1.000
 3475.00    0.45955   0.49282   -1.000
 3476.00    0.48604   0.49600   -1.000
 3477.00    0.48518   0.50793   -1.000
 3478.00    0.50801   0.52138   -1.000
 3479.00    0.50756   0.53268   -1.000
 3480.00    0.53538   0.54065   -1.000
 3481.00    0.54601   0.54214   -1.000
 3482.00    0.53439   0.53814  884.742
 3483.00    0.53087   0.53347  884.742
 3484.00    0.52593   0.53361   -1.000
 3485.00    0.52586   0.54103   -1.000
 3486.00    0.53822   0.54924   -1.000
 3487.00    0.56243   0.55011   -1.000
 3488.00    0.54088   0.54210  884.742
 3489.00    0.49879   0.52883   -1.000
 3490.00    0.51465   0.51947  884.742
 3491.00    0.48932   0.52105   -1.000
 3492.00    0.49370   0.52822   -1.000
 3493.00    0.50346   0.53092   -1.000
 3494.00    0.48680   0.52650   -1.000
 3495.00    0.48330   0.51752   -1.000
 3496.00    0.49920   0.51122   -1.000
 3497.00    0.51779   0.51254   -1.000
 3498.00    0.50000   0.51841   -1.000
 3499.00    0.50699   0.52480   -1.000
 3500.00    0.53089   0.52726  884.742
 3501.00    0.53033   0.52824  884.742
 3502.00    0.53241   0.53138  884.742
 3503.00    0.53246   0.53407  884.742
 3504.00    0.53036   0.53310  884.742
 3505.00    0.55820   0.52780   -1.000
 3506.00    0.53823   0.52201   -1.000
 3507.00    0.54387   0.51861   -1.000
 3508.00    0.54904   0.51801   -1.000
 3509.00    0.55284   0.51907   -1.000
 3510.00    0.55148   0.51864   -1.000
 3511.00    0.50581   0.51569   -1.000
 3512.00    0.49641   0.51077   -1.000
 3513.00    0.50115   0.50728   -1.000
 3514.00    0.48375   0.50991   -1.000
 3515.00    0.49434   0.52150   -1.000
 3516.00    0.53018   0.53938   -1.000
 3517.00    0.57202   0.55284   -1.000
 3518.00    0.56779   0.55302  137.372
 3519.00    0.53857   0.54111  130.867
 3520.00    0.52737   0.52720  130.425
 3521.00    0.52733   0.51760   -1.000
 3522.00    0.50896   0.51164  884.742
 3523.00    0.50797   0.50530   -1.000
 3524.00    0.49425   0.49728  884.742
 3525.00    0.48077   0.49351   -1.000
 3526.00    0.49756   0.49910  884.742
 3527.00    0.48345   0.51161   -1.000
 3528.00    0.50545   0.52724   -1.000
 3529.00    0.54059   0.54134  884.742
 3530.00    0.54034   0.55068   -1.000
 3531.00    0.54048   0.55387   -1.000
 3532.00    0.54855   0.54878  884.742
 3533.00    0.54856   0.53806   -1.000
 3534.00    0.56330   0.53037   -1.000
 3535.00    0.58756   0.53232   -1.000
 3536.00    0.58075   0.54434   -1.000
 3537.00    0.56120   0.55878  884.742
 3538.00    0.56547   0.56872   -1.000
 3539.00    0.57138   0.57289   -1.000
 3540.00    0.60972   0.57226   -1.000
 3541.00    0.58837   0.56997   -1.000
 3542.00    0.55380   0.57034   -1.000
 3543.00    0.56563   0.57469   -1.000
 3544.00    0.55698   0.57851   -1.000
 3545.00    0.58328   0.57812  884.742
 3546.00    0.58294   0.57473   -1.000
 3547.00    0.56619   0.57097   -1.000
 3548.00    0.58754   0.56953   -1.000
 3549.00    0.58097   0.57183   -1.000
 3550.00    0.56532   0.57688   -1.000
 3551.00    0.55445   0.57971   -1.000
 3552.00    0.54271   0.57510   -1.000
 3553.00    0.55469   0.56560   -1.000
 3554.00    0.55256   0.55927   -1.000
 3555.00    0.55612   0.56054   -1.000
 3556.00    0.55218   0.56781   -1.000
 3557.00    0.56707   0.57649   -1.000
 3558.00    0.55765   0.58108   -1.000
 3559.00    0.55930   0.58111   -1.000
 3560.00    0.58100   0.58019  133.142
 3561.00    0.54421   0.57961   -1.000
 3562.00    0.56625   0.57604  130.904
 3563.00    0.59162   0.56588   -1.000
 3564.00    0.57585   0.55016   -1.000
 3565.00    0.53102   0.53476  133.539
 3566.00    0.53050   0.52607  127.539
 3567.00    0.48226   0.52455   -1.000
 3568.00    0.49127   0.52491   -1.000
 3569.00    0.50456   0.52126   -1.000
 3570.00    0.50173   0.51300   -1.000
 3571.00    0.50351   0.50605  884.742
 3572.00    0.51570   0.50477   -1.000
 3573.00    0.51871   0.50775  132.327
 3574.00    0.53428   0.51350   -1.000
 3575.00    0.56454   0.52128   -1.000
 3576.00    0.54640   0.52910  151.563
 3577.00    0.53115   0.53538  152.229
 3578.00    0.50952   0.53715   -1.000
 3579.00    0.52721   0.53157  161.292
 3580.00    0.51619   0.52125  163.324
 3581.00    0.50101   0.51121  154.914
 3582.00    0.50463   0.50618  146.649
 3583.00    0.51013   0.50557  139.398
 3584.00    0.49428   0.50093  130.083
 3585.00    0.46586   0.48802   -1.000
 3586.00    0.45422   0.47415   -1.000
 3587.00    0.44604   0.47053   -1.000
 3588.00    0.46067   0.48133   -1.000
 3589.00    0.49129   0.50121   -1.000
 3590.00    0.51409   0.52010   -1.000
 3591.00    0.53048   0.53166  884.742
 3592.00    0.51752   0.53624   -1.000
 3593.00    0.52595   0.53888   -1.000
 3594.00    0.54187   0.54469   -1.000
 3595.00    0.56924   0.55439   -1.000
 3596.00    0.53353   0.56374   -1.000
 3597.00    0.53628   0.56963   -1.000
 3598.00    0.57609   0.57236  884.742
 3599.00    0.60712   0.57273   -1.000
 3600.00    0.60061   0.56850   -1.000
 3601.00    0.56857   0.55847   -1.000
 3602.00    0.54574   0.54760  884.742
 3603.00    0.55700   0.54172   -1.000
 3604.00    0.54662   0.54292   -1.000
 3605.00    0.53060   0.54572   -1.000
 3606.00    0.56412   0.54467   -1.000
 3607.00    0.55170   0.54024   -1.000
 3608.00    0.54502   0.53556   -1.000
 3609.00    0.52438   0.53320   -1.000
 3610.00    0.50636   0.53360   -1.000
 3611.00    0.51138   0.53712   -1.000
 3612.00    0.55587   0.54298   -1.000
 3613.00    0.56151   0.54992  134.985
 3614.00    0.57375   0.55977   -1.000
 3615.00    0.57445   0.57004   -1.000
 3616.00    0.55317   0.57179   -1.000
 3617.00    0.54767   0.56248   -1.000
 3618.00    0.53206   0.54789   -1.000
 3619.00    0.50294   0.53966   -1.000
 3620.00    0.51083   0.54475   -1.000
 3621.00    0.52769   0.55743   -1.000
 3622.00    0.54845   0.56926   -1.000
 3623.00    0.55797   0.57750   -1.000
 3624.00    0.57263   0.58595   -1.000
 3625.00    0.57061   0.59905   -1.000
 3626.00    0.59323   0.61491   -1.000
 3627.00    0.61153   0.62450   -1.000
 3628.00    0.61750   0.61783   -1.000
 3629.00    0.58781   0.59512   -1.000
 3630.00    0.53595   0.56742   -1.000
 3631.00    0.51707   0.55016   -1.000
 3632.00    0.48878   0.55035   -1.000
 3633.00    0.51265   0.56202   -1.000
 3634.00    0.52664   0.57262   -1.000
 3635.00    0.54471   0.57645   -1.000
 3636.00    0.54563   0.57927   -1.000
 3637.00    0.55207   0.58708   -1.000
 3638.00    0.59315   0.59736   -1.000
 3639.00    0.59543   0.60409   -1.000
 3640.00    0.60026   0.60412   -1.000
 3641.00    0.58217   0.59739   -1.000
 3642.00    0.57500   0.58673   -1.000
 3643.00    0.56747   0.57666   -1.000
 3644.00    0.56791   0.56942  884.742
 3645.00    0.57100   0.56479   -1.000
 3646.00    0.53294   0.56208   -1.000
 3647.00    0.53481   0.56133   -1.000
 3648.00    0.52812   0.56177   -1.000
 3649.00    0.52792   0.56298   -1.000
 3650.00    0.54812   0.56640   -1.000
 3651.00    0.56853   0.57367   -1.000
 3652.00    0.56937   0.58458   -1.000
 3653.00    0.56803   0.59645   -1.000
 3654.00    0.58573   0.60802   -1.000
 3655.00    0.61155   0.61837   -1.000
 3656.00    0.60424   0.62570   -1.000
 3657.00    0.59715   0.62882   -1.000
 3658.00    0.59486   0.62851   -1.000
 3659.00    0.59669   0.62633   -1.000
 3660.00    0.60463   0.62197   -1.000
 3661.00    0.60060   0.61543   -1.000
 3662.00    0.59107   0.60897   -1.000
 3663.00    0.60012   0.60571   -1.000
 3664.00    0.59223   0.60692   -1.000
 3665.00    0.60259   0.61005   -1.000
 3666.00    0.61848   0.61159  884.742
 3667.00    0.60999   0.60965  884.742
 3668.00    0.57954   0.60471   -1.000
 3669.00    0.57593   0.60029   -1.000
 3670.00    0.58115   0.59996   -1.000
 3671.00    0.60463   0.60489   -1.000
 3672.00    0.61080   0.61230   -1.000
 3673.00    0.61301   0.61676   -1.000
 3674.00    0.62496   0.61539   -1.000
 3675.00    0.61681   0.60842   -1.000
 3676.00    0.59951   0.59714  884.742
 3677.00    0.57116   0.58505   -1.000
 3678.00    0.54909   0.57727   -1.000
 3679.00    0.57392   0.57700   -1.000
 3680.00    0.56673   0.58160   -1.000
 3681.00    0.57172   0.58665   -1.000
 3682.00    0.58892   0.58978   -1.000
 3683.00    0.58478   0.58959   -1.000
 3684.00    0.58002   0.58576   -1.000
 3685.00    0.56169   0.57936   -1.000
 3686.00    0.55610   0.57542   -1.000
 3687.00    0.56561   0.58045   -1.000
 3688.00    0.58254   0.59548   -1.000
 3689.00    0.59493   0.61210   -1.000
 3690.00    0.61366   0.62108   -1.000
 3691.00    0.62638   0.62250  882.550
 3692.00    0.62872   0.62210  854.556
 3693.00    0.62400   0.62391   -1.000
 3694.00    0.61835   0.62690   -1.000
 3695.00    0.61893   0.62677   -1.000
 3696.00    0.60244   0.62204   -1.000
 3697.00    0.59940   0.62037   -1.000
 3698.00    0.60782   0.63061   -1.000
 3699.00    0.63360   0.65017   -1.000
 3700.00    0.66471   0.66485   -1.000
 3701.00    0.66797   0.65802   -1.000
 3702.00    0.63706   0.62817   -1.000
 3703.00    0.59052   0.58989  884.742
 3704.00    0.56300   0.56179  884.742
 3705.00    0.55067   0.55423   -1.000
 3706.00    0.54205   0.56457   -1.000
 3707.00    0.56328   0.58202   -1.000
 3708.00    0.58947   0.59427  821.080
 3709.00    0.58136   0.59316   -1.000
 3710.00    0.59195   0.58185   -1.000
 3711.00    0.60668   0.57278   -1.000
 3712.00    0.63631   0.57819   -1.000
 3713.00    0.67248   0.60193   -1.000
 3714.00    0.70124   0.63576   -1.000
 3715.00    0.73577   0.66563   -1.000
 3716.00    0.73903   0.68202   -1.000
 3717.00    0.75390   0.68058   -1.000
 3718.00    0.75971   0.65703   -1.000
 3719.00    0.75858   0.61116   -1.000
 3720.00    0.75502   0.55702   -1.000
 3721.00    0.76682   0.52089   -1.000
 3722.00    0.76091   0.51932   -1.000
 3723.00    0.76138   0.55164   -1.000
 3724.00    0.75328   0.60165   -1.000
 3725.00    0.73071   0.64414   -1.000
 3726.00    0.70851   0.66688   -1.000
 3727.00    0.69384   0.67641  129.983
 3728.00    0.68676   0.68172  142.954
 3729.00    0.69610   0.68366  144.713
 3730.00    0.67920   0.67370  135.493
 3731.00    0.65031   0.64037  166.314
 3732.00    0.60011   0.58537   -1.000
 3733.00    0.53790   0.52817   -1.000
 3734.00    0.49122   0.48920  884.742
 3735.00    0.47553   0.48310   -1.000
 3736.00    0.50211   0.51193   -1.000
 3737.00    0.54714   0.56228   -1.000
 3738.00    0.59685   0.61767   -1.000
 3739.00    0.66483   0.66699  884.742
 3740.00    0.70459   0.69843   -1.000
 3741.00    0.71941   0.70701  130.338
 3742.00    0.70516   0.69751  136.794
 3743.00    0.66667   0.67959  186.224
 3744.00    0.65356   0.65820  884.742
 3745.00    0.61560   0.63421   -1.000
 3746.00    0.57437   0.60549   -1.000
 3747.00    0.54534   0.57038   -1.000
 3748.00    0.49827   0.53292   -1.000
 3749.00    0.46477   0.50429   -1.000
 3750.00    0.48206   0.50174   -1.000
 3751.00    0.55889   0.53361   -1.000
 3752.00    0.62535   0.58846   -1.000
 3753.00    0.67661   0.64590   -1.000
 3754.00    0.72582   0.68980   -1.000
 3755.00    0.75125   0.71316   -1.000
 3756.00    0.73030   0.71432   -1.000
 3757.00    0.68434   0.69830   -1.000
 3758.00    0.65275   0.67907   -1.000
 3759.00    0.66317   0.66865  884.742
 3760.00    0.67802   0.67062   -1.000
 3761.00    0.68987   0.68190   -1.000
 3762.00    0.70192   0.69374   -1.000
 3763.00    0.70112   0.69883   -1.000
 3764.00    0.70851   0.69494   -1.000
 3765.00    0.70299   0.68298   -1.000
 3766.00    0.67445   0.66340   -1.000
 3767.00    0.63996   0.63389   -1.000
 3768.00    0.62751   0.59566   -1.000
 3769.00    0.60080   0.55867   -1.000
 3770.00    0.58086   0.53843   -1.000
 3771.00    0.58982   0.54787   -1.000
 3772.00    0.63877   0.58410   -1.000
 3773.00    0.67871   0.62989   -1.000
 3774.00    0.70046   0.66697   -1.000
 3775.00    0.71827   0.69069   -1.000
 3776.00    0.73229   0.70859   -1.000
 3777.00    0.74950   0.72969   -1.000
 3778.00    0.76724   0.75478   -1.000
 3779.00    0.79995   0.77906   -1.000
 3780.00    0.82373   0.79783   -1.000
 3781.00    0.83166   0.80737   -1.000
 3782.00    0.83823   0.80790   -1.000
 3783.00    0.83467   0.80264   -1.000
 3784.00    0.84129   0.79387   -1.000
 3785.00    0.80709   0.78081   -1.000
 3786.00    0.76189   0.76392  884.742
 3787.00    0.75410   0.74696   -1.000
 3788.00    0.75853   0.73598   -1.000
 3789.00    0.75870   0.73251   -1.000
 3790.00    0.75219   0.73168   -1.000
 3791.00    0.73300   0.72688   -1.000
 3792.00    0.71234   0.71318  884.742
 3793.00    0.69954   0.68769   -1.000
 3794.00    0.66334   0.65044   -1.000
 3795.00    0.60755   0.60554  884.742
 3796.00    0.56704   0.55978   -1.000
 3797.00    0.53120   0.52363   -1.000
 3798.00    0.51584   0.51310  884.742
 3799.00    0.55735   0.53975   -1.000
 3800.00    0.62804   0.59663   -1.000
 3801.00    0.69863   0.66018   -1.000
 3802.00    0.74840   0.71132   -1.000
 3803.00    0.77648   0.74308   -1.000
 3804.00    0.78707   0.75907   -1.000
 3805.00    0.78343   0.76450   -1.000
 3806.00    0.77260   0.76736  884.742
 3807.00    0.77611   0.77551  884.742
 3808.00    0.79247   0.79125  884.742
 3809.00    0.81097   0.80984  884.742
 3810.00    0.83155   0.82167   -1.000
 3811.00    0.83734   0.81738   -1.000
 3812.00    0.82098   0.79654   -1.000
 3813.00    0.79763   0.77054   -1.000
 3814.00    0.76645   0.75312   -1.000
 3815.00    0.75871   0.75221   -1.000
 3816.00    0.76818   0.76418   -1.000
 3817.00    0.77964   0.77734   -1.000
 3818.00    0.79491   0.77886   -1.000
 3819.00    0.78037   0.76642  133.535
 3820.00    0.75690   0.75160  134.645
 3821.00    0.75269   0.74630  132.983
 3822.00    0.76483   0.74939  130.797
 3823.00    0.74051   0.74589  130.284
 3824.00    0.70613   0.72846  133.829
 3825.00    0.68413   0.70694  142.011
 3826.00    0.67779   0.69089  150.469
 3827.00    0.68007   0.68048  151.577
 3828.00    0.67186   0.67150  147.035
 3829.00    0.67172   0.66063  142.259
 3830.00    0.67082   0.64379   -1.000
 3831.00    0.63032   0.61580   -1.000
 3832.00    0.57735   0.57420  145.971
 3833.00    0.54493   0.52517   -1.000
 3834.00    0.52028   0.48593   -1.000
 3835.00    0.51083   0.47058   -1.000
 3836.00    0.50778   0.48136   -1.000
 3837.00    0.52389   0.51216   -1.000
 3838.00    0.55872   0.55203   -1.000
 3839.00    0.60027   0.59191   -1.000
 3840.00    0.63306   0.63055   -1.000
 3841.00    0.65857   0.66954   -1.000
 3842.00    0.71545   0.70794   -1.000
 3843.00    0.77492   0.74260   -1.000
 3844.00    0.79069   0.76850   -1.000
 3845.00    0.79045   0.78586   -1.000
 3846.00    0.79405   0.79875   -1.000
 3847.00    0.80637   0.80817   -1.000
 3848.00    0.81086   0.81141  884.742
 3849.00    0.80018   0.80922   -1.000
 3850.00    0.79409   0.80974   -1.000
 3851.00    0.80725   0.81973   -1.000
 3852.00    0.82733   0.83511  129.031
 3853.00    0.84837   0.84553  131.806
 3854.00    0.84521   0.84459  226.358
 3855.00    0.82295   0.83457   -1.000
 3856.00    0.81039   0.82210   -1.000
 3857.00    0.79763   0.81146   -1.000
 3858.00    0.78235   0.80377   -1.000
 3859.00    0.76476   0.80227   -1.000
 3860.00    0.76811   0.81005   -1.000
 3861.00    0.79874   0.82478   -1.000
 3862.00    0.84115   0.83868  884.742
 3863.00    0.85834   0.84570   -1.000
 3864.00    0.86704   0.84589   -1.000
 3865.00    0.86994   0.84401   -1.000
 3866.00    0.85781   0.84507   -1.000
 3867.00    0.85181   0.84975  884.742
 3868.00    0.84405   0.85353   -1.000
 3869.00    0.83240   0.84973   -1.000
 3870.00    0.80751   0.83595   -1.000
 3871.00    0.77473   0.81564   -1.000
 3872.00    0.76253   0.79664   -1.000
 3873.00    0.77571   0.78849   -1.000
 3874.00    0.79223   0.79247  884.742
 3875.00    0.80399   0.79870   -1.000
 3876.00    0.80855   0.79427   -1.000
 3877.00    0.78658   0.77825   -1.000
 3878.00    0.74706   0.76226   -1.000
 3879.00    0.73652   0.75642   -1.000
 3880.00    0.74628   0.75837   -1.000
 3881.00    0.75209   0.75649   -1.000
 3882.00    0.74612   0.74531  884.742
 3883.00    0.72363   0.72658  884.742
 3884.00    0.70513   0.69911   -1.000
 3885.00    0.67951   0.65905   -1.000
 3886.00    0.63206   0.60749   -1.000
 3887.00    0.57141   0.55580   -1.000
 3888.00    0.53499   0.52292   -1.000
 3889.00    0.54956   0.52253   -1.000
 3890.00    0.59480   0.55602   -1.000
 3891.00    0.65338   0.60934   -1.000
 3892.00    0.70497   0.66022   -1.000
 3893.00    0.72911   0.69442   -1.000
 3894.00    0.73246   0.71441   -1.000
 3895.00    0.74256   0.72976   -1.000
 3896.00    0.76269   0.74633   -1.000
 3897.00    0.78807   0.76294   -1.000
 3898.00    0.80148   0.77432   -1.000
 3899.00    0.79418   0.78015   -1.000
 3900.00    0.80703   0.78741   -1.000
 3901.00    0.82261   0.79789   -1.000
 3902.00    0.81160   0.80615  790.770
 3903.00    0.80694   0.80820  779.074
 3904.00    0.80953   0.80547  771.923
 3905.00    0.79978   0.80472   -1.000
 3906.00    0.80287   0.81256   -1.000
 3907.00    0.82187   0.83199   -1.000
 3908.00    0.84307   0.85812   -1.000
 3909.00    0.86282   0.88080   -1.000
 3910.00    0.87342   0.89298   -1.000
 3911.00    0.88382   0.89487   -1.000
 3912.00    0.89097   0.88922   -1.000
 3913.00    0.88494   0.87852  884.742
 3914.00    0.86897   0.86806   -1.000
 3915.00    0.87175   0.86370  884.742
 3916.00    0.89251   0.86374   -1.000
 3917.00    0.89265   0.86208   -1.000
 3918.00    0.86621   0.85629   -1.000
 3919.00    0.84615   0.84921   -1.000
 3920.00    0.83331   0.84449   -1.000
 3921.00    0.83121   0.84291   -1.000
 3922.00    0.83588   0.84419  153.543
 3923.00    0.83819   0.84624  179.863
 3924.00    0.82933   0.84497   -1.000
 3925.00    0.81260   0.83480   -1.000
 3926.00    0.74795   0.81158   -1.000
 3927.00    0.68183   0.77659   -1.000
 3928.00    0.63736   0.73139   -1.000
 3929.00    0.59988   0.67659   -1.000
 3930.00    0.54978   0.60809   -1.000
 3931.00    0.46231   0.52359   -1.000
 3932.00    0.37019   0.43944   -1.000
 3933.00    0.31959   0.38639   -1.000
 3934.00    0.33935   0.39000   -1.000
 3935.00    0.40393   0.44889   -1.000
 3936.00    0.49612   0.53603   -1.000
 3937.00    0.58315   0.62384   -1.000
 3938.00    0.67223   0.69899   -1.000
 3939.00    0.73841   0.75477   -1.000
 3940.00    0.77532   0.79168   -1.000
 3941.00    0.79603   0.81248   -1.000
 3942.00    0.79855   0.82127   -1.000
 3943.00    0.79506   0.82536   -1.000
 3944.00    0.79818   0.83095   -1.000
 3945.00    0.82692   0.84001   -1.000
 3946.00    0.84688   0.85030   -1.000
 3947.00    0.85141   0.85606   -1.000
 3948.00    0.84492   0.85495   -1.000
 3949.00    0.84782   0.85022   -1.000
 3950.00    0.85890   0.84602   -1.000
 3951.00    0.85858   0.84400   -1.000
 3952.00    0.84600   0.84555  827.937
 3953.00    0.86254   0.85049   -1.000
 3954.00    0.87654   0.85303   -1.000
 3955.00    0.86845   0.84832   -1.000
 3956.00    0.86325   0.83780   -1.000
 3957.00    0.86360   0.82832   -1.000
 3958.00    0.87222   0.82340   -1.000
 3959.00    0.85411   0.81519   -1.000
 3960.00    0.79525   0.79517  217.361
 3961.00    0.73840   0.76403   -1.000
 3962.00    0.68631   0.72695   -1.000
 3963.00    0.63829   0.68767   -1.000
 3964.00    0.60664   0.63917   -1.000
 3965.00    0.54310   0.57109  143.008
 3966.00    0.45407   0.48372   -1.000
 3967.00    0.36337   0.39228   -1.000
 3968.00    0.29368   0.32680   -1.000
 3969.00    0.28317   0.31181   -1.000
 3970.00    0.32722   0.35131   -1.000
 3971.00    0.41251   0.42803   -1.000
 3972.00    0.50371   0.51632   -1.000
 3973.00    0.58440   0.59565   -1.000
 3974.00    0.65805   0.66094  718.444
 3975.00    0.70960   0.71281  729.848
 3976.00    0.74526   0.75413   -1.000
 3977.00    0.78144   0.78748   -1.000
 3978.00    0.81427   0.81470   97.404
 3979.00    0.85069   0.83516   69.129
 3980.00    0.87187   0.84631   67.861
 3981.00    0.87819   0.85042   67.017
 3982.00    0.87428   0.85389   67.014
 3983.00    0.87127   0.86245   66.787
 3984.00    0.88889   0.87667   65.540
 3985.00    0.90988   0.89146   63.950
 3986.00    0.91248   0.90255   64.064
 3987.00    0.91226   0.91124   65.422
 3988.00    0.93319   0.91897   66.963
 3989.00    0.93790   0.92463   68.322
 3990.00    0.93224   0.93025   69.098
 3991.00    0.95238   0.93817   68.102
 3992.00    0.96456   0.94776   65.352
 3993.00    0.95750   0.95488   62.911
 3994.00    0.95228   0.95369   61.613
 3995.00    0.94463   0.94257   60.712
 3996.00    0.92614   0.92764   61.365
 3997.00    0.91202   0.91949   64.782
 3998.00    0.91530   0.92346   68.468
 3999.00    0.93382   0.93578   68.973
 4000.00    0.95810   0.94833   65.773
 4001.00    0.98272   0.95591   62.837
 4002.00    1.00641   0.95660   61.603
 4003.00    0.98785   0.95054   60.913
 4004.00    0.94111   0.93978   60.597
 4005.00    0.92792   0.93160   60.881
 4006.00    0.89755   0.93435   61.245
 4007.00    0.93931   0.94826   60.976
 4008.00    0.97536   0.96523   60.195
 4009.00    1.00175   0.97666   60.382
 4010.00    1.00813   0.98116   61.092
 4011.00    1.00165   0.98128   61.047
 4012.00    0.99058   0.97964   60.237
 4013.00    0.97743   0.97940   60.125
 4014.00    0.98005   0.98274   60.851
 4015.00    0.98000   0.98864   61.339
 4016.00    0.97969   0.99471   61.728
 4017.00    0.99633   1.00008   62.196
 4018.00    1.01196   1.00552   61.094
 4019.00    1.01476   1.01041   59.031
 4020.00    1.00152   1.01181   57.628
 4021.00    0.99017   1.00752   57.786
 4022.00    0.99309   0.99909   59.784
 4023.00    0.97894   0.99010   63.562
 4024.00    0.97489   0.98477   66.641
 4025.00    1.00294   0.98746   67.860
 4026.00    1.03253   0.99773   67.330
 4027.00    1.04149   1.00701   65.381
 4028.00    1.03066   1.00620   62.340
 4029.00    1.01069   0.99398   59.244
 4030.00    0.95835   0.97605   56.990
 4031.00    0.94148   0.96184   56.419
 4032.00    0.93848   0.95699   57.353
 4033.00    0.94379   0.96137   58.712
 4034.00    0.95094   0.97349   59.506
 4035.00    0.97920   0.99179   59.858
 4036.00    1.01638   1.01282   62.244
 4037.00    1.03136   1.03054   67.769
 4038.00    1.05033   1.03850   73.358
 4039.00    1.04444   1.03661   71.915
 4040.00    1.03538   1.03001   65.526
 4041.00    1.04684   1.02304   61.095
 4042.00    1.03216   1.01394   59.006
 4043.00    0.98903   0.99704   58.154
 4044.00    0.92944   0.97363   -1.000
 4045.00    0.89230   0.95530   -1.000
 4046.00    0.91224   0.95546   -1.000
 4047.00    0.95229   0.97539   62.425
 4048.00    0.99061   1.00104   63.001
 4049.00    1.01631   1.01882   63.438
 4050.00    1.03419   1.02556   64.066
 4051.00    1.03331   1.02432   63.545
 4052.00    1.02653   1.01767   61.462
 4053.00    1.01450   1.00936   60.068
 4054.00    0.99373   1.00334   60.749
 4055.00    0.98457   1.00087   64.679
 4056.00    1.00000   1.00094   69.263
 4057.00    1.01550   1.00346   69.091
 4058.00    1.01948   1.01037   65.973
 4059.00    0.99974   1.01885   64.104
 4060.00    1.01704   1.01968   62.399
 4061.00    1.02825   1.00762   60.420
 4062.00    0.99852   0.98692   59.473
 4063.00    0.94158   0.96752   61.380
 4064.00    0.92777   0.95709   64.177
 4065.00    0.96462   0.95787   64.201
 4066.00    0.98011   0.96563   62.059
 4067.00    0.98668   0.97318   61.444
 4068.00    0.99511   0.97696   63.986
 4069.00    1.00823   0.97521   69.179
 4070.00    1.00608   0.96608   71.825
 4071.00    0.98951   0.95390   70.006
 4072.00    0.97822   0.94835   65.453
 4073.00    0.97882   0.95201   60.917
 4074.00    0.96545   0.95579   58.773
 4075.00    0.93502   0.94835   59.433
 4076.00    0.91637   0.93001   61.374
 4077.00    0.90979   0.91373   62.466
 4078.00    0.90868   0.91323   61.748
 4079.00    0.94252   0.93126   59.772
 4080.00    0.97270   0.95547   57.489
 4081.00    0.99242   0.97136   55.591
 4082.00    0.98893   0.97311   55.618
 4083.00    0.96589   0.96490   56.688
 4084.00    0.94749   0.95513   57.769
 4085.00    0.95919   0.95096   58.468
 4086.00    0.99020   0.95495   58.581
 4087.00    1.00242   0.96384   59.556
 4088.00    1.01695   0.97180   62.152
 4089.00    1.01653   0.97395   64.328
 4090.00    1.02883   0.96979   64.956
 4091.00    1.00532   0.96164   65.954
 4092.00    0.99160   0.94987   69.391
 4093.00    0.98339   0.93423   75.627
 4094.00    0.97304   0.91565   -1.000
 4095.00    0.95858   0.89341   -1.000
 4096.00    0.91166   0.86678   73.658
 4097.00    0.87924   0.83434   67.845
 4098.00    0.82246   0.79280   64.059
 4099.00    0.76945   0.73899   61.984
 4100.00    0.72573   0.67955   61.557
 4101.00    0.66244   0.63710   62.084
 4102.00    0.65572   0.63544   63.263
 4103.00    0.72618   0.67893   64.229
 4104.00    0.80917   0.74554   -1.000
 4105.00    0.84859   0.80760   62.143
 4106.00    0.87459   0.85004   61.048
 4107.00    0.90553   0.87468   60.101
 4108.00    0.90610   0.88874   59.491
 4109.00    0.91390   0.89868   59.733
 4110.00    0.91279   0.90895   60.957
 4111.00    0.92182   0.92189   62.995
 4112.00    0.95398   0.93771   63.818
 4113.00    0.97979   0.95462   63.097
 4114.00    0.99259   0.97036   62.429
 4115.00    1.01328   0.98123   62.458
 4116.00    1.02408   0.98389   61.823
 4117.00    1.01990   0.97890   60.736
 4118.00    0.98539   0.97068   60.489
 4119.00    0.95685   0.96516   61.266
 4120.00    0.97152   0.96571   62.581
 4121.00    0.97708   0.97025   63.136
 4122.00    0.97656   0.97575   63.461
 4123.00    0.99476   0.98230   64.246
 4124.00    1.01606   0.99012   66.245
 4125.00    1.03724   0.99585   68.352
 4126.00    1.01296   0.99581   68.600
 4127.00    1.00541   0.99096   66.401
 4128.00    1.01069   0.98591   63.051
 4129.00    0.98748   0.98275   60.961
 4130.00    0.96162   0.97887   59.953
 4131.00    0.97298   0.97264   59.014
 4132.00    0.94949   0.96846   58.765
 4133.00    0.94020   0.97311   59.950
 4134.00    0.95708   0.98685   63.096
 4135.00    0.99632   1.00416   68.446
 4136.00    1.02417   1.02041   72.124
 4137.00    1.04908   1.03403   69.560
 4138.00    1.07233   1.04481   65.357
 4139.00    1.06100   1.05023   62.896
 4140.00    1.04515   1.04576   62.228
 4141.00    1.01756   1.03041   63.412
 4142.00    0.98758   1.00959   65.204
 4143.00    0.95145   0.99404   -1.000
 4144.00    0.96309   0.99280   65.537
 4145.00    0.99783   1.00497   65.158
 4146.00    1.02863   1.02001   65.775
 4147.00    1.03136   1.02785   66.872
 4148.00    1.05904   1.02846   65.168
 4149.00    1.03246   1.02734   64.625
 4150.00    1.03638   1.02759   65.489
 4151.00    1.28075   1.02756   -1.000
 4152.00    1.34346   1.02430   -1.000
 4153.00    0.61152   1.01837   -1.000
 4154.00    0.79029   1.01332   -1.000
 4155.00    1.12005   1.01281   -1.000
 4156.00    0.99906   1.01783   60.586
 4157.00    1.00029   1.02656   61.610
 4158.00    1.03597   1.03587   62.528
 4159.00    1.04451   1.04236   63.962
 4160.00    1.05310   1.04505   64.932
 4161.00    1.04624   1.04573   64.392
 4162.00    1.04888   1.04770   63.243
 4163.00    1.04076   1.05234   63.969
 4164.00    1.04221   1.05761   67.944
 4165.00    1.03624   1.05953   72.108
 4166.00    1.03744   1.05641   72.149
 4167.00    1.05901   1.05159   69.433
 4168.00    1.05030   1.04741   66.933
 4169.00    1.04110   1.04139   66.972
 4170.00    1.03470   1.02781   67.383
 4171.00    1.00308   1.00583   67.052
 4172.00    0.96715   0.98546   65.969
 4173.00    0.95324   0.97795   65.359
 4174.00    0.94992   0.98622   -1.000
 4175.00    0.98560   1.00158   64.677
 4176.00    0.98837   1.01101   63.349
 4177.00    0.99574   1.01229   62.259
 4178.00    0.99293   1.01261   62.449
 4179.00    0.98250   1.01846   -1.000
 4180.00    1.01533   1.02700   66.432
 4181.00    1.01757   1.03078   65.716
 4182.00    1.00620   1.03114   64.213
 4183.00    1.00346   1.03328   63.853
 4184.00    0.98808   1.03624   -1.000
 4185.00    1.00449   1.03568   61.584
 4186.00    1.00915   1.03007   60.887
 4187.00    0.98204   1.02410   -1.000
 4188.00    0.98359   1.02357   -1.000
 4189.00    1.02324   1.02753   68.288
 4190.00    1.01761   1.03143   69.403
 4191.00    1.02378   1.03398   69.466
 4192.00    1.05994   1.03739   68.646
 4193.00    1.05614   1.04191   67.570
 4194.00    1.04875   1.04206   67.413
 4195.00    1.01540   1.03284   66.930
 4196.00    0.99372   1.01692   65.875
 4197.00    0.98160   1.00048   65.381
 4198.00    0.95266   0.98848   -1.000
 4199.00    0.94598   0.98398   -1.000
 4200.00    0.96351   0.98595   61.297
 4201.00    0.95088   0.98957   -1.000
 4202.00    0.95733   0.99351   61.321
 4203.00    0.95662   1.00036   -1.000
 4204.00    0.98610   1.00961   60.760
 4205.00    0.99146   1.01863   61.267
 4206.00    0.99625   1.02698   63.424
 4207.00    1.00968   1.03427   66.304
 4208.00    1.02850   1.03858   67.761
 4209.00    1.03439   1.04029   65.116
 4210.00    1.03081   1.04224   60.973
 4211.00    1.02625   1.04618   58.402
 4212.00    1.03913   1.04912   56.897
 4213.00    1.03506   1.04417   56.419
 4214.00    0.98612   1.03063   -1.000
 4215.00    0.97492   1.01666   -1.000
 4216.00    0.97829   1.01212   -1.000
 4217.00    1.00263   1.02068   70.842
 4218.00    1.02234   1.03528   80.213
 4219.00    1.06303   1.04747   85.396
 4220.00    1.06728   1.05404   78.904
 4221.00    1.04835   1.05350   68.303
 4222.00    1.03475   1.04309   61.752
 4223.00    0.99266   1.01988   58.928
 4224.00    0.93238   0.98656   -1.000
 4225.00    0.88112   0.95445   -1.000
 4226.00    0.85418   0.93788   -1.000
 4227.00    0.86023   0.94832   -1.000
 4228.00    0.92338   0.98339   -1.000
 4229.00    0.99117   1.02425   -1.000
 4230.00    1.03350   1.04841   64.098
 4231.00    1.03157   1.04999   62.615
 4232.00    1.00511   1.03812   -1.000
 4233.00    0.98415   1.02386   -1.000
 4234.00    0.96655   1.01561   -1.000
 4235.00    0.95916   1.01559   -1.000
 4236.00    0.95783   1.01926   -1.000
 4237.00    0.94603   1.02426   -1.000
 4238.00    0.94420   1.03142   -1.000
 4239.00    0.96980   1.04069   -1.000
 4240.00    0.99273   1.05150   -1.000
 4241.00    1.00135   1.06136   -1.000
 4242.00    1.01330   1.06739   -1.000
 4243.00    1.02186   1.06819   -1.000
 4244.00    1.03270   1.06360   62.867
 4245.00    1.02815   1.05337   61.395
 4246.00    0.99549   1.03821   -1.000
 4247.00    0.96784   1.02363   -1.000
 4248.00    0.95927   1.01497   -1.000
 4249.00    0.95350   1.01263   -1.000
 4250.00    0.94592   1.01584   -1.000
 4251.00    0.95777   1.02427   -1.000
 4252.00    0.98497   1.03346   -1.000
 4253.00    1.00280   1.03864   -1.000
 4254.00    0.99315   1.04061   -1.000
 4255.00    0.98735   1.04343   -1.000
 4256.00    1.00283   1.04770   -1.000
 4257.00    1.00155   1.04744   -1.000
 4258.00    0.98590   1.03860   -1.000
 4259.00    0.94975   1.02684   -1.000
 4260.00    0.92112   1.02206   -1.000
 4261.00    0.92821   1.02970   -1.000
 4262.00    0.97480   1.04708   -1.000
 4263.00    1.03499   1.06538   -1.000
 4264.00    1.06573   1.07601   71.921
 4265.00    1.06850   1.07732   72.091
 4266.00    1.05851   1.07299   70.334
 4267.00    1.04868   1.06452   68.292
 4268.00    1.04281   1.05122   64.897
 4269.00    1.01609   1.03276   60.837
 4270.00    0.96619   1.01142   -1.000
 4271.00    0.92391   0.99385   -1.000
 4272.00    0.89594   0.98671   -1.000
 4273.00    0.89864   0.99165   -1.000
 4274.00    0.93509   1.00513   -1.000
 4275.00    0.95632   1.02347   -1.000
 4276.00    0.99129   1.04410   -1.000
 4277.00    1.01661   1.06136   -1.000
 4278.00    1.01302   1.06828   -1.000
 4279.00    1.00566   1.06360   -1.000
 4280.00    0.97317   1.05256   -1.000
 4281.00    0.94957   1.04298   -1.000
 4282.00    0.96881   1.03863   -1.000
 4283.00    1.00421   1.03837   -1.000
 4284.00    1.00551   1.03872   -1.000
 4285.00    0.98191   1.03468   -1.000
 4286.00    0.95949   1.02303   -1.000
 4287.00    0.95554   1.00458   -1.000
 4288.00    0.93408   0.98332   -1.000
 4289.00    0.89248   0.96651   -1.000
 4290.00    0.88661   0.96295   -1.000
 4291.00    0.91955   0.97371   -1.000
 4292.00    0.96551   0.98846   83.285
 4293.00    0.98577   0.99510   83.298
 4294.00    0.98190   0.99319   80.952
 4295.00    0.97028   0.98947   79.773
 4296.00    0.95617   0.98337   78.615
 4297.00    0.92589   0.96941   -1.000
 4298.00    0.88699   0.94664   -1.000
 4299.00    0.84416   0.92047   -1.000
 4300.00    0.82218   0.90063   -1.000
 4301.00    0.82144   0.89366   -1.000
 4302.00    0.83281   0.89882   -1.000
 4303.00    0.83939   0.91110   -1.000
 4304.00    0.85396   0.92350   -1.000
 4305.00    0.85214   0.92755   -1.000
 4306.00    0.84023   0.92100   -1.000
 4307.00    0.82696   0.91074   -1.000
 4308.00    0.81286   0.90662   -1.000
 4309.00    0.78978   0.91348   -1.000
 4310.00    0.78548   0.92741   -1.000
 4311.00    0.81598   0.94015   -1.000
 4312.00    0.83486   0.94676   -1.000
 4313.00    0.86068   0.95264   -1.000
 4314.00    0.89074   0.96754   -1.000
 4315.00    0.94154   0.99524   -1.000
 4316.00    1.01039   1.02886   65.852
 4317.00    1.05625   1.05412   70.995
 4318.00    1.08345   1.06377   71.580
 4319.00    1.07330   1.06061   65.782
 4320.00    1.04701   1.05100   59.331
 4321.00    1.00909   1.03850   56.031
 4322.00    0.98321   1.02219   55.446
 4323.00    0.93484   1.00014   -1.000
 4324.00    0.89312   0.97627   -1.000
 4325.00    0.87009   0.96360   -1.000
 4326.00    0.88593   0.97186   -1.000
 4327.00    0.93801   0.99424   -1.000
 4328.00    0.97717   1.01464   55.662
 4329.00    0.99638   1.02224   59.904
 4330.00    0.98798   1.01956   65.785
 4331.00    0.99284   1.01488   71.711
 4332.00    1.00954   1.01032   76.389
 4333.00    1.01445   1.00167   75.680
 4334.00    1.00509   0.98369   69.182
 4335.00    0.97757   0.95232   63.084
 4336.00    0.92144   0.90424   59.888
 4337.00    0.85111   0.83946   58.149
 4338.00    0.75705   0.76865   56.759
 4339.00    0.69244   0.71199   55.937
 4340.00    0.65924   0.68916   55.255
 4341.00    0.66502   0.71200   -1.000
 4342.00    0.74837   0.77239   55.754
 4343.00    0.83969   0.84330   59.346
 4344.00    0.89320   0.90129   62.724
 4345.00    0.94120   0.94308   62.286
 4346.00    0.97177   0.97469   59.500
 4347.00    0.99496   0.99841   57.074
 4348.00    1.00670   1.01088   55.540
 4349.00    1.00508   1.00854   54.795
 4350.00    0.96408   0.99455   55.259
 4351.00    0.91984   0.98095   -1.000
 4352.00    0.91781   0.98020   -1.000
 4353.00    0.95913   0.99648   55.022
 4354.00    0.98346   1.02214   53.677
 4355.00    1.01120   1.04485   53.259
 4356.00    1.02579   1.05774   52.923
 4357.00    1.02186   1.06156   52.496
 4358.00    1.00214   1.06103   -1.000
 4359.00    0.99519   1.06202   -1.000
 4360.00    1.02916   1.06806   -1.000
 4361.00    1.04793   1.07777   56.566
 4362.00    1.04895   1.08754   -1.000
 4363.00    1.04778   1.09450   -1.000
 4364.00    1.05533   1.09689   -1.000
 4365.00    1.04977   1.09348   -1.000
 4366.00    1.03484   1.08424   -1.000
 4367.00    1.03184   1.07230   -1.000
 4368.00    1.04119   1.06319   60.091
 4369.00    1.05124   1.05911   57.293
 4370.00    1.03379   1.05786   55.083
 4371.00    1.01882   1.05489   54.668
 4372.00    1.01003   1.04596   55.290
 4373.00    1.00306   1.03085   56.908
 4374.00    0.99125   1.01657   60.977
 4375.00    0.99502   1.01479   68.025
 4376.00    1.02292   1.03007   73.120
 4377.00    1.04441   1.05388   70.540
 4378.00    1.05136   1.07198   63.700
 4379.00    1.05815   1.07664   59.215
 4380.00    1.05483   1.06729   58.195
 4381.00    1.02172   1.04427   58.540
 4382.00    0.97570   1.01164   59.028
 4383.00    0.92906   0.98246   -1.000
 4384.00    0.90494   0.97111   -1.000
 4385.00    0.92933   0.98219   -1.000
 4386.00    0.97295   1.00642   57.565
 4387.00    1.00822   1.02894   58.288
 4388.00    1.02676   1.04224   56.984
 4389.00    1.01432   1.04700   54.661
 4390.00    0.99062   1.04792   -1.000
 4391.00    0.99231   1.04901   -1.000
 4392.00    1.02100   1.04867   57.379
 4393.00    1.03749   1.04257   58.080
 4394.00    1.02039   1.03329   57.143
 4395.00    0.99894   1.03120   57.336
 4396.00    1.01341   1.04008   60.050
 4397.00    1.04776   1.05040   62.381
 4398.00    1.05067   1.05192   61.637
 4399.00    1.01969   1.04525   59.962
 4400.00    1.00278   1.03970   59.285
 4401.00    1.01970   1.04096   58.003
 4402.00    1.04004   1.04492   55.587
 4403.00    1.02904   1.04524   53.409
 4404.00    0.99452   1.04199   -1.000
 4405.00    0.96917   1.04072   -1.000
 4406.00    0.98317   1.04425   -1.000
 4407.00    1.00686   1.04970   -1.000
 4408.00    1.01426   1.05524   -1.000
 4409.00    1.03113   1.06406   57.121
 4410.00    1.05222   1.07694   54.884
 4411.00    1.07109   1.08751   52.915
 4412.00    1.07469   1.08824   52.250
 4413.00    1.04636   1.07651   53.109
 4414.00    1.00875   1.05601   -1.000
 4415.00    0.98495   1.03654   -1.000
 4416.00    0.98351   1.02884   -1.000
 4417.00    0.99789   1.03724   54.355
 4418.00    1.01492   1.05744   -1.000
 4419.00    1.03439   1.07889   -1.000
 4420.00    1.04934   1.09176   -1.000
 4421.00    1.04527   1.09339   -1.000
 4422.00    1.04364   1.08999   -1.000
 4423.00    1.05407   1.08787   54.567
 4424.00    1.05579   1.08675   53.992
 4425.00    1.04516   1.08452   54.605
 4426.00    1.03995   1.08252   -1.000
 4427.00    1.04900   1.08361   58.744
 4428.00    1.06171   1.08811   57.854
 4429.00    1.05742   1.09318   54.810
 4430.00    1.05163   1.09629   51.905
 4431.00    1.05513   1.09661   50.738
 4432.00    1.05553   1.09319   51.506
 4433.00    1.03222   1.08488   -1.000
 4434.00    1.01180   1.07467   -1.000
 4435.00    1.01663   1.07126   -1.000
 4436.00    1.03473   1.08182   -1.000
 4437.00    1.06897   1.10248   53.994
 4438.00    1.09635   1.12039   52.315
 4439.00    1.09855   1.12408   51.868
 4440.00    1.07416   1.11083   51.964
 4441.00    1.04668   1.08741   52.304
 4442.00    1.01886   1.06585   -1.000
 4443.00    0.99367   1.05817   -1.000
 4444.00    0.99961   1.06833   -1.000
 4445.00    1.02397   1.08887   -1.000
 4446.00    1.05738   1.10680   -1.000
 4447.00    1.08005   1.11541   58.291
 4448.00    1.08346   1.11686   58.313
 4449.00    1.08047   1.11520   57.223
 4450.00    1.08128   1.11330   56.746
 4451.00    1.08916   1.11213   56.954
 4452.00    1.09624   1.10921   57.415
 4453.00    1.08527   1.10049   57.983
 4454.00    1.05604   1.08771   57.620
 4455.00    1.04228   1.07960   55.812
 4456.00    1.03816   1.08168   54.042
 4457.00    1.03235   1.08949   -1.000
 4458.00    1.03299   1.09502   -1.000
 4459.00    1.03662   1.09572   -1.000
 4460.00    1.02514   1.09421   -1.000
 4461.00    1.02562   1.09455   -1.000
 4462.00    1.04900   1.09869   -1.000
 4463.00    1.06184   1.10465   53.719
 4464.00    1.07317   1.10886   51.901
 4465.00    1.07652   1.10841   50.308
 4466.00    1.05320   1.10183   49.465
 4467.00    1.03296   1.09084   -1.000
 4468.00    1.02553   1.08169   -1.000
 4469.00    1.01891   1.08136   -1.000
 4470.00    1.03680   1.09218   -1.000
 4471.00    1.06869   1.10989   50.138
 4472.00    1.08999   1.12728   52.287
 4473.00    1.10619   1.13933   54.192
 4474.00    1.11989   1.14486   54.496
 4475.00    1.12966   1.14624   52.850
 4476.00    1.12603   1.14649   50.695
 4477.00    1.11667   1.14541   49.257
 4478.00    1.10704   1.13811   48.863
 4479.00    1.08994   1.12149   49.558
 4480.00    1.06666   1.10176   51.166
 4481.00    1.03909   1.09087   -1.000
 4482.00    1.04086   1.09667   -1.000
 4483.00    1.07684   1.11633   51.761
 4484.00    1.10467   1.13874   50.673
 4485.00    1.11215   1.15344   50.783
 4486.00    1.11391   1.15571   52.058
 4487.00    1.11869   1.14663   53.414
 4488.00    1.11124   1.13281   53.536
 4489.00    1.09072   1.12380   52.148
 4490.00    1.08389   1.12494   50.504
 4491.00    1.08420   1.13308   -1.000
 4492.00    1.08362   1.13915   -1.000
 4493.00    1.08821   1.13802   -1.000
 4494.00    1.08094   1.13361   -1.000
 4495.00    1.06444   1.13191   -1.000
 4496.00    1.05467   1.13445   -1.000
 4497.00    1.06274   1.13858   -1.000
 4498.00    1.08953   1.13999   -1.000
 4499.00    1.10266   1.13528   48.079
 4500.00    1.10113   1.12741   48.274
 4501.00    1.08871   1.12532   48.052
 4502.00    1.08560   1.13448   -1.000
 4503.00    1.11163   1.15073   47.808
 4504.00    1.13441   1.16415   48.568
 4505.00    1.13608   1.16847   49.493
 4506.00    1.13664   1.16453   50.022
 4507.00    1.13512   1.15785   49.972
 4508.00    1.13180   1.15458   49.839
 4509.00    1.13941   1.15676   50.209
 4510.00    1.14149   1.16087   50.644
 4511.00    1.13454   1.16210   50.205
 4512.00    1.11977   1.15944   49.231
 4513.00    1.10485   1.15441   -1.000
 4514.00    1.10022   1.14897   -1.000
 4515.00    1.10875   1.14507   50.877
 4516.00    1.10782   1.14304   51.529
 4517.00    1.10468   1.14098   52.223
 4518.00    1.10032   1.13745   53.574
 4519.00    1.11430   1.13435   55.162
 4520.00    1.13929   1.13344   56.148
 4521.00    1.14094   1.13237   56.104
 4522.00    1.12885   1.12856   55.293
 4523.00    1.12467   1.12413   54.280
 4524.00    1.11319   1.12219   53.755
 4525.00    1.10048   1.12099   54.648
 4526.00    1.08194   1.11647   56.446
 4527.00    1.07425   1.10776   56.639
 4528.00    1.06762   1.09893   54.175
 4529.00    1.06209   1.09543   50.952
 4530.00    1.06119   1.09799   49.020
 4531.00    1.05313   1.10056   48.911
 4532.00    1.05425   1.09582   49.895
 4533.00    1.04545   1.08474   50.289
 4534.00    1.03820   1.07784   49.997
 4535.00    1.03746   1.08459   -1.000
 4536.00    1.05794   1.10438   -1.000
 4537.00    1.11576   1.12849   -2.000
 4538.00    1.11900   1.14696   -2.000
 4539.00    0.60543   1.15437   -2.000
 4540.00    0.19115   1.15253   -1.000
 4541.00    0.16805   1.14794   -1.000
 4542.00    0.74710   1.14575   -1.000
 4543.00    0.68548   1.14567   -1.000
 4544.00    0.74159   1.14457   -1.000
 4545.00    1.05519   1.14191   -1.000
 4546.00    1.11007   1.13791   53.261
 4547.00    1.08797   1.12899   52.855
 4548.00    1.07136   1.11335   51.241
 4549.00    1.05259   1.09900   49.208
 4550.00    1.05686   1.09764   47.992
 4551.00    1.06523   1.10840   47.937
 4552.00    1.06388   1.11682   48.021
 4553.00    1.04917   1.11357   -1.000
 4554.00    1.03382   1.10495   -1.000
 4555.00    1.04548   1.10359   -1.000
 4556.00    1.07855   1.11494   51.002
 4557.00    1.10707   1.13331   50.859
 4558.00    1.13200   1.14944   49.750
 4559.00    1.14866   1.16011   48.432
 4560.00    1.15142   1.16621   47.711
 4561.00    1.13977   1.16579   47.957
 4562.00    1.11969   1.15689   48.996
 4563.00    1.10217   1.14455   50.291
 4564.00    1.09263   1.13815   50.410
 4565.00    1.10351   1.14231   49.173
 4566.00    1.11695   1.15325   48.229
 4567.00    1.12696   1.16348   48.069
 4568.00    1.13130   1.16722   48.249
 4569.00    1.13575   1.16223   48.517
 4570.00    1.12048   1.15008   49.198
 4571.00    1.09207   1.13730   50.514
 4572.00    1.09241   1.13391   51.704
 4573.00    1.12807   1.14300   51.881
 4574.00    1.14527   1.15528   51.282
 4575.00    1.14436   1.16098   50.800
 4576.00    1.14862   1.15994   50.818
 4577.00    1.14999   1.15617   51.103
 4578.00    1.13359   1.15036   50.666
 4579.00    1.12306   1.14156   49.475
 4580.00    1.11323   1.13166   48.348
 4581.00    1.08897   1.12348   48.033
 4582.00    1.08053   1.11741   48.554
 4583.00    1.07890   1.11454   49.427
 4584.00    1.08659   1.11761   50.314
 4585.00    1.10171   1.12580   50.571
 4586.00    1.12204   1.13474   50.244
 4587.00    1.14056   1.14127   49.833
 4588.00    1.14547   1.14441   49.637
 4589.00    1.14451   1.14498   49.530
 4590.00    1.14546   1.14483   49.420
 4591.00    1.12812   1.14448   49.725
 4592.00    1.11216   1.14426   50.180
 4593.00    1.12524   1.14595   50.395
 4594.00    1.12681   1.15029   50.012
 4595.00    1.14093   1.15622   49.445
 4596.00    1.13348   1.16186   49.379
 4597.00    1.14208   1.16478   49.344
 4598.00    1.15014   1.16380   48.906
 4599.00    1.13846   1.15966   48.026
 4600.00    1.11719   1.15407   47.005
 4601.00    1.10028   1.14945   46.349
 4602.00    1.08732   1.14784   -1.000
 4603.00    1.10385   1.14958   46.953
 4604.00    1.13230   1.15323   47.510
 4605.00    1.14083   1.15693   47.864
 4606.00    1.14773   1.16063   47.741
 4607.00    1.15226   1.16520   47.346
 4608.00    1.14063   1.17050   47.105
 4609.00    1.14401   1.17486   47.319
 4610.00    1.14356   1.17591   47.672
 4611.00    1.13420   1.17364   47.709
 4612.00    1.13221   1.17060   47.328
 4613.00    1.13305   1.16891   46.627
 4614.00    1.13254   1.16826   46.464
 4615.00    1.12453   1.16685   46.565
 4616.00    1.11402   1.16408   46.663
 4617.00    1.11396   1.16105   47.029
 4618.00    1.12687   1.15901   47.210
 4619.00    1.14130   1.15949   47.207
 4620.00    1.15315   1.16389   47.450
 4621.00    1.15415   1.17109   47.595
 4622.00    1.15472   1.17731   47.415
 4623.00    1.14842   1.17929   46.916
 4624.00    1.13618   1.17712   46.986
 4625.00    1.13102   1.17335   47.600
 4626.00    1.13793   1.17009   48.164
 4627.00    1.15089   1.16721   48.218
 4628.00    1.15418   1.16420   48.528
 4629.00    1.14959   1.16301   49.138
 4630.00    1.15349   1.16612   49.419
 4631.00    1.17151   1.17167   49.390
 4632.00    1.18737   1.17493   48.672
 4633.00    1.19416   1.17381   47.525
 4634.00    1.18622   1.17102   46.785
 4635.00    1.16006   1.16996   46.847
 4636.00    1.14334   1.17052   47.624
 4637.00    1.15342   1.17100   48.908
 4638.00    1.14509   1.17168   50.276
 4639.00    1.15938   1.17436   50.673
 4640.00    1.18977   1.17966   49.927
 4641.00    1.21463   1.18556   48.786
 4642.00    1.20962   1.18950   48.043
 4643.00    1.18331   1.18984   47.880
 4644.00    1.15708   1.18605   47.788
 4645.00    1.14088   1.17843   48.262
 4646.00    1.14238   1.16909   49.318
 4647.00    1.14478   1.16308   49.975
 4648.00    1.15580   1.16441   49.676
 4649.00    1.16945   1.17132   48.232
 4650.00    1.18084   1.17885   46.405
 4651.00    1.16701   1.18337   45.263
 4652.00    1.13183   1.18368   45.097
 4653.00    1.11178   1.17997   -1.000
 4654.00    1.11980   1.17414   46.652
 4655.00    1.12007   1.16922   47.608
 4656.00    1.12630   1.16778   47.819
 4657.00    1.13547   1.17259   48.517
 4658.00    1.16504   1.18446   50.463
 4659.00    1.20817   1.19847   52.594
 4660.00    1.22809   1.20697   52.897
 4661.00    1.22825   1.20669   51.436
 4662.00    1.21321   1.20046   49.322
 4663.00    1.18514   1.19254   47.902
 4664.00    1.17070   1.18415   47.514
 4665.00    1.16060   1.17363   47.525
 4666.00    1.13111   1.15995   47.487
 4667.00    1.11201   1.14712   46.923
 4668.00    1.11504   1.14196   46.218
 4669.00    1.11220   1.14674   46.359
 4670.00    1.13319   1.15774   47.302
 4671.00    1.16616   1.16961   48.256
 4672.00    1.18076   1.17814   49.070
 4673.00    1.17276   1.18303   49.575
 4674.00    1.18068   1.18692   49.052
 4675.00    1.18530   1.19103   47.854
 4676.00    1.18808   1.19338   47.171
 4677.00    1.18149   1.19091   47.271
 4678.00    1.15073   1.18397   47.306
 4679.00    1.15428   1.17573   47.557
 4680.00    1.16898   1.16872   47.582
 4681.00    1.15899   1.16512   47.585
 4682.00    1.16480   1.16631   47.904
 4683.00    1.17225   1.17111   48.024
 4684.00    1.18041   1.17630   47.499
 4685.00    1.20027   1.17949   46.795
 4686.00    1.20453   1.18067   45.769
 4687.00    1.18903   1.18104   45.154
 4688.00    1.16819   1.18152   45.328
 4689.00    1.17189   1.18165   46.578
 4690.00    1.17424   1.18044   47.994
 4691.00    1.17125   1.17880   48.609
 4692.00    1.18484   1.17900   48.267
 4693.00    1.20125   1.18120   48.583
 4694.00    1.20086   1.18384   49.425
 4695.00    1.22309   1.18592   49.718
 4696.00    1.22575   1.18564   48.828
 4697.00    1.19237   1.18095   48.090
 4698.00    1.18260   1.17312   48.699
 4699.00    1.16654   1.16585   49.676
 4700.00    1.16739   1.16047   50.181
 4701.00    1.19475   1.15559   49.946
 4702.00    1.18156   1.15077   48.513
 4703.00    1.15563   1.14892   47.170
 4704.00    1.15265   1.15237   46.673
 4705.00    1.16878   1.15786   47.093
 4706.00    1.15909   1.15944   47.980
 4707.00    1.15360   1.15542   48.011
 4708.00    1.14896   1.15055   47.078
 4709.00    1.13914   1.15091   46.167
 4710.00    1.14576   1.15763   45.866
 4711.00    1.17212   1.16609   45.702
 4712.00    1.16482   1.17050   45.545
 4713.00    1.14937   1.16928   45.925
 4714.00    1.14743   1.16631   46.255
 4715.00    1.15812   1.16701   45.993
 4716.00    1.16430   1.17282   45.494
 4717.00    1.16317   1.18029   45.556
 4718.00    1.15800   1.18592   46.658
 4719.00    1.16330   1.18923   48.440
 4720.00    1.18409   1.19070   49.537
 4721.00    1.21241   1.19059   49.360
 4722.00    1.20864   1.19023   48.852
 4723.00    1.20957   1.19180   48.467
 4724.00    1.20532   1.19495   47.881
 4725.00    1.21020   1.19655   47.464
 4726.00    1.19158   1.19409   47.195
 4727.00    1.16582   1.18730   46.932
 4728.00    1.15581   1.17888   47.445
 4729.00    1.16679   1.17179   47.502
 4730.00    1.15661   1.16703   46.877
 4731.00    1.14712   1.16605   46.905
 4732.00    1.16348   1.16990   47.184
 4733.00    1.17169   1.17586   47.243
 4734.00    1.17458   1.17972   46.855
 4735.00    1.17946   1.17970   46.338
 4736.00    1.16065   1.17757   46.445
 4737.00    1.15980   1.17647   46.485
 4738.00    1.17569   1.17762   46.127
 4739.00    1.18218   1.17969   45.654
 4740.00    1.16799   1.18141   45.569
 4741.00    1.16369   1.18312   45.644
 4742.00    1.18025   1.18600   45.673
 4743.00    1.17587   1.18999   46.017
 4744.00    1.17341   1.19373   46.548
 4745.00    1.18004   1.19664   46.934
 4746.00    1.18569   1.19973   47.254
 4747.00    1.19110   1.20417   47.154
 4748.00    1.18898   1.20890   47.350
 4749.00    1.20799   1.21235   47.711
 4750.00    1.20468   1.21457   47.749
 4751.00    1.19005   1.21567   47.330
 4752.00    1.18627   1.21462   47.260
 4753.00    1.18207   1.21146   48.044
 4754.00    1.16933   1.20791   49.276
 4755.00    1.17356   1.20593   49.879
 4756.00    1.18719   1.20636   49.924
 4757.00    1.18296   1.20841   49.810
 4758.00    1.17919   1.21016   49.445
 4759.00    1.20056   1.21001   48.737
 4760.00    1.19622   1.20649   47.600
 4761.00    1.17122   1.19858   46.969
 4762.00    1.16136   1.18792   47.095
 4763.00    1.14664   1.17888   47.515
 4764.00    1.16147   1.17534   47.928
 4765.00    1.16070   1.17829   47.307
 4766.00    1.15605   1.18580   46.272
 4767.00    1.16312   1.19524   46.003
 4768.00    1.17403   1.20489   46.061
 4769.00    1.16733   1.21264   46.206
 4770.00    1.18436   1.21579   46.524
 4771.00    1.16964   1.21405   47.058
 4772.00    1.17156   1.21108   47.316
 4773.00    1.16845   1.21141   47.429
 4774.00    1.17532   1.21559   47.673
 4775.00    1.20774   1.22009   48.057
 4776.00    1.20968   1.22212   48.017
 4777.00    1.21609   1.22120   48.202
 4778.00    1.20613   1.21721   48.697
 4779.00    1.18988   1.21148   48.953
 4780.00    1.18770   1.20793   48.877
 4781.00    1.19396   1.20866   48.623
 4782.00    1.19875   1.21060   48.310
 4783.00    1.17986   1.21035   47.780
 4784.00    1.17192   1.20809   46.963
 4785.00    1.16755   1.20493   45.909
 4786.00    1.15250   1.20145   45.164
 4787.00    1.15218   1.19926   45.065
 4788.00    1.16235   1.19956   45.580
 4789.00    1.16034   1.20185   46.527
 4790.00    1.16708   1.20597   47.378
 4791.00    1.18255   1.21248   47.867
 4792.00    1.19534   1.22059   47.358
 4793.00    1.20842   1.22901   46.383
 4794.00    1.22121   1.23571   45.778
 4795.00    1.21399   1.23824   45.923
 4796.00    1.20163   1.23554   46.569
 4797.00    1.19021   1.22897   47.152
 4798.00    1.18002   1.22189   47.541
 4799.00    1.18584   1.21861   47.496
 4800.00    1.18785   1.22129   47.364
 4801.00    1.19251   1.22786   47.129
 4802.00    1.20024   1.23314   46.695
 4803.00    1.19681   1.23126   46.373
 4804.00    1.19601   1.22245   46.156
 4805.00    1.18707   1.21366   46.115
 4806.00    1.18521   1.21081   45.994
 4807.00    1.20147   1.21390   45.814
 4808.00    1.20500   1.21958   45.518
 4809.00    1.19903   1.22407   45.245
 4810.00    1.18101   1.22575   45.081
 4811.00    1.17033   1.22611   45.076
 4812.00    1.17461   1.22777   45.116
 4813.00    1.19151   1.23180   45.612
 4814.00    1.20646   1.23655   46.835
 4815.00    1.20869   1.23989   47.612
 4816.00    1.21882   1.24175   47.391
 4817.00    1.22318   1.24283   46.524
 4818.00    1.21624   1.24273   45.905
 4819.00    1.21846   1.24128   46.182
 4820.00    1.20979   1.23851   46.721
 4821.00    1.21365   1.23317   46.964
 4822.00    1.20341   1.22373   46.986
 4823.00    1.18274   1.21236   47.408
 4824.00    1.18707   1.20498   47.369
 4825.00    1.20699   1.20549   46.581
 4826.00    1.21245   1.21117   46.023
 4827.00    1.19758   1.21600   45.905
 4828.00    1.18702   1.21688   46.010
 4829.00    1.19804   1.21524   46.288
 4830.00    1.19364   1.21346   46.970
 4831.00    1.19034   1.21193   47.721
 4832.00    1.19759   1.21086   47.690
 4833.00    1.19214   1.21077   47.566
 4834.00    1.19836   1.21148   47.303
 4835.00    1.21259   1.21180   46.927
 4836.00    1.21528   1.21135   46.414
 4837.00    1.21670   1.21068   45.738
 4838.00    1.20644   1.20948   45.687
 4839.00    1.19033   1.20713   46.642
 4840.00    1.16933   1.20480   47.225
 4841.00    1.16778   1.20370   47.090
 4842.00    1.18405   1.20294   46.479
 4843.00    1.19232   1.20150   46.452
 4844.00    1.18764   1.20001   46.755
 4845.00    1.18865   1.19928   47.311
 4846.00    1.19097   1.19767   48.769
 4847.00    1.18161   1.19258   49.918
 4848.00    1.18512   1.18527   49.675
 4849.00    1.17439   1.17996   49.443
 4850.00    1.17081   1.17761   51.330
 4851.00    1.18178   1.17527   56.169
 4852.00    1.16272   1.16929   62.291
 4853.00    1.11441   1.15683   63.923
 4854.00    1.08164   1.13722   -1.000
 4855.00    1.07954   1.11474   54.368
 4856.00    1.10367   1.09423   51.445
 4857.00    1.09151   1.07134   49.798
 4858.00    1.05561   1.03208   48.875
 4859.00    0.97052   0.96377   48.493
 4860.00    0.85936   0.87880   48.406
 4861.00    0.79077   0.81793   49.021
 4862.00    0.81420   0.81998   50.421
 4863.00    0.91827   0.88165   51.343
 4864.00    1.02743   0.96305   -1.000
 4865.00    1.07729   1.02970   49.260
 4866.00    1.08908   1.07473   48.516
 4867.00    1.10911   1.10532   48.178
 4868.00    1.12169   1.12600   47.938
 4869.00    1.12555   1.13545   47.675
 4870.00    1.10116   1.13321   46.993
 4871.00    1.08559   1.12620   46.680
 4872.00    1.08066   1.12550   47.203
 4873.00    1.10990   1.13606   47.902
 4874.00    1.13821   1.15225   48.077
 4875.00    1.15679   1.16536   47.983
 4876.00    1.14975   1.17231   48.358
 4877.00    1.14611   1.17642   49.027
 4878.00    1.16748   1.18277   49.161
 4879.00    1.18336   1.19319   48.919
 4880.00    1.20123   1.20378   49.027
 4881.00    1.20341   1.20789   49.862
 4882.00    1.19357   1.20444   50.677
 4883.00    1.19324   1.19879   49.906
 4884.00    1.19586   1.19614   47.767
 4885.00    1.19064   1.19699   45.710
 4886.00    1.16721   1.19920   44.496
 4887.00    1.15361   1.20039   43.814
 4888.00    1.15155   1.19796   43.692
 4889.00    1.13346   1.19048   43.989
 4890.00    1.11331   1.18035   44.998
 4891.00    1.11219   1.17608   45.941
 4892.00    1.14442   1.18575   46.259
 4893.00    1.18032   1.20652   46.077
 4894.00    1.20993   1.22826   46.271
 4895.00    1.23788   1.24391   46.605
 4896.00    1.23626   1.25243   45.941
 4897.00    1.22424   1.25487   45.088
 4898.00    1.21708   1.25183   44.942
 4899.00    1.20426   1.24454   45.546
 4900.00    1.18747   1.23710   46.728
 4901.00    1.19060   1.23299   47.908
 4902.00    1.20419   1.23121   48.181
 4903.00    1.20913   1.23018   47.447
 4904.00    1.21007   1.23244   46.631
 4905.00    1.21585   1.24008   46.004
 4906.00    1.22263   1.24845   45.454
 4907.00    1.21833   1.25081   45.216
 4908.00    1.20191   1.24587   45.799
 4909.00    1.17771   1.23672   47.684
 4910.00    1.16675   1.22771   50.258
 4911.00    1.19056   1.22341   52.176
 4912.00    1.23158   1.22603   52.097
 4913.00    1.24966   1.23339   50.281
 4914.00    1.25104   1.24169   48.739
 4915.00    1.24769   1.24691   48.227
 4916.00    1.23872   1.24482   48.042
 4917.00    1.21497   1.23158   47.230
 4918.00    1.17695   1.20845   46.082
 4919.00    1.12624   1.18304   45.376
 4920.00    1.10102   1.16590   44.992
 4921.00    1.11292   1.16291   44.697
 4922.00    1.13693   1.16962   44.628
 4923.00    1.13810   1.17719   45.309
 4924.00    1.14320   1.18437   46.689
 4925.00    1.16906   1.19650   47.953
 4926.00    1.20898   1.21425   47.741
 4927.00    1.23304   1.23178   47.095
 4928.00    1.24089   1.24483   47.497
 4929.00    1.25112   1.25292   48.920
 4930.00    1.25808   1.25542   49.741
 4931.00    1.25017   1.25010   48.874
 4932.00    1.22477   1.23614   47.200
 4933.00    1.19426   1.21811   45.881
 4934.00    1.17287   1.20643   45.178
 4935.00    1.17578   1.20679   44.911
 4936.00    1.18122   1.21214   45.044
 4937.00    1.17811   1.21186   45.305
 4938.00    1.15841   1.20554   45.238
 4939.00    1.14888   1.20246   44.775
 4940.00    1.17105   1.20987   44.364
 4941.00    1.19520   1.22625   44.223
 4942.00    1.21090   1.24363   44.167
 4943.00    1.22235   1.25541   44.433
 4944.00    1.22559   1.25969   44.808
 4945.00    1.21291   1.25872   45.347
 4946.00    1.20803   1.25669   46.123
 4947.00    1.21701   1.25721   47.745
 4948.00    1.23048   1.26072   50.084
 4949.00    1.24788   1.26458   51.084
 4950.00    1.26552   1.26638   49.326
 4951.00    1.27698   1.26588   46.831
 4952.00    1.25767   1.26405   45.661
 4953.00    1.23442   1.26107   45.525
 4954.00    1.20977   1.25419   45.802
 4955.00    1.19858   1.23840   46.233
 4956.00    1.17359   1.21298   46.934
 4957.00    1.15413   1.18923   47.814
 4958.00    1.17294   1.18427   48.217
 4959.00    1.20693   1.20165   48.162
 4960.00    1.23725   1.22795   47.942
 4961.00    1.25355   1.24847   47.526
 4962.00    1.25056   1.25867   47.012
 4963.00    1.25131   1.26035   46.485
 4964.00    1.24637   1.25602   45.969
 4965.00    1.21798   1.24778   45.625
 4966.00    1.19651   1.23973   45.625
 4967.00    1.20031   1.23545   46.013
 4968.00    1.20920   1.23527   46.554
 4969.00    1.21110   1.23817   47.239
 4970.00    1.21589   1.24360   47.946
 4971.00    1.22454   1.25004   48.566
 4972.00    1.24133   1.25566   49.591
 4973.00    1.25089   1.25929   51.245
 4974.00    1.25725   1.26043   52.293
 4975.00    1.27194   1.25923   51.887
 4976.00    1.26979   1.25610   50.704
 4977.00    1.25383   1.25137   49.194
 4978.00    1.23745   1.24643   47.756
 4979.00    1.22099   1.24089   47.043
 4980.00    1.20279   1.23119   47.358
 4981.00    1.17820   1.21560   47.992
 4982.00    1.15437   1.19841   48.300
 4983.00    1.14496   1.18779   48.135
 4984.00    1.14408   1.18876   47.783
 4985.00    1.15771   1.19982   47.656
 4986.00    1.19127   1.21601   47.549
 4987.00    1.21737   1.23222   47.301
 4988.00    1.22506   1.24227   47.273
 4989.00    1.21719   1.24230   47.709
 4990.00    1.20356   1.23502   48.487
 4991.00    1.20081   1.22784   49.329
 4992.00    1.20178   1.22602   49.706
 4993.00    1.20205   1.22933   49.523
 4994.00    1.21064   1.23535   49.101
 4995.00    1.23005   1.24228   49.197
 4996.00    1.25322   1.24742   50.150
 4997.00    1.25705   1.24637   51.036
 4998.00    1.24192   1.23613   50.658
 4999.00    1.22199   1.21890   49.256
 5000.00    1.20510   1.20511   48.153
 5001.00    1.19973   1.20290   48.133
 5002.00    1.20592   1.20923   49.127
 5003.00    1.20952   1.21450   50.780
 5004.00    1.20650   1.21209   52.399
 5005.00    1.20041   1.20234   52.979
 5006.00    1.19528   1.19326   52.298
 5007.00    1.21124   1.19423   51.147
 5008.00    1.23561   1.20537   50.445
 5009.00    1.24421   1.21729   50.344
 5010.00    1.23095   1.22087   50.103
 5011.00    1.21089   1.21412   49.590
 5012.00    1.18925   1.20149   49.461
 5013.00    1.16479   1.19007   49.645
 5014.00    1.16230   1.18579   49.578
 5015.00    1.17794   1.18859   49.177
 5016.00    1.18800   1.19191   48.736
 5017.00    1.18447   1.18959   48.662
 5018.00    1.17655   1.18484   48.907
 5019.00    1.18501   1.18725   48.832
 5020.00    1.19992   1.19877   48.154
 5021.00    1.20316   1.21162   47.337
 5022.00    1.20014   1.22023   46.620
 5023.00    1.19589   1.22690   45.960
 5024.00    1.20000   1.23437   45.712
 5025.00    1.20899   1.24096   46.432
 5026.00    1.21236   1.24342   48.120
 5027.00    1.21377   1.24212   49.532
 5028.00    1.22081   1.24050   50.033
 5029.00    1.22746   1.24068   50.405
 5030.00    1.23401   1.24265   51.669
 5031.00    1.25365   1.24690   53.772
 5032.00    1.27206   1.25265   54.944
 5033.00    1.28097   1.25555   53.617
 5034.00    1.27326   1.25155   50.613
 5035.00    1.23871   1.24217   47.985
 5036.00    1.20514   1.23356   46.504
 5037.00    1.19099   1.22857   45.140
 5038.00    1.22039   1.22226   44.885
 5039.00    1.01701   1.20879   -1.000
 5040.00    0.28892   1.19073   -1.000
 5041.00   -0.12371   1.18009    0.000
 5042.00    0.10185   1.18653   -1.000
 5043.00    0.54793   1.20767   -1.000
 5044.00    1.06067   1.23284   -1.000
 5045.00    1.25424   1.25322   46.547
 5046.00    1.26078   1.26434   45.906
 5047.00    1.24669   1.26451   45.621
 5048.00    1.22108   1.25456   45.595
 5049.00    1.19992   1.23898   45.684
 5050.00    1.19117   1.22407   45.717
 5051.00    1.19875   1.21568   45.546
 5052.00    1.22164   1.21837   45.401
 5053.00    1.24832   1.23225   45.733
 5054.00    1.25899   1.25003   46.729
 5055.00    1.26471   1.26319   48.268
 5056.00    1.28452   1.26964   49.401
 5057.00    1.29483   1.27245   49.336
 5058.00    1.28353   1.27438   48.635
 5059.00    1.27219   1.27626   48.199
 5060.00    1.27136   1.27796   48.017
 5061.00    1.27016   1.27846   47.739
 5062.00    1.26097   1.27538   47.793
 5063.00    1.23750   1.26675   48.190
 5064.00    1.21895   1.25443   48.049
 5065.00    1.21194   1.24433   47.553
 5066.00    1.21559   1.24049   47.350
 5067.00    1.22776   1.24117   47.307
 5068.00    1.22980   1.24283   47.538
 5069.00    1.23266   1.24467   48.653
 5070.00    1.24538   1.24672   50.718
 5071.00    1.25809   1.24737   52.163
 5072.00    1.26674   1.24567   51.789
 5073.00    1.27071   1.24325   50.655
 5074.00    1.27087   1.24208   49.794
 5075.00    1.26800   1.24226   48.978
 5076.00    1.26322   1.24158   48.093
 5077.00    1.25253   1.23637   47.538
 5078.00    1.22253   1.22510   47.360
 5079.00    1.18365   1.21262   47.202
 5080.00    1.17089   1.20699   46.901
 5081.00    1.18550   1.21022   46.605
 5082.00    1.20341   1.21730   46.358
 5083.00    1.21549   1.22476   45.948
 5084.00    1.22918   1.23363   45.478
 5085.00    1.24171   1.24362   45.541
 5086.00    1.26124   1.25147   46.281
 5087.00    1.27101   1.25555   47.281
 5088.00    1.26795   1.25777   48.377
 5089.00    1.27354   1.26053   49.465
 5090.00    1.28309   1.26417   49.991
 5091.00    1.28972   1.26806   49.317
 5092.00    1.29709   1.27204   47.946
 5093.00    1.29918   1.27549   47.120
 5094.00    1.30131   1.27632   47.129
 5095.00    1.29013   1.27217   47.623
 5096.00    1.26343   1.26270   48.245
 5097.00    1.24638   1.25022   48.845
 5098.00    1.22978   1.23895   49.453
 5099.00    1.22719   1.23427   49.659
 5100.00    1.24683   1.23880   49.424
 5101.00    1.26720   1.24916   49.079
 5102.00    1.27707   1.25876   48.510
 5103.00    1.27009   1.26366   47.867
 5104.00    1.26987   1.26321   47.283
 5105.00    1.26236   1.25758   46.797
 5106.00    1.23660   1.24714   46.482
 5107.00    1.20954   1.23565   46.086
 5108.00    1.20335   1.22855   45.656
 5109.00    1.20496   1.22814   45.594
 5110.00    1.21307   1.23337   46.024
 5111.00    1.23776   1.24313   46.694
 5112.00    1.25656   1.25523   47.443
 5113.00    1.27004   1.26593   48.501
 5114.00    1.28306   1.27283   49.898
 5115.00    1.29196   1.27697   50.687
 5116.00    1.30634   1.28053   50.511
 5117.00    1.31802   1.28380   50.174
 5118.00    1.31064   1.28500   49.898
 5119.00    1.30474   1.28261   49.833
 5120.00    1.30577   1.27650   49.838
 5121.00    1.28946   1.26732   49.401
 5122.00    1.26699   1.25605   48.615
 5123.00    1.24399   1.24515   48.061
 5124.00    1.22725   1.23822   47.634
 5125.00    1.23181   1.23661   47.199
 5126.00    1.23494   1.23728   46.974
 5127.00    1.22179   1.23671   47.484
 5128.00    1.21668   1.23509   48.557
 5129.00    1.22610   1.23540   49.484
 5130.00    1.24172   1.23963   49.794
 5131.00    1.25901   1.24652   49.509
 5132.00    1.26635   1.25326   49.589
 5133.00    1.27136   1.25846   50.265
 5134.00    1.27793   1.26204   50.356
 5135.00    1.28559   1.26293   49.670
 5136.00    1.27418   1.25926   49.265
 5137.00    1.26349   1.25059   49.528
 5138.00    1.24253   1.24009   49.776
 5139.00    1.23256   1.23313   49.396
 5140.00    1.23335   1.23258   48.997
 5141.00    1.23677   1.23576   49.322
 5142.00    1.22394   1.23891   50.148
 5143.00    1.21978   1.24241   50.675
 5144.00    1.23770   1.24789   50.595
 5145.00    1.25680   1.25311   49.839
 5146.00    1.25941   1.25506   48.654
 5147.00    1.25547   1.25459   47.410
 5148.00    1.25540   1.25358   46.422
 5149.00    1.25045   1.25113   45.921
 5150.00    1.23746   1.24553   45.820
 5151.00    1.22502   1.23809   45.930
 5152.00    1.21785   1.23310   46.164
 5153.00    1.21480   1.23333   46.610
 5154.00    1.22958   1.23875   47.280
 5155.00    1.26338   1.24857   48.764
 5156.00    1.29262   1.26112   52.147
 5157.00    1.31257   1.27266   -1.000
 5158.00    1.33052   1.28006   -1.000
 5159.00    1.33839   1.28280   -1.000
 5160.00    1.34142   1.28175   -1.000
 5161.00    1.33359   1.27794   -1.000
 5162.00    1.32083   1.27241   -1.000
 5163.00    1.31564   1.26392   -1.000
 5164.00    1.30555   1.24628   -1.000
 5165.00    1.25548   1.21214   -1.000
 5166.00    1.18594   1.16370   52.275
 5167.00    1.12320   1.11936   49.692
 5168.00    1.09849   1.10030   48.801
 5169.00    1.12901   1.10937   48.595
 5170.00    1.15505   1.12612   48.926
 5171.00    1.14253   1.12975   50.314
 5172.00    1.11061   1.12408   53.461
 5173.00    1.12273   1.13190   59.068
 5174.00    1.19755   1.16460   64.398
 5175.00    1.27914   1.20872   -1.000
 5176.00    1.31528   1.24384   -1.000
 5177.00    1.32089   1.26254   -1.000
 5178.00    1.31458   1.26925   49.480
 5179.00    1.29865   1.26765   48.800
 5180.00    1.29199   1.25513   48.555
 5181.00    1.25259   1.22642   48.900
 5182.00    1.18283   1.18439   50.212
 5183.00    1.11886   1.14650   51.675
 5184.00    1.13156   1.13599   51.722
 5185.00    1.20343   1.15887   50.920
 5186.00    1.23183   1.19595   50.129
 5187.00    1.20611   1.22363   49.396
 5188.00    1.09761   1.23529   -1.000
 5189.00    0.98145   1.23696   -1.000
 5190.00    0.93609   1.23301   -1.000
 5191.00    0.95991   1.22459   -1.000
 5192.00    1.02538   1.21584   -1.000
 5193.00    1.11171   1.21324   -1.000
 5194.00    1.18964   1.21769   49.097
 5195.00    1.22769   1.22478   50.556
 5196.00    1.25246   1.23178   52.132
 5197.00    1.28066   1.23923   52.633
 5198.00    1.29584   1.24773   -1.000
 5199.00    1.31663   1.25606   -1.000
 5200.00    1.31690   1.26145   -1.000
 5201.00    1.29955   1.26076   51.102
 5202.00    1.30139   1.25221   -1.000
 5203.00    1.27679   1.23621   47.165
 5204.00    1.23025   1.21668   46.011
 5205.00    1.20336   1.20061   46.232
 5206.00    1.20300   1.19307   47.233
 5207.00    1.20926   1.19273   47.928
 5208.00    1.20287   1.19563   47.715
 5209.00    1.19941   1.20243   46.790
 5210.00    1.22252   1.21686   46.013
 5211.00    1.25467   1.23740   45.597
 5212.00    1.28903   1.25652   45.386
 5213.00    1.30282   1.26657   45.830
 5214.00    1.28498   1.26491   47.092
 5215.00    1.27691   1.25561   48.959
 5216.00    1.28324   1.24785   51.218
 5217.00    1.28700   1.24934   52.829
 5218.00    1.32214   1.26035   -1.000
 5219.00    1.34274   1.27475   -1.000
 5220.00    1.33682   1.28618   -1.000
 5221.00    1.32140   1.29185   46.311
 5222.00    1.32029   1.29051   46.122
 5223.00    1.30074   1.28014   46.895
 5224.00    1.27212   1.25878   47.767
 5225.00    1.22458   1.22904   47.818
 5226.00    1.18631   1.20206   46.867
 5227.00    1.18031   1.19317   45.740
 5228.00    1.20833   1.20759   45.132
 5229.00    1.24633   1.23393   45.024
 5230.00    1.27107   1.25435   45.145
 5231.00    1.27273   1.25940   45.101
 5232.00    1.25506   1.25169   44.858
 5233.00    1.24618   1.24156   44.875
 5234.00    1.24337   1.23941   44.810
 5235.00    1.25247   1.24863   44.734
 5236.00    1.26495   1.26414   45.493
 5237.00    1.28735   1.27811   46.863
 5238.00    1.31224   1.28635   48.018
 5239.00    1.32648   1.28945   48.274
 5240.00    1.32672   1.29006   48.358
 5241.00    1.32330   1.28996   48.641
 5242.00    1.32321   1.29001   48.483
 5243.00    1.32338   1.29077   47.860
 5244.00    1.32951   1.29146   47.357
 5245.00    1.32635   1.28923   47.306
 5246.00    1.30579   1.28211   47.012
 5247.00    1.28977   1.27254   45.998
 5248.00    1.27488   1.26497   44.764
 5249.00    1.26124   1.26066   44.270
 5250.00    1.23584   1.25883   44.598
 5251.00    1.23355   1.25985   45.738
 5252.00    1.25440   1.26330   47.613
 5253.00    1.26944   1.26654   49.867
 5254.00    1.28230   1.26826   51.674
 5255.00    1.30906   1.27111   52.816
 5256.00    1.33003   1.27837   -1.000
 5257.00    1.36128   1.28867   -1.000
 5258.00    1.37445   1.29636   -1.000
 5259.00    1.35244   1.29618   -1.000
 5260.00    1.34163   1.28612   -1.000
 5261.00    1.31671   1.26750   -1.000
 5262.00    1.27404   1.24480   50.606
 5263.00    1.24237   1.22340   48.339
 5264.00    1.21985   1.20760   47.707
 5265.00    1.20969   1.19993   47.697
 5266.00    1.22802   1.19957   47.601
 5267.00    1.22571   1.19978   46.750
 5268.00    1.20388   1.19224   45.197
 5269.00    1.16904   1.17904   44.292
 5270.00    1.15822   1.17474   44.477
 5271.00    1.18175   1.18983   45.497
 5272.00    1.22893   1.21647   46.685
 5273.00    1.25408   1.23779   47.568
 5274.00    1.26247   1.24674   47.848
 5275.00    1.27364   1.24990   46.957
 5276.00    1.28664   1.25674   45.541
 5277.00    1.30362   1.26987   44.103
 5278.00    1.24463   1.28358   43.701
 5279.00    1.26966   1.28977   43.904
 5280.00    1.28954   1.28547   43.915
 5281.00    1.27754   1.27404   43.670
 5282.00    1.25380   1.26171   43.567
 5283.00    1.24970   1.25526   43.805
 5284.00    1.26106   1.25961   44.215
 5285.00    1.28854   1.27444   44.796
 5286.00    1.32423   1.29278   45.986
 5287.00    1.32362   1.30650   47.738
 5288.00    1.34363   1.31310   49.053
 5289.00    1.37340   1.31524   -1.000
 5290.00    1.37263   1.31538   -1.000
 5291.00    1.35725   1.31427   46.700
 5292.00    1.34455   1.31251   46.381
 5293.00    1.34251   1.31032   45.820
 5294.00    1.34030   1.30623   44.602
 5295.00    1.31211   1.29769   43.766
 5296.00    1.27188   1.28455   43.632
 5297.00    1.23786   1.27129   44.047
 5298.00    1.23230   1.26442   44.433
 5299.00    1.25155   1.26654   44.159
 5300.00    1.27517   1.27386   43.696
 5301.00    1.27546   1.28130   43.412
 5302.00    1.27240   1.28799   43.450
 5303.00    1.28218   1.29547   43.693
 5304.00    1.29477   1.30293   43.883
 5305.00    1.32365   1.30726   44.201
 5306.00    1.31487   1.30725   44.640
 5307.00    1.30285   1.30548   45.037
 5308.00    1.30495   1.30558   45.055
 5309.00    1.31544   1.30855   44.721
 5310.00    1.31718   1.31217   44.529
 5311.00    1.33570   1.31380   44.693
 5312.00    1.32552   1.31252   45.009
 5313.00    1.32514   1.30826   45.541
 5314.00    1.31958   1.30058   46.344
 5315.00    1.30991   1.29043   46.773
 5316.00    1.30311   1.28190   46.750
 5317.00    1.30248   1.28016   48.053
 5318.00    1.33292   1.28627   -1.000
 5319.00    1.35454   1.29552   -1.000
 5320.00    1.33459   1.30163   50.714
 5321.00    1.32313   1.30096   47.650
 5322.00    1.30641   1.29321   46.140
 5323.00    1.30390   1.28153   45.672
 5324.00    1.30654   1.27058   45.235
 5325.00    1.29865   1.26049   44.705
 5326.00    1.26956   1.24549   44.520
 5327.00    1.20723   1.22424   44.821
 5328.00    1.17132   1.20837   45.112
 5329.00    1.19906   1.21281   45.614
 5330.00    1.26003   1.23729   46.796
 5331.00    1.29133   1.26545   47.606
 5332.00    1.31020   1.28345   47.167
 5333.00    1.33208   1.29083   45.853
 5334.00    1.33064   1.29281   45.049
 5335.00    1.31651   1.29234   45.080
 5336.00    1.31050   1.29023   45.388
 5337.00    1.31102   1.28665   45.680
 5338.00    1.30465   1.28093   45.901
 5339.00    1.29382   1.27290   46.328
 5340.00    1.27420   1.26599   46.421
 5341.00    1.26744   1.26609   45.656
 5342.00    1.29580   1.27463   44.573
 5343.00    1.31666   1.28544   44.047
 5344.00    1.33160   1.29143   43.930
 5345.00    1.30052   1.29113   43.568
 5346.00    1.28341   1.28743   42.995
 5347.00    1.28559   1.28336   42.688
 5348.00    1.26086   1.28062   42.751
 5349.00    1.26359   1.28089   42.817
 5350.00    1.29533   1.28576   42.981
 5351.00    1.30635   1.29412   43.513
 5352.00    1.30361   1.30241   44.263
 5353.00    1.30900   1.30866   44.904
 5354.00    1.32652   1.31372   45.193
 5355.00    1.31762   1.31875   45.453
 5356.00    1.32915   1.32317   45.727
 5357.00    1.34086   1.32566   45.551
 5358.00    1.34701   1.32578   45.567
 5359.00    1.34023   1.32357   46.079
 5360.00    1.34959   1.31879   47.292
 5361.00    1.34784   1.31165   48.737
 5362.00    1.34582   1.30337   -1.000
 5363.00    1.33949   1.29576   -1.000
 5364.00    1.32657   1.29037   44.621
 5365.00    1.31348   1.28801   43.626
 5366.00    1.29069   1.28794   43.369
 5367.00    1.29020   1.28724   43.531
 5368.00    1.28833   1.28197   43.537
 5369.00    1.26507   1.27015   43.635
 5370.00    1.23117   1.25537   43.908
 5371.00    1.22253   1.24709   44.359
 5372.00    1.24655   1.25359   44.789
 5373.00    1.28825   1.27294   44.980
 5374.00    1.31560   1.29445   44.923
 5375.00    1.32863   1.30894   44.685
 5376.00    1.33283   1.31511   44.197
 5377.00    1.33638   1.31660   44.158
 5378.00    1.33232   1.31598   44.390
 5379.00    1.32538   1.31303   44.853
 5380.00    1.31201   1.30762   45.555
 5381.00    1.31983   1.30144   46.033
 5382.00    1.32815   1.29708   46.203
 5383.00    1.32809   1.29633   46.218
 5384.00    1.32634   1.29958   46.383
 5385.00    1.33721   1.30572   46.761
 5386.00    1.34954   1.31209   47.424
 5387.00    1.34959   1.31546   48.360
 5388.00    1.35052   1.31407   48.213
 5389.00    1.34772   1.30861   -1.000
 5390.00    1.33548   1.30139   45.401
 5391.00    1.31052   1.29466   45.242
 5392.00    1.29693   1.28952   45.370
 5393.00    1.29453   1.28585   45.827
 5394.00    1.29149   1.28182   47.326
 5395.00    1.29272   1.27432   48.812
 5396.00    1.28940   1.26376   49.374
 5397.00    1.29166   1.25717   48.694
 5398.00    1.31292   1.26139   -1.000
 5399.00    1.32514   1.27427   -1.000
 5400.00    1.33863   1.28722   -1.000
 5401.00    1.33839   1.29340   -1.000
 5402.00    1.33052   1.29009   -1.000
 5403.00    1.30286   1.27747   45.100
 5404.00    1.26065   1.25981   44.723
 5405.00    1.24298   1.24614   44.789
 5406.00    1.25487   1.24429   44.771
 5407.00    1.27383   1.25284   44.408
 5408.00    1.27571   1.26236   44.179
 5409.00    1.26393   1.26666   44.428
 5410.00    1.26822   1.26901   44.874
 5411.00    1.27776   1.27531   45.077
 5412.00    1.29069   1.28487   44.857
 5413.00    1.31844   1.29195   44.768
 5414.00    1.32503   1.29450   45.446
 5415.00    1.31471   1.29584   45.733
 5416.00    1.30913   1.29913   45.135
 5417.00    1.32225   1.30363   44.455
 5418.00    1.34664   1.30681   44.805
 5419.00    1.34733   1.30781   -1.000
 5420.00    1.33527   1.30732   47.492
 5421.00    1.34911   1.30543   -1.000
 5422.00    1.34416   1.30164   -1.000
 5423.00    1.32022   1.29653   46.658
 5424.00    1.31138   1.29312   47.366
 5425.00    1.32241   1.29487   47.802
 5426.00    1.34303   1.30026   -1.000
 5427.00    1.35388   1.30198   -1.000
 5428.00    1.33103   1.29488   45.133
 5429.00    1.27682   1.28355   44.259
 5430.00    1.25791   1.27750   43.699
 5431.00    1.27444   1.27888   43.397
 5432.00    1.29883   1.28057   43.356
 5433.00    1.28712   1.27688   43.426
 5434.00    1.27576   1.27131   44.029
 5435.00    1.28203   1.27230   45.363
 5436.00    1.29800   1.28303   47.246
 5437.00    1.31264   1.29871   48.474
 5438.00    1.34336   1.31273   47.764
 5439.00    1.35498   1.32196   46.165
 5440.00    1.34884   1.32701   45.034
 5441.00    1.35898   1.32933   44.743
 5442.00    1.35682   1.32873   44.843
 5443.00    1.34274   1.32287   45.366
 5444.00    1.32235   1.30921   46.527
 5445.00    1.28613   1.28908   47.834
 5446.00    1.26656   1.27045   48.543
 5447.00    1.28000   1.26355   47.520
 5448.00    1.31825   1.27180   -1.000
 5449.00    1.34423   1.28863   -1.000
 5450.00    1.34334   1.30385   44.782
 5451.00    1.34537   1.31104   45.428
 5452.00    1.34593   1.30878   46.267
 5453.00    1.33840   1.29798   46.802
 5454.00    1.30687   1.28216   46.871
 5455.00    1.28024   1.26962   46.225
 5456.00    1.29058   1.26954   45.756
 5457.00    1.32756   1.28315   45.508
 5458.00    1.35087   1.30171   -1.000
 5459.00    1.34086   1.31474   44.994
 5460.00    1.34280   1.31817   45.479
 5461.00    1.34085   1.31396   45.892
 5462.00    1.33396   1.30642   46.043
 5463.00    1.33845   1.30071   46.336
 5464.00    1.33450   1.30034   46.869
 5465.00    1.34621   1.30454   -1.000
 5466.00    1.37186   1.30981   -1.000
 5467.00    1.36169   1.31394   -1.000
 5468.00    1.35692   1.31689   -1.000
 5469.00    1.37571   1.31886   -1.000
 5470.00    1.36821   1.31902   -1.000
 5471.00    1.35893   1.31665   -1.000
 5472.00    1.36429   1.31221   -1.000
 5473.00    1.35805   1.30598   -1.000
 5474.00    1.32732   1.29699   46.030
 5475.00    1.31443   1.28516   45.201
 5476.00    1.29081   1.27464   45.041
 5477.00    1.28314   1.27250   45.595
 5478.00    1.31036   1.28101   46.175
 5479.00    1.33561   1.29341   -1.000
 5480.00    1.35509   1.30144   -1.000
 5481.00    1.33790   1.30380   45.903
 5482.00    1.33512   1.30490   45.609
 5483.00    1.34529   1.30859   45.519
 5484.00    1.34587   1.31449   45.622
 5485.00    1.35968   1.31909   -1.000
 5486.00    1.35815   1.31971   45.700
 5487.00    1.34236   1.31695   46.062
 5488.00    1.34275   1.31359   46.239
 5489.00    1.34946   1.31204   45.871
 5490.00    1.35329   1.31300   -1.000
 5491.00    1.35261   1.31565   46.092
 5492.00    1.35731   1.31820   -1.000
 5493.00    1.35499   1.31903   46.592
 5494.00    1.33908   1.31732   46.249
 5495.00    1.35201   1.31285   -1.000
 5496.00    1.34678   1.30644   -1.000
 5497.00    1.33090   1.30121   47.220
 5498.00    1.33429   1.30020   46.625
 5499.00    1.34173   1.30178   46.001
 5500.00    1.34070   1.30132   45.986
 5501.00    1.32901   1.29802   46.492
 5502.00    1.33116   1.29607   47.417
 5503.00    1.34474   1.29788   -1.000
 5504.00    1.35917   1.29973   -1.000
 5505.00    1.36005   1.29699   -1.000
 5506.00    1.33916   1.29152   -1.000
 5507.00    1.33462   1.28975   -1.000
 5508.00    1.35179   1.29459   -1.000
 5509.00    1.36190   1.30195   -1.000
 5510.00    1.35043   1.30552   -1.000
 5511.00    1.34598   1.30349   -1.000
 5512.00    1.34193   1.29893   -1.000
 5513.00    1.33377   1.29584   44.827
 5514.00    1.34497   1.29645   -1.000
 5515.00    1.36387   1.30084   -1.000
 5516.00    1.37406   1.30775   -1.000
 5517.00    1.36978   1.31543   -1.000
 5518.00    1.37696   1.32190   -1.000
 5519.00    1.38217   1.32566   -1.000
 5520.00    1.38375   1.32660   -1.000
 5521.00    1.37586   1.32616   -1.000
 5522.00    1.37205   1.32582   -1.000
 5523.00    1.37660   1.32495   -1.000
 5524.00    1.36602   1.32081   -1.000
 5525.00    1.34476   1.31082   46.114
 5526.00    1.33661   1.29578   -1.000
 5527.00    1.31372   1.28156   45.549
 5528.00    1.30283   1.27591   45.430
 5529.00    1.31411   1.28223   45.141
 5530.00    1.33831   1.29592   -1.000
 5531.00    1.35453   1.30805   -1.000
 5532.00    1.35107   1.31257   -1.000
 5533.00    1.34524   1.30996   45.173
 5534.00    1.33467   1.30553   45.513
 5535.00    1.33534   1.30480   45.522
 5536.00    1.34371   1.30918   45.386
 5537.00    1.35697   1.31582   -1.000
 5538.00    1.36702   1.32163   -1.000
 5539.00    1.37596   1.32564   -1.000
 5540.00    1.38038   1.32790   -1.000
 5541.00    1.37154   1.32817   -1.000
 5542.00    1.36529   1.32630   -1.000
 5543.00    1.35764   1.32336   44.953
 5544.00    1.36101   1.32130   -1.000
 5545.00    1.36192   1.32119   -1.000
 5546.00    1.36238   1.32285   -1.000
 5547.00    1.36954   1.32606   -1.000
 5548.00    1.37125   1.33057   -1.000
 5549.00    1.37846   1.33484   -1.000
 5550.00    1.38785   1.33677   -1.000
 5551.00    1.38668   1.33591   -1.000
 5552.00    1.37813   1.33361   -1.000
 5553.00    1.36941   1.33131   -1.000
 5554.00    1.36111   1.32969   46.269
 5555.00    1.34899   1.32907   46.374
 5556.00    1.35546   1.32944   46.449
 5557.00    1.36338   1.33032   46.438
 5558.00    1.36406   1.33122   46.330
 5559.00    1.36451   1.33187   46.323
 5560.00    1.35655   1.33173   46.410
 5561.00    1.35802   1.33001   46.377
 5562.00    1.35633   1.32715   46.438
 5563.00    1.30442   1.32473   46.452
 5564.00    1.07820   1.32347   -1.000
 5565.00    0.10734   1.32247   -1.000
 5566.00   -3.08949   1.32064    0.000
 5567.00   -8.47831   1.31801    0.000
 5568.00  -11.57602   1.31526    0.000
 5569.00   -8.25567   1.31323    0.000
 5570.00   -1.89602   1.31173    0.000
 5571.00    1.17000   1.30946   -1.000
 5572.00    1.35214   1.30690   -1.000
 5573.00    1.30169   1.30657   45.724
 5574.00    1.33885   1.30940   45.803
 5575.00    1.35132   1.31389   -1.000
 5576.00    1.35144   1.31833   -1.000
 5577.00    1.34677   1.32206   48.713
 5578.00    1.36364   1.32510   -1.000
 5579.00    1.38537   1.32709   -1.000
 5580.00    1.38512   1.32730   -1.000
 5581.00    1.36836   1.32613   -1.000
 5582.00    1.36087   1.32499   -1.000
 5583.00    1.36299   1.32367   -1.000
 5584.00    1.35192   1.31931   -1.000
 5585.00    1.32568   1.30928   46.934
 5586.00    1.30939   1.29521   46.356
 5587.00    1.29661   1.28252   46.352
 5588.00    1.29318   1.27645   47.012
 5589.00    1.30872   1.27891   47.718
 5590.00    1.32790   1.28769   -1.000
 5591.00    1.34534   1.29768   -1.000
 5592.00    1.35142   1.30405   -1.000
 5593.00    1.34444   1.30610   -1.000
 5594.00    1.34137   1.30725   -1.000
 5595.00    1.34719   1.31021   -1.000
 5596.00    1.34963   1.31276   -1.000
 5597.00    1.34585   1.31128   44.643
 5598.00    1.33433   1.30656   44.649
 5599.00    1.32497   1.30151   44.736
 5600.00    1.32708   1.29673   44.766
 5601.00    1.32891   1.29286   -1.000
 5602.00    1.31808   1.29322   44.685
 5603.00    1.31910   1.30054   45.255
 5604.00    1.34762   1.31327   46.542
 5605.00    1.36979   1.32649   -1.000
 5606.00    1.37960   1.33606   -1.000
 5607.00    1.39251   1.34120   -1.000
 5608.00    1.39719   1.34351   -1.000
 5609.00    1.39710   1.34491   -1.000
 5610.00    1.39751   1.34611   -1.000
 5611.00    1.40162   1.34582   -1.000
 5612.00    1.39442   1.34111   -1.000
 5613.00    1.37515   1.32981   -1.000
 5614.00    1.33371   1.31444   47.287
 5615.00    1.30546   1.30311   47.623
 5616.00    1.31836   1.30284   47.048
 5617.00    1.34283   1.31200   46.276
 5618.00    1.36674   1.32304   -1.000
 5619.00    1.37995   1.33041   -1.000
 5620.00    1.39181   1.33380   -1.000
 5621.00    1.39155   1.33472   -1.000
 5622.00    1.38142   1.33318   -1.000
 5623.00    1.36811   1.32902   -1.000
 5624.00    1.35124   1.32450   45.401
 5625.00    1.35020   1.32306   45.703
 5626.00    1.36155   1.32588   -1.000
 5627.00    1.36679   1.33085   -1.000
 5628.00    1.36887   1.33544   -1.000
 5629.00    1.37404   1.33879   -1.000
 5630.00    1.37886   1.34093   -1.000
 5631.00    1.37930   1.34177   -1.000
 5632.00    1.38102   1.34128   -1.000
 5633.00    1.39166   1.33999   -1.000
 5634.00    1.39648   1.33855   -1.000
 5635.00    1.37883   1.33672   -1.000
 5636.00    1.36749   1.33417   -1.000
 5637.00    1.36906   1.33156   -1.000
 5638.00    1.37371   1.32960   -1.000
 5639.00    1.37509   1.32804   -1.000
 5640.00    1.37060   1.32645   -1.000
 5641.00    1.36926   1.32547   -1.000
 5642.00    1.36366   1.32619   -1.000
 5643.00    1.35881   1.32854   45.215
 5644.00    1.37206   1.33124   -1.000
 5645.00    1.38308   1.33326   -1.000
 5646.00    1.38038   1.33446   -1.000
 5647.00    1.38465   1.33518   -1.000
 5648.00    1.38536   1.33562   -1.000
 5649.00    1.37925   1.33583   -1.000
 5650.00    1.38716   1.33614   -1.000
 5651.00    1.39197   1.33689   -1.000
 5652.00    1.38334   1.33765   -1.000
 5653.00    1.38088   1.33750   -1.000
 5654.00    1.37946   1.33530   -1.000
 5655.00    1.36525   1.32930   -1.000
 5656.00    1.33907   1.31834   46.112
 5657.00    1.31964   1.30545   46.399
 5658.00    1.31344   1.29758   46.549
 5659.00    1.31732   1.29882   46.491
 5660.00    1.33346   1.30604   46.256
 5661.00    1.35161   1.31306   -1.000
 5662.00    1.34623   1.31796   45.443
 5663.00    1.33541   1.32332   44.994
 5664.00    1.34963   1.32936   44.824
 5665.00    1.36117   1.33242   44.943
 5666.00    1.35411   1.33049   44.925
 5667.00    1.34249   1.32604   44.808
 5668.00    1.33877   1.32325   44.923
 5669.00    1.34326   1.32418   45.141
 5670.00    1.35394   1.32791   45.371
 5671.00    1.36445   1.33256   45.806
 5672.00    1.37156   1.33678   -1.000
 5673.00    1.37155   1.33981   46.642
 5674.00    1.37362   1.34160   46.491
 5675.00    1.38593   1.34280   -1.000
 5676.00    1.38880   1.34393   -1.000
 5677.00    1.38397   1.34461   -1.000
 5678.00    1.37889   1.34400   -1.000
 5679.00    1.37268   1.34166   -1.000
 5680.00    1.36687   1.33746   46.001
 5681.00    1.34856   1.33163   45.395
 5682.00    1.33777   1.32535   45.077
 5683.00    1.34572   1.32103   44.924
 5684.00    1.34983   1.32046   44.940
 5685.00    1.35398   1.32270   -1.000
 5686.00    1.35945   1.32490   -1.000
 5687.00    1.35301   1.32536   45.418
 5688.00    1.34412   1.32500   45.936
 5689.00    1.35543   1.32593   46.391
 5690.00    1.37121   1.32926   -1.000
 5691.00    1.37957   1.33423   -1.000
 5692.00    1.38760   1.33898   -1.000
 5693.00    1.38792   1.34215   -1.000
 5694.00    1.38642   1.34368   -1.000
 5695.00    1.38475   1.34412   -1.000
 5696.00    1.37038   1.34371   47.033
 5697.00    1.36374   1.34197   47.858
 5698.00    1.37221   1.33848   -1.000
 5699.00    1.37434   1.33377   -1.000
 5700.00    1.36831   1.32928   -1.000
 5701.00    1.37066   1.32660   -1.000
 5702.00    1.37509   1.32685   -1.000
 5703.00    1.37858   1.32939   -1.000
 5704.00    1.37541   1.33157   -1.000
 5705.00    1.36315   1.33086   -1.000
 5706.00    1.34863   1.32640   45.416
 5707.00    1.33520   1.31895   45.287
 5708.00    1.31380   1.31056   45.087
 5709.00    1.30073   1.30415   44.813
 5710.00    1.29089   1.30247   44.575
 5711.00    1.30272   1.30655   44.440
 5712.00    1.31347   1.31482   44.364
 5713.00    1.32561   1.32399   44.307
 5714.00    1.34959   1.33129   44.365
 5715.00    1.36195   1.33613   44.666
 5716.00    1.36477   1.33941   45.124
 5717.00    1.36842   1.34186   45.523
 5718.00    1.37575   1.34386   -1.000
 5719.00    1.38044   1.34588   -1.000
 5720.00    1.36982   1.34802   45.170
 5721.00    1.36712   1.34984   45.388
 5722.00    1.37082   1.35106   45.337
 5723.00    1.37846   1.35159   44.952
 5724.00    1.38125   1.35080   44.613
 5725.00    1.37249   1.34801   44.570
 5726.00    1.36731   1.34385   44.632
 5727.00    1.36482   1.34037   44.744
 5728.00    1.36258   1.33910   44.809
 5729.00    1.36467   1.33996   44.885
 5730.00    1.36534   1.34176   44.964
 5731.00    1.36944   1.34354   45.055
 5732.00    1.37020   1.34536   45.005
 5733.00    1.37166   1.34780   44.937
 5734.00    1.38057   1.35032   44.684
 5735.00    1.37417   1.35163   44.407
 5736.00    1.36199   1.35160   44.528
 5737.00    1.36552   1.35113   44.941
 5738.00    1.36989   1.35081   45.191
 5739.00    1.37008   1.35087   45.024
 5740.00    1.37084   1.35115   44.838
 5741.00    1.36802   1.35118   45.074
 5742.00    1.37207   1.35098   45.596
 5743.00    1.37882   1.35122   46.084
 5744.00    1.38395   1.35202   -1.000
 5745.00    1.38495   1.35239   -1.000
 5746.00    1.38137   1.35153   44.911
 5747.00    1.37275   1.35003   44.299
 5748.00    1.36767   1.34946   44.288
 5749.00    1.36495   1.35021   44.724
 5750.00    1.36711   1.35045   45.303
 5751.00    1.35754   1.34818   45.921
 5752.00    1.34987   1.34358   46.244
 5753.00    1.35275   1.33954   45.897
 5754.00    1.35306   1.33941   45.124
 5755.00    1.35020   1.34378   44.506
 5756.00    1.36054   1.35035   44.285
 5757.00    1.36593   1.35614   44.232
 5758.00    1.35429   1.35889   44.165
 5759.00    1.35496   1.35755   44.218
 5760.00    1.35913   1.35283   44.358
 5761.00    1.34721   1.34706   44.586
 5762.00    1.33595   1.34351   44.861
 5763.00    1.33817   1.34478   45.009
 5764.00    1.34355   1.35031   45.071
 5765.00    1.35015   1.35638   45.006
 5766.00    1.35614   1.35984   44.802
 5767.00    1.35009   1.36059   44.718
 5768.00    1.34359   1.35996   44.828
 5769.00    1.33306   1.35884   45.384
 5770.00    1.31769   1.35754   46.357
 5771.00    1.31964   1.35619   47.062
 5772.00    1.33760   1.35472   47.102
 5773.00    1.36358   1.35276   46.919
 5774.00    1.38052   1.35028   -1.000
 5775.00    1.38368   1.34822   -1.000
 5776.00    1.38653   1.34725   -1.000
 5777.00    1.38869   1.34637   -1.000
 5778.00    1.38162   1.34411   -1.000
 5779.00    1.37107   1.34025   -1.000
 5780.00    1.36292   1.33568   45.285
 5781.00    1.36430   1.33177   -1.000
 5782.00    1.36584   1.32976   -1.000
 5783.00    1.36848   1.32982   -1.000
 5784.00    1.36798   1.33118   -1.000
 5785.00    1.36054   1.33316   44.270
 5786.00    1.34819   1.33562   44.491
 5787.00    1.34120   1.33844   44.780
 5788.00    1.35203   1.34116   44.652
 5789.00    1.37794   1.34318   -1.000
 5790.00    1.38251   1.34427   -1.000
 5791.00    1.35373   1.34533   43.335
 5792.00    1.34845   1.34779   43.635
 5793.00    1.35967   1.35194   43.990
 5794.00    1.36103   1.35633   44.346
 5795.00    1.36865   1.35875   44.571
 5796.00    1.38689   1.35828   -1.000
 5797.00    1.38513   1.35655   -1.000
 5798.00    1.37753   1.35620   44.209
 5799.00    1.37062   1.35820   44.188
 5800.00    1.38222   1.36133   44.154
 5801.00    1.38767   1.36386   44.003
 5802.00    1.36941   1.36460   43.866
 5803.00    1.37321   1.36350   43.924
 5804.00    1.37149   1.36188   44.256
 5805.00    1.37939   1.36130   44.489
 5806.00    1.37863   1.36222   44.316
 5807.00    1.38034   1.36398   44.013
 5808.00    1.38244   1.36553   43.763
 5809.00    1.39705   1.36642   -1.000
 5810.00    1.38375   1.36695   43.391
 5811.00    1.38255   1.36733   43.435
 5812.00    1.39197   1.36710   43.583
 5813.00    1.38039   1.36558   43.534
 5814.00    1.38031   1.36295   43.464
 5815.00    1.38357   1.36065   43.385
 5816.00    1.37795   1.36038   43.339
 5817.00    1.37911   1.36252   43.346
 5818.00    1.39157   1.36567   43.426
 5819.00    1.39110   1.36820   43.359
 5820.00    1.39546   1.36966   43.358
 5821.00    1.38741   1.37040   43.307
 5822.00    1.37969   1.37070   43.378
 5823.00    1.37538   1.37065   43.652
 5824.00    1.38705   1.37050   43.748
 5825.00    1.39842   1.37073   43.620
 5826.00    1.40205   1.37157   43.526
 5827.00    1.39908   1.37289   43.647
 5828.00    1.38299   1.37438   43.754
 5829.00    1.38096   1.37551   43.635
 5830.00    1.39806   1.37577   43.324
 5831.00    1.39013   1.37517   43.088
 5832.00    1.37558   1.37392   43.079
 5833.00    1.38259   1.37224   43.215
 5834.00    1.39240   1.37070   43.383
 5835.00    1.38470   1.37007   43.666
 5836.00    1.38099   1.37063   43.890
 5837.00    1.38522   1.37211   44.107
 5838.00    1.39086   1.37408   44.077
 5839.00    1.39777   1.37598   44.138
 5840.00    1.40247   1.37712   44.380
 5841.00    1.39436   1.37708   44.659
 5842.00    1.37732   1.37577   45.093
 5843.00    1.39373   1.37345   45.324
 5844.00    1.40705   1.37072   -1.000
 5845.00    1.39658   1.36820   -1.000
 5846.00    1.38119   1.36627   45.904
 5847.00    1.38903   1.36501   46.336
 5848.00    1.40458   1.36401   -1.000
 5849.00    1.39839   1.36252   -1.000
 5850.00    1.40441   1.35965   -1.000
 5851.00    1.40982   1.35486   -1.000
 5852.00    1.39713   1.34903   -1.000
 5853.00    1.38547   1.34438   -1.000
 5854.00    1.37973   1.34181   -1.000
 5855.00    1.36224   1.33924   44.954
 5856.00    1.35309   1.33482   45.174
 5857.00    1.32802   1.33050   45.137
 5858.00    1.32744   1.33007   44.717
 5859.00    1.36171   1.33451   44.337
 5860.00    1.38614   1.34117   -1.000
 5861.00    1.37919   1.34694   -1.000
 5862.00    1.37419   1.35069   44.244
 5863.00    1.37085   1.35261   44.253
 5864.00    1.37516   1.35268   44.187
 5865.00    1.37915   1.35108   44.314
 5866.00    1.36682   1.34923   44.506
 5867.00    1.36273   1.34930   44.572
 5868.00    1.38965   1.35196   -1.000
 5869.00    1.40506   1.35582   -1.000
 5870.00    1.39599   1.35888   -1.000
 5871.00    1.39714   1.35996   -1.000
 5872.00    1.40275   1.35903   -1.000
 5873.00    1.39083   1.35680   -1.000
 5874.00    1.38760   1.35407   -1.000
 5875.00    1.39514   1.35162   -1.000
 5876.00    1.34719   1.34980   46.040
 5877.00    1.19887   1.34803   -1.000
 5878.00    0.84124   1.34549   -1.000
 5879.00    0.33842   1.34246   -1.000
 5880.00    0.09069   1.33977   -1.000
 5881.00    0.34706   1.33744   -1.000
 5882.00    0.86011   1.33473   -1.000
 5883.00    1.14519   1.33114   -1.000
 5884.00    1.02175   1.32673   -1.000
 5885.00    0.74323   1.32031   -1.000
 5886.00    0.61251   1.30738   -1.000
 5887.00    0.75432   1.28236   -1.000
 5888.00    1.02757   1.24725   -1.000
 5889.00    1.22228   1.21650   47.557
 5890.00    1.27890   1.20646   -1.000
 5891.00    1.27625   1.21876   -1.000
 5892.00    1.30814   1.23844   -1.000
 5893.00    1.32727   1.24766   -1.000
 5894.00    1.30746   1.24083   -1.000
 5895.00    1.28711   1.22860   -1.000
 5896.00    1.28889   1.22698   -1.000
 5897.00    1.31700   1.24145   -1.000
 5898.00    1.34613   1.26408   -1.000
 5899.00    1.35357   1.28535   -1.000
 5900.00    1.35899   1.30181   -1.000
 5901.00    1.36643   1.31389   -1.000
 5902.00    1.37114   1.32250   -1.000
 5903.00    1.38253   1.32820   -1.000
 5904.00    1.36526   1.33164   -1.000
 5905.00    1.34612   1.33373   46.615
 5906.00    1.34471   1.33518   46.327
 5907.00    1.38423   1.33641   -1.000
 5908.00    1.39668   1.33775   -1.000
 5909.00    1.37681   1.33904   -1.000
 5910.00    1.37115   1.33945   -1.000
 5911.00    1.37378   1.33807   -1.000
 5912.00    1.36244   1.33447   45.771
 5913.00    1.34862   1.32930   45.564
 5914.00    1.34444   1.32436   45.428
 5915.00    1.35418   1.32153   -1.000
 5916.00    1.36490   1.32146   -1.000
 5917.00    1.35799   1.32369   -1.000
 5918.00    1.37177   1.32715   -1.000
 5919.00    1.36643   1.33050   -1.000
 5920.00    1.37870   1.33277   -1.000
 5921.00    1.39400   1.33391   -1.000
 5922.00    1.35885   1.33450   45.376
 5923.00    1.34220   1.33548   45.770
 5924.00    1.36140   1.33753   46.077
 5925.00    1.40344   1.34022   -1.000
 5926.00    1.38641   1.34237   -1.000
 5927.00    1.39388   1.34269   -1.000
 5928.00    1.38579   1.34080   -1.000
 5929.00    1.37242   1.33815   -1.000
 5930.00    1.35330   1.33704   45.961
 5931.00    1.34773   1.33806   46.178
 5932.00    1.36341   1.33971   46.115
 5933.00    1.35691   1.34033   45.815
 5934.00    1.35541   1.33984   45.551
 5935.00    1.35217   1.33955   45.383
 5936.00    1.35735   1.34044   45.554
 5937.00    1.35973   1.34165   46.000
 5938.00    1.36343   1.34136   46.495
 5939.00    1.35484   1.33902   46.538
 5940.00    1.36775   1.33593   -1.000
 5941.00    1.37594   1.33359   -1.000
 5942.00    1.37806   1.33275   -1.000
 5943.00    1.38372   1.33371   -1.000
 5944.00    1.39271   1.33598   -1.000
 5945.00    1.39386   1.33792   -1.000
 5946.00    1.40035   1.33803   -1.000
 5947.00    1.38605   1.33660   -1.000
 5948.00    1.37432   1.33559   -1.000
 5949.00    1.36791   1.33641   -1.000
 5950.00    1.36194   1.33831   45.171
 5951.00    1.35407   1.33982   45.034
 5952.00    1.35769   1.34054   45.000
 5953.00    1.36085   1.34054   45.131
 5954.00    1.35379   1.33947   45.403
 5955.00    1.34572   1.33737   45.534
 5956.00    1.34230   1.33549   45.702
 5957.00    1.34284   1.33548   45.543
 5958.00    1.33717   1.33795   45.165
 5959.00    1.35464   1.34197   45.105
 5960.00    1.35799   1.34601   45.099
 5961.00    1.36815   1.34898   44.984
 5962.00    1.37577   1.35022   44.954
 5963.00    1.36998   1.34953   45.252
 5964.00    1.36662   1.34737   45.624
 5965.00    1.36599   1.34487   45.968
 5966.00    1.37588   1.34341   -1.000
 5967.00    1.37009   1.34365   -1.000
 5968.00    1.37467   1.34515   -1.000
 5969.00    1.38547   1.34714   -1.000
 5970.00    1.38140   1.34905   -1.000
 5971.00    1.38392   1.35032   -1.000
 5972.00    1.38198   1.35060   -1.000
 5973.00    1.38658   1.34988   -1.000
 5974.00    1.37205   1.34807   -1.000
 5975.00    1.36311   1.34518   46.559
 5976.00    1.36464   1.34220   46.038
 5977.00    1.35149   1.34063   45.810
 5978.00    1.35120   1.34133   45.665
 5979.00    1.36682   1.34378   45.445
 5980.00    1.36203   1.34615   45.569
 5981.00    1.36889   1.34659   45.651
 5982.00    1.37984   1.34458   -1.000
 5983.00    1.35462   1.34140   44.981
 5984.00    1.34241   1.33922   44.929
 5985.00    1.35326   1.33940   45.307
 5986.00    1.35894   1.34151   45.604
 5987.00    1.36259   1.34415   45.779
 5988.00    1.35440   1.34612   45.847
 5989.00    1.36427   1.34692   45.749
 5990.00    1.37749   1.34701   -1.000
 5991.00    1.37872   1.34780   -1.000
 5992.00    1.37204   1.35040   46.246
 5993.00    1.37967   1.35417   -1.000
 5994.00    1.37863   1.35701   -1.000
 5995.00    1.36806   1.35737   46.158
 5996.00    1.37568   1.35560   -1.000
 5997.00    1.36208   1.35350   46.989
 5998.00    1.37430   1.35246   -1.000
 5999.00    1.37292   1.35222   -1.000
 6000.00    1.36497   1.35168   45.840
 6001.00    1.35526   1.35041   45.970
 6002.00    1.35110   1.34899   46.353
 6003.00    1.35443   1.34803   46.521
 6004.00    1.36723   1.34726   46.245
 6005.00    1.37117   1.34560   -1.000
 6006.00    1.35603   1.34265   46.524
 6007.00    1.34291   1.33987   46.569
 6008.00    1.35344   1.33956   46.450
 6009.00    1.35019   1.34235   46.657
 6010.00    1.36186   1.34616   46.914
 6011.00    1.36713   1.34844   46.641
 6012.00    1.36533   1.34887   46.343
 6013.00    1.35977   1.34892   46.282
 6014.00    1.36956   1.34949   -1.000
 6015.00    1.37366   1.34993   -1.000
 6016.00    1.36034   1.34932   45.771
 6017.00    1.35680   1.34779   45.464
 6018.00    1.35450   1.34598   45.303
 6019.00    1.35017   1.34440   45.267
 6020.00    1.34570   1.34342   45.301
 6021.00    1.34175   1.34310   45.393
 6022.00    1.35202   1.34338   45.263
 6023.00    1.34014   1.34458   45.061
 6024.00    1.33405   1.34707   44.975
 6025.00    1.35038   1.35043   44.957
 6026.00    1.35437   1.35371   44.881
 6027.00    1.35886   1.35635   44.985
 6028.00    1.36002   1.35826   45.244
 6029.00    1.34583   1.35945   45.315
 6030.00    1.36016   1.36019   45.434
 6031.00    1.36735   1.36087   45.304
 6032.00    1.37089   1.36167   45.227
 6033.00    1.37036   1.36277   44.944
 6034.00    1.36888   1.36424   44.636
 6035.00    1.37019   1.36537   44.717
 6036.00    1.36705   1.36500   44.701
 6037.00    1.36743   1.36290   44.638
 6038.00    1.35885   1.35996   44.720
 6039.00    1.36427   1.35708   44.881
 6040.00    1.37673   1.35432   -1.000
 6041.00    1.36683   1.35077   45.003
 6042.00    1.35756   1.34693   45.115
 6043.00    1.35066   1.34655   45.304
 6044.00    1.34614   1.35189   45.455
 6045.00    1.36629   1.35950   45.705
 6046.00    1.38030   1.36478   45.783
 6047.00    1.37823   1.36669   45.646
 6048.00    1.38657   1.36641   -1.000
 6049.00    1.36371   1.36515   45.214
 6050.00    1.36078   1.36382   45.316
 6051.00    1.36665   1.36275   45.528
 6052.00    1.36492   1.36171   46.307
 6053.00    1.34810   1.36039   46.722
 6054.00    1.24608   1.35866   -1.000
 6055.00    1.17563   1.35681   -1.000
 6056.00    0.91899   1.35543   -1.000
 6057.00    0.69262   1.35493   -1.000
 6058.00    1.94262   1.35536   -1.000
 6059.00    1.50048   1.35646   -1.000
 6060.00    1.25418   1.35723   43.905
 6061.00    1.11025   1.35603   -1.000
 6062.00    1.01546   1.35181   -1.000
 6063.00    0.66150   1.34551   -1.000
 6064.00    1.29190   1.34009   44.925
 6065.00    1.34574   1.33882   45.112
 6066.00    1.33365   1.34282   45.361
 6067.00    1.34912   1.35001   45.644
 6068.00    1.36553   1.35691   45.995
 6069.00    1.37488   1.36158   46.204
 6070.00    1.37173   1.36430   46.204
 6071.00    1.36893   1.36601   46.275
 6072.00    1.37397   1.36721   46.386
 6073.00    1.38039   1.36768   46.357
 6074.00    1.37374   1.36696   46.318
 6075.00    1.36454   1.36496   46.246
 6076.00    1.36812   1.36222   46.088
 6077.00    1.36576   1.35961   45.966
 6078.00    1.35946   1.35777   46.138
 6079.00    1.36615   1.35663   46.416
 6080.00    1.36204   1.35553   46.544
 6081.00    1.36546   1.35403   46.425
 6082.00    1.36716   1.35260   46.115
 6083.00    1.35710   1.35208   45.888
 6084.00    1.35375   1.35274   45.638
 6085.00    1.35520   1.35412   45.505
 6086.00    1.34739   1.35575   45.571
 6087.00    1.34397   1.35718   45.670
 6088.00    1.35619   1.35776   45.681
 6089.00    1.36127   1.35695   45.830
 6090.00    1.36368   1.35513   46.600
 6091.00    1.35928   1.35371   47.699
 6092.00    1.34932   1.35398   48.102
 6093.00    1.37168   1.35600   -1.000
 6094.00    1.38109   1.35897   -1.000
 6095.00    1.36277   1.36197   46.056
 6096.00    1.36246   1.36447   46.046
 6097.00    1.36978   1.36601   46.233
 6098.00    1.37360   1.36564   46.297
 6099.00    1.36666   1.36190   46.242
 6100.00    1.34820   1.35394   46.103
 6101.00    1.32523   1.34344   45.947
 6102.00    1.30799   1.33508   45.890
 6103.00    1.30880   1.33339   45.656
 6104.00    1.32548   1.33848   45.651
 6105.00    1.34446   1.34647   45.894
 6106.00    1.34721   1.35369   46.136
 6107.00    1.34182   1.35905   46.222
 6108.00    1.34597   1.36289   46.605
 6109.00    1.35085   1.36515   47.307
 6110.00    1.36353   1.36558   47.857
 6111.00    1.37735   1.36477   48.168
 6112.00    1.38556   1.36398   -1.000
 6113.00    1.38660   1.36395   -1.000
 6114.00    1.37491   1.36437   46.709
 6115.00    1.36834   1.36464   46.842
 6116.00    1.36264   1.36429   47.030
 6117.00    1.35440   1.36209   46.919
 6118.00    1.35515   1.35604   46.725
 6119.00    1.35763   1.34576   46.294
 6120.00    1.34393   1.33378   45.967
 6121.00    1.32588   1.32466   45.966
 6122.00    1.31125   1.32335   46.185
 6123.00    1.32311   1.33075   46.860
 6124.00    1.33814   1.34182   48.094
 6125.00    1.35002   1.35061   49.480
 6126.00    1.36377   1.35477   50.324
 6127.00    1.36639   1.35530   -1.000
 6128.00    1.36196   1.35520   48.446
 6129.00    1.36866   1.35737   47.364
 6130.00    1.36765   1.36187   47.130
 6131.00    1.35469   1.36591   47.259
 6132.00    1.34884   1.36644   47.130
 6133.00    1.34946   1.36107   46.569
 6134.00    1.35278   1.34859   46.183
 6135.00    1.32985   1.33148   46.262
 6136.00    1.29270   1.31716   46.526
 6137.00    1.27437   1.31274   46.843
 6138.00    1.28318   1.31778   47.162
 6139.00    1.30232   1.32500   47.331
 6140.00    1.31753   1.32895   47.244
 6141.00    1.32446   1.33137   46.997
 6142.00    1.32504   1.33656   46.756
 6143.00    1.33827   1.34459   46.898
 6144.00    1.35289   1.35173   47.278
 6145.00    1.35165   1.35507   47.421
 6146.00    1.33747   1.35440   47.500
 6147.00    1.33437   1.35126   47.835
 6148.00    1.34773   1.34780   48.527
 6149.00    1.35166   1.34598   49.703
 6150.00    1.34763   1.34664   51.242
 6151.00    1.34537   1.34900   52.330
 6152.00    1.35539   1.35128   52.235
 6153.00    1.37269   1.35189   -1.000
 6154.00    1.37074   1.35045   -1.000
 6155.00    1.36025   1.34777   -1.000
 6156.00    1.34962   1.34476   49.361
 6157.00    1.34366   1.34130   49.725
 6158.00    1.34341   1.33578   50.362
 6159.00    1.32757   1.32563   50.490
 6160.00    1.29886   1.31050   49.787
 6161.00    1.28004   1.29526   48.888
 6162.00    1.28698   1.28736   48.538
 6163.00    1.29104   1.28988   48.643
 6164.00    1.29105   1.29899   48.604
 6165.00    1.30365   1.30842   48.483
 6166.00    1.30639   1.31420   48.379
 6167.00    1.30015   1.31547   48.196
 6168.00    1.30173   1.31354   47.975
 6169.00    1.29610   1.31158   47.818
 6170.00    1.29452   1.31285   47.635
 6171.00    1.29703   1.31789   47.450
 6172.00    1.30669   1.32440   47.434
 6173.00    1.31616   1.33009   47.579
 6174.00    1.31995   1.33443   47.845
 6175.00    1.33613   1.33757   48.311
 6176.00    1.34641   1.33950   48.839
 6177.00    1.33252   1.34051   49.322
 6178.00    1.32525   1.34107   49.738
 6179.00    1.33037   1.34156   50.221
 6180.00    1.35180   1.34236   50.759
 6181.00    1.35889   1.34348   -1.000
 6182.00    1.35485   1.34438   49.678
 6183.00    1.35981   1.34459   48.588
 6184.00    1.35641   1.34395   48.067
 6185.00    1.35377   1.34221   47.910
 6186.00    1.35230   1.33914   48.032
 6187.00    1.33749   1.33452   48.494
 6188.00    1.32100   1.32781   48.999
 6189.00    1.32118   1.31915   49.170
 6190.00    1.31365   1.31121   48.871
 6191.00    1.29322   1.30839   48.283
 6192.00    1.27854   1.31282   47.896
 6193.00    1.29558   1.32206   47.871
 6194.00    1.32953   1.33153   47.838
 6195.00    1.34226   1.33827   47.787
 6196.00    1.35607   1.34150   47.885
 6197.00    1.36459   1.34131   -1.000
 6198.00    1.34931   1.33875   48.076
 6199.00    1.33572   1.33646   48.425
 6200.00    1.33381   1.33706   48.854
 6201.00    1.34152   1.34064   49.276
 6202.00    1.35728   1.34523   49.905
 6203.00    1.35461   1.34893   50.562
 6204.00    1.32863   1.35114   50.857
 6205.00    1.32068   1.35226   50.556
 6206.00    1.31483   1.35285   50.043
 6207.00    1.29048   1.35304   50.164
 6208.00    1.28947   1.35253   50.301
 6209.00    1.30481   1.35091   49.963
 6210.00    1.29254   1.34779   49.935
 6211.00    1.27805   1.34290   52.014
 6212.00    1.29501   1.33658   53.256
 6213.00    1.33267   1.33034   50.633
 6214.00    1.38323   1.32598   -1.000
 6215.00    1.37715   1.32402   -1.000
 6216.00    1.33990   1.32338   -1.000
 6217.00    1.35016   1.32265   -1.000
 6218.00    1.35200   1.32149   -1.000
 6219.00    1.34929   1.32090   -1.000
 6220.00    1.35593   1.32202   -1.000
 6221.00    1.36656   1.32463   -1.000
 6222.00    1.36752   1.32732   -1.000
 6223.00    1.37101   1.32914   -1.000
 6224.00    1.35444   1.33035   -1.000
 6225.00    1.32885   1.33115   49.226
 6226.00    1.33981   1.33061   49.685
 6227.00    1.35231   1.32710   -1.000
 6228.00    1.34046   1.31982   -1.000
 6229.00    1.32663   1.31064   -1.000
 6230.00    1.31952   1.30381   -1.000
 6231.00    1.32735   1.30310   -1.000
 6232.00    1.33828   1.30880   -1.000
 6233.00    1.35836   1.31772   -1.000
 6234.00    1.39190   1.32561   -1.000
 6235.00    1.40597   1.32953   -1.000
 6236.00    1.40063   1.32894   -1.000
 6237.00    1.39464   1.32542   -1.000
 6238.00    1.38394   1.32134   -1.000
 6239.00    1.37388   1.31854   -1.000
 6240.00    1.37908   1.31736   -1.000
 6241.00    1.38142   1.31655   -1.000
 6242.00    1.36794   1.31437   -1.000
 6243.00    1.36224   1.31031   -1.000
 6244.00    1.35839   1.30580   -1.000
 6245.00    1.34579   1.30351   -1.000
 6246.00    1.33572   1.30556   -1.000
 6247.00    1.33335   1.31164   -1.000
 6248.00    1.35478   1.31871   -1.000
 6249.00    1.37942   1.32288   -1.000
 6250.00    1.38529   1.32172   -1.000
 6251.00    1.37706   1.31598   -1.000
 6252.00    1.36228   1.30924   -1.000
 6253.00    1.34945   1.30498   -1.000
 6254.00    1.34351   1.30402   -1.000
 6255.00    1.33975   1.30484   -1.000
 6256.00    1.33647   1.30584   -1.000
 6257.00    1.34209   1.30703   -1.000
 6258.00    1.35172   1.30959   -1.000
 6259.00    1.35751   1.31404   -1.000
 6260.00    1.36914   1.31956   -1.000
 6261.00    1.38899   1.32492   -1.000
 6262.00    1.38945   1.32911   -1.000
 6263.00    1.37540   1.33145   -1.000
 6264.00    1.36197   1.33209   -1.000
 6265.00    1.33949   1.33223   51.279
 6266.00    1.31953   1.33283   52.420
 6267.00    1.31145   1.33329   53.546
 6268.00    1.31414   1.33246   54.102
 6269.00    1.33026   1.33047   54.073
 6270.00    1.33809   1.32842   -1.000
 6271.00    1.32703   1.32667   52.513
 6272.00    1.32561   1.32410   51.666
 6273.00    1.33957   1.31895   -1.000
 6274.00    1.34359   1.31057   -1.000
 6275.00    1.34442   1.30027   -1.000
 6276.00    1.34819   1.29057   -1.000
 6277.00    1.34436   1.28374   -1.000
 6278.00    1.35174   1.28083   -1.000
 6279.00    1.36146   1.28181   -1.000
 6280.00    1.36584   1.28641   -1.000
 6281.00    1.37536   1.29413   -1.000
 6282.00    1.39107   1.30376   -1.000
 6283.00    1.38783   1.31337   -1.000
 6284.00    1.32505   1.32126   51.025
 6285.00    1.16814   1.32676   -1.000
 6286.00    0.81350   1.33009   -1.000
 6287.00    0.39277   1.33136   -1.000
 6288.00   -0.40562   1.33038    0.000
 6289.00   -2.00065   1.32763    0.000
 6290.00   -3.06286   1.32446    0.000
 6291.00   -0.87805   1.32203    0.000
 6292.00    2.20070   1.32041   -1.000
 6293.00    2.61480   1.31880   -1.000
 6294.00    1.83016   1.31626   -1.000
 6295.00    1.49603   1.31264   -1.000
 6296.00    1.42066   1.30899   -1.000
 6297.00    1.38256   1.30672   -1.000
 6298.00    1.37542   1.30615   -1.000
 6299.00    1.39864   1.30626   -1.000
 6300.00    1.41033   1.30635   -1.000
 6301.00    1.40217   1.30739   -1.000
 6302.00    1.39987   1.31072   -1.000
 6303.00    1.40320   1.31594   -1.000
 6304.00    1.41168   1.32112   -1.000
 6305.00    1.42567   1.32500   -1.000
 6306.00    1.42819   1.32784   -1.000
 6307.00    1.43048   1.33035   -1.000
 6308.00    1.42573   1.33254   -1.000
 6309.00    1.42393   1.33389   -1.000
 6310.00    1.42100   1.33397   -1.000
 6311.00    1.41243   1.33277   -1.000
 6312.00    1.41775   1.33069   -1.000
 6313.00    1.41996   1.32827   -1.000
 6314.00    1.41470   1.32585   -1.000
 6315.00    1.41104   1.32355   -1.000
 6316.00    1.40681   1.32134   -1.000
 6317.00    1.40267   1.31991   -1.000
 6318.00    1.39986   1.32074   -1.000
 6319.00    1.40038   1.32436   -1.000
 6320.00    1.40800   1.32934   -1.000
 6321.00    1.41818   1.33400   -1.000
 6322.00    1.42839   1.33804   -1.000
 6323.00    1.43898   1.34170   -1.000
 6324.00    1.44223   1.34449   -1.000
 6325.00    1.41591   1.34574   -1.000
 6326.00    1.41016   1.34573   -1.000
 6327.00    1.43876   1.34524   -1.000
 6328.00    1.44534   1.34481   -1.000
 6329.00    1.43673   1.34483   -1.000
 6330.00    1.44090   1.34540   -1.000
 6331.00    1.43895   1.34586   -1.000
 6332.00    1.42819   1.34460   -1.000
 6333.00    1.42117   1.34027   -1.000
 6334.00    1.41201   1.33371   -1.000
 6335.00    1.40209   1.32826   -1.000
 6336.00    1.39937   1.32721   -1.000
 6337.00    1.40200   1.33070   -1.000
 6338.00    1.40902   1.33614   -1.000
 6339.00    1.42248   1.34091   -1.000
 6340.00    1.42923   1.34387   -1.000
 6341.00    1.43397   1.34480   -1.000
 6342.00    1.43946   1.34379   -1.000
 6343.00    1.43025   1.34130   -1.000
 6344.00    1.41667   1.33854   -1.000
 6345.00    1.41454   1.33700   -1.000
 6346.00    1.41832   1.33773   -1.000
 6347.00    1.41593   1.34092   -1.000
 6348.00    1.38424   1.34572   -1.000
 6349.00    1.30187   1.35048   49.734
 6350.00    1.14808   1.35352   -1.000
 6351.00    0.85335   1.35400   -1.000
 6352.00    0.41319   1.35220   -1.000
 6353.00    0.05775   1.34926   -1.000
 6354.00    0.40721   1.34648   -1.000
 6355.00    1.23152   1.34441   48.456
 6356.00    1.55629   1.34258   -1.000
 6357.00    1.49434   1.34033   -1.000
 6358.00    1.42342   1.33774   -1.000
 6359.00    1.39659   1.33545   -1.000
 6360.00    1.39444   1.33370   -1.000
 6361.00    1.38446   1.33244   -1.000
 6362.00    1.38492   1.33220   -1.000
 6363.00    1.40212   1.33376   -1.000
 6364.00    1.40574   1.33691   -1.000
 6365.00    1.40123   1.34047   -1.000
 6366.00    1.39541   1.34340   -1.000
 6367.00    1.39229   1.34515   -1.000
 6368.00    1.38580   1.34534   -1.000
 6369.00    1.37760   1.34419   -1.000
 6370.00    1.37230   1.34291   -1.000
 6371.00    1.37843   1.34289   -1.000
 6372.00    1.38331   1.34466   -1.000
 6373.00    1.38541   1.34730   -1.000
 6374.00    1.38393   1.34923   -1.000
 6375.00    1.37206   1.34960   -1.000
 6376.00    1.36262   1.34855   -1.000
 6377.00    1.35957   1.34661   -1.000
 6378.00    1.35696   1.34428   -1.000
 6379.00    1.35195   1.34210   -1.000
 6380.00    1.33774   1.34060   50.385
 6381.00    1.33404   1.34014   51.124
 6382.00    1.32514   1.34070   51.632
 6383.00    1.31336   1.34193   51.580
 6384.00    1.30577   1.34347   50.909
 6385.00    1.30603   1.34515   50.681
 6386.00    1.30186   1.34683   50.936
 6387.00    1.29363   1.34799   51.633
 6388.00    1.28820   1.34799   52.760
 6389.00    1.29423   1.34624   53.314
 6390.00    1.28405   1.34214   52.916
 6391.00    1.25573   1.33596   52.101
 6392.00    1.23336   1.33001   51.734
 6393.00    1.21449   1.32771   51.819
 6394.00    1.20001   1.33053   -1.000
 6395.00    1.21643   1.33609   -1.000
 6396.00    1.21983   1.33991   -1.000
 6397.00    1.19308   1.33900   -1.000
 6398.00    1.17983   1.33424   -1.000
 6399.00    1.15429   1.32974   -1.000
 6400.00    1.13426   1.32967   -1.000
 6401.00    1.13932   1.33482   -1.000
 6402.00    1.14823   1.34226   -1.000
 6403.00    1.13797   1.34805   -1.000
 6404.00    1.12441   1.34980   -1.000
 6405.00    1.12075   1.34716   -1.000
 6406.00    1.11443   1.34139   -1.000
 6407.00    1.09709   1.33515   -1.000
 6408.00    1.07746   1.33165   -1.000
 6409.00    1.05380   1.33216   -1.000
 6410.00    1.04452   1.33460   -1.000
 6411.00    1.04245   1.33651   -1.000
 6412.00    1.04199   1.33773   -1.000
 6413.00    1.02509   1.33907   -1.000
 6414.00    1.00088   1.34069   -1.000
 6415.00    1.00041   1.34243   -1.000
 6416.00    0.99113   1.34373   -1.000
 6417.00    0.97642   1.34340   -1.000
 6418.00    0.97137   1.34058   -1.000
 6419.00    0.94076   1.33636   -1.000
 6420.00    0.19402   1.33362   -1.000
 6421.00    0.00000   1.33487   -2.000
 6422.00    0.00000   1.34005   -2.000
 6423.00    0.00000   1.34683   -2.000
 6424.00    0.00000   1.35278   -2.000
 6425.00    0.00000   1.35672   -2.000
 6426.00    0.00000   1.35803   -2.000
 6427.00    0.00000   1.35581   -2.000
 6428.00    0.00000   1.34977   -2.000
