###################################################################
## OUTPUT of StarlightChains_v04.for    [Cid@UFSC - 01/Apr/2007] ##
###################################################################

## Some input info
NGC5927_a_1.cxt                          [arq_obs]
Base.BC03.S                              [arq_base]
NGC5927_a_1.msk                          [arq_masks]
StCv04.C99.config                        [arq_config]
  150                                    [N_base]
    0                                    [N_YAV_components = # of components with extra extinction!]
    0                                    [i_FitPowerLaw (1/0 = Yes/No)]
-9.99                                    [alpha_PowerLaw]
CCM                                      [red_law_option]
 1.458241                                [q_norm = A(l_norm)/A(V)]

## (Re)Sampling Parameters
 3359.00                                 [l_ini (A)]
 6428.00                                 [l_fin (A)]
    1.00                                 [dl    (A)]     (OBS: dl_cushion =    50.00 A)

## Normalization info
 4020.00                                 [l_norm (A) - for base]
 4010.00                                 [llow_norm (A) - window for f_obs]
 4060.00                                 [lupp_norm (A) - window for f_obs]
6.245917E-15                             [fobs_norm (in input units)]

## S/N
 4730.00                                 [llow_SN (A) - window for S/N]
 4780.00                                 [lupp_SN (A) - window for S/N]
  32.311                                 [S/N in S/N window]
  18.790                                 [S/N in norm. window]
  40.662                                 [S/N_err in S/N window]
  23.646                                 [S/N_err in norm. window]
  1.0000                                 [fscale_chi2]

## etc...
  2147483633                             [idum_orig]
  3065                                   [NOl_eff]
  1813                                   [Nl_eff]
  1252    NSIGMA                         [Ntot_cliped & clip_method]
  3536120                                [Nglobal_steps]
   7                                     [N_chains]
  19                                     [NEX0s_base = N_base in EX0s-fits]
 0   0   1      209   2.0   5.156E+02    [Clip-Bug, RC-Crash & Burn-In warning-flags, n_censored_weights, wei_nsig_threshold & wei_limit]
   148    148.229    148.213      0.016  [idt_all, wdt_TotTime, wdt_UsrTime & wdt_SysTime (sec)]

## Synthesis Results - Best model ##

 1.68102E+00                             [chi2/Nl_eff]
     1.85511                             [adev (%)]

   100.81287                             [sum-of-x (%)]
 3.41807E-14                             [Flux_tot (units of input spectrum!)]
 2.18711E-09                             [Mini_tot (???)]
 1.09538E-09                             [Mcor_tot (???)]

   9.95                                  [v0_min  (km/s)]
  52.62                                  [vd_min  (km/s)]
 1.2595                                  [AV_min  (mag)]
 0.0000                                  [YAV_min (mag)]

# j     x_j(%)      Mini_j(%)     Mcor_j(%)     age_j(yr)     Z_j      (L/M)_j    YAV?  Mstars   component_j        a/Fe...       SSP_chi2r SSP_adev(%)   SSP_AV   SSP_x(%)
  1      5.9113     1.1230E-02    2.2423E-02    1.000000E+06  0.00010  8.160E-03    0   1.0000   age020_m22            0.0000     1.3285E+03    36.9531   4.0000    86.1804
  2     18.0357     5.8751E-03    1.1731E-02    3.160000E+06  0.00010  4.759E-02    0   1.0000   age045_m22            0.0000     2.4422E+02     7.4808   3.5062    96.4957
  3      2.1493     1.7246E-03    3.2994E-03    5.010000E+06  0.00010  1.932E-02    0   0.9582   age055_m22            0.0000     3.2390E+02    12.7554   3.8360    85.6102
  4      0.0000     0.0000E+00    0.0000E+00    6.610000E+06  0.00010  9.973E-03    0   0.9297   age061_m22            0.0000     1.2656E+03    36.8192   4.0000    88.2987
  5      0.0000     0.0000E+00    0.0000E+00    8.710000E+06  0.00010  7.690E-03    0   0.9030   age067_m22            0.0000     1.2361E+03    36.5378   4.0000    88.7371
  6      0.0000     0.0000E+00    0.0000E+00    1.000000E+07  0.00010  6.375E-03    0   0.8902   age070_m22            0.0000     1.2267E+03    36.6955   4.0000    88.9204
  7      0.0000     0.0000E+00    0.0000E+00    1.445000E+07  0.00010  4.874E-03    0   0.8589   age078_m22            0.0000     9.9312E+02    32.4330   4.0000    91.6743
  8      0.0000     0.0000E+00    0.0000E+00    2.512000E+07  0.00010  4.103E-03    0   0.8174   age090_m22            0.0000     6.2668E+02    23.1024   4.0000    96.3281
  9      0.0000     0.0000E+00    0.0000E+00    4.000000E+07  0.00010  3.654E-03    0   0.7830   age104_m22            0.0000     5.1414E+02    16.7208   4.0000    98.4752
 10      0.0000     0.0000E+00    0.0000E+00    5.500000E+07  0.00010  3.093E-03    0   0.7597   age110_m22            0.0000     4.8523E+02    14.7239   4.0000    98.9917
 11      0.0000     0.0000E+00    0.0000E+00    1.015200E+08  0.00010  2.431E-03    0   0.7138   age116_m22            0.0000     4.6266E+02     8.7471   4.0000    98.3388
 12      0.0000     0.0000E+00    0.0000E+00    1.609000E+08  0.00010  1.319E-03    0   0.6775   age120_m22            0.0000     4.4190E+02     7.7421   3.6341    99.3182
 13      0.0000     0.0000E+00    0.0000E+00    2.861200E+08  0.00010  1.075E-03    0   0.6412   age125_m22            0.0000     6.8582E+02     9.2362   3.6795   101.4252
 14      0.0000     0.0000E+00    0.0000E+00    5.088000E+08  0.00010  7.183E-04    0   0.6083   age130_m22            0.0000     7.5980E+02    10.0769   3.4309   102.8416
 15      0.0000     0.0000E+00    0.0000E+00    9.047900E+08  0.00010  4.524E-04    0   0.5785   age135_m22            0.0000     7.5795E+02    10.2726   3.2260   103.9769
 16      0.0000     0.0000E+00    0.0000E+00    1.278050E+09  0.00010  3.018E-04    0   0.5588   age138_m22            0.0000     4.9773E+02     8.5642   2.6881   103.2178
 17      0.0000     0.0000E+00    0.0000E+00    1.434000E+09  0.00010  2.691E-04    0   0.5532   age139_m22            0.0000     4.4676E+02     8.2263   2.5314   102.8492
 18      0.0000     0.0000E+00    0.0000E+00    2.500000E+09  0.00010  1.582E-04    0   0.5296   age150_m22            0.0000     4.2122E+02     8.0142   2.4309   103.6427
 19      0.0000     0.0000E+00    0.0000E+00    4.250000E+09  0.00010  1.007E-04    0   0.5110   age158_m22            0.0000     3.1946E+02     7.1760   2.2824   102.6858
 20      0.0000     0.0000E+00    0.0000E+00    6.250000E+09  0.00010  6.869E-05    0   0.4985   age166_m22            0.0000     2.3786E+02     6.5114   2.2322   100.6174
 21      0.0000     0.0000E+00    0.0000E+00    7.500000E+09  0.00010  5.873E-05    0   0.4931   age171_m22            0.0000     2.3041E+02     6.5093   2.2254   100.1845
 22      0.0000     0.0000E+00    0.0000E+00    1.000000E+10  0.00010  4.481E-05    0   0.4854   age181_m22            0.0000     2.2526E+02     6.4416   2.1847    99.8996
 23      0.0000     0.0000E+00    0.0000E+00    1.300000E+10  0.00010  3.489E-05    0   0.4791   age193_m22            0.0000     2.1318E+02     6.2925   2.1235    99.5101
 24      0.0000     0.0000E+00    0.0000E+00    1.500000E+10  0.00010  3.035E-05    0   0.4766   age201_m22            0.0000     2.0568E+02     6.1966   2.0842    99.4043
 25      0.0000     0.0000E+00    0.0000E+00    1.800000E+10  0.00010  2.510E-05    0   0.4735   age213_m22            0.0000     1.8927E+02     6.0026   2.0148    98.9878
 26      0.0000     0.0000E+00    0.0000E+00    1.000000E+06  0.00040  8.458E-03    0   1.0000   age020_m32            0.0000     1.3265E+03    37.3927   4.0000    86.6603
 27      0.0000     0.0000E+00    0.0000E+00    3.160000E+06  0.00040  3.973E-02    0   1.0000   age045_m32            0.0000     5.7662E+02    20.7365   4.0000    96.0217
 28      0.0000     0.0000E+00    0.0000E+00    5.010000E+06  0.00040  1.935E-02    0   0.9532   age055_m32            0.0000     8.1347E+02    26.7374   4.0000    91.3471
 29      0.0000     0.0000E+00    0.0000E+00    6.610000E+06  0.00040  1.204E-02    0   0.9243   age061_m32            0.0000     1.0920E+03    33.6022   4.0000    90.1798
 30      0.0000     0.0000E+00    0.0000E+00    8.710000E+06  0.00040  9.433E-03    0   0.9001   age067_m32            0.0000     1.0406E+03    32.8462   4.0000    91.0224
 31      0.0000     0.0000E+00    0.0000E+00    1.000000E+07  0.00040  8.053E-03    0   0.8877   age070_m32            0.0000     9.9887E+02    32.0106   4.0000    91.4398
 32      0.0000     0.0000E+00    0.0000E+00    1.445000E+07  0.00040  7.027E-03    0   0.8578   age078_m32            0.0000     5.7540E+02    20.0496   4.0000    94.6359
 33      0.0000     0.0000E+00    0.0000E+00    2.512000E+07  0.00040  4.707E-03    0   0.8166   age090_m32            0.0000     4.1423E+02    13.1724   4.0000    96.2769
 34      0.0000     0.0000E+00    0.0000E+00    4.000000E+07  0.00040  3.714E-03    0   0.7827   age104_m32            0.0000     3.8852E+02     9.4641   4.0000    97.2221
 35      0.0000     0.0000E+00    0.0000E+00    5.500000E+07  0.00040  2.982E-03    0   0.7593   age110_m32            0.0000     4.0103E+02     8.8026   4.0000    97.4501
 36      0.0000     0.0000E+00    0.0000E+00    1.015200E+08  0.00040  2.188E-03    0   0.7143   age116_m32            0.0000     5.1848E+02     8.0847   3.9009    98.7197
 37      0.0000     0.0000E+00    0.0000E+00    1.609000E+08  0.00040  1.690E-03    0   0.6856   age120_m32            0.0000     6.1561E+02     8.5536   3.6825   100.7481
 38      0.0000     0.0000E+00    0.0000E+00    2.861200E+08  0.00040  1.152E-03    0   0.6509   age125_m32            0.0000     6.9895E+02     9.4676   3.4272   102.3737
 39      0.0000     0.0000E+00    0.0000E+00    5.088000E+08  0.00040  7.331E-04    0   0.6182   age130_m32            0.0000     7.2267E+02     9.8966   3.2491   103.1050
 40      0.0000     0.0000E+00    0.0000E+00    9.047900E+08  0.00040  3.960E-04    0   0.5890   age135_m32            0.0000     5.0363E+02     8.8141   2.7680   102.6369
 41      0.0000     0.0000E+00    0.0000E+00    1.278050E+09  0.00040  2.854E-04    0   0.5687   age138_m32            0.0000     4.4878E+02     8.1910   2.4922   104.5735
 42      0.0000     0.0000E+00    0.0000E+00    1.434000E+09  0.00040  2.531E-04    0   0.5632   age139_m32            0.0000     4.4039E+02     8.1417   2.4309   104.5432
 43      0.0000     0.0000E+00    0.0000E+00    2.500000E+09  0.00040  1.488E-04    0   0.5386   age150_m32            0.0000     3.5614E+02     7.4999   2.1715   103.1768
 44      0.0000     0.0000E+00    0.0000E+00    4.250000E+09  0.00040  9.082E-05    0   0.5199   age158_m32            0.0000     2.2164E+02     6.2135   2.0797   100.9537
 45      0.0000     0.0000E+00    0.0000E+00    6.250000E+09  0.00040  6.362E-05    0   0.5076   age166_m32            0.0000     1.5151E+02     5.5558   2.0504    98.5735
 46      0.0000     0.0000E+00    0.0000E+00    7.500000E+09  0.00040  5.289E-05    0   0.5027   age171_m32            0.0000     1.3690E+02     5.3816   2.0111    97.5611
 47      0.0000     0.0000E+00    0.0000E+00    1.000000E+10  0.00040  3.972E-05    0   0.4948   age181_m32            0.0000     1.2433E+02     5.2127   1.9431    96.3654
 48      0.0000     0.0000E+00    0.0000E+00    1.300000E+10  0.00040  3.283E-05    0   0.4870   age193_m32            0.0000     1.5115E+02     5.3714   1.8914    98.6543
 49      0.0000     0.0000E+00    0.0000E+00    1.500000E+10  0.00040  2.925E-05    0   0.4854   age201_m32            0.0000     1.7271E+02     5.5597   1.8700    99.9640
 50      0.0000     0.0000E+00    0.0000E+00    1.800000E+10  0.00040  2.469E-05    0   0.4819   age213_m32            0.0000     1.7965E+02     5.5842   1.8262   100.4128
 51      0.0000     0.0000E+00    0.0000E+00    1.000000E+06  0.00400  1.114E-02    0   1.0000   age020_m42            0.0000     1.2408E+03    35.7477   4.0000    87.2042
 52      0.0000     0.0000E+00    0.0000E+00    3.160000E+06  0.00400  4.073E-02    0   0.9999   age045_m42            0.0000     3.7251E+02    13.3201   4.0000    96.8111
 53      0.0000     0.0000E+00    0.0000E+00    5.010000E+06  0.00400  2.534E-02    0   0.9488   age055_m42            0.0000     6.5496E+02    23.0777   4.0000    93.3512
 54      0.0009     5.1493E-07    9.4795E-07    6.610000E+06  0.00400  2.583E-02    0   0.9220   age061_m42            0.0000     3.4945E+02     9.6888   4.0000    95.9070
 55      0.0000     0.0000E+00    0.0000E+00    8.710000E+06  0.00400  1.706E-02    0   0.8983   age067_m42            0.0000     3.0667E+02     8.1838   4.0000    93.2712
 56      0.0000     0.0000E+00    0.0000E+00    1.000000E+07  0.00400  1.271E-02    0   0.8862   age070_m42            0.0000     3.2058E+02     9.0091   4.0000    92.0627
 57      0.0000     0.0000E+00    0.0000E+00    1.445000E+07  0.00400  7.666E-03    0   0.8571   age078_m42            0.0000     4.5120E+02    14.2538   4.0000    92.3903
 58      0.0000     0.0000E+00    0.0000E+00    2.512000E+07  0.00400  5.070E-03    0   0.8174   age090_m42            0.0000     2.8741E+02     9.5145   3.9923    92.5209
 59      0.0000     0.0000E+00    0.0000E+00    4.000000E+07  0.00400  3.505E-03    0   0.7851   age104_m42            0.0000     2.5403E+02     7.8036   3.6536    95.1880
 60      0.0000     0.0000E+00    0.0000E+00    5.500000E+07  0.00400  3.059E-03    0   0.7629   age110_m42            0.0000     3.3480E+02     6.6744   3.6890    98.3274
 61      0.0000     0.0000E+00    0.0000E+00    1.015200E+08  0.00400  2.268E-03    0   0.7207   age116_m42            0.0000     5.4449E+02     7.8316   3.5779   102.0454
 62      0.0000     0.0000E+00    0.0000E+00    1.609000E+08  0.00400  1.720E-03    0   0.6930   age120_m42            0.0000     5.6138E+02     8.0898   3.4249   103.6357
 63      0.0000     0.0000E+00    0.0000E+00    2.861200E+08  0.00400  1.079E-03    0   0.6613   age125_m42            0.0000     5.4957E+02     8.4051   3.0458   104.1848
 64      0.0000     0.0000E+00    0.0000E+00    5.088000E+08  0.00400  6.261E-04    0   0.6313   age130_m42            0.0000     5.8816E+02     8.9380   2.8485   106.8559
 65      0.0000     0.0000E+00    0.0000E+00    9.047900E+08  0.00400  3.535E-04    0   0.6024   age135_m42            0.0000     4.0671E+02     7.7400   2.4383   107.8635
 66      0.0000     0.0000E+00    0.0000E+00    1.278050E+09  0.00400  2.677E-04    0   0.5837   age138_m42            0.0000     1.6478E+02     5.7901   1.7147   106.7261
 67      0.0000     0.0000E+00    0.0000E+00    1.434000E+09  0.00400  1.910E-04    0   0.5716   age139_m42            0.0000     2.2435E+02     6.2408   1.8906   107.2581
 68      0.0000     0.0000E+00    0.0000E+00    2.500000E+09  0.00400  9.818E-05    0   0.5463   age150_m42            0.0000     8.4926E+01     4.2726   1.6215   103.4859
 69      0.0000     0.0000E+00    0.0000E+00    4.250000E+09  0.00400  5.491E-05    0   0.5269   age158_m42            0.0000     4.2056E+01     3.2815   1.5027   101.1946
 70      0.0000     0.0000E+00    0.0000E+00    6.250000E+09  0.00400  3.857E-05    0   0.5151   age166_m42            0.0000     2.7466E+01     3.1446   1.3711   100.1261
 71      0.0005     2.4495E-04    2.4993E-04    7.500000E+09  0.00400  3.243E-05    0   0.5110   age171_m42            0.0000     2.3226E+01     3.2420   1.2876    99.6719
 72      0.0000     0.0000E+00    0.0000E+00    1.000000E+10  0.00400  2.424E-05    0   0.5028   age181_m42            0.0000     2.0240E+01     3.4284   1.2017    99.1572
 73      0.0000     0.0000E+00    0.0000E+00    1.300000E+10  0.00400  1.883E-05    0   0.4927   age193_m42            0.0000     1.9459E+01     3.5356   1.1588    98.9366
 74      3.5099     3.2292E+00    3.1715E+00    1.500000E+10  0.00400  1.685E-05    0   0.4919   age201_m42            0.0000     1.8685E+01     3.4305   1.1647    98.9441
 75      0.0000     0.0000E+00    0.0000E+00    1.800000E+10  0.00400  1.452E-05    0   0.4874   age213_m42            0.0000     1.7717E+01     3.2678   1.1817    99.2014
 76      0.0000     0.0000E+00    0.0000E+00    1.000000E+06  0.00800  1.286E-02    0   1.0000   age020_m52            0.0000     1.1657E+03    35.2201   4.0000    88.7067
 77      0.0000     0.0000E+00    0.0000E+00    3.160000E+06  0.00800  3.147E-02    0   0.9966   age045_m52            0.0000     1.0891E+03    33.5622   4.0000    89.9939
 78      0.0000     0.0000E+00    0.0000E+00    5.010000E+06  0.00800  2.664E-02    0   0.9443   age055_m52            0.0000     7.6583E+02    25.8791   4.0000    92.9271
 79      0.0000     0.0000E+00    0.0000E+00    6.610000E+06  0.00800  2.151E-02    0   0.9177   age061_m52            0.0000     2.2575E+02     8.9787   3.7109    92.8849
 80      0.0000     0.0000E+00    0.0000E+00    8.710000E+06  0.00800  1.628E-02    0   0.8948   age067_m52            0.0000     2.9534E+02     8.4077   4.0000    93.4336
 81      0.0000     0.0000E+00    0.0000E+00    1.000000E+07  0.00800  1.215E-02    0   0.8827   age070_m52            0.0000     4.0735E+02    12.4016   4.0000    94.3782
 82      0.0000     0.0000E+00    0.0000E+00    1.445000E+07  0.00800  8.739E-03    0   0.8552   age078_m52            0.0000     4.3455E+02    13.4861   4.0000    95.5843
 83      0.0000     0.0000E+00    0.0000E+00    2.512000E+07  0.00800  5.676E-03    0   0.8162   age090_m52            0.0000     3.6487E+02     8.0183   4.0000    95.9494
 84      0.0000     0.0000E+00    0.0000E+00    4.000000E+07  0.00800  3.939E-03    0   0.7841   age104_m52            0.0000     3.7601E+02     7.5396   3.9032    97.0654
 85      0.0000     0.0000E+00    0.0000E+00    5.500000E+07  0.00800  3.155E-03    0   0.7627   age110_m52            0.0000     4.1039E+02     7.3387   3.8566    98.5562
 86      0.0000     0.0000E+00    0.0000E+00    1.015200E+08  0.00800  2.206E-03    0   0.7226   age116_m52            0.0000     4.8405E+02     7.5051   3.6437   102.1858
 87      0.0000     0.0000E+00    0.0000E+00    1.609000E+08  0.00800  1.596E-03    0   0.6963   age120_m52            0.0000     5.1600E+02     7.7436   3.4103   103.8633
 88      0.0000     0.0000E+00    0.0000E+00    2.861200E+08  0.00800  1.002E-03    0   0.6665   age125_m52            0.0000     6.1431E+02     9.0235   3.0814   106.2270
 89      0.0000     0.0000E+00    0.0000E+00    5.088000E+08  0.00800  5.759E-04    0   0.6377   age130_m52            0.0000     6.1242E+02     9.5440   2.7110   110.1653
 90      0.0000     0.0000E+00    0.0000E+00    9.047900E+08  0.00800  2.972E-04    0   0.6086   age135_m52            0.0000     3.7416E+02     8.8143   2.1345   109.6985
 91      0.0000     0.0000E+00    0.0000E+00    1.278050E+09  0.00800  2.242E-04    0   0.5907   age138_m52            0.0000     1.4511E+02     6.3671   1.5219   109.3809
 92      0.0000     0.0000E+00    0.0000E+00    1.434000E+09  0.00800  1.645E-04    0   0.5787   age139_m52            0.0000     1.4129E+02     5.8664   1.6814   108.8871
 93      0.0000     0.0000E+00    0.0000E+00    2.500000E+09  0.00800  7.723E-05    0   0.5519   age150_m52            0.0000     5.3187E+01     4.4852   1.3497   105.9152
 94      0.0000     0.0000E+00    0.0000E+00    4.250000E+09  0.00800  4.151E-05    0   0.5320   age158_m52            0.0000     3.3846E+01     4.0286   1.2839   103.5980
 95      0.0000     0.0000E+00    0.0000E+00    6.250000E+09  0.00800  3.010E-05    0   0.5197   age166_m52            0.0000     2.4540E+01     4.2456   1.0806   102.4573
 96      0.0000     0.0000E+00    0.0000E+00    7.500000E+09  0.00800  2.467E-05    0   0.5139   age171_m52            0.0000     2.5001E+01     4.4227   1.0349   102.1194
 97      1.2370     1.0298E+00    1.0392E+00    1.000000E+10  0.00800  1.862E-05    0   0.5054   age181_m52            0.0000     3.1318E+01     5.1027   0.8920   101.8636
 98     16.6311     1.7992E+01    1.7919E+01    1.300000E+10  0.00800  1.433E-05    0   0.4988   age193_m52            0.0000     4.1257E+01     5.6662   0.7901   102.6352
 99     16.4705     2.0525E+01    2.0228E+01    1.500000E+10  0.00800  1.244E-05    0   0.4936   age201_m52            0.0000     4.6661E+01     5.8631   0.7596   103.1305
100      1.8842     2.7298E+00    2.6642E+00    1.800000E+10  0.00800  1.070E-05    0   0.4888   age213_m52            0.0000     5.1625E+01     6.0936   0.7204   103.0307
101      0.0000     0.0000E+00    0.0000E+00    1.000000E+06  0.02000  1.989E-02    0   1.0000   age020_m62            0.0000     1.1938E+03    34.9203   4.0000    87.9389
102      0.0000     0.0000E+00    0.0000E+00    3.160000E+06  0.02000  3.772E-02    0   0.9858   age045_m62            0.0000     1.0554E+03    32.0518   4.0000    89.8710
103      0.0000     0.0000E+00    0.0000E+00    5.010000E+06  0.02000  3.227E-02    0   0.9342   age055_m62            0.0000     5.6176E+02    19.6626   4.0000    95.3550
104      0.0000     0.0000E+00    0.0000E+00    6.610000E+06  0.02000  2.387E-02    0   0.9090   age061_m62            0.0000     4.6836E+02    14.1501   4.0000    93.7161
105      0.0000     0.0000E+00    0.0000E+00    8.710000E+06  0.02000  1.102E-02    0   0.8861   age067_m62            0.0000     4.9611E+02    13.7775   4.0000    87.7857
106      0.0000     0.0000E+00    0.0000E+00    1.000000E+07  0.02000  1.011E-02    0   0.8751   age070_m62            0.0000     3.9849E+02    11.6631   4.0000    89.9899
107      0.0000     0.0000E+00    0.0000E+00    1.445000E+07  0.02000  7.331E-03    0   0.8472   age078_m62            0.0000     3.4123E+02    10.0192   4.0000    91.2992
108      0.0000     0.0000E+00    0.0000E+00    2.512000E+07  0.02000  4.206E-03    0   0.8099   age090_m62            0.0000     3.3690E+02    10.3817   4.0000    90.0761
109      0.0000     0.0000E+00    0.0000E+00    4.000000E+07  0.02000  3.373E-03    0   0.7799   age104_m62            0.0000     3.1376E+02     7.7139   3.8552    96.2349
110      0.0000     0.0000E+00    0.0000E+00    5.500000E+07  0.02000  2.747E-03    0   0.7595   age110_m62            0.0000     3.7410E+02     7.1785   3.7716    98.8516
111      0.0000     0.0000E+00    0.0000E+00    1.015200E+08  0.02000  1.878E-03    0   0.7221   age116_m62            0.0000     5.2616E+02     7.7058   3.6135   102.5976
112      0.0000     0.0000E+00    0.0000E+00    1.609000E+08  0.02000  1.378E-03    0   0.6978   age120_m62            0.0000     6.2379E+02     8.4085   3.4450   104.6608
113      0.0000     0.0000E+00    0.0000E+00    2.861200E+08  0.02000  8.869E-04    0   0.6700   age125_m62            0.0000     7.6789E+02     9.8626   3.0481   108.4287
114      0.0000     0.0000E+00    0.0000E+00    5.088000E+08  0.02000  4.834E-04    0   0.6430   age130_m62            0.0000     6.5755E+02    10.1550   2.5684   111.3373
115      0.0000     0.0000E+00    0.0000E+00    9.047900E+08  0.02000  2.312E-04    0   0.6152   age135_m62            0.0000     3.2804E+02     8.2907   1.9431   111.7225
116      0.0000     0.0000E+00    0.0000E+00    1.278050E+09  0.02000  1.387E-04    0   0.5927   age138_m62            0.0000     1.4388E+02     6.0725   1.5566   108.5829
117      0.0000     0.0000E+00    0.0000E+00    1.434000E+09  0.02000  1.168E-04    0   0.5865   age139_m62            0.0000     1.1532E+02     5.6344   1.5324   107.2194
118      0.0000     0.0000E+00    0.0000E+00    2.500000E+09  0.02000  5.505E-05    0   0.5610   age150_m62            0.0000     4.6907E+01     5.0372   1.1523   104.9255
119      0.0000     0.0000E+00    0.0000E+00    4.250000E+09  0.02000  3.070E-05    0   0.5407   age158_m62            0.0000     5.2904E+01     6.2671   0.8291   105.1122
120      0.0000     0.0000E+00    0.0000E+00    6.250000E+09  0.02000  2.104E-05    0   0.5277   age166_m62            0.0000     6.6595E+01     6.9443   0.6828   105.6958
121      0.0000     0.0000E+00    0.0000E+00    7.500000E+09  0.02000  1.770E-05    0   0.5223   age171_m62            0.0000     7.6838E+01     7.4036   0.5849   106.1478
122     15.1328     1.8087E+01    1.8494E+01    1.000000E+10  0.02000  1.297E-05    0   0.5121   age181_m62            0.0000     1.0189E+02     8.3505   0.4054   106.8244
123      2.8795     4.6061E+00    4.6417E+00    1.300000E+10  0.02000  9.691E-06    0   0.5047   age193_m62            0.0000     1.2143E+02     8.9811   0.3074   107.3090
124      3.3555     6.2223E+00    6.2107E+00    1.500000E+10  0.02000  8.360E-06    0   0.4999   age201_m62            0.0000     1.4015E+02     9.5694   0.2219   107.7005
125      8.8278     1.9802E+01    1.9555E+01    1.800000E+10  0.02000  6.911E-06    0   0.4946   age213_m62            0.0000     1.6474E+02    10.3279   0.1278   108.1957
126      0.0000     0.0000E+00    0.0000E+00    1.000000E+06  0.05000  2.651E-02    0   0.9998   age020_m72            0.0000     1.1725E+03    34.6866   4.0000    88.9028
127      0.0000     0.0000E+00    0.0000E+00    3.160000E+06  0.05000  4.817E-02    0   0.9577   age045_m72            0.0000     8.8823E+02    28.2803   4.0000    93.0110
128      0.0000     0.0000E+00    0.0000E+00    5.010000E+06  0.05000  3.101E-02    0   0.9147   age055_m72            0.0000     6.1335E+02    20.1243   4.0000    94.4156
129      0.0000     0.0000E+00    0.0000E+00    6.610000E+06  0.05000  1.472E-02    0   0.8877   age061_m72            0.0000     4.9777E+02    12.4305   4.0000    90.6230
130      0.0000     0.0000E+00    0.0000E+00    8.710000E+06  0.05000  1.050E-02    0   0.8638   age067_m72            0.0000     6.1257E+02    19.2603   4.0000    93.0689
131      0.0000     0.0000E+00    0.0000E+00    1.000000E+07  0.05000  8.954E-03    0   0.8524   age070_m72            0.0000     7.3657E+02    25.1439   4.0000    94.2187
132      0.0000     0.0000E+00    0.0000E+00    1.445000E+07  0.05000  6.392E-03    0   0.8262   age078_m72            0.0000     6.6642E+02    23.7061   4.0000    95.0935
133      0.0000     0.0000E+00    0.0000E+00    2.512000E+07  0.05000  4.207E-03    0   0.7902   age090_m72            0.0000     4.1598E+02    14.7312   4.0000    97.3157
134      0.0000     0.0000E+00    0.0000E+00    4.000000E+07  0.05000  3.198E-03    0   0.7618   age104_m72            0.0000     4.2270E+02     6.7768   3.9923    99.4006
135      0.0000     0.0000E+00    0.0000E+00    5.500000E+07  0.05000  2.593E-03    0   0.7432   age110_m72            0.0000     4.8034E+02     7.0964   3.8958   100.7099
136      0.0000     0.0000E+00    0.0000E+00    1.015200E+08  0.05000  1.716E-03    0   0.7092   age116_m72            0.0000     5.8230E+02     7.8742   3.6919   102.6772
137      0.0000     0.0000E+00    0.0000E+00    1.609000E+08  0.05000  1.218E-03    0   0.6876   age120_m72            0.0000     6.7517E+02     8.7117   3.4021   105.2202
138      0.0000     0.0000E+00    0.0000E+00    2.861200E+08  0.05000  7.047E-04    0   0.6618   age125_m72            0.0000     7.1999E+02     9.8167   2.8174   109.3190
139      0.0000     0.0000E+00    0.0000E+00    5.088000E+08  0.05000  3.590E-04    0   0.6356   age130_m72            0.0000     5.3179E+02     9.8800   2.1870   112.7153
140      0.0000     0.0000E+00    0.0000E+00    9.047900E+08  0.05000  1.484E-04    0   0.6088   age135_m72            0.0000     1.6183E+02     7.2339   1.4251   107.9317
141      0.0000     0.0000E+00    0.0000E+00    1.278050E+09  0.05000  9.435E-05    0   0.5924   age138_m72            0.0000     8.7949E+01     6.9682   1.0030   105.9144
142      0.0000     0.0000E+00    0.0000E+00    1.434000E+09  0.05000  7.827E-05    0   0.5847   age139_m72            0.0000     7.3756E+01     6.5024   1.0273   105.3555
143      0.0000     0.0000E+00    0.0000E+00    2.500000E+09  0.05000  3.759E-05    0   0.5583   age150_m72            0.0000     6.7589E+01     6.9813   0.6961   104.9592
144      1.8133     1.5261E+00    1.6375E+00    4.250000E+09  0.05000  1.842E-05    0   0.5374   age158_m72            0.0000     9.4702E+01     8.0754   0.3545   104.6942
145      1.4311     1.8380E+00    1.9238E+00    6.250000E+09  0.05000  1.207E-05    0   0.5242   age166_m72            0.0000     1.3300E+02     9.6864   0.0694   104.9055
146      1.5418     2.3918E+00    2.4752E+00    7.500000E+09  0.05000  9.993E-06    0   0.5183   age171_m72            0.0000     1.3923E+02    10.1705   0.0000   105.1472
147      0.0004     8.9225E-04    9.0519E-04    1.000000E+10  0.05000  7.291E-06    0   0.5081   age181_m72            0.0000     1.7629E+02    11.3512  -0.1530   105.3525
148      0.0000     0.0000E+00    0.0000E+00    1.300000E+10  0.05000  5.316E-06    0   0.5018   age193_m72            0.0000     2.4065E+02    13.4179  -0.4140   106.1064
149      0.0003     1.1606E-03    1.1521E-03    1.500000E+10  0.05000  4.497E-06    0   0.4972   age201_m72            0.0000     2.7796E+02    14.4879  -0.5295   106.8154
150      0.0000     0.0000E+00    0.0000E+00    1.800000E+10  0.05000  3.739E-06    0   0.4924   age213_m72            0.0000     3.2849E+02    15.8381  -0.6931   107.6570


## Synthesis Results - Average & Chains ##

# j      x_j: min, <> & last-chain-values for 1 ...  7 chains
  1      5.9113      5.0075      5.1942      5.1035      5.7407      5.1533      5.6052      5.1915      4.9621
  2     18.0357     14.5809     14.6856     14.9836     15.7096     15.5119     15.5444     15.6735     15.6006
  3      2.1493      1.4107      1.5327      1.4171      1.5724      1.1345      1.3249      1.5880      1.3576
  4      0.0000      0.0469      0.0000      0.0000      0.0000      0.0403      0.0081      0.0585      0.1266
  5      0.0000      0.2368      0.2493      0.3279      0.2263      0.2637      0.0000      0.1764      0.2891
  6      0.0000      0.0368      0.1050      0.3010      0.0000      0.0834      0.0000      0.0000      0.0000
  7      0.0000      0.0542      0.0000      0.0000      0.0506      0.0000      0.0000      0.0000      0.0043
  8      0.0000      0.0311      0.0000      0.0287      0.0000      0.0000      0.0000      0.0000      0.1183
  9      0.0000      0.0157      0.0227      0.0000      0.0000      0.0000      0.0000      0.0000      0.0000
 10      0.0000      0.0269      0.0000      0.1791      0.0000      0.0000      0.0000      0.0000      0.0000
 11      0.0000      0.0122      0.0000      0.0000      0.0000      0.0000      0.0355      0.0000      0.0000
 12      0.0000      0.0045      0.0061      0.0000      0.0000      0.0000      0.0000      0.0000      0.0000
 13      0.0000      0.0023      0.0404      0.0047      0.0000      0.0000      0.0000      0.0000      0.0000
 14      0.0000      0.0017      0.0000      0.0000      0.0000      0.0000      0.0000      0.0000      0.0000
 15      0.0000      0.0016      0.0000      0.0000      0.0000      0.0000      0.0370      0.0000      0.0000
 16      0.0000      0.0022      0.0000      0.0000      0.0000      0.0000      0.0000      0.0000      0.0000
 17      0.0000      0.0028      0.0000      0.0000      0.0000      0.0136      0.0000      0.0000      0.0056
 18      0.0000      0.0039      0.0000      0.0000      0.0000      0.0000      0.0000      0.0000      0.0000
 19      0.0000      0.0071      0.0000      0.0000      0.0000      0.0000      0.0000      0.0000      0.0000
 20      0.0000      0.0110      0.0000      0.0000      0.0000      0.0000      0.0000      0.0000      0.0000
 21      0.0000      0.0147      0.0000      0.0000      0.0000      0.0000      0.0000      0.0000      0.0000
 22      0.0000      0.0125      0.1316      0.0000      0.0000      0.0000      0.0000      0.0000      0.0000
 23      0.0000      0.0112      0.0000      0.0000      0.0000      0.0000      0.0000      0.0082      0.0000
 24      0.0000      0.0136      0.0000      0.0000      0.0000      0.1126      0.0000      0.0190      0.0000
 25      0.0000      0.0184      0.0000      0.0000      0.0000      0.0000      0.0000      0.0000      0.0000
 26      0.0000      0.6393      0.7073      0.5519      0.3876      0.6525      0.7711      0.6869      0.7502
 27      0.0000      0.0471      0.0000      0.0000      0.0000      0.0000      0.0000      0.0000      0.0000
 28      0.0000      0.0664      0.0000      0.0000      0.0465      0.0622      0.0000      0.0000      0.0000
 29      0.0000      0.0627      0.0070      0.0000      0.0000      0.1000      0.0000      0.1105      0.0000
 30      0.0000      0.0284      0.0000      0.0000      0.0000      0.0000      0.0000      0.0000      0.0000
 31      0.0000      0.0604      0.0463      0.0000      0.0000      0.0000      0.0000      0.0000      0.0000
 32      0.0000      0.0247      0.0000      0.0391      0.0000      0.0444      0.0000      0.0000      0.0000
 33      0.0000      0.0134      0.0084      0.0000      0.0000      0.0000      0.0000      0.0226      0.0000
 34      0.0000      0.0192      0.0000      0.0000      0.0000      0.0000      0.0000      0.0000      0.0000
 35      0.0000      0.0123      0.0000      0.0000      0.0000      0.0000      0.0000      0.0000      0.0000
 36      0.0000      0.0052      0.0148      0.0000      0.0000      0.0000      0.0000      0.0000      0.0000
 37      0.0000      0.0042      0.0000      0.0000      0.0000      0.0000      0.0000      0.0000      0.0000
 38      0.0000      0.0030      0.0000      0.0000      0.0000      0.0000      0.0000      0.0000      0.0000
 39      0.0000      0.0020      0.0000      0.0000      0.0000      0.0000      0.0000      0.0000      0.0000
 40      0.0000      0.0020      0.0000      0.0000      0.0000      0.0000      0.0000      0.0000      0.0000
 41      0.0000      0.0046      0.0000      0.0000      0.0000      0.0000      0.0000      0.0000      0.0000
 42      0.0000      0.0054      0.0000      0.0000      0.0000      0.0000      0.0000      0.0000      0.0000
 43      0.0000      0.0073      0.0000      0.0000      0.0000      0.0000      0.0000      0.0059      0.0000
 44      0.0000      0.0146      0.0000      0.0000      0.0000      0.0000      0.0000      0.0000      0.0000
 45      0.0000      0.0510      0.0000      0.0000      0.1559      0.0000      0.2267      0.0000      0.0000
 46      0.0000      0.0516      0.0000      0.0000      0.0000      0.0000      0.0000      0.0000      0.0000
 47      0.0000      0.0352      0.0000      0.0000      0.0000      0.0000      0.1812      0.0000      0.0000
 48      0.0000      0.0207      0.0158      0.0000      0.0000      0.0000      0.0000      0.0000      0.0000
 49      0.0000      0.0158      0.0000      0.0000      0.0000      0.0000      0.0000      0.0000      0.0000
 50      0.0000      0.0162      0.0000      0.0000      0.0000      0.0675      0.0000      0.0000      0.0000
 51      0.0000      0.0162      0.0000      0.0110      0.0000      0.1089      0.0000      0.0000      0.0987
 52      0.0000      0.1919      0.4101      0.0000      0.0000      0.1721      0.4219      0.0635      0.0322
 53      0.0000      0.0303      0.0000      0.0000      0.0000      0.0000      0.0000      0.0000      0.0000
 54      0.0009      1.5297      1.6498      1.4263      1.2918      1.3046      1.2756      1.5957      1.5670
 55      0.0000      0.0471      0.0000      0.2795      0.0000      0.0152      0.0573      0.0000      0.0000
 56      0.0000      0.0393      0.0000      0.0391      0.0000      0.0000      0.0301      0.0000      0.0000
 57      0.0000      0.0211      0.1483      0.0000      0.0000      0.0549      0.0003      0.0670      0.0000
 58      0.0000      0.0221      0.0807      0.0000      0.0000      0.0000      0.0000      0.0000      0.0000
 59      0.0000      0.0097      0.0000      0.0000      0.0000      0.0000      0.0000      0.0000      0.0000
 60      0.0000      0.0053      0.0000      0.0000      0.0000      0.0000      0.0000      0.0000      0.0041
 61      0.0000      0.0037      0.0031      0.0000      0.0000      0.0000      0.0000      0.0000      0.0000
 62      0.0000      0.0047      0.0000      0.0000      0.0000      0.0000      0.0000      0.0000      0.0000
 63      0.0000      0.0031      0.0000      0.0000      0.0000      0.0000      0.0000      0.0000      0.0000
 64      0.0000      0.0028      0.0000      0.0000      0.0000      0.0565      0.0000      0.0000      0.0000
 65      0.0000      0.0066      0.0000      0.0000      0.0550      0.0000      0.0000      0.0000      0.0000
 66      0.0000      0.0128      0.0000      0.0000      0.0000      0.0000      0.0000      0.0000      0.0000
 67      0.0000      0.0092      0.0000      0.0000      0.0000      0.0000      0.0000      0.0000      0.0000
 68      0.0000      0.0264      0.0000      0.0095      0.0000      0.0000      0.0000      0.0135      0.0000
 69      0.0000      0.0667      0.0000      0.0000      0.0000      0.1132      0.0000      0.0000      0.0877
 70      0.0000      0.1083      0.2179      0.3601      0.0087      0.0308      0.0000      0.0000      0.0107
 71      0.0005      0.1342      0.0007      0.0000      0.8339      0.0343      0.0000      0.1908      0.1119
 72      0.0000      0.2076      0.0000      0.0000      0.0417      0.1074      0.0000      0.1284      0.0000
 73      0.0000      0.5054      0.0000      0.8367      0.2731      0.6059      0.3099      0.5644      0.6160
 74      3.5099      0.6441      2.1783      0.6699      0.7710      0.2922      0.4229      0.9440      0.5461
 75      0.0000      0.4037      0.1145      0.5408      0.0802      0.7533      1.3403      0.1626      0.3607
 76      0.0000      0.0154      0.0000      0.0000      0.0000      0.0000      0.0000      0.0295      0.1180
 77      0.0000      0.0238      0.0000      0.0000      0.0000      0.0000      0.0000      0.0082      0.0000
 78      0.0000      0.0181      0.0000      0.0000      0.0000      0.0000      0.0000      0.0000      0.0000
 79      0.0000      0.0186      0.0000      0.0000      0.0000      0.0452      0.0000      0.0000      0.0000
 80      0.0000      0.0160      0.0072      0.0000      0.0000      0.0000      0.0000      0.0000      0.1394
 81      0.0000      0.0096      0.0000      0.0000      0.0000      0.0000      0.0000      0.0000      0.0000
 82      0.0000      0.0107      0.0000      0.0000      0.0000      0.0000      0.0000      0.0000      0.0000
 83      0.0000      0.0081      0.0000      0.0000      0.0000      0.0000      0.0000      0.0000      0.0000
 84      0.0000      0.0071      0.0000      0.0000      0.0000      0.0000      0.0000      0.0000      0.0000
 85      0.0000      0.0052      0.0000      0.0000      0.0000      0.0048      0.0000      0.0000      0.0000
 86      0.0000      0.0051      0.0000      0.0000      0.0000      0.0000      0.0000      0.0000      0.0000
 87      0.0000      0.0033      0.0000      0.0000      0.0000      0.0000      0.0000      0.0000      0.0000
 88      0.0000      0.0022      0.0000      0.0000      0.0000      0.0000      0.0262      0.0000      0.0000
 89      0.0000      0.0022      0.0000      0.0000      0.0000      0.0000      0.0000      0.0000      0.0000
 90      0.0000      0.0026      0.0000      0.0000      0.0000      0.0000      0.0000      0.0000      0.0000
 91      0.0000      0.0081      0.0000      0.0000      0.0000      0.0000      0.0000      0.0000      0.0000
 92      0.0000      0.0085      0.0000      0.0000      0.0000      0.0000      0.0000      0.0000      0.0000
 93      0.0000      0.0387      0.0000      0.0000      0.0000      0.0000      0.1961      0.0000      0.0000
 94      0.0000      0.1129      0.4100      0.0000      0.0000      0.1370      0.0000      0.0000      0.0962
 95      0.0000      0.2485      0.0000      0.0122      0.0000      0.0000      0.1800      0.3182      0.0858
 96      0.0000      0.2688      0.1073      0.3794      0.0000      0.0000      0.5849      0.0000      0.5692
 97      1.2370      6.1940      5.7769      5.6679      6.9406      6.8389      4.0531      6.3418      6.3858
 98     16.6311     14.8600     15.4812     15.0168     15.0278     14.9222     15.4823     15.3906     14.6474
 99     16.4705     14.9077     15.1509     16.6988     14.9417     14.9432     15.8452     14.7951     15.4117
100      1.8842      1.2928      1.1784      1.1400      1.2079      1.7164      1.5939      1.0277      1.5184
101      0.0000      0.0253      0.0000      0.0075      0.0000      0.0000      0.0274      0.0584      0.0000
102      0.0000      0.0180      0.0000      0.0000      0.0000      0.0000      0.0000      0.0000      0.0000
103      0.0000      0.0162      0.0000      0.0013      0.0000      0.0000      0.0000      0.0000      0.0324
104      0.0000      0.0299      0.0009      0.0000      0.0000      0.1385      0.0322      0.0000      0.0000
105      0.0000      0.0381      0.0000      0.0229      0.0000      0.0692      0.0000      0.0000      0.0703
106      0.0000      0.0336      0.0000      0.1032      0.0772      0.0000      0.0000      0.0000      0.0000
107      0.0000      0.0195      0.0000      0.0000      0.0000      0.0000      0.0000      0.0000      0.0041
108      0.0000      0.0068      0.0000      0.0000      0.0000      0.0000      0.0000      0.0000      0.0000
109      0.0000      0.0055      0.0000      0.0000      0.0000      0.0000      0.0000      0.0000      0.0000
110      0.0000      0.0052      0.0000      0.0000      0.0000      0.0000      0.0000      0.0000      0.0000
111      0.0000      0.0032      0.0000      0.0000      0.0000      0.0000      0.0000      0.0549      0.0000
112      0.0000      0.0031      0.0000      0.0000      0.0550      0.0000      0.0000      0.0000      0.0000
113      0.0000      0.0019      0.0000      0.0000      0.0000      0.0000      0.0000      0.0000      0.0000
114      0.0000      0.0019      0.0000      0.0000      0.0000      0.0000      0.0000      0.0000      0.0134
115      0.0000      0.0059      0.0000      0.0000      0.0000      0.0000      0.0000      0.0000      0.0000
116      0.0000      0.0095      0.0000      0.0000      0.0000      0.0003      0.0000      0.0000      0.0303
117      0.0000      0.0098      0.0000      0.0000      0.0000      0.0047      0.0000      0.0106      0.0000
118      0.0000      0.0447      0.0000      0.0000      0.0000      0.0000      0.0000      0.0000      0.0000
119      0.0000      0.0938      0.0548      0.0250      0.0000      0.0000      0.0848      0.0000      0.0000
120      0.0000      0.1639      0.1010      0.0000      0.0000      0.0000      0.0000      0.0000      0.0000
121      0.0000      0.4901      0.0000      0.0000      0.4261      0.4565      0.4027      0.0000      0.5613
122     15.1328     15.9119     15.5860     16.1399     15.9882     15.5053     16.5082     15.8638     15.8590
123      2.8795      2.6023      3.0814      2.8484      2.9078      2.1049      2.9224      2.6880      2.5733
124      3.3555      2.9145      2.9130      3.0919      2.4256      3.3444      2.5033      3.0014      2.9527
125      8.8278      8.8114      8.9059      8.2996      8.9161      8.6639      9.0457      9.7469      8.9621
126      0.0000      0.0168      0.0000      0.0000      0.0000      0.0000      0.0000      0.0000      0.0000
127      0.0000      0.0194      0.0071      0.0000      0.0000      0.0000      0.0194      0.0045      0.0000
128      0.0000      0.0264      0.0000      0.0000      0.0000      0.1209      0.0166      0.0497      0.0000
129      0.0000      0.0107      0.0000      0.0984      0.0000      0.0000      0.0000      0.0000      0.0000
130      0.0000      0.0143      0.0000      0.0000      0.0000      0.0000      0.0000      0.0000      0.0308
131      0.0000      0.0133      0.0000      0.0000      0.0000      0.0000      0.0000      0.0000      0.0000
132      0.0000      0.0119      0.0000      0.0000      0.0000      0.0000      0.0000      0.0000      0.0000
133      0.0000      0.0076      0.0000      0.0146      0.0000      0.0000      0.0000      0.0344      0.0000
134      0.0000      0.0044      0.0000      0.0000      0.0000      0.0000      0.0107      0.0000      0.0000
135      0.0000      0.0032      0.0000      0.0880      0.0000      0.0000      0.0012      0.0000      0.0000
136      0.0000      0.0033      0.0000      0.0005      0.0000      0.0000      0.0000      0.0000      0.0000
137      0.0000      0.0026      0.0000      0.0000      0.0000      0.0000      0.0000      0.0000      0.0000
138      0.0000      0.0016      0.0000      0.0000      0.0000      0.0000      0.0000      0.0000      0.0000
139      0.0000      0.0030      0.0000      0.0000      0.0000      0.0000      0.0000      0.0000      0.0000
140      0.0000      0.0103      0.0000      0.0000      0.0000      0.0000      0.0000      0.0000      0.0000
141      0.0000      0.0196      0.0000      0.0127      0.0000      0.0000      0.0000      0.0000      0.0000
142      0.0000      0.0295      0.0000      0.0000      0.0000      0.0000      0.0000      0.0000      0.0000
143      0.0000      0.0878      0.0000      0.0000      0.0000      0.0000      0.0000      0.0895      0.0000
144      1.8133      0.7322      0.9966      0.6798      1.0721      1.3475      0.6203      0.9696      0.7361
145      1.4311      1.0890      1.2569      1.2757      1.0594      1.3197      1.0815      1.0129      0.9921
146      1.5418      1.1300      1.1386      0.7352      1.4927      1.0936      1.2617      1.1516      1.5526
147      0.0004      0.5201      0.7504      0.7194      0.4272      0.4237      0.0000      0.2010      0.0000
148      0.0000      0.3069      0.3549      0.0002      0.0000      0.1972      0.2267      0.0000      0.3522
149      0.0003      0.5349      0.0000      0.5618      0.5936      0.5190      0.5157      0.5829      0.4914
150      0.0000      0.0744      0.0000      0.0611      0.0000      0.0000      0.0286      0.1353      0.0215

# j      m_j: min, <> & last-chain-values for 1 ...  7 chains
  1  2.2423E-02  1.8828E-02  1.9581E-02  1.9163E-02  2.1733E-02  1.9428E-02  2.1038E-02  1.9423E-02  1.8670E-02
  2  1.1731E-02  9.4005E-03  9.4923E-03  9.6468E-03  1.0197E-02  1.0027E-02  1.0004E-02  1.0054E-02  1.0064E-02
  3  3.2994E-03  2.1467E-03  2.3383E-03  2.1535E-03  2.4091E-03  1.7309E-03  2.0125E-03  2.4045E-03  2.0673E-03
  4  0.0000E+00  1.3400E-04  0.0000E+00  0.0000E+00  0.0000E+00  1.1547E-04  2.3242E-05  1.6645E-04  3.6221E-04
  5  0.0000E+00  8.5323E-04  9.0039E-04  1.1796E-03  8.2102E-04  9.5261E-04  0.0000E+00  6.3241E-04  1.0421E-03
  6  0.0000E+00  1.5759E-04  4.5112E-04  1.2879E-03  0.0000E+00  3.5845E-04  0.0000E+00  0.0000E+00  0.0000E+00
  7  0.0000E+00  2.9295E-04  0.0000E+00  0.0000E+00  2.7560E-04  0.0000E+00  0.0000E+00  0.0000E+00  2.3324E-05
  8  0.0000E+00  1.9006E-04  0.0000E+00  1.7508E-04  0.0000E+00  0.0000E+00  0.0000E+00  0.0000E+00  7.2354E-04
  9  0.0000E+00  1.0322E-04  1.4962E-04  0.0000E+00  0.0000E+00  0.0000E+00  0.0000E+00  0.0000E+00  0.0000E+00
 10  0.0000E+00  2.0275E-04  0.0000E+00  1.3479E-03  0.0000E+00  0.0000E+00  0.0000E+00  0.0000E+00  0.0000E+00
 11  0.0000E+00  1.1008E-04  0.0000E+00  0.0000E+00  0.0000E+00  0.0000E+00  3.1890E-04  0.0000E+00  0.0000E+00
 12  0.0000E+00  7.1243E-05  9.6308E-05  0.0000E+00  0.0000E+00  0.0000E+00  0.0000E+00  0.0000E+00  0.0000E+00
 13  0.0000E+00  4.2285E-05  7.4060E-04  8.5555E-05  0.0000E+00  0.0000E+00  0.0000E+00  0.0000E+00  0.0000E+00
 14  0.0000E+00  4.3565E-05  0.0000E+00  0.0000E+00  0.0000E+00  0.0000E+00  0.0000E+00  0.0000E+00  0.0000E+00
 15  0.0000E+00  6.1179E-05  0.0000E+00  0.0000E+00  0.0000E+00  0.0000E+00  1.4503E-03  0.0000E+00  0.0000E+00
 16  0.0000E+00  1.2546E-04  0.0000E+00  0.0000E+00  0.0000E+00  0.0000E+00  0.0000E+00  0.0000E+00  0.0000E+00
 17  0.0000E+00  1.7650E-04  0.0000E+00  0.0000E+00  0.0000E+00  8.6287E-04  0.0000E+00  0.0000E+00  3.5459E-04
 18  0.0000E+00  3.9555E-04  0.0000E+00  0.0000E+00  0.0000E+00  0.0000E+00  0.0000E+00  0.0000E+00  0.0000E+00
 19  0.0000E+00  1.0984E-03  0.0000E+00  0.0000E+00  0.0000E+00  0.0000E+00  0.0000E+00  0.0000E+00  0.0000E+00
 20  0.0000E+00  2.4409E-03  0.0000E+00  0.0000E+00  0.0000E+00  0.0000E+00  0.0000E+00  0.0000E+00  0.0000E+00
 21  0.0000E+00  3.7937E-03  0.0000E+00  0.0000E+00  0.0000E+00  0.0000E+00  0.0000E+00  0.0000E+00  0.0000E+00
 22  0.0000E+00  4.1592E-03  4.3861E-02  0.0000E+00  0.0000E+00  0.0000E+00  0.0000E+00  0.0000E+00  0.0000E+00
 23  0.0000E+00  4.7297E-03  0.0000E+00  0.0000E+00  0.0000E+00  0.0000E+00  0.0000E+00  3.4561E-03  0.0000E+00
 24  0.0000E+00  6.5531E-03  0.0000E+00  0.0000E+00  0.0000E+00  5.4414E-02  0.0000E+00  9.0858E-03  0.0000E+00
 25  0.0000E+00  1.0661E-02  0.0000E+00  0.0000E+00  0.0000E+00  0.0000E+00  0.0000E+00  0.0000E+00  0.0000E+00
 26  0.0000E+00  2.3191E-03  2.5723E-03  1.9992E-03  1.4158E-03  2.3731E-03  2.7924E-03  2.4792E-03  2.7230E-03
 27  0.0000E+00  3.6339E-05  0.0000E+00  0.0000E+00  0.0000E+00  0.0000E+00  0.0000E+00  0.0000E+00  0.0000E+00
 28  0.0000E+00  1.0038E-04  0.0000E+00  0.0000E+00  7.0761E-05  9.4203E-05  0.0000E+00  0.0000E+00  0.0000E+00
 29  0.0000E+00  1.4777E-04  1.6583E-05  0.0000E+00  0.0000E+00  2.3626E-04  0.0000E+00  2.5901E-04  0.0000E+00
 30  0.0000E+00  8.3034E-05  0.0000E+00  0.0000E+00  0.0000E+00  0.0000E+00  0.0000E+00  0.0000E+00  0.0000E+00
 31  0.0000E+00  2.0431E-04  1.5701E-04  0.0000E+00  0.0000E+00  0.0000E+00  0.0000E+00  0.0000E+00  0.0000E+00
 32  0.0000E+00  9.2503E-05  0.0000E+00  1.4621E-04  0.0000E+00  1.6656E-04  0.0000E+00  0.0000E+00  0.0000E+00
 33  0.0000E+00  7.1182E-05  4.4603E-05  0.0000E+00  0.0000E+00  0.0000E+00  0.0000E+00  1.1994E-04  0.0000E+00
 34  0.0000E+00  1.2447E-04  0.0000E+00  0.0000E+00  0.0000E+00  0.0000E+00  0.0000E+00  0.0000E+00  0.0000E+00
 35  0.0000E+00  9.6317E-05  0.0000E+00  0.0000E+00  0.0000E+00  0.0000E+00  0.0000E+00  0.0000E+00  0.0000E+00
 36  0.0000E+00  5.2288E-05  1.4883E-04  0.0000E+00  0.0000E+00  0.0000E+00  0.0000E+00  0.0000E+00  0.0000E+00
 37  0.0000E+00  5.2697E-05  0.0000E+00  0.0000E+00  0.0000E+00  0.0000E+00  0.0000E+00  0.0000E+00  0.0000E+00
 38  0.0000E+00  5.2764E-05  0.0000E+00  0.0000E+00  0.0000E+00  0.0000E+00  0.0000E+00  0.0000E+00  0.0000E+00
 39  0.0000E+00  5.0552E-05  0.0000E+00  0.0000E+00  0.0000E+00  0.0000E+00  0.0000E+00  0.0000E+00  0.0000E+00
 40  0.0000E+00  9.1553E-05  0.0000E+00  0.0000E+00  0.0000E+00  0.0000E+00  0.0000E+00  0.0000E+00  0.0000E+00
 41  0.0000E+00  2.7889E-04  0.0000E+00  0.0000E+00  0.0000E+00  0.0000E+00  0.0000E+00  0.0000E+00  0.0000E+00
 42  0.0000E+00  3.6941E-04  0.0000E+00  0.0000E+00  0.0000E+00  0.0000E+00  0.0000E+00  0.0000E+00  0.0000E+00
 43  0.0000E+00  8.0677E-04  0.0000E+00  0.0000E+00  0.0000E+00  0.0000E+00  0.0000E+00  6.4994E-04  0.0000E+00
 44  0.0000E+00  2.5670E-03  0.0000E+00  0.0000E+00  0.0000E+00  0.0000E+00  0.0000E+00  0.0000E+00  0.0000E+00
 45  0.0000E+00  1.2481E-02  0.0000E+00  0.0000E+00  3.8416E-02  0.0000E+00  5.5392E-02  0.0000E+00  0.0000E+00
 46  0.0000E+00  1.5041E-02  0.0000E+00  0.0000E+00  0.0000E+00  0.0000E+00  0.0000E+00  0.0000E+00  0.0000E+00
 47  0.0000E+00  1.3465E-02  0.0000E+00  0.0000E+00  0.0000E+00  0.0000E+00  6.9132E-02  0.0000E+00  0.0000E+00
 48  0.0000E+00  9.4396E-03  7.2139E-03  0.0000E+00  0.0000E+00  0.0000E+00  0.0000E+00  0.0000E+00  0.0000E+00
 49  0.0000E+00  8.0220E-03  0.0000E+00  0.0000E+00  0.0000E+00  0.0000E+00  0.0000E+00  0.0000E+00  0.0000E+00
 50  0.0000E+00  9.6992E-03  0.0000E+00  0.0000E+00  0.0000E+00  4.0503E-02  0.0000E+00  0.0000E+00  0.0000E+00
 51  0.0000E+00  4.4493E-05  0.0000E+00  3.0130E-05  0.0000E+00  3.0066E-04  0.0000E+00  0.0000E+00  2.7192E-04
 52  0.0000E+00  1.4456E-04  3.0970E-04  0.0000E+00  0.0000E+00  1.2997E-04  3.1723E-04  4.7568E-05  2.4240E-05
 53  0.0000E+00  3.4838E-05  0.0000E+00  0.0000E+00  0.0000E+00  0.0000E+00  0.0000E+00  0.0000E+00  0.0000E+00
 54  9.4795E-07  1.6753E-03  1.8115E-03  1.5599E-03  1.4245E-03  1.4325E-03  1.3945E-03  1.7389E-03  1.7173E-03
 55  0.0000E+00  7.6084E-05  0.0000E+00  4.5087E-04  0.0000E+00  2.4615E-05  9.2482E-05  0.0000E+00  0.0000E+00
 56  0.0000E+00  8.4009E-05  0.0000E+00  8.3441E-05  0.0000E+00  0.0000E+00  6.4233E-05  0.0000E+00  0.0000E+00
 57  0.0000E+00  7.2216E-05  5.1004E-04  0.0000E+00  0.0000E+00  1.8886E-04  1.1580E-06  2.2881E-04  0.0000E+00
 58  0.0000E+00  1.0941E-04  4.0045E-04  0.0000E+00  0.0000E+00  0.0000E+00  0.0000E+00  0.0000E+00  0.0000E+00
 59  0.0000E+00  6.6420E-05  0.0000E+00  0.0000E+00  0.0000E+00  0.0000E+00  0.0000E+00  0.0000E+00  0.0000E+00
 60  0.0000E+00  4.0744E-05  0.0000E+00  0.0000E+00  0.0000E+00  0.0000E+00  0.0000E+00  0.0000E+00  3.1373E-05
 61  0.0000E+00  3.6534E-05  3.0698E-05  0.0000E+00  0.0000E+00  0.0000E+00  0.0000E+00  0.0000E+00  0.0000E+00
 62  0.0000E+00  5.8427E-05  0.0000E+00  0.0000E+00  0.0000E+00  0.0000E+00  0.0000E+00  0.0000E+00  0.0000E+00
 63  0.0000E+00  5.7431E-05  0.0000E+00  0.0000E+00  0.0000E+00  0.0000E+00  0.0000E+00  0.0000E+00  0.0000E+00
 64  0.0000E+00  8.6124E-05  0.0000E+00  0.0000E+00  0.0000E+00  1.7532E-03  0.0000E+00  0.0000E+00  0.0000E+00
 65  0.0000E+00  3.4536E-04  0.0000E+00  0.0000E+00  2.8953E-03  0.0000E+00  0.0000E+00  0.0000E+00  0.0000E+00
 66  0.0000E+00  8.5640E-04  0.0000E+00  0.0000E+00  0.0000E+00  0.0000E+00  0.0000E+00  0.0000E+00  0.0000E+00
 67  0.0000E+00  8.4688E-04  0.0000E+00  0.0000E+00  0.0000E+00  0.0000E+00  0.0000E+00  0.0000E+00  0.0000E+00
 68  0.0000E+00  4.5051E-03  0.0000E+00  1.6163E-03  0.0000E+00  0.0000E+00  0.0000E+00  2.2866E-03  0.0000E+00
 69  0.0000E+00  1.9638E-02  0.0000E+00  0.0000E+00  0.0000E+00  3.3422E-02  0.0000E+00  0.0000E+00  2.5832E-02
 70  0.0000E+00  4.4394E-02  8.9513E-02  1.4735E-01  3.5840E-03  1.2641E-02  0.0000E+00  0.0000E+00  4.3704E-03
 71  2.4993E-04  6.4870E-02  3.3563E-04  0.0000E+00  4.0591E-01  1.6639E-02  0.0000E+00  9.1773E-02  5.4113E-02
 72  0.0000E+00  1.3211E-01  0.0000E+00  0.0000E+00  2.6739E-02  6.8557E-02  0.0000E+00  8.1335E-02  0.0000E+00
 73  0.0000E+00  4.0576E-01  0.0000E+00  6.7080E-01  2.2075E-01  4.8772E-01  2.4834E-01  4.5086E-01  4.9486E-01
 74  3.1715E+00  5.7688E-01  1.9561E+00  5.9918E-01  6.9527E-01  2.6243E-01  3.7810E-01  8.4127E-01  4.8941E-01
 75  0.0000E+00  4.1576E-01  1.1825E-01  5.5625E-01  8.3190E-02  7.7792E-01  1.3779E+00  1.6665E-01  3.7177E-01
 76  0.0000E+00  3.6688E-05  0.0000E+00  0.0000E+00  0.0000E+00  0.0000E+00  0.0000E+00  7.0006E-05  2.8170E-04
 77  0.0000E+00  2.3084E-05  0.0000E+00  0.0000E+00  0.0000E+00  0.0000E+00  0.0000E+00  7.8810E-06  0.0000E+00
 78  0.0000E+00  1.9686E-05  0.0000E+00  0.0000E+00  0.0000E+00  0.0000E+00  0.0000E+00  0.0000E+00  0.0000E+00
 79  0.0000E+00  2.4376E-05  0.0000E+00  0.0000E+00  0.0000E+00  5.9314E-05  0.0000E+00  0.0000E+00  0.0000E+00
 80  0.0000E+00  2.6978E-05  1.2176E-05  0.0000E+00  0.0000E+00  0.0000E+00  0.0000E+00  0.0000E+00  2.3530E-04
 81  0.0000E+00  2.1326E-05  0.0000E+00  0.0000E+00  0.0000E+00  0.0000E+00  0.0000E+00  0.0000E+00  0.0000E+00
 82  0.0000E+00  3.1991E-05  0.0000E+00  0.0000E+00  0.0000E+00  0.0000E+00  0.0000E+00  0.0000E+00  0.0000E+00
 83  0.0000E+00  3.5532E-05  0.0000E+00  0.0000E+00  0.0000E+00  0.0000E+00  0.0000E+00  0.0000E+00  0.0000E+00
 84  0.0000E+00  4.3361E-05  0.0000E+00  0.0000E+00  0.0000E+00  0.0000E+00  0.0000E+00  0.0000E+00  0.0000E+00
 85  0.0000E+00  3.8505E-05  0.0000E+00  0.0000E+00  0.0000E+00  3.6021E-05  0.0000E+00  0.0000E+00  0.0000E+00
 86  0.0000E+00  5.1373E-05  0.0000E+00  0.0000E+00  0.0000E+00  0.0000E+00  0.0000E+00  0.0000E+00  0.0000E+00
 87  0.0000E+00  4.4657E-05  0.0000E+00  0.0000E+00  0.0000E+00  0.0000E+00  0.0000E+00  0.0000E+00  0.0000E+00
 88  0.0000E+00  4.3919E-05  0.0000E+00  0.0000E+00  0.0000E+00  0.0000E+00  5.3377E-04  0.0000E+00  0.0000E+00
 89  0.0000E+00  7.5559E-05  0.0000E+00  0.0000E+00  0.0000E+00  0.0000E+00  0.0000E+00  0.0000E+00  0.0000E+00
 90  0.0000E+00  1.6056E-04  0.0000E+00  0.0000E+00  0.0000E+00  0.0000E+00  0.0000E+00  0.0000E+00  0.0000E+00
 91  0.0000E+00  6.5434E-04  0.0000E+00  0.0000E+00  0.0000E+00  0.0000E+00  0.0000E+00  0.0000E+00  0.0000E+00
 92  0.0000E+00  9.1413E-04  0.0000E+00  0.0000E+00  0.0000E+00  0.0000E+00  0.0000E+00  0.0000E+00  0.0000E+00
 93  0.0000E+00  8.4846E-03  0.0000E+00  0.0000E+00  0.0000E+00  0.0000E+00  4.2926E-02  0.0000E+00  0.0000E+00
 94  0.0000E+00  4.4378E-02  1.6163E-01  0.0000E+00  0.0000E+00  5.4004E-02  0.0000E+00  0.0000E+00  3.7843E-02
 95  0.0000E+00  1.3164E-01  0.0000E+00  6.4673E-03  0.0000E+00  0.0000E+00  9.5207E-02  1.6774E-01  4.5485E-02
 96  0.0000E+00  1.7183E-01  6.8783E-02  2.4212E-01  0.0000E+00  0.0000E+00  3.7313E-01  0.0000E+00  3.6400E-01
 97  1.0392E+00  5.1583E+00  4.8233E+00  4.7136E+00  5.8196E+00  5.7104E+00  3.3694E+00  5.2550E+00  5.3215E+00
 98  1.7919E+01  1.5870E+01  1.6576E+01  1.6015E+01  1.6159E+01  1.5979E+01  1.6505E+01  1.6355E+01  1.5653E+01
 99  2.0228E+01  1.8149E+01  1.8492E+01  2.0301E+01  1.8314E+01  1.8240E+01  1.9256E+01  1.7922E+01  1.8774E+01
100  2.6642E+00  1.8120E+00  1.6559E+00  1.5956E+00  1.7046E+00  2.4121E+00  2.2301E+00  1.4332E+00  2.1295E+00
101  0.0000E+00  3.8970E-05  0.0000E+00  1.1569E-05  0.0000E+00  0.0000E+00  4.2256E-05  8.9684E-05  0.0000E+00
102  0.0000E+00  1.4440E-05  0.0000E+00  0.0000E+00  0.0000E+00  0.0000E+00  0.0000E+00  0.0000E+00  0.0000E+00
103  0.0000E+00  1.4382E-05  0.0000E+00  1.1214E-06  0.0000E+00  0.0000E+00  0.0000E+00  0.0000E+00  2.8797E-05
104  0.0000E+00  3.4885E-05  1.0183E-06  0.0000E+00  0.0000E+00  1.6230E-04  3.7590E-05  0.0000E+00  0.0000E+00
105  0.0000E+00  9.4089E-05  0.0000E+00  5.6340E-05  0.0000E+00  1.7126E-04  0.0000E+00  0.0000E+00  1.7359E-04
106  0.0000E+00  8.9317E-05  0.0000E+00  2.7358E-04  2.0652E-04  0.0000E+00  0.0000E+00  0.0000E+00  0.0000E+00
107  0.0000E+00  6.9206E-05  0.0000E+00  0.0000E+00  0.0000E+00  0.0000E+00  0.0000E+00  0.0000E+00  1.4653E-05
108  0.0000E+00  4.0455E-05  0.0000E+00  0.0000E+00  0.0000E+00  0.0000E+00  0.0000E+00  0.0000E+00  0.0000E+00
109  0.0000E+00  3.8787E-05  0.0000E+00  0.0000E+00  0.0000E+00  0.0000E+00  0.0000E+00  0.0000E+00  0.0000E+00
110  0.0000E+00  4.3919E-05  0.0000E+00  0.0000E+00  0.0000E+00  0.0000E+00  0.0000E+00  0.0000E+00  0.0000E+00
111  0.0000E+00  3.7588E-05  0.0000E+00  0.0000E+00  0.0000E+00  0.0000E+00  0.0000E+00  6.4406E-04  0.0000E+00
112  0.0000E+00  4.7991E-05  0.0000E+00  0.0000E+00  8.5974E-04  0.0000E+00  0.0000E+00  0.0000E+00  0.0000E+00
113  0.0000E+00  4.3674E-05  0.0000E+00  0.0000E+00  0.0000E+00  0.0000E+00  0.0000E+00  0.0000E+00  0.0000E+00
114  0.0000E+00  7.7851E-05  0.0000E+00  0.0000E+00  0.0000E+00  0.0000E+00  0.0000E+00  0.0000E+00  5.4892E-04
115  0.0000E+00  4.7998E-04  0.0000E+00  0.0000E+00  0.0000E+00  0.0000E+00  0.0000E+00  0.0000E+00  0.0000E+00
116  0.0000E+00  1.2518E-03  0.0000E+00  0.0000E+00  0.0000E+00  4.1020E-05  0.0000E+00  0.0000E+00  3.9801E-03
117  0.0000E+00  1.5144E-03  0.0000E+00  0.0000E+00  0.0000E+00  7.2678E-04  0.0000E+00  1.6294E-03  0.0000E+00
118  0.0000E+00  1.3972E-02  0.0000E+00  0.0000E+00  0.0000E+00  0.0000E+00  0.0000E+00  0.0000E+00  0.0000E+00
119  0.0000E+00  5.0690E-02  2.9683E-02  1.3479E-02  0.0000E+00  0.0000E+00  4.5751E-02  0.0000E+00  0.0000E+00
120  0.0000E+00  1.2614E-01  7.7902E-02  0.0000E+00  0.0000E+00  0.0000E+00  0.0000E+00  0.0000E+00  0.0000E+00
121  0.0000E+00  4.4371E-01  0.0000E+00  0.0000E+00  3.8843E-01  4.1439E-01  3.6397E-01  0.0000E+00  5.0851E-01
122  1.8494E+01  1.9276E+01  1.8930E+01  1.9525E+01  1.9501E+01  1.8833E+01  1.9963E+01  1.9122E+01  1.9224E+01
123  4.6417E+00  4.1581E+00  4.9364E+00  4.5451E+00  4.6781E+00  3.3723E+00  4.6614E+00  4.2737E+00  4.1145E+00
124  6.2107E+00  5.3471E+00  5.3582E+00  5.6648E+00  4.4806E+00  6.1521E+00  4.5845E+00  5.4791E+00  5.4207E+00
125  1.9555E+01  1.9348E+01  1.9606E+01  1.8199E+01  1.9712E+01  1.9074E+01  1.9827E+01  2.1296E+01  1.9692E+01
126  0.0000E+00  1.9390E-05  0.0000E+00  0.0000E+00  0.0000E+00  0.0000E+00  0.0000E+00  0.0000E+00  0.0000E+00
127  0.0000E+00  1.1852E-05  4.3275E-06  0.0000E+00  0.0000E+00  0.0000E+00  1.1804E-05  2.7383E-06  0.0000E+00
128  0.0000E+00  2.3859E-05  0.0000E+00  0.0000E+00  0.0000E+00  1.0971E-04  1.4982E-05  4.4727E-05  0.0000E+00
129  0.0000E+00  1.9771E-05  0.0000E+00  1.8186E-04  0.0000E+00  0.0000E+00  0.0000E+00  0.0000E+00  0.0000E+00
130  0.0000E+00  3.6101E-05  0.0000E+00  0.0000E+00  0.0000E+00  0.0000E+00  0.0000E+00  0.0000E+00  7.7844E-05
131  0.0000E+00  3.8836E-05  0.0000E+00  0.0000E+00  0.0000E+00  0.0000E+00  0.0000E+00  0.0000E+00  0.0000E+00
132  0.0000E+00  4.7108E-05  0.0000E+00  0.0000E+00  0.0000E+00  0.0000E+00  0.0000E+00  0.0000E+00  0.0000E+00
133  0.0000E+00  4.3707E-05  0.0000E+00  8.3750E-05  0.0000E+00  0.0000E+00  0.0000E+00  1.9737E-04  0.0000E+00
134  0.0000E+00  3.2511E-05  0.0000E+00  0.0000E+00  0.0000E+00  0.0000E+00  7.8420E-05  0.0000E+00  0.0000E+00
135  0.0000E+00  2.8091E-05  0.0000E+00  7.7298E-04  0.0000E+00  0.0000E+00  1.0659E-05  0.0000E+00  0.0000E+00
136  0.0000E+00  4.1461E-05  0.0000E+00  6.2110E-06  0.0000E+00  0.0000E+00  0.0000E+00  0.0000E+00  0.0000E+00
137  0.0000E+00  4.4752E-05  0.0000E+00  0.0000E+00  0.0000E+00  0.0000E+00  0.0000E+00  0.0000E+00  0.0000E+00
138  0.0000E+00  4.5605E-05  0.0000E+00  0.0000E+00  0.0000E+00  0.0000E+00  0.0000E+00  0.0000E+00  0.0000E+00
139  0.0000E+00  1.6537E-04  0.0000E+00  0.0000E+00  0.0000E+00  0.0000E+00  0.0000E+00  0.0000E+00  0.0000E+00
140  0.0000E+00  1.2924E-03  0.0000E+00  0.0000E+00  0.0000E+00  0.0000E+00  0.0000E+00  0.0000E+00  0.0000E+00
141  0.0000E+00  3.7804E-03  0.0000E+00  2.4448E-03  0.0000E+00  0.0000E+00  0.0000E+00  0.0000E+00  0.0000E+00
142  0.0000E+00  6.7677E-03  0.0000E+00  0.0000E+00  0.0000E+00  0.0000E+00  0.0000E+00  0.0000E+00  0.0000E+00
143  0.0000E+00  4.0014E-02  0.0000E+00  0.0000E+00  0.0000E+00  0.0000E+00  0.0000E+00  4.0575E-02  0.0000E+00
144  1.6375E+00  6.5541E-01  8.9437E-01  6.0767E-01  9.6624E-01  1.2093E+00  5.5426E-01  8.6359E-01  6.5934E-01
145  1.9238E+00  1.4512E+00  1.6792E+00  1.6976E+00  1.4214E+00  1.7631E+00  1.4386E+00  1.3429E+00  1.3228E+00
146  2.4752E+00  1.7982E+00  1.8166E+00  1.1683E+00  2.3917E+00  1.7450E+00  2.0041E+00  1.8234E+00  2.4723E+00
147  9.0519E-04  1.1120E+00  1.6087E+00  1.5360E+00  9.1970E-01  9.0826E-01  0.0000E+00  4.2771E-01  0.0000E+00
148  0.0000E+00  8.8873E-01  1.0305E+00  5.6938E-04  0.0000E+00  5.7264E-01  6.5538E-01  0.0000E+00  1.0207E+00
149  1.1521E-03  1.8146E+00  0.0000E+00  1.9030E+00  2.0273E+00  1.7652E+00  1.7463E+00  1.9674E+00  1.6680E+00
150  0.0000E+00  3.0074E-01  0.0000E+00  2.4644E-01  0.0000E+00  0.0000E+00  1.1520E-01  5.4397E-01  8.7090E-02

# AV, chi2 & Mass for <> & i_chain = 1 ...  7 solutions
AV       1.2595      1.2466      1.2482      1.2496      1.2490      1.2501      1.2544      1.2507      1.2504
chi2 1.6810E+00  1.7204E+00  1.7090E+00  1.7107E+00  1.7048E+00  1.7057E+00  1.7052E+00  1.7062E+00  1.7061E+00
Mass 1.0954E-09  1.0861E-09  1.0856E-09  1.0920E-09  1.0822E-09  1.0883E-09  1.0995E-09  1.0975E-09  1.0909E-09
   9.97                                  [v0_min (km/s) before EX0s...]
  53.07                                  [vd_min (km/s) before EX0s...]


## Synthetic spectrum (Best Model) ##l_obs f_obs f_syn wei
 3070    [Nl_obs]
 3359.00    0.00000   0.42651   -2.000
 3360.00    0.00000   0.39762   -2.000
 3361.00    0.18410   0.39756   -1.000
 3362.00    0.27073   0.42397   -1.000
 3363.00    0.28523   0.46161   -1.000
 3364.00    0.28842   0.49031   -1.000
 3365.00    0.28762   0.49663   -1.000
 3366.00    0.29495   0.48061   -1.000
 3367.00    0.29689   0.45606   -1.000
 3368.00    0.27013   0.43296   -1.000
 3369.00    0.25323   0.41825   -1.000
 3370.00    0.26700   0.41125   -1.000
 3371.00    0.28538   0.40910   -1.000
 3372.00    0.28347   0.41435   -1.000
 3373.00    0.28018   0.43228   -1.000
 3374.00    0.28734   0.46109   -1.000
 3375.00    0.29574   0.49236   -1.000
 3376.00    0.30478   0.51342   -1.000
 3377.00    0.33955   0.51279   -1.000
 3378.00    0.32869   0.49096   -1.000
 3379.00    0.30448   0.46528   -1.000
 3380.00    0.28783   0.45139   -1.000
 3381.00    0.28244   0.45638   -1.000
 3382.00    0.30577   0.47220   -1.000
 3383.00    0.30980   0.48836   -1.000
 3384.00    0.31264   0.50026   -1.000
 3385.00    0.34818   0.50996   -1.000
 3386.00    0.34196   0.51538   -1.000
 3387.00    0.31924   0.51625   -1.000
 3388.00    0.32895   0.51551   -1.000
 3389.00    0.34421   0.51371   -1.000
 3390.00    0.33805   0.50737   -1.000
 3391.00    0.37549   0.49285   -1.000
 3392.00    0.35196   0.47684   -1.000
 3393.00    0.34907   0.47185   -1.000
 3394.00    0.38688   0.48245   -1.000
 3395.00    0.41273   0.50406   -1.000
 3396.00    0.41921   0.52523   -1.000
 3397.00    0.40297   0.54336   -1.000
 3398.00    0.42168   0.55825   -1.000
 3399.00    0.44697   0.56512   -1.000
 3400.00    0.45441   0.56193   -1.000
 3401.00    0.43776   0.55122   -1.000
 3402.00    0.42656   0.53578   -1.000
 3403.00    0.43347   0.52201   -1.000
 3404.00    0.42914   0.51276   -1.000
 3405.00    0.40752   0.50568   -1.000
 3406.00    0.41974   0.49814   -1.000
 3407.00    0.43450   0.49129   -1.000
 3408.00    0.44046   0.48977   -1.000
 3409.00    0.43935   0.49442   -1.000
 3410.00    0.43991   0.50228   -1.000
 3411.00    0.41222   0.50274   -1.000
 3412.00    0.41649   0.49041   -1.000
 3413.00    0.42871   0.47253   -1.000
 3414.00    0.43580   0.46014   73.922
 3415.00    0.42222   0.46388   75.904
 3416.00    0.41125   0.48145   -1.000
 3417.00    0.43367   0.50667   -1.000
 3418.00    0.45827   0.53109   -1.000
 3419.00    0.47336   0.55054   -1.000
 3420.00    0.48331   0.55837   -1.000
 3421.00    0.50782   0.55102   64.065
 3422.00    0.49971   0.53237   63.699
 3423.00    0.47824   0.51828   63.821
 3424.00    0.48895   0.51505   65.218
 3425.00    0.49422   0.51785   66.849
 3426.00    0.47816   0.52222   66.014
 3427.00    0.49768   0.53015   64.205
 3428.00    0.51683   0.54682   63.427
 3429.00    0.52104   0.56760   -1.000
 3430.00    0.51643   0.57296   -1.000
 3431.00    0.51056   0.55786   -1.000
 3432.00    0.49098   0.53405   -1.000
 3433.00    0.48725   0.51947   -1.000
 3434.00    0.51445   0.52254   91.374
 3435.00    0.51778   0.53140   63.291
 3436.00    0.49379   0.53218   -1.000
 3437.00    0.48331   0.51996   -1.000
 3438.00    0.48399   0.49597   90.871
 3439.00    0.44568   0.46241   65.069
 3440.00    0.42671   0.42899   68.703
 3441.00    0.40903   0.40581   73.722
 3442.00    0.38903   0.40094   77.695
 3443.00    0.39968   0.41139   78.813
 3444.00    0.42660   0.42841   78.621
 3445.00    0.44624   0.44566   76.402
 3446.00    0.45478   0.46434   72.576
 3447.00    0.46993   0.48545   68.568
 3448.00    0.49526   0.50947   65.722
 3449.00    0.51293   0.53106  156.772
 3450.00    0.49975   0.53825   -1.000
 3451.00    0.49714   0.52710   -1.000
 3452.00    0.49046   0.51251   -1.000
 3453.00    0.50000   0.50803   -1.000
 3454.00    0.53807   0.51582   -1.000
 3455.00    0.53268   0.52399   -1.000
 3456.00    0.51914   0.51998  515.612
 3457.00    0.52554   0.50341   -1.000
 3458.00    0.51908   0.48100   -1.000
 3459.00    0.49958   0.46378   -1.000
 3460.00    0.48959   0.45490   -1.000
 3461.00    0.48756   0.45818   63.876
 3462.00    0.50979   0.47590   63.892
 3463.00    0.52598   0.50043   -1.000
 3464.00    0.52348   0.51056   -1.000
 3465.00    0.52939   0.50664   -1.000
 3466.00    0.53219   0.50312   -1.000
 3467.00    0.53049   0.50930   -1.000
 3468.00    0.51908   0.52571  515.612
 3469.00    0.53550   0.54189  515.612
 3470.00    0.55555   0.54755   -1.000
 3471.00    0.55858   0.53712   -1.000
 3472.00    0.53022   0.51500   -1.000
 3473.00    0.51048   0.48704   -1.000
 3474.00    0.49109   0.45985   -1.000
 3475.00    0.46120   0.44041   -1.000
 3476.00    0.45066   0.43882   93.554
 3477.00    0.46741   0.45474   65.385
 3478.00    0.50051   0.47870   65.295
 3479.00    0.52620   0.50004   -1.000
 3480.00    0.52863   0.51286   -1.000
 3481.00    0.54118   0.51453   -1.000
 3482.00    0.54102   0.50603   -1.000
 3483.00    0.52224   0.49522   -1.000
 3484.00    0.51528   0.49382   -1.000
 3485.00    0.50458   0.50840  515.612
 3486.00    0.52749   0.52791  515.612
 3487.00    0.53904   0.53657  515.612
 3488.00    0.54259   0.52426   -1.000
 3489.00    0.52596   0.49717   -1.000
 3490.00    0.50639   0.47215   -1.000
 3491.00    0.48649   0.46276   -1.000
 3492.00    0.47906   0.46993   -1.000
 3493.00    0.49193   0.48302   -1.000
 3494.00    0.51054   0.49103   -1.000
 3495.00    0.52034   0.48664   -1.000
 3496.00    0.51204   0.47720   -1.000
 3497.00    0.50029   0.48016   -1.000
 3498.00    0.48849   0.50364   -1.000
 3499.00    0.50648   0.53538   -1.000
 3500.00    0.55692   0.55464  515.612
 3501.00    0.58070   0.56247   -1.000
 3502.00    0.58749   0.56971   -1.000
 3503.00    0.59254   0.57433   -1.000
 3504.00    0.58309   0.56953   -1.000
 3505.00    0.58008   0.55685   -1.000
 3506.00    0.56431   0.54576   -1.000
 3507.00    0.56356   0.54247   -1.000
 3508.00    0.55897   0.54015   -1.000
 3509.00    0.55769   0.53051   -1.000
 3510.00    0.55731   0.51704   -1.000
 3511.00    0.54734   0.50331   -1.000
 3512.00    0.51952   0.48953   -1.000
 3513.00    0.49154   0.47670   -1.000
 3514.00    0.49313   0.47313   -1.000
 3515.00    0.50083   0.49019   -1.000
 3516.00    0.52149   0.52499  515.612
 3517.00    0.54588   0.55716   -1.000
 3518.00    0.56677   0.57055  515.612
 3519.00    0.54625   0.55950   -1.000
 3520.00    0.53695   0.53397  510.701
 3521.00    0.53843   0.50580   -1.000
 3522.00    0.51628   0.48312   -1.000
 3523.00    0.50297   0.46289   -1.000
 3524.00    0.47262   0.44417   -1.000
 3525.00    0.43755   0.43521   95.250
 3526.00    0.43648   0.44717   64.707
 3527.00    0.46984   0.47760   65.299
 3528.00    0.51036   0.51485  147.292
 3529.00    0.54735   0.54173   -1.000
 3530.00    0.55716   0.55001   -1.000
 3531.00    0.53535   0.54403   -1.000
 3532.00    0.53548   0.53984  515.612
 3533.00    0.55365   0.54569   -1.000
 3534.00    0.55077   0.55705  515.612
 3535.00    0.55589   0.56609   -1.000
 3536.00    0.56027   0.56889   -1.000
 3537.00    0.55468   0.57205   -1.000
 3538.00    0.58035   0.58077  508.021
 3539.00    0.59035   0.58706  505.646
 3540.00    0.58730   0.58425  499.455
 3541.00    0.57595   0.57508  499.780
 3542.00    0.55929   0.57100   -1.000
 3543.00    0.54966   0.57778   -1.000
 3544.00    0.55873   0.58759   -1.000
 3545.00    0.58305   0.59153   -1.000
 3546.00    0.56290   0.58655   -1.000
 3547.00    0.54572   0.57984   -1.000
 3548.00    0.54122   0.57812   -1.000
 3549.00    0.55057   0.57992   -1.000
 3550.00    0.56481   0.57923   -1.000
 3551.00    0.54419   0.57092   -1.000
 3552.00    0.51544   0.55590   -1.000
 3553.00    0.49814   0.54092   -1.000
 3554.00    0.50855   0.53479   -1.000
 3555.00    0.52437   0.53866   -1.000
 3556.00    0.52165   0.54382   -1.000
 3557.00    0.50552   0.54428   -1.000
 3558.00    0.50046   0.53997   -1.000
 3559.00    0.51237   0.53815   -1.000
 3560.00    0.49812   0.54510   -1.000
 3561.00    0.49316   0.55830   -1.000
 3562.00    0.52128   0.56720   -1.000
 3563.00    0.51712   0.55496   -1.000
 3564.00    0.49704   0.52010   -1.000
 3565.00    0.47967   0.48018  515.612
 3566.00    0.45715   0.45896   98.004
 3567.00    0.45477   0.45701   65.514
 3568.00    0.46055   0.45571   66.074
 3569.00    0.44164   0.44606   65.540
 3570.00    0.41906   0.43664   66.764
 3571.00    0.44040   0.43942   68.418
 3572.00    0.45598   0.45602   67.552
 3573.00    0.48509   0.47386   64.851
 3574.00    0.50047   0.48648  139.613
 3575.00    0.49987   0.49404   -1.000
 3576.00    0.49284   0.49527  515.612
 3577.00    0.47825   0.48632   -1.000
 3578.00    0.48316   0.46662   -1.000
 3579.00    0.46088   0.43775   -1.000
 3580.00    0.41349   0.41072  102.260
 3581.00    0.38857   0.39523   69.184
 3582.00    0.38844   0.39563   73.683
 3583.00    0.38899   0.40300   75.545
 3584.00    0.39155   0.40395   75.909
 3585.00    0.40043   0.39690   77.194
 3586.00    0.39077   0.39179   79.518
 3587.00    0.37765   0.39818   81.237
 3588.00    0.40874   0.41726   79.111
 3589.00    0.44179   0.44731   74.951
 3590.00    0.45844   0.48130   71.186
 3591.00    0.49597   0.50919   65.897
 3592.00    0.51877   0.52145  136.511
 3593.00    0.51228   0.52417   -1.000
 3594.00    0.51820   0.53098   -1.000
 3595.00    0.53212   0.54813   -1.000
 3596.00    0.54852   0.57023   -1.000
 3597.00    0.58394   0.58660  515.612
 3598.00    0.61027   0.59832   -1.000
 3599.00    0.60905   0.60808  487.646
 3600.00    0.61781   0.60779   -1.000
 3601.00    0.59958   0.58922   -1.000
 3602.00    0.58218   0.55858   -1.000
 3603.00    0.55402   0.52732   -1.000
 3604.00    0.52328   0.50710   -1.000
 3605.00    0.52441   0.50012   -1.000
 3606.00    0.52239   0.49741   -1.000
 3607.00    0.50947   0.48815   -1.000
 3608.00    0.48450   0.47293   -1.000
 3609.00    0.47291   0.46507   -1.000
 3610.00    0.47885   0.47365   -1.000
 3611.00    0.50525   0.49491   -1.000
 3612.00    0.53198   0.51438   -1.000
 3613.00    0.53422   0.52883   -1.000
 3614.00    0.53332   0.54339   -1.000
 3615.00    0.53001   0.55474   -1.000
 3616.00    0.52895   0.54796   -1.000
 3617.00    0.52030   0.51621  515.612
 3618.00    0.48630   0.47439   -1.000
 3619.00    0.46158   0.45701   -1.000
 3620.00    0.47944   0.47445   99.831
 3621.00    0.51592   0.51373  132.781
 3622.00    0.56090   0.55205   -1.000
 3623.00    0.58509   0.57721   -1.000
 3624.00    0.59106   0.59711   -1.000
 3625.00    0.60249   0.62361   -1.000
 3626.00    0.61781   0.65230   -1.000
 3627.00    0.63172   0.66847   -1.000
 3628.00    0.62069   0.65737   -1.000
 3629.00    0.59058   0.61495   -1.000
 3630.00    0.54803   0.55389   -1.000
 3631.00    0.51951   0.50698   -1.000
 3632.00    0.49530   0.49060  515.612
 3633.00    0.49061   0.50268   -1.000
 3634.00    0.51025   0.52707   -1.000
 3635.00    0.52457   0.54977   -1.000
 3636.00    0.53362   0.56616   -1.000
 3637.00    0.56049   0.58405   -1.000
 3638.00    0.59504   0.60762   -1.000
 3639.00    0.61190   0.62886   -1.000
 3640.00    0.62525   0.63832   -1.000
 3641.00    0.61878   0.63074   -1.000
 3642.00    0.58893   0.60930   -1.000
 3643.00    0.58017   0.58368   -1.000
 3644.00    0.55682   0.56017   -1.000
 3645.00    0.53187   0.54051   -1.000
 3646.00    0.53896   0.52279   -1.000
 3647.00    0.52565   0.50773   -1.000
 3648.00    0.51139   0.50484   -1.000
 3649.00    0.52714   0.51861   -1.000
 3650.00    0.55607   0.54748   -1.000
 3651.00    0.57617   0.58290   -1.000
 3652.00    0.59127   0.61643   -1.000
 3653.00    0.61406   0.63746   -1.000
 3654.00    0.63930   0.64827   -1.000
 3655.00    0.64179   0.65691   -1.000
 3656.00    0.64848   0.66891   -1.000
 3657.00    0.66058   0.68446   -1.000
 3658.00    0.66915   0.69601   -1.000
 3659.00    0.67506   0.70017   -1.000
 3660.00    0.66789   0.69661   -1.000
 3661.00    0.67024   0.68563   -1.000
 3662.00    0.67114   0.66944  437.264
 3663.00    0.64847   0.65617   -1.000
 3664.00    0.63153   0.65083   -1.000
 3665.00    0.64687   0.65187   -1.000
 3666.00    0.65377   0.65184  451.876
 3667.00    0.64136   0.64371  449.666
 3668.00    0.62933   0.62926  455.349
 3669.00    0.61936   0.61906  462.396
 3670.00    0.60749   0.62518   -1.000
 3671.00    0.62316   0.64486   -1.000
 3672.00    0.65427   0.66354   -1.000
 3673.00    0.66513   0.67264   -1.000
 3674.00    0.67087   0.67203  444.957
 3675.00    0.66870   0.66220  444.302
 3676.00    0.63724   0.64207   -1.000
 3677.00    0.61745   0.61464  453.227
 3678.00    0.60769   0.58698   -1.000
 3679.00    0.57196   0.56882  481.814
 3680.00    0.55969   0.56826   -1.000
 3681.00    0.57562   0.58371   -1.000
 3682.00    0.60047   0.60303  491.264
 3683.00    0.61290   0.61377  477.492
 3684.00    0.60885   0.60677  469.087
 3685.00    0.58735   0.58271  473.833
 3686.00    0.56722   0.55316   -1.000
 3687.00    0.54485   0.54017  510.335
 3688.00    0.54726   0.55492   -1.000
 3689.00    0.57983   0.59365   -1.000
 3690.00    0.62562   0.63870   -1.000
 3691.00    0.66814   0.66912  460.423
 3692.00    0.66826   0.67273   -1.000
 3693.00    0.64330   0.65804   -1.000
 3694.00    0.63742   0.64349   -1.000
 3695.00    0.63724   0.63754  453.227
 3696.00    0.65084   0.64154  454.671
 3697.00    0.65520   0.65574  451.415
 3698.00    0.65809   0.67991   -1.000
 3699.00    0.68076   0.70336   -1.000
 3700.00    0.68937   0.71424   -1.000
 3701.00    0.67754   0.70315   -1.000
 3702.00    0.65982   0.66678   -1.000
 3703.00    0.62667   0.61017   -1.000
 3704.00    0.57199   0.55371   -1.000
 3705.00    0.52971   0.51436   -1.000
 3706.00    0.52412   0.50188   -1.000
 3707.00    0.52628   0.50766   -1.000
 3708.00    0.52554   0.52038   -1.000
 3709.00    0.54330   0.54000  515.612
 3710.00    0.57510   0.57023   -1.000
 3711.00    0.61142   0.60753  501.093
 3712.00    0.64848   0.64726  478.331
 3713.00    0.67605   0.68124   -1.000
 3714.00    0.69887   0.69944  429.880
 3715.00    0.70484   0.69730  415.001
 3716.00    0.68018   0.67725  409.888
 3717.00    0.64352   0.63918  415.460
 3718.00    0.59767   0.58282   -1.000
 3719.00    0.53565   0.51593   -1.000
 3720.00    0.48399   0.45806   -1.000
 3721.00    0.47129   0.43507   -1.000
 3722.00    0.49695   0.45281   -1.000
 3723.00    0.53783   0.49938   -1.000
 3724.00    0.57483   0.55690   -1.000
 3725.00    0.60925   0.59883   -1.000
 3726.00    0.62316   0.60772   -1.000
 3727.00    0.61511   0.59764   -1.000
 3728.00    0.60500   0.59421   -1.000
 3729.00    0.61255   0.59865   -1.000
 3730.00    0.61704   0.59408   -1.000
 3731.00    0.58476   0.56517   -1.000
 3732.00    0.52944   0.51045   -1.000
 3733.00    0.47607   0.45029   -1.000
 3734.00    0.44497   0.40232   -1.000
 3735.00    0.43014   0.38093   -1.000
 3736.00    0.41951   0.39186   72.138
 3737.00    0.42198   0.43266   71.272
 3738.00    0.46248   0.49152   65.872
 3739.00    0.52853   0.55408  121.390
 3740.00    0.58090   0.59732   -1.000
 3741.00    0.60363   0.60740  484.848
 3742.00    0.59419   0.58590   -1.000
 3743.00    0.55460   0.54932  479.928
 3744.00    0.50671   0.51226  505.331
 3745.00    0.48375   0.48473  515.612
 3746.00    0.47575   0.46202   -1.000
 3747.00    0.45006   0.43646   -1.000
 3748.00    0.42595   0.41300  108.965
 3749.00    0.41997   0.40677   66.151
 3750.00    0.45059   0.43239   68.520
 3751.00    0.52002   0.48731   -1.000
 3752.00    0.57942   0.55037   -1.000
 3753.00    0.62025   0.60696   -1.000
 3754.00    0.65595   0.64953   -1.000
 3755.00    0.66110   0.66171  438.528
 3756.00    0.62858   0.63431   -1.000
 3757.00    0.57725   0.58032  432.546
 3758.00    0.52439   0.53058   -1.000
 3759.00    0.51880   0.51390  515.612
 3760.00    0.54915   0.52589   -1.000
 3761.00    0.57211   0.54470   -1.000
 3762.00    0.57835   0.55524   -1.000
 3763.00    0.56777   0.55804   -1.000
 3764.00    0.57394   0.55892   -1.000
 3765.00    0.58947   0.55668   -1.000
 3766.00    0.56917   0.54993   -1.000
 3767.00    0.55819   0.54595   -1.000
 3768.00    0.58118   0.54933   -1.000
 3769.00    0.59483   0.55602   -1.000
 3770.00    0.59542   0.56545   -1.000
 3771.00    0.61224   0.58381   -1.000
 3772.00    0.63821   0.60998   -1.000
 3773.00    0.66715   0.63404   -1.000
 3774.00    0.67753   0.64651   -1.000
 3775.00    0.66772   0.65034   -1.000
 3776.00    0.67214   0.65480   -1.000
 3777.00    0.66941   0.66471  436.290
 3778.00    0.67009   0.68044   -1.000
 3779.00    0.69405   0.69804  431.260
 3780.00    0.70731   0.71393   -1.000
 3781.00    0.71315   0.72472   -1.000
 3782.00    0.72693   0.72978  402.799
 3783.00    0.73753   0.72869  400.297
 3784.00    0.73012   0.71433   -1.000
 3785.00    0.68827   0.68095  404.352
 3786.00    0.63893   0.63701  420.263
 3787.00    0.59975   0.59696  447.734
 3788.00    0.57789   0.57280  475.709
 3789.00    0.57477   0.57004   -1.000
 3790.00    0.58216   0.58237  495.297
 3791.00    0.59667   0.59509  490.254
 3792.00    0.59155   0.59550  483.398
 3793.00    0.58140   0.57846  485.070
 3794.00    0.57107   0.55304   -1.000
 3795.00    0.54119   0.52811   -1.000
 3796.00    0.52004   0.50373   -1.000
 3797.00    0.51172   0.47888   -1.000
 3798.00    0.50206   0.46524   -1.000
 3799.00    0.52076   0.47977   -1.000
 3800.00    0.56232   0.52444   -1.000
 3801.00    0.58913   0.58018   -1.000
 3802.00    0.60267   0.62951   -1.000
 3803.00    0.61737   0.66118   -1.000
 3804.00    0.64036   0.67139   -1.000
 3805.00    0.64725   0.66021   -1.000
 3806.00    0.61805   0.63928   -1.000
 3807.00    0.58983   0.62804   -1.000
 3808.00    0.58530   0.63753   -1.000
 3809.00    0.59864   0.65973   -1.000
 3810.00    0.61978   0.67519   -1.000
 3811.00    0.61384   0.66794   -1.000
 3812.00    0.59603   0.63432   -1.000
 3813.00    0.57954   0.58823   -1.000
 3814.00    0.53799   0.54669   -1.000
 3815.00    0.50407   0.52544   -1.000
 3816.00    0.50135   0.52697   -1.000
 3817.00    0.50845   0.53698   -1.000
 3818.00    0.51339   0.53406   -1.000
 3819.00    0.49685   0.51152   -1.000
 3820.00    0.46279   0.48985   -1.000
 3821.00    0.45890   0.48845   -1.000
 3822.00    0.47428   0.50256   -1.000
 3823.00    0.46975   0.50598   -1.000
 3824.00    0.44356   0.48509   -1.000
 3825.00    0.41659   0.45751   -1.000
 3826.00    0.40251   0.44170   -1.000
 3827.00    0.40260   0.44187   66.842
 3828.00    0.41134   0.45184   67.219
 3829.00    0.41098   0.46241   66.351
 3830.00    0.41302   0.46406   65.262
 3831.00    0.40777   0.45061   65.162
 3832.00    0.40088   0.42576   67.103
 3833.00    0.38670   0.40192   71.374
 3834.00    0.38371   0.39125   75.340
 3835.00    0.41100   0.39374   75.619
 3836.00    0.42019   0.40262   73.250
 3837.00    0.40838   0.40961   70.974
 3838.00    0.39555   0.41260   71.008
 3839.00    0.39955   0.41968   72.673
 3840.00    0.40962   0.44035   72.848
 3841.00    0.43924   0.47842   69.988
 3842.00    0.49242   0.52376   -1.000
 3843.00    0.52576   0.56385   -1.000
 3844.00    0.53604   0.58880   -1.000
 3845.00    0.55163   0.59985   -1.000
 3846.00    0.56191   0.60439   -1.000
 3847.00    0.55470   0.60430   -1.000
 3848.00    0.54172   0.59526   -1.000
 3849.00    0.51770   0.58112   -1.000
 3850.00    0.50810   0.57373   -1.000
 3851.00    0.52677   0.58048   -1.000
 3852.00    0.53337   0.59220   -1.000
 3853.00    0.52870   0.59477   -1.000
 3854.00    0.52930   0.58444   -1.000
 3855.00    0.51747   0.56744   -1.000
 3856.00    0.50159   0.54988   -1.000
 3857.00    0.48126   0.53089   -1.000
 3858.00    0.45768   0.50963   -1.000
 3859.00    0.43610   0.49660   -1.000
 3860.00    0.43678   0.50529   -1.000
 3861.00    0.47791   0.53834   -1.000
 3862.00    0.52334   0.57816   -1.000
 3863.00    0.54788   0.60218   -1.000
 3864.00    0.56214   0.60431   -1.000
 3865.00    0.56655   0.59539   -1.000
 3866.00    0.55428   0.58870   -1.000
 3867.00    0.53227   0.58699   -1.000
 3868.00    0.52454   0.58324   -1.000
 3869.00    0.52115   0.57075   -1.000
 3870.00    0.49874   0.54875   -1.000
 3871.00    0.47422   0.52897   -1.000
 3872.00    0.46841   0.52460   -1.000
 3873.00    0.50135   0.54437   -1.000
 3874.00    0.55568   0.58009   -1.000
 3875.00    0.58324   0.60735   -1.000
 3876.00    0.56944   0.60353   -1.000
 3877.00    0.54044   0.57529   -1.000
 3878.00    0.52033   0.55141   -1.000
 3879.00    0.51316   0.54590   -1.000
 3880.00    0.50962   0.55121   -1.000
 3881.00    0.50077   0.55632   -1.000
 3882.00    0.50578   0.56044   -1.000
 3883.00    0.54245   0.56809   -1.000
 3884.00    0.57055   0.56895  515.612
 3885.00    0.55820   0.54769   -1.000
 3886.00    0.53274   0.51255   -1.000
 3887.00    0.53336   0.48366   -1.000
 3888.00    0.55084   0.47759   -1.000
 3889.00    0.56843   0.50019   -1.000
 3890.00    0.60071   0.54634   -1.000
 3891.00    0.65662   0.60114   -1.000
 3892.00    0.69518   0.64431   -1.000
 3893.00    0.69842   0.66114   -1.000
 3894.00    0.69413   0.65834   -1.000
 3895.00    0.68599   0.65483   -1.000
 3896.00    0.69410   0.65884   -1.000
 3897.00    0.71694   0.66496   -1.000
 3898.00    0.71143   0.66430   -1.000
 3899.00    0.68861   0.65831   -1.000
 3900.00    0.68837   0.65771   -1.000
 3901.00    0.69521   0.66321   -1.000
 3902.00    0.69379   0.66442   -1.000
 3903.00    0.68953   0.65532   -1.000
 3904.00    0.67033   0.63968   -1.000
 3905.00    0.64143   0.62910   -1.000
 3906.00    0.63431   0.63509  453.853
 3907.00    0.67553   0.66273   -1.000
 3908.00    0.72726   0.70083   -1.000
 3909.00    0.74869   0.73221   -1.000
 3910.00    0.75298   0.75018  395.854
 3911.00    0.76573   0.75902  389.544
 3912.00    0.76793   0.75995  386.007
 3913.00    0.75218   0.75268  383.000
 3914.00    0.74758   0.74062  384.054
 3915.00    0.74704   0.72908   -1.000
 3916.00    0.74304   0.71868   -1.000
 3917.00    0.73834   0.70597   -1.000
 3918.00    0.72770   0.68619   -1.000
 3919.00    0.69842   0.65788   -1.000
 3920.00    0.66835   0.62978   -1.000
 3921.00    0.63554   0.61309   -1.000
 3922.00    0.61410   0.61281  471.870
 3923.00    0.62578   0.62160  474.587
 3924.00    0.63770   0.62558   -1.000
 3925.00    0.61724   0.61451  465.109
 3926.00    0.58823   0.58364   -1.000
 3927.00    0.54928   0.53889   -1.000
 3928.00    0.48437   0.48937  515.612
 3929.00    0.42452   0.44346  132.179
 3930.00    0.36868   0.40240   75.199
 3931.00    0.32484   0.36196   88.086
 3932.00    0.28659   0.32230   -1.000
 3933.00    0.25394   0.29322   -1.000
 3934.00    0.24472   0.29113   -1.000
 3935.00    0.26596   0.31907   -1.000
 3936.00    0.31170   0.36455   -1.000
 3937.00    0.37982   0.41648   -1.000
 3938.00    0.44943   0.47053   90.206
 3939.00    0.49308   0.51843   74.974
 3940.00    0.52500   0.55465  116.519
 3941.00    0.54296   0.57426   -1.000
 3942.00    0.55566   0.57811   -1.000
 3943.00    0.57324   0.57973  515.612
 3944.00    0.57527   0.59376   -1.000
 3945.00    0.59853   0.62159   -1.000
 3946.00    0.64364   0.65130  486.247
 3947.00    0.67937   0.67202   -1.000
 3948.00    0.69551   0.68557   -1.000
 3949.00    0.72570   0.70106   -1.000
 3950.00    0.75934   0.71732   -1.000
 3951.00    0.75779   0.72385   -1.000
 3952.00    0.75123   0.72487   -1.000
 3953.00    0.74721   0.73168   -1.000
 3954.00    0.76026   0.73989   -1.000
 3955.00    0.76235   0.73820   -1.000
 3956.00    0.74901   0.72653   -1.000
 3957.00    0.74213   0.71543   -1.000
 3958.00    0.73557   0.71004   -1.000
 3959.00    0.72216   0.69488   -1.000
 3960.00    0.67162   0.65285   -1.000
 3961.00    0.59226   0.59631  436.937
 3962.00    0.53204   0.54708   -1.000
 3963.00    0.49994   0.51448   -1.000
 3964.00    0.47981   0.48686  515.612
 3965.00    0.44283   0.44625  128.317
 3966.00    0.39056   0.39054   70.636
 3967.00    0.33652   0.33142   84.692
 3968.00    0.28774   0.29064  104.202
 3969.00    0.28316   0.28411  122.077
 3970.00    0.33261   0.31190   -1.000
 3971.00    0.38579   0.36316   -1.000
 3972.00    0.43240   0.42594   89.488
 3973.00    0.50143   0.49006   74.192
 3974.00    0.57098   0.55230  112.287
 3975.00    0.63427   0.60942   -1.000
 3976.00    0.69433   0.66068   -1.000
 3977.00    0.73615   0.70788   -1.000
 3978.00    0.79102   0.75121   -1.000
 3979.00    0.83082   0.78775   -1.000
 3980.00    0.83896   0.80715   -1.000
 3981.00    0.84734   0.80754   -1.000
 3982.00    0.84505   0.79828   -1.000
 3983.00    0.82681   0.79455   -1.000
 3984.00    0.82698   0.80485   -1.000
 3985.00    0.84510   0.82273   -1.000
 3986.00    0.86284   0.84069   -1.000
 3987.00    0.87783   0.85705   -1.000
 3988.00    0.89144   0.86908   -1.000
 3989.00    0.90683   0.87400   -1.000
 3990.00    0.91628   0.87744   -1.000
 3991.00    0.92340   0.88673   -1.000
 3992.00    0.93676   0.90053   -1.000
 3993.00    0.94948   0.90918   -1.000
 3994.00    0.95390   0.90398   -1.000
 3995.00    0.93270   0.88537   -1.000
 3996.00    0.89356   0.86424   -1.000
 3997.00    0.87787   0.85702   -1.000
 3998.00    0.89605   0.87081   -1.000
 3999.00    0.93873   0.89912   -1.000
 4000.00    0.98854   0.92752   -1.000
 4001.00    1.00448   0.94687   -1.000
 4002.00    1.00351   0.95071   -1.000
 4003.00    0.99837   0.93191   -1.000
 4004.00    0.95042   0.89134   -1.000
 4005.00    0.89248   0.85263   -1.000
 4006.00    0.88848   0.84585   -1.000
 4007.00    0.92871   0.87529   -1.000
 4008.00    0.96167   0.91780   -1.000
 4009.00    0.98065   0.94755   -1.000
 4010.00    0.99317   0.96136   -1.000
 4011.00    0.99527   0.96635   -1.000
 4012.00    0.99110   0.96775   -1.000
 4013.00    0.97680   0.97181  303.504
 4014.00    0.99830   0.97913   -1.000
 4015.00    1.05449   0.98324   -1.000
 4016.00    1.04370   0.98200   -1.000
 4017.00    1.00178   0.98137   -1.000
 4018.00    0.98889   0.98768  304.071
 4019.00    1.00567   0.99779  305.522
 4020.00    1.03141   1.00335   -1.000
 4021.00    1.03460   0.99925   -1.000
 4022.00    1.00699   0.98846   -1.000
 4023.00    0.99782   0.97538   -1.000
 4024.00    1.00000   0.96508   -1.000
 4025.00    1.00274   0.96768   -1.000
 4026.00    1.03243   0.98889   -1.000
 4027.00    1.06674   1.01390   -1.000
 4028.00    1.06769   1.01600   -1.000
 4029.00    1.02801   0.98130   -1.000
 4030.00    0.97320   0.92224   -1.000
 4031.00    0.92505   0.86923   -1.000
 4032.00    0.89415   0.84072   -1.000
 4033.00    0.88093   0.84042   -1.000
 4034.00    0.89142   0.86717   -1.000
 4035.00    0.94881   0.91681   -1.000
 4036.00    1.01971   0.97621   -1.000
 4037.00    1.07502   1.02771   -1.000
 4038.00    1.09384   1.05186   -1.000
 4039.00    1.07232   1.04645   -1.000
 4040.00    1.05118   1.02874   -1.000
 4041.00    1.03744   1.01389   -1.000
 4042.00    1.02518   0.99221   -1.000
 4043.00    0.99044   0.94136   -1.000
 4044.00    0.90598   0.86361   -1.000
 4045.00    0.81713   0.80016   -1.000
 4046.00    0.80552   0.79882  356.658
 4047.00    0.89222   0.86090   -1.000
 4048.00    0.99354   0.94001   -1.000
 4049.00    1.04964   0.99950   -1.000
 4050.00    1.07365   1.02742   -1.000
 4051.00    1.07713   1.02889   -1.000
 4052.00    1.05791   1.01324   -1.000
 4053.00    1.01768   0.98942   -1.000
 4054.00    0.98363   0.96708   -1.000
 4055.00    0.97397   0.95008   -1.000
 4056.00    0.97618   0.93560   -1.000
 4057.00    0.94763   0.92636   -1.000
 4058.00    0.93614   0.93419  318.777
 4059.00    0.98204   0.95768   -1.000
 4060.00    1.03445   0.97207   -1.000
 4061.00    1.03053   0.95135   -1.000
 4062.00    0.96469   0.89806   -1.000
 4063.00    0.89534   0.84940   -1.000
 4064.00    0.87631   0.83465   -1.000
 4065.00    0.90192   0.85207   -1.000
 4066.00    0.94097   0.88628   -1.000
 4067.00    0.97664   0.92250   -1.000
 4068.00    1.01686   0.95077   -1.000
 4069.00    1.03729   0.95831   -1.000
 4070.00    1.00409   0.93505   -1.000
 4071.00    0.95109   0.90072   -1.000
 4072.00    0.93737   0.89296   -1.000
 4073.00    0.97665   0.91535   -1.000
 4074.00    1.01869   0.93468   -1.000
 4075.00    1.00159   0.91905   -1.000
 4076.00    0.93254   0.87583   -1.000
 4077.00    0.87267   0.84635   -1.000
 4078.00    0.88701   0.85971   -1.000
 4079.00    0.94935   0.91474   -1.000
 4080.00    1.01748   0.97991   -1.000
 4081.00    1.06149   1.02066   -1.000
 4082.00    1.06390   1.02293   -1.000
 4083.00    1.03364   1.00013   -1.000
 4084.00    1.00951   0.98015   -1.000
 4085.00    1.01814   0.98371   -1.000
 4086.00    1.06041   1.01362   -1.000
 4087.00    1.09209   1.05429   -1.000
 4088.00    1.13070   1.08654   -1.000
 4089.00    1.15846   1.09628   -1.000
 4090.00    1.14972   1.08402   -1.000
 4091.00    1.11395   1.06446   -1.000
 4092.00    1.09336   1.05054   -1.000
 4093.00    1.08456   1.03817   -1.000
 4094.00    1.07240   1.01709   -1.000
 4095.00    1.03710   0.98470   -1.000
 4096.00    0.98634   0.94992   -1.000
 4097.00    0.96131   0.92375   -1.000
 4098.00    0.95136   0.89945   -1.000
 4099.00    0.92024   0.86053   -1.000
 4100.00    0.85511   0.80778   -1.000
 4101.00    0.81456   0.76590   -1.000
 4102.00    0.82623   0.76273   -1.000
 4103.00    0.87579   0.80682   -1.000
 4104.00    0.93991   0.87549   -1.000
 4105.00    1.00230   0.93902   -1.000
 4106.00    1.03560   0.98073   -1.000
 4107.00    1.04878   0.99894   -1.000
 4108.00    1.04516   0.99827   -1.000
 4109.00    1.01913   0.98683   -1.000
 4110.00    0.98199   0.97650  312.974
 4111.00    0.98332   0.97783  318.584
 4112.00    1.01111   0.99272   -1.000
 4113.00    1.03497   1.01629   -1.000
 4114.00    1.05493   1.04053   -1.000
 4115.00    1.06383   1.05618  302.645
 4116.00    1.06356   1.05474  298.699
 4117.00    1.06352   1.03529   -1.000
 4118.00    1.03149   1.00913   -1.000
 4119.00    0.99887   0.99221  309.250
 4120.00    1.00358   0.99173   -1.000
 4121.00    1.01714   0.99927   -1.000
 4122.00    1.01665   1.00541   -1.000
 4123.00    1.01096   1.01253  311.825
 4124.00    1.02962   1.02392  310.722
 4125.00    1.04565   1.03268   -1.000
 4126.00    1.04967   1.02875   -1.000
 4127.00    1.03525   1.01234   -1.000
 4128.00    1.00969   0.99459   -1.000
 4129.00    0.99637   0.98102   -1.000
 4130.00    0.97766   0.96346   -1.000
 4131.00    0.95068   0.93682   -1.000
 4132.00    0.93809   0.91216   -1.000
 4133.00    0.92334   0.91122   -1.000
 4134.00    0.94583   0.94127  342.446
 4135.00    0.99034   0.98706  338.136
 4136.00    1.03509   1.02970  324.234
 4137.00    1.06661   1.05960  310.076
 4138.00    1.07704   1.07679  302.157
 4139.00    1.07161   1.08180   -1.000
 4140.00    1.06222   1.06525  294.193
 4141.00    1.02104   1.01752  295.960
 4142.00    0.94494   0.95029  305.927
 4143.00    0.87770   0.90038   -1.000
 4144.00    0.88404   0.89802   -1.000
 4145.00    0.93793   0.93902  355.607
 4146.00    0.99022   0.98996  338.428
 4147.00    1.02513   1.01743  320.992
 4148.00    1.01949   1.01659  312.616
 4149.00    0.99404   1.00347   -1.000
 4150.00    0.96732   0.99406   -1.000
 4151.00    0.96091   0.99143   -1.000
 4152.00    0.96706   0.98860   -1.000
 4153.00    0.96105   0.98063   -1.000
 4154.00    0.94552   0.97067   -1.000
 4155.00    0.95665   0.96716  330.823
 4156.00    0.97508   0.97651  330.837
 4157.00    0.98358   0.99746   -1.000
 4158.00    1.12179   1.02506   -1.000
 4159.00    1.34715   1.05147   -1.000
 4160.00    1.09780   1.07018   -1.000
 4161.00    0.72107   1.08272   -1.000
 4162.00    0.96043   1.09152   -1.000
 4163.00    1.13029   1.09404   -1.000
 4164.00    1.07274   1.08617   -1.000
 4165.00    1.03506   1.06837   -1.000
 4166.00    1.00467   1.04657   -1.000
 4167.00    0.98021   1.03361   -1.000
 4168.00    0.97583   1.03530   -1.000
 4169.00    0.99706   1.04021   -1.000
 4170.00    1.00645   1.02698   -1.000
 4171.00    0.97263   0.98752   -1.000
 4172.00    0.92030   0.94274   -1.000
 4173.00    0.90125   0.92069   -1.000
 4174.00    0.90538   0.93058   -1.000
 4175.00    0.92535   0.95596   -1.000
 4176.00    0.94745   0.97377   -1.000
 4177.00    0.95444   0.98061   -1.000
 4178.00    0.95571   0.98769   -1.000
 4179.00    0.96956   0.99892   -1.000
 4180.00    0.97784   1.00755   -1.000
 4181.00    0.98871   1.00818   -1.000
 4182.00    0.98836   1.00938   -1.000
 4183.00    1.00499   1.02324   -1.000
 4184.00    1.03057   1.04074   -1.000
 4185.00    1.02770   1.04319   -1.000
 4186.00    1.01121   1.02468   -1.000
 4187.00    0.98280   1.00246   -1.000
 4188.00    0.97042   1.00011   -1.000
 4189.00    0.99039   1.01583   -1.000
 4190.00    1.00988   1.03299   -1.000
 4191.00    1.02734   1.04708   -1.000
 4192.00    1.04593   1.06156   -1.000
 4193.00    1.06366   1.07037  312.229
 4194.00    1.05352   1.05811  306.378
 4195.00    1.01312   1.02030  307.254
 4196.00    0.96979   0.97577  319.321
 4197.00    0.93371   0.94322  334.096
 4198.00    0.92202   0.92833  343.032
 4199.00    0.93101   0.92656  346.930
 4200.00    0.94054   0.93157  345.799
 4201.00    0.95248   0.93905   -1.000
 4202.00    0.96925   0.95124   -1.000
 4203.00    0.99231   0.97484   -1.000
 4204.00    1.00928   1.00893  332.710
 4205.00    1.02907   1.04388   -1.000
 4206.00    1.06278   1.07355   -1.000
 4207.00    1.09835   1.09519  317.496
 4208.00    1.09586   1.10262  310.158
 4209.00    1.09204   1.09761  305.866
 4210.00    1.07860   1.09247   -1.000
 4211.00    1.07859   1.09494   -1.000
 4212.00    1.08291   1.09603   -1.000
 4213.00    1.04955   1.07698   -1.000
 4214.00    1.00772   1.03818   -1.000
 4215.00    0.97841   1.00815   -1.000
 4216.00    0.99547   1.01502   -1.000
 4217.00    1.05839   1.06165  334.986
 4218.00    1.12417   1.11769  319.153
 4219.00    1.17859   1.15640   -1.000
 4220.00    1.19420   1.16800   -1.000
 4221.00    1.18469   1.15108   -1.000
 4222.00    1.14322   1.10396   -1.000
 4223.00    1.07771   1.02671   -1.000
 4224.00    0.98437   0.92640   -1.000
 4225.00    0.86659   0.83000   -1.000
 4226.00    0.77336   0.77542  365.654
 4227.00    0.78208   0.79608   -1.000
 4228.00    0.88743   0.88789  418.773
 4229.00    1.01789   1.00284   -1.000
 4230.00    1.10156   1.08184   -1.000
 4231.00    1.13459   1.10621   -1.000
 4232.00    1.12507   1.09176   -1.000
 4233.00    1.09413   1.06199   -1.000
 4234.00    1.05780   1.03472   -1.000
 4235.00    1.03961   1.01861   -1.000
 4236.00    1.03813   1.01389   -1.000
 4237.00    1.04213   1.02124   -1.000
 4238.00    1.05279   1.04118   -1.000
 4239.00    1.06976   1.06786  318.386
 4240.00    1.09636   1.09479  311.840
 4241.00    1.12206   1.11937  306.924
 4242.00    1.14179   1.14178  301.597
 4243.00    1.16543   1.16592  298.596
 4244.00    1.18227   1.18687  295.968
 4245.00    1.18231   1.18630  290.311
 4246.00    1.15120   1.15333  287.435
 4247.00    1.10880   1.10056  294.396
 4248.00    1.06883   1.05017   -1.000
 4249.00    1.03158   1.01989  317.848
 4250.00    1.02698   1.01476   -1.000
 4251.00    1.04552   1.02995   -1.000
 4252.00    1.07017   1.04603   -1.000
 4253.00    1.07517   1.04552   -1.000
 4254.00    1.05821   1.03854   -1.000
 4255.00    1.05622   1.05027  311.700
 4256.00    1.09554   1.08236   -1.000
 4257.00    1.12795   1.09978   -1.000
 4258.00    1.10576   1.07485   -1.000
 4259.00    1.04304   1.02595   -1.000
 4260.00    0.99671   0.99709  316.139
 4261.00    1.00455   1.01935   -1.000
 4262.00    1.06684   1.08506   -1.000
 4263.00    1.15705   1.15925  315.164
 4264.00    1.20664   1.20747  296.922
 4265.00    1.21556   1.22052  285.577
 4266.00    1.20978   1.20732  281.242
 4267.00    1.18176   1.17391  282.609
 4268.00    1.13410   1.12152  289.101
 4269.00    1.07881   1.05393   -1.000
 4270.00    1.00972   0.97939   -1.000
 4271.00    0.92723   0.91958  323.413
 4272.00    0.89082   0.89354  344.709
 4273.00    0.91529   0.90427   -1.000
 4274.00    0.95282   0.94149   -1.000
 4275.00    0.99257   0.99754  349.958
 4276.00    1.05843   1.06613  338.637
 4277.00    1.13662   1.12783   -1.000
 4278.00    1.17050   1.15388   -1.000
 4279.00    1.14218   1.14069  292.731
 4280.00    1.09195   1.11294   -1.000
 4281.00    1.08034   1.09940   -1.000
 4282.00    1.09434   1.10419   -1.000
 4283.00    1.09837   1.10871   -1.000
 4284.00    1.07647   1.10137   -1.000
 4285.00    1.05070   1.08502   -1.000
 4286.00    1.05130   1.06588   -1.000
 4287.00    1.04108   1.04146  326.929
 4288.00    0.99714   1.00429  333.879
 4289.00    0.94731   0.96261   -1.000
 4290.00    0.93112   0.94513   -1.000
 4291.00    0.95830   0.96939   -1.000
 4292.00    1.01653   1.01623  361.505
 4293.00    1.05986   1.04732   -1.000
 4294.00    1.06311   1.04827   -1.000
 4295.00    1.05601   1.03106   -1.000
 4296.00    1.02965   1.00279   -1.000
 4297.00    0.97756   0.95760   -1.000
 4298.00    0.91366   0.89736   -1.000
 4299.00    0.85010   0.84011   -1.000
 4300.00    0.81097   0.80897  395.495
 4301.00    0.81887   0.80850   -1.000
 4302.00    0.84064   0.82416   -1.000
 4303.00    0.85446   0.84142   -1.000
 4304.00    0.87179   0.85320   -1.000
 4305.00    0.86359   0.84955   -1.000
 4306.00    0.83587   0.82350   -1.000
 4307.00    0.79097   0.78693   -1.000
 4308.00    0.76067   0.76515  412.439
 4309.00    0.77611   0.77728  431.127
 4310.00    0.83237   0.82118   -1.000
 4311.00    0.89377   0.88093   -1.000
 4312.00    0.93428   0.94169  395.356
 4313.00    0.99153   1.00593   -1.000
 4314.00    1.07231   1.08548   -1.000
 4315.00    1.15724   1.18018   -1.000
 4316.00    1.25904   1.27353   -1.000
 4317.00    1.33526   1.33500  287.993
 4318.00    1.34162   1.35051   -1.000
 4319.00    1.31842   1.33210   -1.000
 4320.00    1.29328   1.29610  266.123
 4321.00    1.24742   1.24500  271.083
 4322.00    1.18747   1.17332  278.320
 4323.00    1.10567   1.07936   -1.000
 4324.00    1.00970   0.98872   -1.000
 4325.00    0.94220   0.94887  330.653
 4326.00    0.96512   0.99092   -1.000
 4327.00    1.07673   1.09595   -1.000
 4328.00    1.20667   1.20687  326.676
 4329.00    1.27171   1.27213  295.355
 4330.00    1.28325   1.29056   -1.000
 4331.00    1.27029   1.29263   -1.000
 4332.00    1.27359   1.30230   -1.000
 4333.00    1.30398   1.31892   -1.000
 4334.00    1.30879   1.32512   -1.000
 4335.00    1.29757   1.30094  268.598
 4336.00    1.25998   1.23244   -1.000
 4337.00    1.17073   1.12624   -1.000
 4338.00    1.06521   1.01408   -1.000
 4339.00    0.97613   0.93982   -1.000
 4340.00    0.94420   0.92609   -1.000
 4341.00    0.98395   0.97137   -1.000
 4342.00    1.08051   1.05332   -1.000
 4343.00    1.17034   1.13658   -1.000
 4344.00    1.20743   1.19786  314.820
 4345.00    1.23192   1.23978   -1.000
 4346.00    1.26235   1.27327   -1.000
 4347.00    1.28361   1.30425   -1.000
 4348.00    1.29812   1.32538   -1.000
 4349.00    1.31196   1.31291  276.033
 4350.00    1.26513   1.25460  273.121
 4351.00    1.17877   1.17948  278.638
 4352.00    1.12017   1.13649   -1.000
 4353.00    1.13927   1.15114   -1.000
 4354.00    1.20166   1.20287  311.229
 4355.00    1.25483   1.25531  297.337
 4356.00    1.29048   1.28752  285.214
 4357.00    1.30544   1.29610  277.544
 4358.00    1.28943   1.28725  273.772
 4359.00    1.26837   1.28015   -1.000
 4360.00    1.27091   1.29356   -1.000
 4361.00    1.31042   1.32373   -1.000
 4362.00    1.34768   1.35475  275.071
 4363.00    1.36504   1.37778   -1.000
 4364.00    1.38608   1.39167  266.124
 4365.00    1.39191   1.38916  264.499
 4366.00    1.35806   1.36044  262.291
 4367.00    1.30717   1.31547   -1.000
 4368.00    1.28017   1.28182  273.917
 4369.00    1.27827   1.27092  281.837
 4370.00    1.28385   1.27093  282.738
 4371.00    1.28906   1.26375   -1.000
 4372.00    1.27210   1.23815   -1.000
 4373.00    1.23112   1.19494   -1.000
 4374.00    1.17900   1.15245   -1.000
 4375.00    1.15545   1.14222   -1.000
 4376.00    1.19601   1.17702   -1.000
 4377.00    1.25322   1.23390   -1.000
 4378.00    1.29549   1.27322   -1.000
 4379.00    1.29902   1.27347   -1.000
 4380.00    1.28420   1.23132   -1.000
 4381.00    1.22528   1.14610   -1.000
 4382.00    1.10288   1.03195   -1.000
 4383.00    0.96336   0.93625   -1.000
 4384.00    0.91999   0.91101  337.604
 4385.00    1.00360   0.96835   -1.000
 4386.00    1.11954   1.06527   -1.000
 4387.00    1.18533   1.13941   -1.000
 4388.00    1.19861   1.16799   -1.000
 4389.00    1.20446   1.16954   -1.000
 4390.00    1.20208   1.17025   -1.000
 4391.00    1.20172   1.18251   -1.000
 4392.00    1.23399   1.20011   -1.000
 4393.00    1.25668   1.20919   -1.000
 4394.00    1.24434   1.21078   -1.000
 4395.00    1.24782   1.22608   -1.000
 4396.00    1.29271   1.26452   -1.000
 4397.00    1.32379   1.30044   -1.000
 4398.00    1.32582   1.30204   -1.000
 4399.00    1.30314   1.27031   -1.000
 4400.00    1.26765   1.23814   -1.000
 4401.00    1.24166   1.22342   -1.000
 4402.00    1.24943   1.20714   -1.000
 4403.00    1.21620   1.16476   -1.000
 4404.00    1.14247   1.10863   -1.000
 4405.00    1.09816   1.08058   -1.000
 4406.00    1.12714   1.09881   -1.000
 4407.00    1.16512   1.14091   -1.000
 4408.00    1.19198   1.18740  300.041
 4409.00    1.23955   1.24140  296.502
 4410.00    1.30746   1.30576  291.232
 4411.00    1.37520   1.35887   -1.000
 4412.00    1.39733   1.36796   -1.000
 4413.00    1.36111   1.32586   -1.000
 4414.00    1.28379   1.25852   -1.000
 4415.00    1.21317   1.20650  270.892
 4416.00    1.19779   1.20583   -1.000
 4417.00    1.25071   1.25647  291.720
 4418.00    1.32392   1.32537  286.857
 4419.00    1.36899   1.37465  275.831
 4420.00    1.38928   1.38396  265.400
 4421.00    1.35635   1.35737  260.756
 4422.00    1.29307   1.32226   -1.000
 4423.00    1.26858   1.30613   -1.000
 4424.00    1.29273   1.31160   -1.000
 4425.00    1.30643   1.32303   -1.000
 4426.00    1.28941   1.33066   -1.000
 4427.00    1.29531   1.33676   -1.000
 4428.00    1.30266   1.34033   -1.000
 4429.00    1.29581   1.33716   -1.000
 4430.00    1.28325   1.33024   -1.000
 4431.00    1.28140   1.32726   -1.000
 4432.00    1.30192   1.32332   -1.000
 4433.00    1.28761   1.30094   -1.000
 4434.00    1.22971   1.26411   -1.000
 4435.00    1.20124   1.24716   -1.000
 4436.00    1.23262   1.27888   -1.000
 4437.00    1.30160   1.34984   -1.000
 4438.00    1.38209   1.41477   -1.000
 4439.00    1.42794   1.43613  261.269
 4440.00    1.38877   1.40625   -1.000
 4441.00    1.31730   1.34921   -1.000
 4442.00    1.27114   1.30318   -1.000
 4443.00    1.27131   1.29871   -1.000
 4444.00    1.30757   1.33988   -1.000
 4445.00    1.38444   1.40027   -1.000
 4446.00    1.43163   1.44545   -1.000
 4447.00    1.43221   1.46150   -1.000
 4448.00    1.44120   1.45971   -1.000
 4449.00    1.43013   1.45343   -1.000
 4450.00    1.39936   1.44448   -1.000
 4451.00    1.40085   1.43098   -1.000
 4452.00    1.40408   1.40674  264.927
 4453.00    1.36115   1.36283  263.746
 4454.00    1.30111   1.30492  267.958
 4455.00    1.23549   1.26157   -1.000
 4456.00    1.22365   1.25082   -1.000
 4457.00    1.25678   1.26056  292.590
 4458.00    1.26724   1.26839  287.024
 4459.00    1.26511   1.26456  283.401
 4460.00    1.25310   1.25689  284.217
 4461.00    1.24773   1.26048  286.172
 4462.00    1.26378   1.28649   -1.000
 4463.00    1.31768   1.32987  289.341
 4464.00    1.37729   1.36982   -1.000
 4465.00    1.38818   1.39027  271.436
 4466.00    1.38009   1.39084  266.941
 4467.00    1.37945   1.37967  267.010
 4468.00    1.37529   1.36591  267.996
 4469.00    1.34932   1.36013   -1.000
 4470.00    1.35415   1.37441   -1.000
 4471.00    1.38981   1.41183   -1.000
 4472.00    1.43001   1.45815   -1.000
 4473.00    1.46932   1.49715   -1.000
 4474.00    1.49728   1.52196   -1.000
 4475.00    1.51724   1.53827   -1.000
 4476.00    1.54896   1.55559  246.429
 4477.00    1.57727   1.56589  246.293
 4478.00    1.56075   1.54729  244.184
 4479.00    1.49230   1.49149  243.784
 4480.00    1.41382   1.42160   -1.000
 4481.00    1.35279   1.37983   -1.000
 4482.00    1.35194   1.39139   -1.000
 4483.00    1.42062   1.44859   -1.000
 4484.00    1.49602   1.51829   -1.000
 4485.00    1.55568   1.56786   -1.000
 4486.00    1.56843   1.57762   -1.000
 4487.00    1.54914   1.54543  243.930
 4488.00    1.48178   1.48989   -1.000
 4489.00    1.42361   1.44641   -1.000
 4490.00    1.42434   1.43962   -1.000
 4491.00    1.46298   1.46277  265.225
 4492.00    1.49597   1.48387   -1.000
 4493.00    1.47675   1.47475  254.302
 4494.00    1.42536   1.44327   -1.000
 4495.00    1.39500   1.42195   -1.000
 4496.00    1.39877   1.43408   -1.000
 4497.00    1.42691   1.47382   -1.000
 4498.00    1.48150   1.51505   -1.000
 4499.00    1.52310   1.53627   -1.000
 4500.00    1.52666   1.53594   -1.000
 4501.00    1.49930   1.53477   -1.000
 4502.00    1.51046   1.55380   -1.000
 4503.00    1.57827   1.59276   -1.000
 4504.00    1.62443   1.63419  242.312
 4505.00    1.62428   1.65708   -1.000
 4506.00    1.61313   1.65290   -1.000
 4507.00    1.60412   1.63329   -1.000
 4508.00    1.60614   1.61797   -1.000
 4509.00    1.62284   1.61678  241.180
 4510.00    1.62019   1.62305  240.733
 4511.00    1.60234   1.62102   -1.000
 4512.00    1.57785   1.60151   -1.000
 4513.00    1.54740   1.57176   -1.000
 4514.00    1.52949   1.54636   -1.000
 4515.00    1.52641   1.53404  249.474
 4516.00    1.53167   1.53275  250.159
 4517.00    1.52345   1.53378  249.049
 4518.00    1.51099   1.53590   -1.000
 4519.00    1.53615   1.54701  252.575
 4520.00    1.57742   1.56630   -1.000
 4521.00    1.59168   1.57921   -1.000
 4522.00    1.56650   1.57229  244.209
 4523.00    1.53649   1.54718  246.508
 4524.00    1.49868   1.51522   -1.000
 4525.00    1.47260   1.47954  256.751
 4526.00    1.42263   1.43536  259.320
 4527.00    1.36592   1.38565   -1.000
 4528.00    1.33614   1.34546  272.864
 4529.00    1.33186   1.33141  279.433
 4530.00    1.36359   1.34728   -1.000
 4531.00    1.39885   1.37868   -1.000
 4532.00    1.41072   1.40170   -1.000
 4533.00    1.38869   1.40146   -1.000
 4534.00    1.34772   1.38736   -1.000
 4535.00    1.34250   1.38782   -1.000
 4536.00    1.39641   1.42550   -1.000
 4537.00    1.49577   1.49065  277.124
 4538.00    1.57647   1.54716   -1.000
 4539.00    1.58073   1.56662   -1.000
 4540.00    1.54975   1.55310  243.245
 4541.00    1.52632   1.53411  246.901
 4542.00    1.53210   1.52958  251.534
 4543.00    1.53929   1.53497  250.559
 4544.00    1.52836   1.53536  248.877
 4545.00    1.49976   1.52604   -1.000
 4546.00    1.49825   1.51498   -2.000
 4547.00    1.16691   1.50606   -2.000
 4548.00    0.18656   1.49342   -2.000
 4549.00    0.00275   1.47828   -1.000
 4550.00    0.35319   1.47432   -1.000
 4551.00    1.09430   1.48739   -1.000
 4552.00    0.58462   1.50013   -1.000
 4553.00    1.23137   1.49453   -1.000
 4554.00    1.52588   1.47883   -1.000
 4555.00    1.46768   1.47727  265.137
 4556.00    1.50572   1.50606  265.948
 4557.00    1.56474   1.55776   84.664
 4558.00    1.61687   1.60718   25.022
 4559.00    1.63109   1.63727   24.145
 4560.00    1.63028   1.64994   23.880
 4561.00    1.62599   1.64873   24.004
 4562.00    1.59624   1.63073   23.987
 4563.00    1.56170   1.59557   24.125
 4564.00    1.51652   1.55808   24.725
 4565.00    1.51129   1.54129   25.299
 4566.00    1.53701   1.55696   25.555
 4567.00    1.58715   1.59546   25.152
 4568.00    1.63727   1.63161   24.490
 4569.00    1.63717   1.64213   23.935
 4570.00    1.59613   1.62411   23.830
 4571.00    1.55539   1.59430   24.195
 4572.00    1.54435   1.57868   24.833
 4573.00    1.57984   1.59316   25.295
 4574.00    1.63067   1.62392   24.933
 4575.00    1.63945   1.64482   24.245
 4576.00    1.61457   1.64642   24.001
 4577.00    1.60730   1.63323   24.053
 4578.00    1.59677   1.60627   24.175
 4579.00    1.54553   1.56643   24.379
 4580.00    1.49761   1.52674   24.881
 4581.00    1.49207   1.50561   25.593
 4582.00    1.51677   1.50649   25.973
 4583.00    1.53680   1.51673   25.805
 4584.00    1.54064   1.52442   25.466
 4585.00    1.53022   1.52816   25.346
 4586.00    1.52764   1.53777   25.454
 4587.00    1.55886   1.56318   25.501
 4588.00    1.60977   1.59880   25.052
 4589.00    1.63679   1.62601   24.407
 4590.00    1.62827   1.63052   24.003
 4591.00    1.58365   1.61247   24.075
 4592.00    1.53554   1.58419   24.468
 4593.00    1.51732   1.56127   24.923
 4594.00    1.53127   1.55014   25.268
 4595.00    1.53732   1.54666   25.219
 4596.00    1.54417   1.54837   24.997
 4597.00    1.54246   1.55639   24.830
 4598.00    1.56867   1.56697   24.773
 4599.00    1.57707   1.57345   24.721
 4600.00    1.56777   1.57380   24.724
 4601.00    1.55534   1.57226   24.957
 4602.00    1.56011   1.57368   25.148
 4603.00    1.57965   1.57714   25.137
 4604.00    1.59051   1.57924   24.850
 4605.00    1.59407   1.58330   24.640
 4606.00    1.59963   1.59914   24.679
 4607.00    1.62962   1.63226   24.583
 4608.00    1.69190   1.67524   24.257
 4609.00    1.72728   1.71038   23.758
 4610.00    1.73151   1.72109   23.297
 4611.00    1.69740   1.70730   23.114
 4612.00    1.64947   1.68428   23.281
 4613.00    1.64533   1.66857   23.599
 4614.00    1.66877   1.66868   23.835
 4615.00    1.69562   1.68053   23.926
 4616.00    1.69360   1.69263   23.774
 4617.00    1.67990   1.69801   23.583
 4618.00    1.66103   1.69686   23.547
 4619.00    1.65885   1.69340   23.721
 4620.00    1.65639   1.69432   23.856
 4621.00    1.68839   1.70277   23.780
 4622.00    1.71339   1.71284   23.511
 4623.00    1.69538   1.71596   23.206
 4624.00    1.70589   1.71106   23.231
 4625.00    1.69906   1.70367   23.290
 4626.00    1.68420   1.69760   23.370
 4627.00    1.68390   1.69395   23.561
 4628.00    1.68366   1.69261   23.596
 4629.00    1.68646   1.69371   23.614
 4630.00    1.69230   1.69860   23.755
 4631.00    1.70889   1.70536   23.765
 4632.00    1.70518   1.70533   23.605
 4633.00    1.66868   1.69239   23.401
 4634.00    1.64905   1.67241   23.574
 4635.00    1.64536   1.65617   23.914
 4636.00    1.63162   1.64373   24.115
 4637.00    1.61441   1.62895   24.123
 4638.00    1.58929   1.61246   24.356
 4639.00    1.58535   1.60214   24.641
 4640.00    1.60457   1.60652   24.702
 4641.00    1.65193   1.62623   24.582
 4642.00    1.70063   1.64893   24.107
 4643.00    1.70329   1.65636   23.560
 4644.00    1.67618   1.63854   23.334
 4645.00    1.61740   1.60046   23.517
 4646.00    1.55704   1.55559   24.018
 4647.00    1.52823   1.52456   24.707
 4648.00    1.55440   1.52486   25.275
 4649.00    1.59775   1.55602   25.241
 4650.00    1.62351   1.60242   24.738
 4651.00    1.65284   1.64424   24.200
 4652.00    1.66223   1.66698   23.937
 4653.00    1.64839   1.66579   23.908
 4654.00    1.63458   1.64585   23.923
 4655.00    1.60141   1.62347   24.279
 4656.00    1.59809   1.61964   24.803
 4657.00    1.64318   1.64645   24.974
 4658.00    1.70894   1.69815   24.619
 4659.00    1.75751   1.75092   23.773
 4660.00    1.78055   1.77821   22.928
 4661.00    1.76790   1.76924   22.528
 4662.00    1.73042   1.73449   22.588
 4663.00    1.68355   1.69172   22.936
 4664.00    1.65476   1.65037   23.495
 4665.00    1.61943   1.60474   23.873
 4666.00    1.54348   1.54938   23.971
 4667.00    1.46489   1.49879   24.504
 4668.00    1.45439   1.47998   25.590
 4669.00    1.51549   1.50655   26.455
 4670.00    1.59127   1.56297   26.264
 4671.00    1.65897   1.61846   25.359
 4672.00    1.66198   1.65201   24.355
 4673.00    1.65735   1.66309   23.813
 4674.00    1.66884   1.66790   23.727
 4675.00    1.68385   1.67961   23.745
 4676.00    1.71620   1.69445   23.663
 4677.00    1.72137   1.69635   23.331
 4678.00    1.69852   1.67644   23.064
 4679.00    1.64843   1.64370   23.276
 4680.00    1.60551   1.61341   23.796
 4681.00    1.59186   1.59782   24.249
 4682.00    1.59991   1.60230   24.615
 4683.00    1.65690   1.62283   24.743
 4684.00    1.68941   1.64675   24.346
 4685.00    1.69821   1.66189   23.770
 4686.00    1.69848   1.66502   23.546
 4687.00    1.68175   1.66004   23.634
 4688.00    1.67995   1.65352   23.661
 4689.00    1.68006   1.64926   23.779
 4690.00    1.67487   1.64704   23.773
 4691.00    1.66303   1.64618   23.807
 4692.00    1.67396   1.64972   23.966
 4693.00    1.68957   1.66231   23.947
 4694.00    1.72366   1.68249   23.632
 4695.00    1.76676   1.70149   23.244
 4696.00    1.75720   1.70766   22.757
 4697.00    1.71756   1.69159   22.550
 4698.00    1.67748   1.65664   22.778
 4699.00    1.64593   1.61995   23.472
 4700.00    1.63702   1.59539   24.106
 4701.00    1.62486   1.58079   24.278
 4702.00    1.60810   1.57123   24.125
 4703.00    1.59884   1.57166   24.370
 4704.00    1.62536   1.58657   24.763
 4705.00    1.66350   1.60699   24.767
 4706.00    1.67435   1.61587   24.284
 4707.00    1.64221   1.60690   24.053
 4708.00    1.60335   1.59245   24.452
 4709.00    1.60044   1.59157   24.908
 4710.00    1.63681   1.61112   25.069
 4711.00    1.69127   1.64001   24.810
 4712.00    1.70924   1.65961   24.056
 4713.00    1.70719   1.65923   23.473
 4714.00    1.67735   1.64839   23.341
 4715.00    1.67003   1.64984   23.626
 4716.00    1.70040   1.67500   24.010
 4717.00    1.74819   1.71515   23.902
 4718.00    1.78019   1.75367   23.406
 4719.00    1.79169   1.78027   23.009
 4720.00    1.78374   1.79321   22.894
 4721.00    1.77653   1.79325   22.816
 4722.00    1.75909   1.78516   22.783
 4723.00    1.74266   1.78038   22.988
 4724.00    1.77791   1.78356   23.098
 4725.00    1.80365   1.78065   22.927
 4726.00    1.75654   1.75365   22.720
 4727.00    1.67750   1.70083   22.856
 4728.00    1.60342   1.64190   23.492
 4729.00    1.57898   1.60408   24.346
 4730.00    1.60851   1.59873   24.765
 4731.00    1.63082   1.61865   24.613
 4732.00    1.66178   1.64987   24.363
 4733.00    1.68697   1.68027   24.158
 4734.00    1.70495   1.70040   23.874
 4735.00    1.72146   1.70625   23.683
 4736.00    1.71854   1.70398   23.553
 4737.00    1.70926   1.70505   23.484
 4738.00    1.72893   1.71616   23.722
 4739.00    1.74052   1.73204   23.684
 4740.00    1.74306   1.74122   23.410
 4741.00    1.72930   1.74193   23.459
 4742.00    1.71751   1.74311   23.585
 4743.00    1.74235   1.74867   23.574
 4744.00    1.75916   1.75617   23.362
 4745.00    1.75431   1.76628   23.151
 4746.00    1.76574   1.78000   23.211
 4747.00    1.78053   1.79539   23.198
 4748.00    1.77767   1.80876   23.004
 4749.00    1.77882   1.81756   22.797
 4750.00    1.77984   1.82107   22.772
 4751.00    1.76080   1.81685   22.808
 4752.00    1.74780   1.80210   22.846
 4753.00    1.74482   1.77941   23.035
 4754.00    1.72302   1.75661   23.292
 4755.00    1.70415   1.74179   23.478
 4756.00    1.71478   1.73885   23.605
 4757.00    1.72615   1.74651   23.573
 4758.00    1.72066   1.76080   23.686
 4759.00    1.72422   1.77605   23.844
 4760.00    1.73049   1.78288   23.827
 4761.00    1.70678   1.77063   23.640
 4762.00    1.65223   1.73845   23.668
 4763.00    1.61627   1.69880   24.095
 4764.00    1.60298   1.66715   24.668
 4765.00    1.59484   1.64846   24.927
 4766.00    1.59479   1.64219   24.936
 4767.00    1.62878   1.65431   24.861
 4768.00    1.70559   1.69026   24.654
 4769.00    1.73259   1.73884   24.270
 4770.00    1.72441   1.77534   23.739
 4771.00    1.71796   1.78501   23.476
 4772.00    1.71766   1.77954   23.558
 4773.00    1.74704   1.78311   23.768
 4774.00    1.75173   1.80554   23.906
 4775.00    1.78110   1.83536   23.568
 4776.00    1.79436   1.85626   23.102
 4777.00    1.78879   1.86464   22.988
 4778.00    1.78142   1.86381   23.023
 4779.00    1.77085   1.85413   23.105
 4780.00    1.75285   1.83786   23.276
 4781.00    1.73520   1.82001   23.527
 4782.00    1.72972   1.80121   23.647
 4783.00    1.70112   1.78133   23.710
 4784.00    1.70703   1.76615   23.840
 4785.00    1.70463   1.75871   24.008
 4786.00    1.69936   1.75350   24.000
 4787.00    1.68492   1.74721   24.109
 4788.00    1.69245   1.74382   24.344
 4789.00    1.69726   1.74546   24.455
 4790.00    1.69801   1.75215   24.409
 4791.00    1.71665   1.76794   24.279
 4792.00    1.74479   1.79821   24.113
 4793.00    1.79959   1.84193   23.836
 4794.00    1.83263   1.88896   23.417
 4795.00    1.86822   1.92328   22.904
 4796.00    1.85309   1.93098   22.560
 4797.00    1.80354   1.90856   22.536
 4798.00    1.75583   1.86681   22.810
 4799.00    1.71440   1.82747   23.280
 4800.00    1.72199   1.81179   23.692
 4801.00    1.76094   1.82694   23.898
 4802.00    1.81533   1.86114   23.625
 4803.00    1.83630   1.88916   23.152
 4804.00    1.80550   1.88976   22.876
 4805.00    1.77327   1.86587   22.966
 4806.00    1.75794   1.83627   23.286
 4807.00    1.73466   1.81544   23.572
 4808.00    1.72899   1.80790   23.752
 4809.00    1.74855   1.81392   23.727
 4810.00    1.76671   1.83002   23.659
 4811.00    1.78835   1.84746   23.536
 4812.00    1.80100   1.85853   23.322
 4813.00    1.81243   1.86339   23.164
 4814.00    1.80050   1.86816   23.060
 4815.00    1.81411   1.87831   23.038
 4816.00    1.82884   1.89502   22.977
 4817.00    1.82540   1.91534   22.884
 4818.00    1.83808   1.93445   22.737
 4819.00    1.85601   1.94760   22.603
 4820.00    1.84720   1.94999   22.524
 4821.00    1.83043   1.93487   22.521
 4822.00    1.79324   1.89895   22.548
 4823.00    1.76492   1.85223   22.806
 4824.00    1.75353   1.81791   23.412
 4825.00    1.77248   1.81533   23.787
 4826.00    1.80898   1.83947   23.669
 4827.00    1.81337   1.86361   23.238
 4828.00    1.79860   1.86867   22.938
 4829.00    1.80268   1.85885   23.079
 4830.00    1.77909   1.84505   23.345
 4831.00    1.75105   1.82958   23.465
 4832.00    1.73009   1.81536   23.478
 4833.00    1.76335   1.81356   23.687
 4834.00    1.79994   1.82987   23.665
 4835.00    1.82960   1.85518   23.273
 4836.00    1.82768   1.87320   22.995
 4837.00    1.81466   1.87585   22.936
 4838.00    1.78882   1.86384   22.988
 4839.00    1.76387   1.84131   23.126
 4840.00    1.74698   1.81828   23.465
 4841.00    1.74402   1.80553   23.843
 4842.00    1.74588   1.80424   23.828
 4843.00    1.76525   1.80975   23.767
 4844.00    1.77989   1.82340   23.637
 4845.00    1.81926   1.84798   23.451
 4846.00    1.84149   1.87226   23.198
 4847.00    1.82219   1.87742   22.855
 4848.00    1.80473   1.86086   22.815
 4849.00    1.78226   1.84315   23.295
 4850.00    1.79207   1.84332   23.596
 4851.00    1.80676   1.85621   23.539
 4852.00    1.82452   1.86304   23.224
 4853.00    1.80447   1.84809   23.204
 4854.00    1.74371   1.80755   23.353
 4855.00    1.70526   1.75575   23.611
 4856.00    1.68863   1.71838   24.340
 4857.00    1.67914   1.70472   24.945
 4858.00    1.66687   1.68974   24.831
 4859.00    1.59814   1.63270   24.671
 4860.00    1.46377   1.52433   25.544
 4861.00    1.36453   1.41561   27.909
 4862.00    1.38204   1.37460   31.052
 4863.00    1.49730   1.42444   32.061
 4864.00    1.59179   1.52599   29.852
 4865.00    1.65550   1.62510   27.261
 4866.00    1.69863   1.69835   25.759
 4867.00    1.73397   1.74593   24.913
 4868.00    1.73482   1.76925   24.433
 4869.00    1.72978   1.76516   24.236
 4870.00    1.69428   1.73016   24.170
 4871.00    1.61450   1.67531   24.443
 4872.00    1.58978   1.63500   25.148
 4873.00    1.63444   1.64288   25.673
 4874.00    1.70661   1.69229   25.362
 4875.00    1.71508   1.74577   24.645
 4876.00    1.72570   1.78171   24.255
 4877.00    1.73752   1.80679   24.082
 4878.00    1.76407   1.83443   23.958
 4879.00    1.79986   1.86387   23.853
 4880.00    1.77941   1.88151   23.502
 4881.00    1.76389   1.87658   23.302
 4882.00    1.75256   1.85503   23.547
 4883.00    1.75618   1.83353   23.921
 4884.00    1.74767   1.81567   24.030
 4885.00    1.71949   1.79188   23.960
 4886.00    1.67747   1.76441   24.122
 4887.00    1.68017   1.74797   24.483
 4888.00    1.69915   1.74325   24.578
 4889.00    1.68126   1.73195   24.445
 4890.00    1.66036   1.70278   24.454
 4891.00    1.64602   1.67555   24.851
 4892.00    1.66581   1.69075   25.343
 4893.00    1.76839   1.76538   25.061
 4894.00    1.88056   1.87290   24.006
 4895.00    1.93767   1.96675   22.920
 4896.00    1.94858   2.01907   22.283
 4897.00    1.95232   2.03170   21.903
 4898.00    1.93810   2.01793   21.823
 4899.00    1.89432   1.98922   21.915
 4900.00    1.85534   1.95751   22.414
 4901.00    1.83494   1.93389   22.922
 4902.00    1.83870   1.91869   23.130
 4903.00    1.83704   1.90733   23.016
 4904.00    1.83583   1.90625   23.078
 4905.00    1.86248   1.92682   23.325
 4906.00    1.90068   1.96040   23.027
 4907.00    1.91061   1.97586   22.551
 4908.00    1.87088   1.95281   22.422
 4909.00    1.81687   1.90074   22.674
 4910.00    1.77419   1.84737   23.246
 4911.00    1.77951   1.82097   23.893
 4912.00    1.80422   1.83301   24.127
 4913.00    1.82795   1.87226   23.776
 4914.00    1.87678   1.91721   23.349
 4915.00    1.91650   1.95134   23.035
 4916.00    1.91717   1.95901   22.743
 4917.00    1.85336   1.91995   22.572
 4918.00    1.74518   1.82719   22.747
 4919.00    1.63891   1.70940   23.609
 4920.00    1.58499   1.61880   24.914
 4921.00    1.60983   1.59740   26.023
 4922.00    1.70577   1.64292   26.192
 4923.00    1.77481   1.71237   25.293
 4924.00    1.79826   1.76655   24.414
 4925.00    1.78348   1.80461   24.098
 4926.00    1.81980   1.84717   24.063
 4927.00    1.88743   1.89931   23.719
 4928.00    1.92965   1.95007   23.102
 4929.00    1.94127   1.99154   22.712
 4930.00    1.95597   2.01750   22.509
 4931.00    1.95344   2.01783   22.358
 4932.00    1.91923   1.98661   22.252
 4933.00    1.84401   1.93423   22.514
 4934.00    1.80587   1.88827   23.160
 4935.00    1.82999   1.87054   23.953
 4936.00    1.83480   1.86739   23.947
 4937.00    1.80550   1.84542   23.531
 4938.00    1.73920   1.79994   23.583
 4939.00    1.71616   1.76796   24.303
 4940.00    1.77939   1.78739   24.906
 4941.00    1.85765   1.85468   24.611
 4942.00    1.91163   1.93299   23.753
 4943.00    1.93423   1.98779   23.016
 4944.00    1.93981   2.00939   22.617
 4945.00    1.93245   2.00705   22.434
 4946.00    1.91923   1.99788   22.468
 4947.00    1.93342   1.99866   22.626
 4948.00    1.96873   2.01486   22.652
 4949.00    1.98115   2.03741   22.435
 4950.00    1.99249   2.05357   22.180
 4951.00    1.99408   2.05819   22.118
 4952.00    1.97672   2.05145   22.038
 4953.00    1.95760   2.03541   22.163
 4954.00    1.92473   2.00824   22.324
 4955.00    1.88682   1.95731   22.589
 4956.00    1.80144   1.87079   22.893
 4957.00    1.69230   1.76868   23.556
 4958.00    1.67672   1.71256   24.781
 4959.00    1.77592   1.74664   25.669
 4960.00    1.89499   1.84328   25.036
 4961.00    1.94510   1.93776   23.609
 4962.00    1.92876   1.98761   22.854
 4963.00    1.92313   1.99217   22.716
 4964.00    1.89336   1.96770   22.836
 4965.00    1.83769   1.92698   23.027
 4966.00    1.81574   1.88567   23.317
 4967.00    1.78471   1.86095   23.809
 4968.00    1.79931   1.85648   24.092
 4969.00    1.83760   1.86594   24.084
 4970.00    1.85376   1.88586   24.004
 4971.00    1.86222   1.91497   23.818
 4972.00    1.89736   1.94977   23.560
 4973.00    1.91040   1.98217   23.305
 4974.00    1.93279   2.00257   23.029
 4975.00    1.93365   2.00657   22.821
 4976.00    1.92073   1.99413   22.748
 4977.00    1.89370   1.96672   22.919
 4978.00    1.85989   1.93109   23.168
 4979.00    1.81651   1.89672   23.489
 4980.00    1.78740   1.86323   23.870
 4981.00    1.75972   1.81861   24.164
 4982.00    1.69050   1.75756   24.534
 4983.00    1.64288   1.69980   25.359
 4984.00    1.64889   1.67850   26.136
 4985.00    1.70745   1.70736   26.082
 4986.00    1.78287   1.77239   25.562
 4987.00    1.85044   1.84587   24.831
 4988.00    1.87390   1.90068   24.049
 4989.00    1.86927   1.91997   23.492
 4990.00    1.85070   1.91011   23.549
 4991.00    1.83260   1.89533   23.901
 4992.00    1.85166   1.89262   24.131
 4993.00    1.85616   1.90092   24.122
 4994.00    1.85784   1.91151   23.906
 4995.00    1.87266   1.92210   23.813
 4996.00    1.86952   1.93410   23.799
 4997.00    1.86833   1.93906   23.673
 4998.00    1.85630   1.92268   23.569
 4999.00    1.81528   1.88216   23.729
 5000.00    1.77301   1.83185   24.061
 5001.00    1.75721   1.79540   24.545
 5002.00    1.78041   1.78341   24.832
 5003.00    1.79041   1.78378   24.828
 5004.00    1.76745   1.77519   24.588
 5005.00    1.73921   1.74825   24.453
 5006.00    1.72238   1.71955   24.834
 5007.00    1.73421   1.72020   25.455
 5008.00    1.78368   1.76274   25.544
 5009.00    1.83629   1.82093   24.888
 5010.00    1.83044   1.85359   24.147
 5011.00    1.81399   1.83958   23.930
 5012.00    1.73925   1.78784   24.280
 5013.00    1.67337   1.72709   25.033
 5014.00    1.65462   1.68822   25.965
 5015.00    1.67270   1.68644   26.526
 5016.00    1.73089   1.70927   26.355
 5017.00    1.76777   1.73200   25.758
 5018.00    1.76246   1.74448   25.239
 5019.00    1.76200   1.75642   25.150
 5020.00    1.79636   1.77478   25.146
 5021.00    1.79741   1.78982   24.854
 5022.00    1.77371   1.79574   24.667
 5023.00    1.77113   1.80429   24.784
 5024.00    1.81201   1.82669   24.829
 5025.00    1.84505   1.85442   24.675
 5026.00    1.83704   1.86736   24.414
 5027.00    1.79953   1.86020   24.264
 5028.00    1.80505   1.85180   24.389
 5029.00    1.83893   1.86266   24.493
 5030.00    1.87875   1.89504   24.248
 5031.00    1.90883   1.93819   23.787
 5032.00    1.92217   1.98001   23.450
 5033.00    1.95351   2.00658   23.071
 5034.00    1.92536   2.00093   22.820
 5035.00    1.86002   1.95876   22.893
 5036.00    1.79768   1.90158   23.659
 5037.00    1.76561   1.85783   24.589
 5038.00    1.77520   1.82694   24.966
 5039.00    1.72835   1.78307   25.052
 5040.00    1.63764   1.71732   25.393
 5041.00    1.59248   1.66251   26.419
 5042.00    1.64145   1.66777   27.463
 5043.00    1.76287   1.74612   27.391
 5044.00    1.87448   1.86216   26.009
 5045.00    1.95099   1.96506   24.406
 5046.00    1.97247   2.02151   23.444
 5047.00    1.93486   2.02240   22.952
 5048.00    1.95268   1.97649   22.107
 5049.00    1.23037   1.90938   -1.000
 5050.00    0.17426   1.85417   -1.000
 5051.00    0.05366   1.83034   -1.000
 5052.00    0.56092   1.83898   -1.000
 5053.00    1.91473   1.87604   24.626
 5054.00    1.93166   1.93000   24.054
 5055.00    1.97257   1.97889   23.448
 5056.00    1.98277   2.00872   23.033
 5057.00    1.99864   2.02354   22.825
 5058.00    2.01203   2.03394   22.760
 5059.00    1.97792   2.04770   22.806
 5060.00    1.99912   2.06660   22.847
 5061.00    2.02431   2.08400   22.832
 5062.00    2.01154   2.08386   22.675
 5063.00    1.95599   2.05003   22.702
 5064.00    1.86490   1.98576   23.029
 5065.00    1.80391   1.91951   23.720
 5066.00    1.81899   1.88209   24.559
 5067.00    1.86548   1.87747   24.805
 5068.00    1.86105   1.88937   24.481
 5069.00    1.87525   1.90616   24.114
 5070.00    1.90214   1.92327   24.047
 5071.00    1.89778   1.93207   23.930
 5072.00    1.86155   1.92700   23.778
 5073.00    1.86839   1.91831   23.985
 5074.00    1.90517   1.92001   24.164
 5075.00    1.91865   1.93120   23.849
 5076.00    1.91134   1.94024   23.671
 5077.00    1.89827   1.93438   23.645
 5078.00    1.87532   1.90105   23.632
 5079.00    1.79156   1.83959   23.884
 5080.00    1.71137   1.77801   24.751
 5081.00    1.71049   1.75408   25.931
 5082.00    1.75047   1.77276   26.176
 5083.00    1.80457   1.81055   25.591
 5084.00    1.84088   1.85083   25.048
 5085.00    1.87558   1.89052   24.717
 5086.00    1.92007   1.92653   24.245
 5087.00    1.93745   1.95287   23.835
 5088.00    1.93174   1.96861   23.677
 5089.00    1.93534   1.97973   23.648
 5090.00    1.95402   1.99184   23.524
 5091.00    1.96241   2.00827   23.353
 5092.00    1.99417   2.03068   23.226
 5093.00    2.03018   2.05384   23.103
 5094.00    2.01042   2.06304   22.831
 5095.00    1.97403   2.04355   22.634
 5096.00    1.93515   1.99441   22.862
 5097.00    1.89585   1.92953   23.353
 5098.00    1.82606   1.86924   23.860
 5099.00    1.81325   1.83533   24.441
 5100.00    1.83669   1.84473   24.945
 5101.00    1.88930   1.89166   24.997
 5102.00    1.94644   1.94506   24.351
 5103.00    1.93799   1.97323   23.645
 5104.00    1.90498   1.97007   23.463
 5105.00    1.91582   1.94950   23.618
 5106.00    1.86892   1.92320   23.937
 5107.00    1.84799   1.89600   24.240
 5108.00    1.83551   1.87242   24.536
 5109.00    1.82366   1.85917   24.842
 5110.00    1.85018   1.86366   24.787
 5111.00    1.88554   1.88834   24.623
 5112.00    1.91982   1.92616   24.444
 5113.00    1.95154   1.96357   24.084
 5114.00    1.96276   1.99272   23.792
 5115.00    1.98327   2.01651   23.502
 5116.00    1.99973   2.03975   23.294
 5117.00    2.03359   2.06151   23.173
 5118.00    2.03327   2.07457   22.922
 5119.00    2.02453   2.06995   22.734
 5120.00    1.99592   2.04466   22.814
 5121.00    1.94772   2.00293   23.125
 5122.00    1.88660   1.95060   23.475
 5123.00    1.84400   1.89523   23.866
 5124.00    1.81945   1.85042   24.492
 5125.00    1.80389   1.82906   25.237
 5126.00    1.81854   1.83060   25.384
 5127.00    1.82658   1.84075   25.139
 5128.00    1.83407   1.84762   25.022
 5129.00    1.83612   1.85338   24.871
 5130.00    1.84473   1.86757   24.916
 5131.00    1.88266   1.89408   24.891
 5132.00    1.92111   1.92572   24.551
 5133.00    1.94275   1.95346   24.127
 5134.00    1.95938   1.97535   23.942
 5135.00    1.97347   1.99047   23.711
 5136.00    1.96636   1.98971   23.503
 5137.00    1.94566   1.96166   23.450
 5138.00    1.87656   1.91473   23.896
 5139.00    1.84423   1.87820   24.487
 5140.00    1.86410   1.86853   24.867
 5141.00    1.86464   1.87381   24.885
 5142.00    1.84722   1.87594   24.650
 5143.00    1.85302   1.87506   24.852
 5144.00    1.87242   1.88180   25.269
 5145.00    1.87099   1.89053   25.096
 5146.00    1.85611   1.88514   24.660
 5147.00    1.84627   1.87036   24.590
 5148.00    1.84586   1.86613   24.835
 5149.00    1.88332   1.87679   24.888
 5150.00    1.88137   1.88615   24.566
 5151.00    1.85405   1.88000   24.435
 5152.00    1.82637   1.86320   24.758
 5153.00    1.83012   1.85093   25.218
 5154.00    1.83663   1.85550   25.371
 5155.00    1.88342   1.88385   25.230
 5156.00    1.94470   1.93287   24.732
 5157.00    1.99423   1.98677   24.097
 5158.00    2.03525   2.02762   23.484
 5159.00    2.03011   2.04808   23.051
 5160.00    2.02998   2.05019   22.892
 5161.00    2.01956   2.03676   22.895
 5162.00    1.99333   2.00796   22.975
 5163.00    1.95200   1.96238   23.109
 5164.00    1.89448   1.89548   23.376
 5165.00    1.77803   1.79595   23.743
 5166.00    1.59219   1.65861   24.674
 5167.00    1.44422   1.51755   26.763
 5168.00    1.40852   1.44007   29.595
 5169.00    1.50284   1.45433   31.545
 5170.00    1.58447   1.50676   30.807
 5171.00    1.51951   1.51237   28.986
 5172.00    1.38918   1.45690   28.647
 5173.00    1.36532   1.42089   30.587
 5174.00    1.51551   1.48051   32.685
 5175.00    1.71305   1.62498   -1.000
 5176.00    1.83108   1.77583   27.749
 5177.00    1.89425   1.87303   25.486
 5178.00    1.91908   1.91415   24.569
 5179.00    1.90615   1.91673   24.310
 5180.00    1.85411   1.88097   24.269
 5181.00    1.74921   1.78944   24.520
 5182.00    1.56530   1.64152   25.402
 5183.00    1.37537   1.48916   -1.000
 5184.00    1.35680   1.41682   30.512
 5185.00    1.52027   1.47695   32.864
 5186.00    1.75610   1.63326   -1.000
 5187.00    1.89823   1.79324   -1.000
 5188.00    1.93864   1.89662   25.280
 5189.00    1.94863   1.94120   24.529
 5190.00    1.95503   1.94125   24.332
 5191.00    1.90404   1.90225   24.234
 5192.00    1.81305   1.84228   24.508
 5193.00    1.78804   1.80226   25.308
 5194.00    1.84355   1.80577   26.005
 5195.00    1.88433   1.83527   25.777
 5196.00    1.90934   1.87008   25.324
 5197.00    1.98585   1.90931   24.953
 5198.00    2.02131   1.95458   24.588
 5199.00    2.04961   1.99783   24.088
 5200.00    2.09070   2.02643   23.682
 5201.00    2.08518   2.03192   23.494
 5202.00    2.05040   2.01124   23.477
 5203.00    1.98260   1.96315   23.673
 5204.00    1.90640   1.89029   24.111
 5205.00    1.82888   1.80842   24.667
 5206.00    1.77096   1.74239   25.453
 5207.00    1.76641   1.70700   26.236
 5208.00    1.75561   1.69955   26.309
 5209.00    1.74931   1.71669   26.452
 5210.00    1.81824   1.76690   26.613
 5211.00    1.91919   1.85126   26.208
 5212.00    2.01699   1.94631   25.338
 5213.00    2.08385   2.01716   24.312
 5214.00    2.07209   2.03929   23.361
 5215.00    2.02709   2.01598   22.890
 5216.00    1.98659   1.97919   23.165
 5217.00    1.98319   1.96770   23.723
 5218.00    2.02561   1.99660   24.005
 5219.00    2.07303   2.04883   23.792
 5220.00    2.11151   2.09716   23.268
 5221.00    2.11953   2.12273   22.919
 5222.00    2.12005   2.11624   22.748
 5223.00    2.06412   2.07352   22.659
 5224.00    1.97069   1.99553   22.963
 5225.00    1.86908   1.89382   23.677
 5226.00    1.80973   1.79988   24.664
 5227.00    1.82007   1.75892   25.825
 5228.00    1.88915   1.79743   -1.000
 5229.00    1.99399   1.89563   -1.000
 5230.00    2.07962   1.99632   -1.000
 5231.00    2.09995   2.04517   23.473
 5232.00    2.05908   2.03089   23.069
 5233.00    2.00561   1.98635   23.042
 5234.00    2.00236   1.96003   23.523
 5235.00    2.01504   1.98025   23.941
 5236.00    2.10268   2.03751   23.877
 5237.00    2.14570   2.10213   23.317
 5238.00    2.16854   2.14748   22.759
 5239.00    2.16368   2.16527   22.510
 5240.00    2.15059   2.16478   22.495
 5241.00    2.17262   2.15819   22.569
 5242.00    2.16107   2.15383   22.526
 5243.00    2.15528   2.15707   22.390
 5244.00    2.17290   2.16441   22.429
 5245.00    2.15583   2.15859   22.381
 5246.00    2.10161   2.12381   22.345
 5247.00    2.00820   2.06907   22.805
 5248.00    1.98879   2.02203   23.529
 5249.00    2.00795   1.99727   24.073
 5250.00    2.01481   1.98903   24.124
 5251.00    1.99859   1.99314   24.168
 5252.00    2.01472   2.00978   24.326
 5253.00    2.04582   2.02873   24.205
 5254.00    2.04381   2.03805   23.864
 5255.00    2.04836   2.04552   23.630
 5256.00    2.08066   2.07499   23.638
 5257.00    2.16377   2.13363   23.465
 5258.00    2.23818   2.19329   22.909
 5259.00    2.22644   2.21783   22.287
 5260.00    2.16403   2.19109   22.098
 5261.00    2.07203   2.11701   22.312
 5262.00    1.97128   2.01270   22.933
 5263.00    1.88805   1.90194   23.913
 5264.00    1.80884   1.80778   25.056
 5265.00    1.77636   1.74918   25.919
 5266.00    1.80383   1.73388   26.448
 5267.00    1.83362   1.74527   -1.000
 5268.00    1.84054   1.74366   -1.000
 5269.00    1.77710   1.70881   25.578
 5270.00    1.72394   1.67852   26.150
 5271.00    1.81851   1.71129   -1.000
 5272.00    1.97207   1.81232   -1.000
 5273.00    2.05606   1.91818   -1.000
 5274.00    2.06352   1.97260   -1.000
 5275.00    2.04734   1.99060   23.818
 5276.00    2.08870   2.02079   23.834
 5277.00    2.15860   2.08352   23.778
 5278.00    2.21587   2.15434   23.315
 5279.00    2.23478   2.19101   22.512
 5280.00    2.19276   2.17545   22.097
 5281.00    2.12131   2.12286   22.237
 5282.00    2.06831   2.06200   22.779
 5283.00    2.04413   2.02191   23.373
 5284.00    2.07211   2.02809   23.799
 5285.00    2.15948   2.08852   23.914
 5286.00    2.24874   2.17718   23.424
 5287.00    2.27311   2.24854   22.704
 5288.00    2.23289   2.28098   21.988
 5289.00    2.26011   2.28977   21.826
 5290.00    2.30348   2.29545   21.945
 5291.00    2.30121   2.30074   21.941
 5292.00    2.28345   2.29678   21.811
 5293.00    2.26725   2.28102   21.765
 5294.00    2.26073   2.25618   21.895
 5295.00    2.21790   2.21400   22.103
 5296.00    2.12156   2.14351   22.397
 5297.00    2.02556   2.05892   23.008
 5298.00    1.98638   2.00070   23.897
 5299.00    2.02285   1.99900   24.538
 5300.00    2.09090   2.04080   24.381
 5301.00    2.12770   2.08953   23.758
 5302.00    2.17091   2.13134   23.316
 5303.00    2.23610   2.17874   23.169
 5304.00    2.29072   2.23742   22.883
 5305.00    2.32746   2.28830   22.264
 5306.00    2.31480   2.30824   21.855
 5307.00    2.29228   2.30114   21.799
 5308.00    2.29373   2.29283   22.014
 5309.00    2.31476   2.30105   22.205
 5310.00    2.33868   2.31996   22.060
 5311.00    2.34798   2.33070   21.827
 5312.00    2.31595   2.32436   21.688
 5313.00    2.29443   2.30654   21.710
 5314.00    2.30030   2.28403   21.832
 5315.00    2.29185   2.25940   21.927
 5316.00    2.25622   2.23576   22.086
 5317.00    2.24909   2.22121   22.305
 5318.00    2.27390   2.22232   22.504
 5319.00    2.26792   2.23291   22.511
 5320.00    2.28491   2.23964   22.344
 5321.00    2.25140   2.23406   22.248
 5322.00    2.22924   2.21159   22.330
 5323.00    2.17827   2.17187   22.487
 5324.00    2.14219   2.12465   22.752
 5325.00    2.13014   2.07870   23.152
 5326.00    2.10917   2.02148   23.367
 5327.00    1.99150   1.93748   23.358
 5328.00    1.86891   1.85244   23.998
 5329.00    1.88746   1.82965   25.549
 5330.00    2.02025   1.90280   -1.000
 5331.00    2.15930   2.02687   -1.000
 5332.00    2.20126   2.12844   23.841
 5333.00    2.23892   2.18446   23.070
 5334.00    2.26149   2.21794   22.825
 5335.00    2.29873   2.24820   22.607
 5336.00    2.30968   2.26934   22.344
 5337.00    2.28266   2.26746   22.247
 5338.00    2.24733   2.23742   22.389
 5339.00    2.20025   2.18261   22.534
 5340.00    2.14430   2.12057   22.780
 5341.00    2.12310   2.08689   23.356
 5342.00    2.17124   2.10552   23.768
 5343.00    2.22793   2.15684   23.577
 5344.00    2.25893   2.19858   22.941
 5345.00    2.26802   2.21004   22.527
 5346.00    2.23064   2.19856   22.522
 5347.00    2.22411   2.17889   22.669
 5348.00    2.22254   2.15938   22.815
 5349.00    2.19102   2.14917   22.927
 5350.00    2.21454   2.16294   23.134
 5351.00    2.27360   2.20393   23.191
 5352.00    2.31807   2.25554   22.836
 5353.00    2.33366   2.29974   22.306
 5354.00    2.34490   2.33346   22.025
 5355.00    2.39153   2.36353   21.953
 5356.00    2.42099   2.39019   21.781
 5357.00    2.42168   2.40550   21.503
 5358.00    2.41605   2.40726   21.340
 5359.00    2.38789   2.39808   21.357
 5360.00    2.38425   2.37711   21.390
 5361.00    2.33739   2.34469   21.468
 5362.00    2.30551   2.30827   21.718
 5363.00    2.28316   2.27599   22.082
 5364.00    2.26183   2.24995   22.407
 5365.00    2.24815   2.22890   22.567
 5366.00    2.23019   2.21378   22.698
 5367.00    2.23992   2.20419   22.834
 5368.00    2.23588   2.18666   22.767
 5369.00    2.16974   2.14170   22.765
 5370.00    2.08734   2.07327   22.993
 5371.00    2.05340   2.01988   23.563
 5372.00    2.11705   2.02705   24.280
 5373.00    2.23751   2.10310   -1.000
 5374.00    2.33577   2.20795   -1.000
 5375.00    2.36201   2.29035   22.404
 5376.00    2.36582   2.32733   21.847
 5377.00    2.35200   2.33098   21.680
 5378.00    2.35426   2.32629   21.741
 5379.00    2.36509   2.32372   21.751
 5380.00    2.34882   2.31701   21.794
 5381.00    2.32445   2.29903   21.919
 5382.00    2.30364   2.27506   22.135
 5383.00    2.29506   2.25931   22.353
 5384.00    2.30811   2.26157   22.465
 5385.00    2.34175   2.27925   22.452
 5386.00    2.35492   2.29909   22.347
 5387.00    2.34200   2.30511   22.108
 5388.00    2.33164   2.28888   22.061
 5389.00    2.29465   2.25457   22.159
 5390.00    2.24059   2.21511   22.372
 5391.00    2.21757   2.18370   22.713
 5392.00    2.22338   2.16640   22.970
 5393.00    2.23308   2.16020   23.075
 5394.00    2.22162   2.15526   23.088
 5395.00    2.18578   2.13817   23.158
 5396.00    2.13934   2.10451   23.328
 5397.00    2.12343   2.07283   23.634
 5398.00    2.14299   2.07326   24.111
 5399.00    2.22072   2.11389   -1.000
 5400.00    2.27100   2.17023   -1.000
 5401.00    2.29615   2.21140   22.758
 5402.00    2.29899   2.21954   22.610
 5403.00    2.23942   2.18627   22.650
 5404.00    2.14940   2.11410   22.828
 5405.00    2.05737   2.03173   23.512
 5406.00    2.03641   1.98801   24.281
 5407.00    2.11064   2.00458   -1.000
 5408.00    2.15322   2.04984   -1.000
 5409.00    2.15026   2.08118   23.890
 5410.00    2.15876   2.09518   23.676
 5411.00    2.18945   2.12183   23.875
 5412.00    2.27099   2.17541   -1.000
 5413.00    2.33253   2.23096   -1.000
 5414.00    2.32693   2.26392   22.608
 5415.00    2.31388   2.28088   22.365
 5416.00    2.33739   2.30154   22.374
 5417.00    2.36751   2.32792   22.385
 5418.00    2.36007   2.34166   22.221
 5419.00    2.34576   2.33194   22.079
 5420.00    2.32102   2.31003   22.164
 5421.00    2.31022   2.29269   22.382
 5422.00    2.30925   2.28279   22.519
 5423.00    2.29626   2.27054   22.433
 5424.00    2.27791   2.25737   22.343
 5425.00    2.29091   2.26415   22.646
 5426.00    2.34298   2.29746   22.858
 5427.00    2.36725   2.32516   22.626
 5428.00    2.31212   2.30506   22.244
 5429.00    2.22536   2.23770   22.302
 5430.00    2.18519   2.17378   22.906
 5431.00    2.21331   2.15474   23.642
 5432.00    2.25420   2.16696   -1.000
 5433.00    2.23096   2.16936   23.290
 5434.00    2.20111   2.14757   23.266
 5435.00    2.18690   2.12912   23.591
 5436.00    2.19491   2.14694   23.867
 5437.00    2.26427   2.20597   23.790
 5438.00    2.34350   2.28569   23.326
 5439.00    2.40803   2.35846   22.685
 5440.00    2.46188   2.40714   22.206
 5441.00    2.46652   2.43077   21.891
 5442.00    2.45414   2.43594   21.706
 5443.00    2.44033   2.42216   21.665
 5444.00    2.37576   2.37789   21.663
 5445.00    2.26852   2.29755   21.885
 5446.00    2.16873   2.20363   22.460
 5447.00    2.14510   2.14301   23.381
 5448.00    2.20862   2.14940   24.162
 5449.00    2.29277   2.21170   24.019
 5450.00    2.32471   2.28386   23.259
 5451.00    2.35521   2.32386   22.603
 5452.00    2.33660   2.32131   22.374
 5453.00    2.27825   2.28398   22.371
 5454.00    2.22914   2.22077   22.557
 5455.00    2.17154   2.15570   23.073
 5456.00    2.17739   2.12988   23.736
 5457.00    2.24758   2.16966   24.259
 5458.00    2.32516   2.25182   23.940
 5459.00    2.36401   2.31941   23.120
 5460.00    2.35044   2.33476   22.481
 5461.00    2.32234   2.30388   22.337
 5462.00    2.27672   2.25528   22.587
 5463.00    2.25892   2.22050   23.010
 5464.00    2.28881   2.21841   23.327
 5465.00    2.32280   2.24410   23.461
 5466.00    2.33252   2.27732   23.184
 5467.00    2.34705   2.30294   22.911
 5468.00    2.36624   2.31692   22.797
 5469.00    2.35348   2.31761   22.549
 5470.00    2.32027   2.30554   22.448
 5471.00    2.29782   2.28657   22.648
 5472.00    2.31202   2.26783   22.886
 5473.00    2.29628   2.24966   22.974
 5474.00    2.25766   2.22365   23.089
 5475.00    2.22258   2.18243   23.321
 5476.00    2.17486   2.13453   23.650
 5477.00    2.15557   2.10965   24.151
 5478.00    2.20382   2.13276   24.535
 5479.00    2.28206   2.18560   -1.000
 5480.00    2.27882   2.21954   23.609
 5481.00    2.24819   2.21466   23.146
 5482.00    2.23940   2.20013   23.297
 5483.00    2.27827   2.21601   23.586
 5484.00    2.32601   2.26600   23.556
 5485.00    2.36271   2.31482   23.158
 5486.00    2.37147   2.32883   22.684
 5487.00    2.31533   2.30676   22.474
 5488.00    2.27023   2.27538   22.675
 5489.00    2.27088   2.26310   23.000
 5490.00    2.30188   2.27580   23.144
 5491.00    2.31811   2.29843   23.153
 5492.00    2.33993   2.31279   22.996
 5493.00    2.34837   2.31447   22.828
 5494.00    2.34417   2.31087   22.740
 5495.00    2.34030   2.30816   22.784
 5496.00    2.33729   2.30356   22.796
 5497.00    2.34163   2.29652   22.793
 5498.00    2.35346   2.29798   22.952
 5499.00    2.37170   2.31122   23.115
 5500.00    2.37236   2.31815   23.004
 5501.00    2.34777   2.30185   22.747
 5502.00    2.32263   2.27137   22.907
 5503.00    2.32578   2.25088   23.272
 5504.00    2.34081   2.24713   -1.000
 5505.00    2.32127   2.24301   23.146
 5506.00    2.28855   2.22967   23.089
 5507.00    2.28421   2.22310   23.386
 5508.00    2.31142   2.23984   23.625
 5509.00    2.34233   2.26978   23.431
 5510.00    2.33596   2.28239   23.058
 5511.00    2.29331   2.26048   22.943
 5512.00    2.24372   2.21760   23.084
 5513.00    2.21694   2.18216   23.524
 5514.00    2.22572   2.17435   23.919
 5515.00    2.26571   2.19487   24.141
 5516.00    2.31508   2.23184   -1.000
 5517.00    2.37312   2.27600   -1.000
 5518.00    2.42153   2.32205   -1.000
 5519.00    2.45535   2.36238   -1.000
 5520.00    2.46804   2.38588   22.297
 5521.00    2.44735   2.38983   22.224
 5522.00    2.43781   2.38458   22.255
 5523.00    2.42952   2.38013   22.300
 5524.00    2.41214   2.37330   22.376
 5525.00    2.38434   2.35185   22.416
 5526.00    2.34262   2.30766   22.545
 5527.00    2.27986   2.24879   22.843
 5528.00    2.23398   2.20283   23.360
 5529.00    2.26420   2.19939   23.963
 5530.00    2.33954   2.24155   -1.000
 5531.00    2.38687   2.29771   -1.000
 5532.00    2.39773   2.33268   23.017
 5533.00    2.38364   2.33635   22.699
 5534.00    2.36900   2.32273   22.726
 5535.00    2.34878   2.30906   22.933
 5536.00    2.36277   2.30427   23.053
 5537.00    2.38227   2.31059   22.985
 5538.00    2.38866   2.32599   22.801
 5539.00    2.42173   2.34820   22.736
 5540.00    2.45250   2.37387   22.641
 5541.00    2.46452   2.39292   22.427
 5542.00    2.45912   2.39339   22.245
 5543.00    2.42115   2.37673   22.243
 5544.00    2.40017   2.35780   22.461
 5545.00    2.39122   2.34928   22.691
 5546.00    2.40033   2.35326   22.761
 5547.00    2.42776   2.36855   22.704
 5548.00    2.45262   2.39421   22.651
 5549.00    2.49619   2.42325   22.514
 5550.00    2.50758   2.44343   22.295
 5551.00    2.49235   2.44713   22.105
 5552.00    2.47686   2.43423   22.045
 5553.00    2.44378   2.41002   22.153
 5554.00    2.43129   2.38591   22.343
 5555.00    2.43819   2.37349   22.597
 5556.00    2.44160   2.37432   22.717
 5557.00    2.44734   2.37980   22.692
 5558.00    2.45282   2.38289   22.621
 5559.00    2.44459   2.38411   22.580
 5560.00    2.44661   2.38447   22.551
 5561.00    2.44281   2.37814   22.527
 5562.00    2.40478   2.36177   22.570
 5563.00    2.37725   2.34230   22.682
 5564.00    2.36978   2.32868   22.907
 5565.00    2.37971   2.32133   23.073
 5566.00    2.38232   2.31532   23.145
 5567.00    2.38161   2.30897   23.193
 5568.00    2.39550   2.30568   -1.000
 5569.00    2.39396   2.30798   -1.000
 5570.00    2.39946   2.31412   -1.000
 5571.00    2.40520   2.31882   -1.000
 5572.00    2.38864   2.31777   23.174
 5573.00    2.38638   2.31437   23.174
 5574.00    2.39192   2.32010   23.238
 5575.00    2.40148   2.34035   23.152
 5576.00    2.27498   2.36397   22.913
 5577.00    1.84300   2.37844   -1.000
 5578.00    0.94252   2.38716   -1.000
 5579.00    0.19459   2.39695   -1.000
 5580.00    0.21085   2.40470   -1.000
 5581.00    1.20723   2.40441   -1.000
 5582.00    2.17717   2.39533   -1.000
 5583.00    2.47034   2.38135   -1.000
 5584.00    2.44447   2.36168   -1.000
 5585.00    2.39546   2.32471   22.833
 5586.00    2.32355   2.26371   22.953
 5587.00    2.26365   2.19405   23.437
 5588.00    2.22583   2.14558   24.032
 5589.00    2.22458   2.13857   -1.000
 5590.00    2.27379   2.16929   -1.000
 5591.00    2.31827   2.21438   -1.000
 5592.00    2.33250   2.25051   -1.000
 5593.00    2.33172   2.26967   23.752
 5594.00    2.33493   2.28461   23.659
 5595.00    2.37143   2.31085   23.744
 5596.00    2.42617   2.34371   -1.000
 5597.00    2.42583   2.35846   23.295
 5598.00    2.37295   2.33981   23.087
 5599.00    2.33949   2.29977   23.273
 5600.00    2.31512   2.25960   23.671
 5601.00    2.28993   2.23082   23.939
 5602.00    2.27964   2.21940   23.945
 5603.00    2.30647   2.23693   24.065
 5604.00    2.37764   2.29103   -1.000
 5605.00    2.45093   2.36648   -1.000
 5606.00    2.50058   2.43282   23.192
 5607.00    2.52189   2.47093   22.650
 5608.00    2.52624   2.48307   22.360
 5609.00    2.54568   2.48224   22.296
 5610.00    2.54139   2.48241   22.325
 5611.00    2.52515   2.48789   22.371
 5612.00    2.51760   2.48634   22.354
 5613.00    2.47402   2.45409   22.287
 5614.00    2.39243   2.38005   22.377
 5615.00    2.31203   2.29013   22.811
 5616.00    2.29057   2.23441   23.584
 5617.00    2.34136   2.24149   -1.000
 5618.00    2.40131   2.28882   -1.000
 5619.00    2.43355   2.33445   -1.000
 5620.00    2.43486   2.36153   23.125
 5621.00    2.45093   2.37995   23.050
 5622.00    2.45535   2.38683   22.954
 5623.00    2.41935   2.36661   22.839
 5624.00    2.35917   2.32255   22.917
 5625.00    2.33739   2.28602   23.343
 5626.00    2.36590   2.28671   -1.000
 5627.00    2.42982   2.32409   -1.000
 5628.00    2.47135   2.37272   -1.000
 5629.00    2.48689   2.41426   23.003
 5630.00    2.50668   2.44423   22.732
 5631.00    2.53169   2.45985   22.556
 5632.00    2.53037   2.45964   22.484
 5633.00    2.52313   2.44654   22.397
 5634.00    2.49990   2.42507   22.410
 5635.00    2.47205   2.39924   22.574
 5636.00    2.44076   2.37340   22.739
 5637.00    2.41650   2.35410   22.884
 5638.00    2.41533   2.34666   23.050
 5639.00    2.42133   2.34852   23.208
 5640.00    2.41420   2.34949   23.225
 5641.00    2.40718   2.34351   23.201
 5642.00    2.40611   2.33753   23.270
 5643.00    2.40630   2.34224   23.290
 5644.00    2.43352   2.35766   -1.000
 5645.00    2.45363   2.37530   -1.000
 5646.00    2.45388   2.38996   23.054
 5647.00    2.47122   2.39932   22.906
 5648.00    2.48592   2.40039   -1.000
 5649.00    2.48036   2.39492   -1.000
 5650.00    2.47328   2.39239   -1.000
 5651.00    2.49641   2.40112   -1.000
 5652.00    2.51343   2.41582   -1.000
 5653.00    2.50604   2.42061   -1.000
 5654.00    2.48654   2.40828   -1.000
 5655.00    2.45247   2.38604   22.623
 5656.00    2.42879   2.35784   22.799
 5657.00    2.36772   2.31799   23.016
 5658.00    2.30411   2.27060   23.437
 5659.00    2.30399   2.24085   24.138
 5660.00    2.34970   2.24961   -1.000
 5661.00    2.39643   2.28144   -1.000
 5662.00    2.39881   2.30574   -1.000
 5663.00    2.40417   2.32234   -1.000
 5664.00    2.43310   2.34889   -1.000
 5665.00    2.45428   2.38015   -1.000
 5666.00    2.45637   2.39539   23.094
 5667.00    2.43423   2.38855   22.977
 5668.00    2.43434   2.37363   23.081
 5669.00    2.42984   2.36800   23.222
 5670.00    2.43148   2.37705   23.262
 5671.00    2.45947   2.39801   23.209
 5672.00    2.48909   2.42810   23.067
 5673.00    2.53007   2.45943   22.870
 5674.00    2.56217   2.48061   -1.000
 5675.00    2.55801   2.48777   22.423
 5676.00    2.54352   2.48778   22.405
 5677.00    2.55755   2.48684   22.477
 5678.00    2.56062   2.48302   22.422
 5679.00    2.53842   2.47072   22.380
 5680.00    2.52607   2.45003   22.480
 5681.00    2.50817   2.42397   -1.000
 5682.00    2.46516   2.39459   22.705
 5683.00    2.44495   2.37112   22.958
 5684.00    2.44483   2.36589   -1.000
 5685.00    2.46204   2.37470   -1.000
 5686.00    2.46738   2.37858   -1.000
 5687.00    2.42981   2.37032   23.080
 5688.00    2.42802   2.36295   23.167
 5689.00    2.46576   2.37247   -1.000
 5690.00    2.51226   2.40122   -1.000
 5691.00    2.54265   2.43735   -1.000
 5692.00    2.56209   2.46724   -1.000
 5693.00    2.56755   2.48372   -1.000
 5694.00    2.55683   2.48648   22.491
 5695.00    2.55892   2.48085   -1.000
 5696.00    2.56206   2.47116   -1.000
 5697.00    2.52886   2.45594   22.481
 5698.00    2.48113   2.43328   22.540
 5699.00    2.45831   2.40713   22.747
 5700.00    2.43401   2.38250   23.010
 5701.00    2.42505   2.36264   23.220
 5702.00    2.42800   2.35465   -1.000
 5703.00    2.43604   2.36411   -1.000
 5704.00    2.45791   2.38082   -1.000
 5705.00    2.45052   2.38367   23.199
 5706.00    2.40880   2.36193   23.121
 5707.00    2.35076   2.32336   23.256
 5708.00    2.30883   2.28452   23.570
 5709.00    2.29611   2.25739   24.002
 5710.00    2.31178   2.24696   24.387
 5711.00    2.34048   2.25719   -1.000
 5712.00    2.38583   2.29032   -1.000
 5713.00    2.43914   2.34277   -1.000
 5714.00    2.49395   2.39997   -1.000
 5715.00    2.51447   2.44350   -1.000
 5716.00    2.53342   2.46851   22.840
 5717.00    2.55188   2.48333   22.731
 5718.00    2.56312   2.49477   22.683
 5719.00    2.58234   2.50746   -1.000
 5720.00    2.58695   2.52410   22.507
 5721.00    2.61028   2.54313   22.364
 5722.00    2.63208   2.56030   22.254
 5723.00    2.62744   2.57171   22.196
 5724.00    2.61670   2.57251   22.161
 5725.00    2.58784   2.55775   22.133
 5726.00    2.56276   2.52977   22.177
 5727.00    2.55872   2.50352   22.350
 5728.00    2.55758   2.49546   22.584
 5729.00    2.56719   2.50430   22.772
 5730.00    2.56716   2.51178   22.684
 5731.00    2.56289   2.50721   22.544
 5732.00    2.55767   2.50223   22.582
 5733.00    2.57314   2.51338   22.695
 5734.00    2.60136   2.53846   22.635
 5735.00    2.61677   2.55814   22.426
 5736.00    2.60096   2.55942   22.272
 5737.00    2.58059   2.54842   22.275
 5738.00    2.59246   2.53792   22.303
 5739.00    2.60416   2.53415   22.366
 5740.00    2.59626   2.53431   22.389
 5741.00    2.58501   2.53271   22.433
 5742.00    2.58242   2.52966   22.469
 5743.00    2.58608   2.53183   22.518
 5744.00    2.60720   2.54452   22.478
 5745.00    2.63425   2.56079   -1.000
 5746.00    2.63214   2.56433   22.303
 5747.00    2.60012   2.54854   22.174
 5748.00    2.56307   2.52881   22.266
 5749.00    2.54551   2.52575   22.481
 5750.00    2.56556   2.53775   22.586
 5751.00    2.58735   2.53878   22.478
 5752.00    2.56097   2.51017   22.397
 5753.00    2.50643   2.46485   22.543
 5754.00    2.50227   2.43868   22.811
 5755.00    2.56156   2.45588   -1.000
 5756.00    2.60375   2.50614   -1.000
 5757.00    2.62589   2.55749   -1.000
 5758.00    2.65945   2.58101   -1.000
 5759.00    2.63947   2.56935   22.111
 5760.00    2.58059   2.53103   22.138
 5761.00    2.54305   2.48414   22.370
 5762.00    2.51397   2.45072   22.662
 5763.00    2.52985   2.45021   -1.000
 5764.00    2.58225   2.48747   -1.000
 5765.00    2.64488   2.54290   -1.000
 5766.00    2.65516   2.58708   22.512
 5767.00    2.65824   2.60745   22.217
 5768.00    2.65938   2.61095   22.123
 5769.00    2.66125   2.60503   22.098
 5770.00    2.65343   2.59412   22.063
 5771.00    2.63220   2.58136   22.097
 5772.00    2.60318   2.56836   22.168
 5773.00    2.59479   2.55598   22.285
 5774.00    2.57440   2.54670   22.423
 5775.00    2.57736   2.54452   22.491
 5776.00    2.59312   2.55093   22.520
 5777.00    2.58323   2.55875   22.483
 5778.00    2.56991   2.55235   22.378
 5779.00    2.53793   2.51951   22.342
 5780.00    2.44405   2.46354   22.402
 5781.00    2.34886   2.40357   22.693
 5782.00    2.30832   2.36322   23.187
 5783.00    2.31477   2.35018   23.526
 5784.00    2.34741   2.35309   23.530
 5785.00    2.40745   2.36220   23.439
 5786.00    2.47375   2.38557   -1.000
 5787.00    2.53175   2.42813   -1.000
 5788.00    2.56462   2.47403   -1.000
 5789.00    2.58077   2.50271   -1.000
 5790.00    2.57574   2.50973   22.537
 5791.00    2.56294   2.50720   22.535
 5792.00    2.58415   2.51423   22.629
 5793.00    2.60803   2.53971   -1.000
 5794.00    2.63574   2.57399   22.450
 5795.00    2.65208   2.59689   22.289
 5796.00    2.63017   2.59522   22.153
 5797.00    2.59048   2.57554   22.119
 5798.00    2.57431   2.56102   22.231
 5799.00    2.61333   2.57278   22.376
 5800.00    2.65942   2.60820   22.308
 5801.00    2.69320   2.64411   22.046
 5802.00    2.70441   2.65700   21.742
 5803.00    2.67416   2.64052   21.652
 5804.00    2.65058   2.60740   21.802
 5805.00    2.64683   2.57839   21.979
 5806.00    2.65157   2.56766   -1.000
 5807.00    2.66009   2.57381   -1.000
 5808.00    2.65999   2.58757   -1.000
 5809.00    2.66676   2.60199   22.158
 5810.00    2.67799   2.61487   22.089
 5811.00    2.68689   2.62418   22.078
 5812.00    2.67835   2.62591   22.061
 5813.00    2.67749   2.61637   21.987
 5814.00    2.68642   2.59533   -1.000
 5815.00    2.64180   2.56866   21.945
 5816.00    2.62341   2.55138   22.107
 5817.00    2.64462   2.55874   -1.000
 5818.00    2.68900   2.59061   -1.000
 5819.00    2.72146   2.62811   -1.000
 5820.00    2.74994   2.65173   -1.000
 5821.00    2.73349   2.65581   -1.000
 5822.00    2.73454   2.64752   -1.000
 5823.00    2.71717   2.63792   -1.000
 5824.00    2.71956   2.63424   -1.000
 5825.00    2.72661   2.63721   -1.000
 5826.00    2.73126   2.64282   -1.000
 5827.00    2.73694   2.64843   -1.000
 5828.00    2.74770   2.65417   -1.000
 5829.00    2.74399   2.66051   -1.000
 5830.00    2.73286   2.66505   21.695
 5831.00    2.74422   2.66467   -1.000
 5832.00    2.74681   2.65877   -1.000
 5833.00    2.73647   2.64836   -1.000
 5834.00    2.72440   2.63561   -1.000
 5835.00    2.71113   2.62614   -1.000
 5836.00    2.70981   2.62418   -1.000
 5837.00    2.70120   2.62652   -1.000
 5838.00    2.70429   2.62890   -1.000
 5839.00    2.72481   2.63517   -1.000
 5840.00    2.72367   2.64989   -1.000
 5841.00    2.73755   2.66863   21.808
 5842.00    2.75767   2.68176   -1.000
 5843.00    2.75394   2.68265   21.537
 5844.00    2.72883   2.67050   21.522
 5845.00    2.70669   2.64873   21.585
 5846.00    2.68587   2.62287   21.668
 5847.00    2.67859   2.60075   -1.000
 5848.00    2.67725   2.58932   -1.000
 5849.00    2.67120   2.58887   -1.000
 5850.00    2.66703   2.58939   -1.000
 5851.00    2.64690   2.57816   22.048
 5852.00    2.61596   2.55358   22.160
 5853.00    2.59748   2.52834   22.299
 5854.00    2.59956   2.51447   -1.000
 5855.00    2.60699   2.50686   -1.000
 5856.00    2.58591   2.48875   -1.000
 5857.00    2.53848   2.45782   -1.000
 5858.00    2.53047   2.43612   -1.000
 5859.00    2.57371   2.44564   -1.000
 5860.00    2.61615   2.48152   -1.000
 5861.00    2.63003   2.51940   -1.000
 5862.00    2.63760   2.54172   -1.000
 5863.00    2.64370   2.55075   -1.000
 5864.00    2.64997   2.55369   -1.000
 5865.00    2.65927   2.55141   -1.000
 5866.00    2.64981   2.54260   -1.000
 5867.00    2.63766   2.53637   -1.000
 5868.00    2.66588   2.54673   -1.000
 5869.00    2.69132   2.57293   -1.000
 5870.00    2.70234   2.59845   -1.000
 5871.00    2.68711   2.61013   -1.000
 5872.00    2.68092   2.60810   22.065
 5873.00    2.67333   2.60072   22.046
 5874.00    2.69167   2.59620   -1.000
 5875.00    2.70039   2.59509   -1.000
 5876.00    2.69067   2.59126   -1.000
 5877.00    2.66596   2.57829   -1.000
 5878.00    2.65108   2.55606   -1.000
 5879.00    2.62740   2.53084   -1.000
 5880.00    2.60920   2.51127   -1.000
 5881.00    2.61090   2.50392   -1.000
 5882.00    2.62316   2.50600   -1.000
 5883.00    2.60822   2.50680   -1.000
 5884.00    2.60241   2.50139   -1.000
 5885.00    2.60887   2.49189   -1.000
 5886.00    2.56269   2.46488   -1.000
 5887.00    2.43263   2.38547   22.711
 5888.00    2.17274   2.23217   22.951
 5889.00    1.80626   2.04097   -1.000
 5890.00    1.43776   1.89961   -1.000
 5891.00    1.26860   1.88129   -1.000
 5892.00    1.45164   1.96962   -1.000
 5893.00    1.80530   2.07138   -1.000
 5894.00    1.99092   2.10033   25.884
 5895.00    1.90005   2.05446   -1.000
 5896.00    1.67360   2.00988   -1.000
 5897.00    1.58524   2.04263   -1.000
 5898.00    1.73374   2.15276   -1.000
 5899.00    2.05943   2.27744   -1.000
 5900.00    2.36966   2.37385   24.626
 5901.00    2.52459   2.43865   -1.000
 5902.00    2.57111   2.47946   -1.000
 5903.00    2.58937   2.50149   -1.000
 5904.00    2.58932   2.51024   -1.000
 5905.00    2.59685   2.51165   -1.000
 5906.00    2.62532   2.51307   -1.000
 5907.00    2.64230   2.52077   -1.000
 5908.00    2.64689   2.53416   -1.000
 5909.00    2.64806   2.54763   -1.000
 5910.00    2.64619   2.55756   -1.000
 5911.00    2.64175   2.56076   -1.000
 5912.00    2.62416   2.55027   -1.000
 5913.00    2.59335   2.52254   22.743
 5914.00    2.56079   2.48684   22.817
 5915.00    2.54414   2.46237   -1.000
 5916.00    2.55270   2.46182   -1.000
 5917.00    2.57893   2.48199   -1.000
 5918.00    2.62134   2.51086   -1.000
 5919.00    2.63508   2.53719   -1.000
 5920.00    2.62793   2.55265   -1.000
 5921.00    2.60585   2.55565   22.931
 5922.00    2.59320   2.55150   22.852
 5923.00    2.61007   2.54983   22.841
 5924.00    2.63115   2.55711   -1.000
 5925.00    2.63978   2.57067   22.793
 5926.00    2.63676   2.58122   22.714
 5927.00    2.62967   2.57948   22.668
 5928.00    2.62991   2.56269   22.647
 5929.00    2.62358   2.53925   -1.000
 5930.00    2.61361   2.52623   -1.000
 5931.00    2.62796   2.53338   -1.000
 5932.00    2.64883   2.55044   -1.000
 5933.00    2.64952   2.55706   -1.000
 5934.00    2.63363   2.54820   -1.000
 5935.00    2.61888   2.54018   -1.000
 5936.00    2.63146   2.54910   -1.000
 5937.00    2.65092   2.57143   -1.000
 5938.00    2.67750   2.58937   -1.000
 5939.00    2.68895   2.59085   -1.000
 5940.00    2.66960   2.57589   -1.000
 5941.00    2.63355   2.55305   -1.000
 5942.00    2.61613   2.53776   -1.000
 5943.00    2.61732   2.54132   -1.000
 5944.00    2.63250   2.56061   -1.000
 5945.00    2.63786   2.58122   22.935
 5946.00    2.64975   2.58945   22.797
 5947.00    2.64657   2.57934   22.699
 5948.00    2.60995   2.55750   22.734
 5949.00    2.57228   2.54114   22.915
 5950.00    2.57973   2.54018   23.156
 5951.00    2.59610   2.54583   23.247
 5952.00    2.60028   2.54511   23.156
 5953.00    2.60770   2.54040   23.058
 5954.00    2.61687   2.54097   -1.000
 5955.00    2.62471   2.54544   -1.000
 5956.00    2.62829   2.54402   -1.000
 5957.00    2.63175   2.53730   -1.000
 5958.00    2.64450   2.53917   -1.000
 5959.00    2.65294   2.55774   -1.000
 5960.00    2.65591   2.58592   -1.000
 5961.00    2.67033   2.61115   22.870
 5962.00    2.69372   2.62516   -1.000
 5963.00    2.69185   2.62594   22.523
 5964.00    2.68513   2.61653   22.489
 5965.00    2.68366   2.60318   -1.000
 5966.00    2.67970   2.59550   -1.000
 5967.00    2.68423   2.60023   -1.000
 5968.00    2.70255   2.61431   -1.000
 5969.00    2.71259   2.62923   -1.000
 5970.00    2.71322   2.64115   -1.000
 5971.00    2.72046   2.64954   -1.000
 5972.00    2.72007   2.65224   22.535
 5973.00    2.70226   2.64593   22.495
 5974.00    2.67995   2.62793   22.463
 5975.00    2.66084   2.59888   22.556
 5976.00    2.64070   2.56729   -1.000
 5977.00    2.63046   2.54663   -1.000
 5978.00    2.62650   2.54583   -1.000
 5979.00    2.63433   2.56294   -1.000
 5980.00    2.66124   2.58653   -1.000
 5981.00    2.68129   2.59887   -1.000
 5982.00    2.67140   2.58704   -1.000
 5983.00    2.63118   2.55463   -1.000
 5984.00    2.60567   2.52279   -1.000
 5985.00    2.60953   2.51411   -1.000
 5986.00    2.63345   2.53250   -1.000
 5987.00    2.65833   2.56206   -1.000
 5988.00    2.68621   2.58671   -1.000
 5989.00    2.69491   2.60212   -1.000
 5990.00    2.68405   2.60876   -1.000
 5991.00    2.67578   2.61082   -1.000
 5992.00    2.67563   2.61791   22.744
 5993.00    2.68832   2.63489   22.799
 5994.00    2.71638   2.65216   -1.000
 5995.00    2.72251   2.65375   -1.000
 5996.00    2.71430   2.63494   -1.000
 5997.00    2.68758   2.60725   -1.000
 5998.00    2.66690   2.58876   -1.000
 5999.00    2.67275   2.58811   -1.000
 6000.00    2.68371   2.59820   -1.000
 6001.00    2.68906   2.60462   -1.000
 6002.00    2.67851   2.60076   -1.000
 6003.00    2.65855   2.59336   -1.000
 6004.00    2.65622   2.59148   -1.000
 6005.00    2.66560   2.59053   -1.000
 6006.00    2.63682   2.57624   23.041
 6007.00    2.60664   2.54907   23.037
 6008.00    2.60275   2.53098   -1.000
 6009.00    2.61857   2.54202   -1.000
 6010.00    2.64812   2.57432   -1.000
 6011.00    2.65547   2.59789   -1.000
 6012.00    2.63629   2.59543   22.977
 6013.00    2.62835   2.57895   22.933
 6014.00    2.62911   2.56836   -1.000
 6015.00    2.64254   2.56851   -1.000
 6016.00    2.64940   2.57026   -1.000
 6017.00    2.64733   2.56855   -1.000
 6018.00    2.64972   2.56545   -1.000
 6019.00    2.63693   2.55889   -1.000
 6020.00    2.63473   2.54817   -1.000
 6021.00    2.64272   2.54246   -1.000
 6022.00    2.63972   2.54945   -1.000
 6023.00    2.65271   2.56621   -1.000
 6024.00    2.67496   2.58699   -1.000
 6025.00    2.69530   2.60822   -1.000
 6026.00    2.71143   2.62718   -1.000
 6027.00    2.72445   2.64323   -1.000
 6028.00    2.73394   2.65883   -1.000
 6029.00    2.73858   2.67417   -1.000
 6030.00    2.75405   2.68549   -1.000
 6031.00    2.76405   2.69266   -1.000
 6032.00    2.76852   2.70043   -1.000
 6033.00    2.77555   2.71153   -1.000
 6034.00    2.77981   2.72431   22.649
 6035.00    2.78439   2.73424   22.558
 6036.00    2.78198   2.73664   22.489
 6037.00    2.77155   2.73056   22.470
 6038.00    2.75903   2.71887   22.437
 6039.00    2.73703   2.70554   22.444
 6040.00    2.71349   2.69504   22.550
 6041.00    2.72343   2.69081   22.620
 6042.00    2.74033   2.69411   22.682
 6043.00    2.74932   2.70479   22.664
 6044.00    2.77974   2.72044   22.624
 6045.00    2.80251   2.73516   -1.000
 6046.00    2.80489   2.74437   -1.000
 6047.00    2.78623   2.74898   22.326
 6048.00    2.77515   2.75094   22.341
 6049.00    2.78941   2.75132   22.313
 6050.00    2.80840   2.75023   22.319
 6051.00    2.80180   2.74575   22.386
 6052.00    2.79009   2.73436   22.446
 6053.00    2.77742   2.71594   -1.000
 6054.00    2.75723   2.69504   -1.000
 6055.00    2.75412   2.67643   -1.000
 6056.00    2.74035   2.66493   -1.000
 6057.00    2.72616   2.66550   -1.000
 6058.00    2.73241   2.67825   22.863
 6059.00    2.75054   2.69578   22.849
 6060.00    2.77037   2.70782   -1.000
 6061.00    2.77293   2.70630   -1.000
 6062.00    2.74778   2.68829   -1.000
 6063.00    2.71158   2.65777   22.665
 6064.00    2.68822   2.62648   -1.000
 6065.00    2.65233   2.61232   23.351
 6066.00    2.61186   2.62863   22.890
 6067.00    2.63904   2.67083   31.025
 6068.00    2.65652   2.71738    9.632
 6069.00    2.75880   2.74970   12.739
 6070.00    2.79366   2.76588   23.912
 6071.00    2.78964   2.77309   22.661
 6072.00    2.83328   2.77438   -1.000
 6073.00    2.57825   2.77093   21.832
 6074.00    1.24583   2.76573   -1.000
 6075.00    1.84162   2.75750   -1.000
 6076.00    2.75615   2.74005   22.425
 6077.00    2.78881   2.71363   -1.000
 6078.00    2.72711   2.68707   22.593
 6079.00    2.72204   2.66851   22.720
 6080.00    2.71728   2.65773   -1.000
 6081.00    2.70490   2.64879   -1.000
 6082.00    2.68882   2.64109   23.083
 6083.00    2.69355   2.63923   23.096
 6084.00    2.70499   2.64398   -1.000
 6085.00    2.71460   2.65211   -1.000
 6086.00    2.71535   2.66193   -1.000
 6087.00    2.71783   2.67106   23.132
 6088.00    2.72492   2.67302   -1.000
 6089.00    2.70900   2.66295   22.988
 6090.00    2.67808   2.64573   22.994
 6091.00    2.68432   2.63378   23.114
 6092.00    2.69517   2.63576   -1.000
 6093.00    2.69986   2.65106   23.244
 6094.00    2.73093   2.67334   -1.000
 6095.00    2.76663   2.69365   -1.000
 6096.00    2.78651   2.70546   -1.000
 6097.00    2.78301   2.71097   -1.000
 6098.00    2.77065   2.71579   -1.000
 6099.00    2.75444   2.71462   22.793
 6100.00    2.73213   2.69107   22.821
 6101.00    2.69291   2.63792   22.824
 6102.00    2.63664   2.57687   23.020
 6103.00    2.61173   2.54730   -1.000
 6104.00    2.65825   2.56830   -1.000
 6105.00    2.71252   2.61843   -1.000
 6106.00    2.73817   2.66339   -1.000
 6107.00    2.73051   2.68862   23.147
 6108.00    2.72571   2.70175   22.995
 6109.00    2.73983   2.71119   23.046
 6110.00    2.74589   2.71611   23.118
 6111.00    2.74063   2.71661   23.125
 6112.00    2.74227   2.71986   23.084
 6113.00    2.76177   2.72991   22.995
 6114.00    2.76869   2.73960   22.961
 6115.00    2.76032   2.73965   22.877
 6116.00    2.75251   2.73099   22.797
 6117.00    2.74797   2.72027   22.847
 6118.00    2.74004   2.70537   22.986
 6119.00    2.70829   2.67600   23.056
 6120.00    2.65990   2.62936   23.138
 6121.00    2.61713   2.58031   23.413
 6122.00    2.59964   2.55530   23.738
 6123.00    2.63290   2.57066   -1.000
 6124.00    2.69529   2.61309   -1.000
 6125.00    2.71392   2.65076   -1.000
 6126.00    2.69726   2.66498   23.438
 6127.00    2.68383   2.66149   23.349
 6128.00    2.67846   2.65723   23.455
 6129.00    2.70142   2.66760   23.479
 6130.00    2.74513   2.69539   -1.000
 6131.00    2.76615   2.72683   23.276
 6132.00    2.75955   2.74234   23.059
 6133.00    2.73761   2.72688   22.959
 6134.00    2.69906   2.67221   22.984
 6135.00    2.61804   2.58500   23.153
 6136.00    2.54158   2.49849   23.592
 6137.00    2.51255   2.45939   24.256
 6138.00    2.54279   2.48868   -1.000
 6139.00    2.61368   2.55795   -1.000
 6140.00    2.68183   2.61682   -1.000
 6141.00    2.69607   2.64304   -1.000
 6142.00    2.67596   2.65618   23.604
 6143.00    2.67845   2.67971   23.571
 6144.00    2.71184   2.71044   23.622
 6145.00    2.73003   2.73093   23.465
 6146.00    2.73175   2.73131   23.185
 6147.00    2.72945   2.71427   23.075
 6148.00    2.70929   2.68915   23.150
 6149.00    2.67868   2.66682   23.290
 6150.00    2.67412   2.65633   23.454
 6151.00    2.69072   2.66024   23.601
 6152.00    2.69903   2.67120   23.643
 6153.00    2.69670   2.67573   23.577
 6154.00    2.67884   2.66688   23.433
 6155.00    2.66949   2.65121   23.359
 6156.00    2.66432   2.63915   23.495
 6157.00    2.64549   2.63035   23.650
 6158.00    2.62955   2.61169   23.694
 6159.00    2.57757   2.56638   23.763
 6160.00    2.49436   2.48828   23.973
 6161.00    2.41795   2.39705   24.374
 6162.00    2.36950   2.33406   25.038
 6163.00    2.37985   2.33056   25.790
 6164.00    2.43961   2.38047   -1.000
 6165.00    2.49586   2.44892   25.977
 6166.00    2.53408   2.50088   25.334
 6167.00    2.53982   2.51698   24.838
 6168.00    2.50904   2.49882   24.662
 6169.00    2.46416   2.46940   24.684
 6170.00    2.46240   2.46174   24.932
 6171.00    2.50406   2.49015   25.220
 6172.00    2.55487   2.53671   25.166
 6173.00    2.57926   2.57372   24.750
 6174.00    2.57158   2.59164   24.352
 6175.00    2.56321   2.59745   24.269
 6176.00    2.57603   2.60011   24.306
 6177.00    2.60484   2.60643   24.268
 6178.00    2.60462   2.61862   24.214
 6179.00    2.60159   2.63284   24.156
 6180.00    2.61813   2.64571   24.052
 6181.00    2.62756   2.65837   23.952
 6182.00    2.63331   2.66970   23.875
 6183.00    2.63539   2.67344   23.775
 6184.00    2.63308   2.66472   23.697
 6185.00    2.60809   2.64393   23.713
 6186.00    2.58353   2.61563   23.791
 6187.00    2.56018   2.58666   23.949
 6188.00    2.52910   2.56017   24.195
 6189.00    2.50750   2.53165   24.452
 6190.00    2.47960   2.49939   24.690
 6191.00    2.45112   2.47781   24.885
 6192.00    2.47234   2.48722   25.163
 6193.00    2.53163   2.52911   25.386
 6194.00    2.58983   2.58260   25.233
 6195.00    2.61900   2.62490   24.692
 6196.00    2.61899   2.64581   24.208
 6197.00    2.60879   2.64413   23.994
 6198.00    2.58532   2.62372   23.934
 6199.00    2.56031   2.59899   24.033
 6200.00    2.55236   2.59059   24.284
 6201.00    2.56638   2.60717   24.514
 6202.00    2.58660   2.63769   24.557
 6203.00    2.60480   2.66533   24.368
 6204.00    2.61575   2.68191   24.070
 6205.00    2.60899   2.68970   23.926
 6206.00    2.62162   2.69452   23.919
 6207.00    2.63649   2.69818   23.894
 6208.00    2.63051   2.69757   23.877
 6209.00    2.62347   2.68874   23.943
 6210.00    2.61400   2.66964   23.976
 6211.00    2.59777   2.63843   24.041
 6212.00    2.56218   2.59421   24.232
 6213.00    2.51108   2.54374   24.438
 6214.00    2.47565   2.50299   24.658
 6215.00    2.46262   2.48627   24.995
 6216.00    2.48005   2.49367   25.296
 6217.00    2.51639   2.51042   25.416
 6218.00    2.52211   2.51899   25.202
 6219.00    2.50704   2.51492   24.993
 6220.00    2.50556   2.51011   25.097
 6221.00    2.52383   2.51708   25.111
 6222.00    2.54279   2.53398   24.937
 6223.00    2.55438   2.55044   24.978
 6224.00    2.56931   2.56147   26.277
 6225.00    2.55126   2.56893   26.424
 6226.00    2.51304   2.57241   25.147
 6227.00    2.52648   2.56425   24.720
 6228.00    2.53077   2.53549   24.770
 6229.00    2.48769   2.48779   24.863
 6230.00    2.44260   2.44035   25.144
 6231.00    2.42872   2.42000   25.548
 6232.00    2.45677   2.44007   25.910
 6233.00    2.51784   2.49140   25.941
 6234.00    2.56785   2.55105   25.632
 6235.00    2.60034   2.59469   25.174
 6236.00    2.59474   2.60745   24.738
 6237.00    2.56945   2.59058   24.531
 6238.00    2.54475   2.55781   24.616
 6239.00    2.49980   2.52492   24.851
 6240.00    2.46818   2.50167   25.106
 6241.00    2.46741   2.48755   25.369
 6242.00    2.47069   2.47507   25.531
 6243.00    2.45821   2.46089   25.552
 6244.00    2.45145   2.45135   25.667
 6245.00    2.46769   2.45524   25.855
 6246.00    2.49288   2.47682   25.899
 6247.00    2.52469   2.51344   25.775
 6248.00    2.55564   2.55287   25.544
 6249.00    2.56896   2.57699   25.239
 6250.00    2.56422   2.57297   24.953
 6251.00    2.52347   2.54192   24.850
 6252.00    2.48435   2.49946   25.003
 6253.00    2.46624   2.46555   25.398
 6254.00    2.45240   2.44813   25.778
 6255.00    2.43255   2.43867   25.994
 6256.00    2.41536   2.42587   26.097
 6257.00    2.40609   2.41146   26.111
 6258.00    2.40473   2.40994   26.257
 6259.00    2.42941   2.43292   26.507
 6260.00    2.48146   2.47781   26.515
 6261.00    2.53053   2.53080   26.197
 6262.00    2.56719   2.57583   25.791
 6263.00    2.60232   2.60117   25.430
 6264.00    2.60197   2.60500   25.055
 6265.00    2.58446   2.59811   24.833
 6266.00    2.57938   2.59509   24.929
 6267.00    2.58334   2.59945   25.122
 6268.00    2.58467   2.60296   25.106
 6269.00    2.56825   2.60129   24.934
 6270.00    2.57009   2.60085   24.923
 6271.00    2.57740   2.60802   25.050
 6272.00    2.58702   2.61970   25.075
 6273.00    2.60831   2.62631   25.000
 6274.00    2.61275   2.62082   24.929
 6275.00    2.59823   2.60342   24.951
 6276.00    2.58802   2.57853   25.097
 6277.00    2.56074   2.55022   25.298
 6278.00    2.50766   2.52182   25.630
 6279.00    2.44649   2.49825   26.204
 6280.00    2.39550   2.48729   26.761
 6281.00    2.36675   2.49620   27.033
 6282.00    2.36495   2.52481   27.015
 6283.00    2.36839   2.56350   -1.000
 6284.00    2.37327   2.60026   -1.000
 6285.00    2.37745   2.62960   -1.000
 6286.00    2.40307   2.65341   -1.000
 6287.00    2.45965   2.67328   -1.000
 6288.00    2.52041   2.68462   25.012
 6289.00    2.54922   2.68076   24.816
 6290.00    2.55900   2.66212   24.723
 6291.00    2.55904   2.63841   24.794
 6292.00    2.55540   2.62083   24.984
 6293.00    2.55738   2.61279   25.183
 6294.00    2.55850   2.60742   25.283
 6295.00    2.55895   2.59465   25.311
 6296.00    2.54992   2.57336   25.349
 6297.00    2.57414   2.55467   25.490
 6298.00    2.65645   2.54830   -1.000
 6299.00    2.78235   2.54959   -1.000
 6300.00    2.97108   2.54681   -1.000
 6301.00    3.27327   2.53893   -1.000
 6302.00    3.64728   2.53807   -1.000
 6303.00    3.82904   2.55342   -1.000
 6304.00    3.63106   2.58126   -1.000
 6305.00    3.23515   2.61291   -1.000
 6306.00    2.89383   2.64371   -1.000
 6307.00    2.71858   2.67083   -1.000
 6308.00    2.67756   2.68787   24.936
 6309.00    2.65020   2.68856   24.719
 6310.00    2.61635   2.67500   24.606
 6311.00    2.59324   2.65657   24.667
 6312.00    2.58128   2.64008   24.819
 6313.00    2.58484   2.62438   24.945
 6314.00    2.57395   2.60540   25.041
 6315.00    2.55022   2.58445   25.096
 6316.00    2.52050   2.56641   25.243
 6317.00    2.50944   2.55399   25.401
 6318.00    2.51617   2.55178   25.417
 6319.00    2.53537   2.56691   25.391
 6320.00    2.56626   2.59699   25.403
 6321.00    2.59093   2.62926   25.364
 6322.00    2.61700   2.65601   25.133
 6323.00    2.63325   2.67906   24.854
 6324.00    2.64818   2.69963   24.705
 6325.00    2.66971   2.71410   24.624
 6326.00    2.67144   2.72020   24.510
 6327.00    2.66594   2.72128   24.409
 6328.00    2.67426   2.72176   24.374
 6329.00    2.68002   2.72271   24.297
 6330.00    2.67948   2.72515   24.256
 6331.00    2.67984   2.73125   24.284
 6332.00    2.67597   2.73623   24.300
 6333.00    2.66264   2.72672   24.254
 6334.00    2.64263   2.69525   24.189
 6335.00    2.62362   2.65328   24.215
 6336.00    2.61091   2.62456   24.283
 6337.00    2.59933   2.62389   24.645
 6338.00    2.61760   2.64684   24.940
 6339.00    2.66327   2.67911   24.806
 6340.00    2.68770   2.70643   24.561
 6341.00    2.68627   2.71723   24.297
 6342.00    2.67840   2.70782   24.118
 6343.00    2.67028   2.68763   24.007
 6344.00    2.64809   2.67442   23.970
 6345.00    2.63482   2.68022   24.113
 6346.00    2.66564   2.70251   24.233
 6347.00    2.69193   2.73077   24.197
 6348.00    2.70302   2.75665   24.088
 6349.00    2.72245   2.77583   23.931
 6350.00    2.72439   2.78595   23.807
 6351.00    2.70353   2.78549   23.777
 6352.00    2.68336   2.77308   23.753
 6353.00    2.66480   2.74964   23.741
 6354.00    2.64162   2.72204   23.814
 6355.00    2.62220   2.69959   23.925
 6356.00    2.61086   2.68319   24.132
 6357.00    2.60795   2.66452   24.379
 6358.00    2.58983   2.63908   24.468
 6359.00    2.56004   2.61243   24.504
 6360.00    2.56491   2.59165   24.702
 6361.00    2.59227   2.57907   24.892
 6362.00    2.62721   2.57656   -1.000
 6363.00    2.70012   2.58763   -1.000
 6364.00    2.80677   2.61269   -1.000
 6365.00    2.92657   2.64684   -1.000
 6366.00    3.02321   2.68353   -1.000
 6367.00    3.03579   2.71682   -1.000
 6368.00    2.95281   2.74128   -1.000
 6369.00    2.83806   2.75472   -1.000
 6370.00    2.74556   2.76224   23.929
 6371.00    2.70164   2.77217   23.826
 6372.00    2.70908   2.78714   23.815
 6373.00    2.72038   2.80170   23.779
 6374.00    2.72263   2.80936   23.685
 6375.00    2.72396   2.80887   23.681
 6376.00    2.70959   2.80177   23.727
 6377.00    2.69356   2.78867   23.761
 6378.00    2.67336   2.77199   23.836
 6379.00    2.65378   2.75754   23.945
 6380.00    2.64699   2.75034   24.092
 6381.00    2.63575   2.75121   24.217
 6382.00    2.65010   2.75707   24.262
 6383.00    2.67310   2.76329   24.292
 6384.00    2.66810   2.76818   24.311
 6385.00    2.66155   2.77443   24.268
 6386.00    2.65353   2.78374   24.301
 6387.00    2.64402   2.79307   24.391
 6388.00    2.63806   2.79830   24.400
 6389.00    2.62775   2.79661   24.430
 6390.00    2.60956   2.78346   24.512
 6391.00    2.58806   2.75434   24.661
 6392.00    2.55347   2.71503   24.865
 6393.00    2.51219   2.68600   25.110
 6394.00    2.50407   2.68819   25.456
 6395.00    2.52556   2.72062   25.753
 6396.00    2.54631   2.75745   -1.000
 6397.00    2.54608   2.76921   -1.000
 6398.00    2.51722   2.74534   -1.000
 6399.00    2.47368   2.70378   -1.000
 6400.00    2.44015   2.68036   -1.000
 6401.00    2.44304   2.69901   -1.000
 6402.00    2.48261   2.74916   -1.000
 6403.00    2.51622   2.79882   -1.000
 6404.00    2.52930   2.82386   -1.000
 6405.00    2.51875   2.81921   -1.000
 6406.00    2.47732   2.79423   -1.000
 6407.00    2.44675   2.76638   -1.000
 6408.00    2.42263   2.75093   -1.000
 6409.00    2.39839   2.74900   -1.000
 6410.00    2.38106   2.74972   -1.000
 6411.00    2.36809   2.74636   -1.000
 6412.00    2.35431   2.74374   -1.000
 6413.00    2.33361   2.74835   -1.000
 6414.00    2.33603   2.75926   -1.000
 6415.00    2.33615   2.77160   -1.000
 6416.00    2.31678   2.78033   -1.000
 6417.00    2.30298   2.77848   -1.000
 6418.00    2.28249   2.76035   -1.000
 6419.00    2.23975   2.73044   -1.000
 6420.00    2.20055   2.70613   -1.000
 6421.00    2.18896   2.70667   -1.000
 6422.00    2.19831   2.73582   -1.000
 6423.00    2.21430   2.77744   -1.000
 6424.00    2.21861   2.81249   -1.000
 6425.00    2.21340   2.83477   -1.000
 6426.00    2.20221   2.84678   -1.000
 6427.00    2.18153   2.84661   -1.000
 6428.00    2.15051   2.82662   -1.000
