###################################################################
## OUTPUT of StarlightChains_v04.for    [Cid@UFSC - 01/Apr/2007] ##
###################################################################

## Some input info
NGC5286_c_1.cxt                          [arq_obs]
Base.BC03.S                              [arq_base]
NGC5286_c_1.msk                          [arq_masks]
StCv04.C99.config                        [arq_config]
  150                                    [N_base]
    0                                    [N_YAV_components = # of components with extra extinction!]
    0                                    [i_FitPowerLaw (1/0 = Yes/No)]
-9.99                                    [alpha_PowerLaw]
CCM                                      [red_law_option]
 1.458241                                [q_norm = A(l_norm)/A(V)]

## (Re)Sampling Parameters
 3359.00                                 [l_ini (A)]
 6428.00                                 [l_fin (A)]
    1.00                                 [dl    (A)]     (OBS: dl_cushion =    50.00 A)

## Normalization info
 4020.00                                 [l_norm (A) - for base]
 4010.00                                 [llow_norm (A) - window for f_obs]
 4060.00                                 [lupp_norm (A) - window for f_obs]
3.906300E-14                             [fobs_norm (in input units)]

## S/N
 4730.00                                 [llow_SN (A) - window for S/N]
 4780.00                                 [lupp_SN (A) - window for S/N]
 103.062                                 [S/N in S/N window]
  88.537                                 [S/N in norm. window]
 171.763                                 [S/N_err in S/N window]
 147.556                                 [S/N_err in norm. window]
  1.0000                                 [fscale_chi2]

## etc...
  2147483636                             [idum_orig]
  3065                                   [NOl_eff]
  1717                                   [Nl_eff]
  1348    NSIGMA                         [Ntot_cliped & clip_method]
  3435670                                [Nglobal_steps]
   7                                     [N_chains]
  17                                     [NEX0s_base = N_base in EX0s-fits]
 0   0   1      214   2.0   3.215E+02    [Clip-Bug, RC-Crash & Burn-In warning-flags, n_censored_weights, wei_nsig_threshold & wei_limit]
   161    160.474    160.462      0.012  [idt_all, wdt_TotTime, wdt_UsrTime & wdt_SysTime (sec)]

## Synthesis Results - Best model ##

 2.70566E+00                             [chi2/Nl_eff]
     1.01708                             [adev (%)]

    98.65333                             [sum-of-x (%)]
 1.37902E-13                             [Flux_tot (units of input spectrum!)]
 2.31166E-09                             [Mini_tot (???)]
 1.15957E-09                             [Mcor_tot (???)]

 -21.49                                  [v0_min  (km/s)]
  66.20                                  [vd_min  (km/s)]
 0.9492                                  [AV_min  (mag)]
 0.0000                                  [YAV_min (mag)]

# j     x_j(%)      Mini_j(%)     Mcor_j(%)     age_j(yr)     Z_j      (L/M)_j    YAV?  Mstars   component_j        a/Fe...       SSP_chi2r SSP_adev(%)   SSP_AV   SSP_x(%)
  1      0.0000     0.0000E+00    0.0000E+00    1.000000E+06  0.00010  8.160E-03    0   1.0000   age020_m22            0.0000     4.0858E+02     9.9671   4.0000    77.7379
  2     17.8036     2.2622E-02    4.5097E-02    3.160000E+06  0.00010  4.759E-02    0   1.0000   age045_m22            0.0000     3.3318E+01     3.0921   2.1226    95.1221
  3      0.0000     0.0000E+00    0.0000E+00    5.010000E+06  0.00010  1.932E-02    0   0.9582   age055_m22            0.0000     3.4759E+02     9.8881   2.4309    81.5857
  4      0.0000     0.0000E+00    0.0000E+00    6.610000E+06  0.00010  9.973E-03    0   0.9297   age061_m22            0.0000     3.9310E+02    10.1365   4.0000    79.8187
  5      0.0000     0.0000E+00    0.0000E+00    8.710000E+06  0.00010  7.690E-03    0   0.9030   age067_m22            0.0000     3.6850E+02     9.8403   4.0000    80.0870
  6      0.0000     0.0000E+00    0.0000E+00    1.000000E+07  0.00010  6.375E-03    0   0.8902   age070_m22            0.0000     3.5355E+02     9.5543   4.0000    80.5563
  7      0.0000     0.0000E+00    0.0000E+00    1.445000E+07  0.00010  4.874E-03    0   0.8589   age078_m22            0.0000     2.4476E+02     8.3374   3.9114    81.4368
  8      0.0000     0.0000E+00    0.0000E+00    2.512000E+07  0.00010  4.103E-03    0   0.8174   age090_m22            0.0000     9.3636E+01     5.4075   3.4989    88.2302
  9      0.6741     1.1156E-02    1.7414E-02    4.000000E+07  0.00010  3.654E-03    0   0.7830   age104_m22            0.0000     4.9357E+01     3.6312   3.1953    93.4599
 10      0.0090     1.7678E-04    2.6773E-04    5.500000E+07  0.00010  3.093E-03    0   0.7597   age110_m22            0.0000     4.9418E+01     3.3435   3.0912    95.2060
 11      5.7929     1.4409E-01    2.0504E-01    1.015200E+08  0.00010  2.431E-03    0   0.7138   age116_m22            0.0000     7.2945E+01     3.6159   2.7361    98.6406
 12      0.0000     0.0000E+00    0.0000E+00    1.609000E+08  0.00010  1.319E-03    0   0.6775   age120_m22            0.0000     7.5263E+01     3.5875   2.2542   101.1790
 13      0.0000     0.0000E+00    0.0000E+00    2.861200E+08  0.00010  1.075E-03    0   0.6412   age125_m22            0.0000     2.9037E+02     7.5213   2.3112   105.4222
 14      0.0000     0.0000E+00    0.0000E+00    5.088000E+08  0.00010  7.183E-04    0   0.6083   age130_m22            0.0000     3.8530E+02     8.8250   2.0820   107.2128
 15      0.0000     0.0000E+00    0.0000E+00    9.047900E+08  0.00010  4.524E-04    0   0.5785   age135_m22            0.0000     3.9591E+02     9.0281   1.8824   108.4252
 16      0.0000     0.0000E+00    0.0000E+00    1.278050E+09  0.00010  3.018E-04    0   0.5588   age138_m22            0.0000     1.7009E+02     6.0186   1.3621   105.9473
 17      0.0000     0.0000E+00    0.0000E+00    1.434000E+09  0.00010  2.691E-04    0   0.5532   age139_m22            0.0000     1.3560E+02     5.4198   1.2099   105.1602
 18      0.0000     0.0000E+00    0.0000E+00    2.500000E+09  0.00010  1.582E-04    0   0.5296   age150_m22            0.0000     1.0398E+02     4.6292   1.0944   105.9090
 19      0.0000     0.0000E+00    0.0000E+00    4.250000E+09  0.00010  1.007E-04    0   0.5110   age158_m22            0.0000     4.6168E+01     3.1613   0.9502   103.7089
 20      0.0000     0.0000E+00    0.0000E+00    6.250000E+09  0.00010  6.869E-05    0   0.4985   age166_m22            0.0000     1.3648E+01     1.8035   0.8988   100.4473
 21      0.0664     6.8410E-02    6.7248E-02    7.500000E+09  0.00010  5.873E-05    0   0.4931   age171_m22            0.0000     9.6072E+00     1.5232   0.8864    99.8780
 22      0.0000     0.0000E+00    0.0000E+00    1.000000E+10  0.00010  4.481E-05    0   0.4854   age181_m22            0.0000     9.2971E+00     1.5198   0.8494    99.4672
 23      0.1508     2.6127E-01    2.4954E-01    1.300000E+10  0.00010  3.489E-05    0   0.4791   age193_m22            0.0000     8.5111E+00     1.4948   0.7952    98.8189
 24      0.0328     6.5372E-02    6.2111E-02    1.500000E+10  0.00010  3.035E-05    0   0.4766   age201_m22            0.0000     7.7635E+00     1.4568   0.7568    98.5952
 25      6.3581     1.5317E+01    1.4459E+01    1.800000E+10  0.00010  2.510E-05    0   0.4735   age213_m22            0.0000     6.5293E+00     1.3924   0.6902    97.8902
 26      0.0000     0.0000E+00    0.0000E+00    1.000000E+06  0.00040  8.458E-03    0   1.0000   age020_m32            0.0000     4.0880E+02     9.9502   4.0000    78.7237
 27      0.0000     0.0000E+00    0.0000E+00    3.160000E+06  0.00040  3.973E-02    0   1.0000   age045_m32            0.0000     1.0789E+02     5.7474   3.3984    88.1357
 28      0.0000     0.0000E+00    0.0000E+00    5.010000E+06  0.00040  1.935E-02    0   0.9532   age055_m32            0.0000     2.8185E+02     9.0624   3.6298    82.0011
 29      0.0000     0.0000E+00    0.0000E+00    6.610000E+06  0.00040  1.204E-02    0   0.9243   age061_m32            0.0000     3.1307E+02     9.3981   3.9461    79.9437
 30      0.0000     0.0000E+00    0.0000E+00    8.710000E+06  0.00040  9.433E-03    0   0.9001   age067_m32            0.0000     2.7744E+02     8.8749   3.9164    80.8842
 31      0.0000     0.0000E+00    0.0000E+00    1.000000E+07  0.00040  8.053E-03    0   0.8877   age070_m32            0.0000     2.6372E+02     8.6675   3.8823    81.3145
 32      0.0000     0.0000E+00    0.0000E+00    1.445000E+07  0.00040  7.027E-03    0   0.8578   age078_m32            0.0000     1.4780E+02     6.7240   3.3518    86.9159
 33      0.0000     0.0000E+00    0.0000E+00    2.512000E+07  0.00040  4.707E-03    0   0.8166   age090_m32            0.0000     7.5759E+01     4.9601   3.0528    91.1223
 34      0.0000     0.0000E+00    0.0000E+00    4.000000E+07  0.00040  3.714E-03    0   0.7827   age104_m32            0.0000     4.2260E+01     3.4621   2.8448    94.8708
 35      0.0000     0.0000E+00    0.0000E+00    5.500000E+07  0.00040  2.982E-03    0   0.7593   age110_m32            0.0000     4.2300E+01     3.1615   2.7804    96.2578
 36      0.0000     0.0000E+00    0.0000E+00    1.015200E+08  0.00040  2.188E-03    0   0.7143   age116_m32            0.0000     1.2242E+02     4.5983   2.5054   101.3062
 37      0.0000     0.0000E+00    0.0000E+00    1.609000E+08  0.00040  1.690E-03    0   0.6856   age120_m32            0.0000     2.1023E+02     6.1267   2.2889   104.5429
 38      0.0000     0.0000E+00    0.0000E+00    2.861200E+08  0.00040  1.152E-03    0   0.6509   age125_m32            0.0000     3.1583E+02     7.8935   2.0642   106.6058
 39      0.0000     0.0000E+00    0.0000E+00    5.088000E+08  0.00040  7.331E-04    0   0.6182   age130_m32            0.0000     3.6094E+02     8.5938   1.9047   107.2493
 40      0.0000     0.0000E+00    0.0000E+00    9.047900E+08  0.00040  3.960E-04    0   0.5890   age135_m32            0.0000     1.9132E+02     6.5858   1.4580   105.0415
 41      0.0000     0.0000E+00    0.0000E+00    1.278050E+09  0.00040  2.854E-04    0   0.5687   age138_m32            0.0000     1.2986E+02     5.3036   1.1611   106.9386
 42      0.0000     0.0000E+00    0.0000E+00    1.434000E+09  0.00040  2.531E-04    0   0.5632   age139_m32            0.0000     1.2396E+02     5.1390   1.1004   106.8904
 43      7.8200     3.1779E+00    3.4121E+00    2.500000E+09  0.00040  1.488E-04    0   0.5386   age150_m32            0.0000     8.0301E+01     4.2223   0.8505   104.7185
 44     27.2530     1.8145E+01    1.8807E+01    4.250000E+09  0.00040  9.082E-05    0   0.5199   age158_m32            0.0000     1.7720E+01     2.1998   0.7645   100.5822
 45     27.0524     2.5713E+01    2.6019E+01    6.250000E+09  0.00040  6.362E-05    0   0.5076   age166_m32            0.0000     8.4951E+00     1.5362   0.7300    96.6536
 46      0.0000     0.0000E+00    0.0000E+00    7.500000E+09  0.00040  5.289E-05    0   0.5027   age171_m32            0.0000     1.2341E+01     1.7362   0.6964    95.2621
 47      0.0000     0.0000E+00    0.0000E+00    1.000000E+10  0.00040  3.972E-05    0   0.4948   age181_m32            0.0000     1.6951E+01     1.9437   0.6373    93.8092
 48      0.0000     0.0000E+00    0.0000E+00    1.300000E+10  0.00040  3.283E-05    0   0.4870   age193_m32            0.0000     1.0725E+01     1.7438   0.5891    96.8035
 49      0.0000     0.0000E+00    0.0000E+00    1.500000E+10  0.00040  2.925E-05    0   0.4854   age201_m32            0.0000     1.2601E+01     1.9517   0.5682    98.5654
 50      3.1159     7.6313E+00    7.3313E+00    1.800000E+10  0.00040  2.469E-05    0   0.4819   age213_m32            0.0000     1.5284E+01     2.1439   0.5270    99.1507
 51      0.0000     0.0000E+00    0.0000E+00    1.000000E+06  0.00400  1.114E-02    0   1.0000   age020_m42            0.0000     3.6943E+02     9.6594   4.0000    77.7173
 52      0.0000     0.0000E+00    0.0000E+00    3.160000E+06  0.00400  4.073E-02    0   0.9999   age045_m42            0.0000     6.0633E+01     4.3793   3.1007    90.8816
 53      0.0000     0.0000E+00    0.0000E+00    5.010000E+06  0.00400  2.534E-02    0   0.9488   age055_m42            0.0000     1.7450E+02     7.1266   3.5108    84.2335
 54      0.0000     0.0000E+00    0.0000E+00    6.610000E+06  0.00400  2.583E-02    0   0.9220   age061_m42            0.0000     4.5339E+01     3.7472   2.9142    91.9573
 55      0.0000     0.0000E+00    0.0000E+00    8.710000E+06  0.00400  1.706E-02    0   0.8983   age067_m42            0.0000     9.2813E+01     5.4088   2.7392    89.9568
 56      0.0000     0.0000E+00    0.0000E+00    1.000000E+07  0.00400  1.271E-02    0   0.8862   age070_m42            0.0000     1.5597E+02     7.0722   2.7251    88.4140
 57      0.0000     0.0000E+00    0.0000E+00    1.445000E+07  0.00400  7.666E-03    0   0.8571   age078_m42            0.0000     2.1408E+02     7.8966   3.1314    84.8973
 58      0.0000     0.0000E+00    0.0000E+00    2.512000E+07  0.00400  5.070E-03    0   0.8174   age090_m42            0.0000     1.2942E+02     6.4552   2.5913    90.1465
 59      0.0000     0.0000E+00    0.0000E+00    4.000000E+07  0.00400  3.505E-03    0   0.7851   age104_m42            0.0000     6.6790E+01     4.6513   2.2720    93.3024
 60      0.0000     0.0000E+00    0.0000E+00    5.500000E+07  0.00400  3.059E-03    0   0.7629   age110_m42            0.0000     3.0595E+01     2.5437   2.3177    98.6494
 61      0.0000     0.0000E+00    0.0000E+00    1.015200E+08  0.00400  2.268E-03    0   0.7207   age116_m42            0.0000     1.8080E+02     5.8860   2.2135   104.8636
 62      0.0000     0.0000E+00    0.0000E+00    1.609000E+08  0.00400  1.720E-03    0   0.6930   age120_m42            0.0000     2.1711E+02     6.6426   2.0724   106.5143
 63      0.0000     0.0000E+00    0.0000E+00    2.861200E+08  0.00400  1.079E-03    0   0.6613   age125_m42            0.0000     2.2740E+02     6.8776   1.7161   107.0681
 64      0.0000     0.0000E+00    0.0000E+00    5.088000E+08  0.00400  6.261E-04    0   0.6313   age130_m42            0.0000     2.6668E+02     7.4435   1.5196   110.1450
 65      0.0000     0.0000E+00    0.0000E+00    9.047900E+08  0.00400  3.535E-04    0   0.6024   age135_m42            0.0000     1.4994E+02     5.8970   1.1354   109.4977
 66      0.0000     0.0000E+00    0.0000E+00    1.278050E+09  0.00400  2.677E-04    0   0.5837   age138_m42            0.0000     1.1463E+02     5.6438   0.4951   104.8138
 67      0.0000     0.0000E+00    0.0000E+00    1.434000E+09  0.00400  1.910E-04    0   0.5716   age139_m42            0.0000     1.1055E+02     5.5136   0.6509   106.2545
 68      0.0000     0.0000E+00    0.0000E+00    2.500000E+09  0.00400  9.818E-05    0   0.5463   age150_m42            0.0000     9.6752E+01     5.0022   0.4110    99.9700
 69      0.0000     0.0000E+00    0.0000E+00    4.250000E+09  0.00400  5.491E-05    0   0.5269   age158_m42            0.0000     1.1023E+02     4.9896   0.2976    96.6753
 70      0.0000     0.0000E+00    0.0000E+00    6.250000E+09  0.00400  3.857E-05    0   0.5151   age166_m42            0.0000     1.4571E+02     5.5858   0.1830    94.9072
 71      0.0000     0.0000E+00    0.0000E+00    7.500000E+09  0.00400  3.243E-05    0   0.5110   age171_m42            0.0000     1.7139E+02     5.9903   0.1118    94.1120
 72      0.0000     0.0000E+00    0.0000E+00    1.000000E+10  0.00400  2.424E-05    0   0.5028   age181_m42            0.0000     2.0784E+02     6.5102   0.0420    93.1578
 73      0.0000     0.0000E+00    0.0000E+00    1.300000E+10  0.00400  1.883E-05    0   0.4927   age193_m42            0.0000     2.3660E+02     6.8863   0.0086    92.6198
 74      0.0000     0.0000E+00    0.0000E+00    1.500000E+10  0.00400  1.685E-05    0   0.4919   age201_m42            0.0000     2.2873E+02     6.7797   0.0110    92.7111
 75      0.0000     0.0000E+00    0.0000E+00    1.800000E+10  0.00400  1.452E-05    0   0.4874   age213_m42            0.0000     2.1425E+02     6.5912   0.0220    93.1068
 76      0.0000     0.0000E+00    0.0000E+00    1.000000E+06  0.00800  1.286E-02    0   1.0000   age020_m52            0.0000     3.1773E+02     9.0859   4.0000    79.0196
 77      0.0000     0.0000E+00    0.0000E+00    3.160000E+06  0.00800  3.147E-02    0   0.9966   age045_m52            0.0000     3.0191E+02     9.1186   3.9593    79.5409
 78      0.0000     0.0000E+00    0.0000E+00    5.010000E+06  0.00800  2.664E-02    0   0.9443   age055_m52            0.0000     2.1221E+02     7.6678   3.6298    83.1408
 79      0.0000     0.0000E+00    0.0000E+00    6.610000E+06  0.00800  2.151E-02    0   0.9177   age061_m52            0.0000     1.2725E+02     5.9638   2.3259    89.8085
 80      0.0000     0.0000E+00    0.0000E+00    8.710000E+06  0.00800  1.628E-02    0   0.8948   age067_m52            0.0000     1.1435E+02     5.9740   2.6904    90.4773
 81      0.0000     0.0000E+00    0.0000E+00    1.000000E+07  0.00800  1.215E-02    0   0.8827   age070_m52            0.0000     1.4738E+02     6.7253   3.0327    88.4821
 82      0.0000     0.0000E+00    0.0000E+00    1.445000E+07  0.00800  8.739E-03    0   0.8552   age078_m52            0.0000     1.1028E+02     5.8504   3.0700    89.9302
 83      0.0000     0.0000E+00    0.0000E+00    2.512000E+07  0.00800  5.676E-03    0   0.8162   age090_m52            0.0000     6.1585E+01     4.3243   2.6607    95.3022
 84      0.0000     0.0000E+00    0.0000E+00    4.000000E+07  0.00800  3.939E-03    0   0.7841   age104_m52            0.0000     4.4258E+01     3.1667   2.4953    98.1424
 85      0.0000     0.0000E+00    0.0000E+00    5.500000E+07  0.00800  3.155E-03    0   0.7627   age110_m52            0.0000     5.5235E+01     3.0283   2.4620   100.1426
 86      0.0000     0.0000E+00    0.0000E+00    1.015200E+08  0.00800  2.206E-03    0   0.7226   age116_m52            0.0000     1.2352E+02     4.8011   2.2734   104.4710
 87      0.0000     0.0000E+00    0.0000E+00    1.609000E+08  0.00800  1.596E-03    0   0.6963   age120_m52            0.0000     1.6587E+02     5.8024   2.0554   106.3578
 88      0.0000     0.0000E+00    0.0000E+00    2.861200E+08  0.00800  1.002E-03    0   0.6665   age125_m52            0.0000     3.0674E+02     8.2191   1.7649   109.3115
 89      0.0000     0.0000E+00    0.0000E+00    5.088000E+08  0.00800  5.759E-04    0   0.6377   age130_m52            0.0000     3.5920E+02     9.1686   1.4279   112.9523
 90      0.0000     0.0000E+00    0.0000E+00    9.047900E+08  0.00800  2.972E-04    0   0.6086   age135_m52            0.0000     2.4301E+02     7.9177   0.9271   110.0021
 91      0.0000     0.0000E+00    0.0000E+00    1.278050E+09  0.00800  2.242E-04    0   0.5907   age138_m52            0.0000     1.7373E+02     6.7702   0.3362   107.2497
 92      0.0000     0.0000E+00    0.0000E+00    1.434000E+09  0.00800  1.645E-04    0   0.5787   age139_m52            0.0000     1.4388E+02     6.2039   0.4813   106.7159
 93      0.0000     0.0000E+00    0.0000E+00    2.500000E+09  0.00800  7.723E-05    0   0.5519   age150_m52            0.0000     1.7117E+02     6.4294   0.1653   101.8364
 94      0.0000     0.0000E+00    0.0000E+00    4.250000E+09  0.00800  4.151E-05    0   0.5320   age158_m52            0.0000     1.8082E+02     6.4141   0.1042    98.8973
 95      0.0000     0.0000E+00    0.0000E+00    6.250000E+09  0.00800  3.010E-05    0   0.5197   age166_m52            0.0000     2.4457E+02     7.2714  -0.0747    96.9696
 96      0.0000     0.0000E+00    0.0000E+00    7.500000E+09  0.00800  2.467E-05    0   0.5139   age171_m52            0.0000     2.6259E+02     7.5036  -0.1118    96.4327
 97      0.0000     0.0000E+00    0.0000E+00    1.000000E+10  0.00800  1.862E-05    0   0.5054   age181_m52            0.0000     3.2124E+02     8.2519  -0.2306    95.7037
 98      0.0000     0.0000E+00    0.0000E+00    1.300000E+10  0.00800  1.433E-05    0   0.4988   age193_m52            0.0000     3.8817E+02     9.0086  -0.3157    95.9550
 99      0.0000     0.0000E+00    0.0000E+00    1.500000E+10  0.00800  1.244E-05    0   0.4936   age201_m52            0.0000     4.1497E+02     9.2826  -0.3420    96.2954
100      0.0000     0.0000E+00    0.0000E+00    1.800000E+10  0.00800  1.070E-05    0   0.4888   age213_m52            0.0000     4.3419E+02     9.4805  -0.3724    96.0162
101      0.0000     0.0000E+00    0.0000E+00    1.000000E+06  0.02000  1.989E-02    0   1.0000   age020_m62            0.0000     3.6783E+02     9.7175   4.0000    77.6782
102      0.0000     0.0000E+00    0.0000E+00    3.160000E+06  0.02000  3.772E-02    0   0.9858   age045_m62            0.0000     3.2706E+02     9.3790   3.8922    79.2012
103      0.0000     0.0000E+00    0.0000E+00    5.010000E+06  0.02000  3.227E-02    0   0.9342   age055_m62            0.0000     1.1079E+02     5.7520   3.3577    87.5022
104      0.0000     0.0000E+00    0.0000E+00    6.610000E+06  0.02000  2.387E-02    0   0.9090   age061_m62            0.0000     1.9517E+02     7.6884   3.1065    86.8853
105      0.0000     0.0000E+00    0.0000E+00    8.710000E+06  0.02000  1.102E-02    0   0.8861   age067_m62            0.0000     6.6065E+02    14.2229   2.7302    82.0212
106      0.0000     0.0000E+00    0.0000E+00    1.000000E+07  0.02000  1.011E-02    0   0.8751   age070_m62            0.0000     4.3890E+02    11.5597   2.7488    84.6264
107      0.0000     0.0000E+00    0.0000E+00    1.445000E+07  0.02000  7.331E-03    0   0.8472   age078_m62            0.0000     2.8952E+02     9.3090   2.7657    86.1835
108      0.0000     0.0000E+00    0.0000E+00    2.512000E+07  0.02000  4.206E-03    0   0.8099   age090_m62            0.0000     2.9798E+02     9.4031   2.6748    85.7465
109      0.0000     0.0000E+00    0.0000E+00    4.000000E+07  0.02000  3.373E-03    0   0.7799   age104_m62            0.0000     6.1470E+01     4.3826   2.4611    95.6007
110      0.0000     0.0000E+00    0.0000E+00    5.500000E+07  0.02000  2.747E-03    0   0.7595   age110_m62            0.0000     4.9037E+01     3.2182   2.3857    99.7510
111      0.0000     0.0000E+00    0.0000E+00    1.015200E+08  0.02000  1.878E-03    0   0.7221   age116_m62            0.0000     1.4274E+02     4.9550   2.2350   105.5919
112      0.0000     0.0000E+00    0.0000E+00    1.609000E+08  0.02000  1.378E-03    0   0.6978   age120_m62            0.0000     2.4282E+02     6.7707   2.0755   108.6396
113      0.0000     0.0000E+00    0.0000E+00    2.861200E+08  0.02000  8.869E-04    0   0.6700   age125_m62            0.0000     4.2660E+02     9.2550   1.7037   113.3814
114      0.0000     0.0000E+00    0.0000E+00    5.088000E+08  0.02000  4.834E-04    0   0.6430   age130_m62            0.0000     4.0566E+02     9.6395   1.2921   114.7004
115      0.0000     0.0000E+00    0.0000E+00    9.047900E+08  0.02000  2.312E-04    0   0.6152   age135_m62            0.0000     2.1578E+02     7.6636   0.7230   112.1994
116      0.0000     0.0000E+00    0.0000E+00    1.278050E+09  0.02000  1.387E-04    0   0.5927   age138_m62            0.0000     1.4777E+02     6.3369   0.3649   106.3913
117      0.0000     0.0000E+00    0.0000E+00    1.434000E+09  0.02000  1.168E-04    0   0.5865   age139_m62            0.0000     1.4573E+02     6.2109   0.3463   104.4260
118      0.0000     0.0000E+00    0.0000E+00    2.500000E+09  0.02000  5.505E-05    0   0.5610   age150_m62            0.0000     2.2374E+02     7.2449   0.0017   100.3013
119      0.0000     0.0000E+00    0.0000E+00    4.250000E+09  0.02000  3.070E-05    0   0.5407   age158_m62            0.0000     3.5770E+02     8.9325  -0.2698    99.4271
120      0.0000     0.0000E+00    0.0000E+00    6.250000E+09  0.02000  2.104E-05    0   0.5277   age166_m62            0.0000     4.3589E+02     9.7329  -0.3908    99.4439
121      0.0000     0.0000E+00    0.0000E+00    7.500000E+09  0.02000  1.770E-05    0   0.5223   age171_m62            0.0000     4.7959E+02    10.1916  -0.4748    99.6694
122      0.0000     0.0000E+00    0.0000E+00    1.000000E+10  0.02000  1.297E-05    0   0.5121   age181_m62            0.0000     5.7427E+02    11.0897  -0.6235    99.8135
123      0.0000     0.0000E+00    0.0000E+00    1.300000E+10  0.02000  9.691E-06    0   0.5047   age193_m62            0.0000     6.4080E+02    11.6524  -0.7001    99.9275
124      0.0000     0.0000E+00    0.0000E+00    1.500000E+10  0.02000  8.360E-06    0   0.4999   age201_m62            0.0000     6.9859E+02    12.1517  -0.7651    99.9790
125      0.0000     0.0000E+00    0.0000E+00    1.800000E+10  0.02000  6.911E-06    0   0.4946   age213_m62            0.0000     7.7160E+02    12.7771  -0.8328   100.0358
126      0.0000     0.0000E+00    0.0000E+00    1.000000E+06  0.05000  2.651E-02    0   0.9998   age020_m72            0.0000     3.4461E+02     9.2800   4.0000    78.5757
127      0.0000     0.0000E+00    0.0000E+00    3.160000E+06  0.05000  4.817E-02    0   0.9577   age045_m72            0.0000     2.3207E+02     7.8843   3.7428    82.6111
128      0.0000     0.0000E+00    0.0000E+00    5.010000E+06  0.05000  3.101E-02    0   0.9147   age055_m72            0.0000     2.1183E+02     7.6514   3.3792    85.4620
129      0.0000     0.0000E+00    0.0000E+00    6.610000E+06  0.05000  1.472E-02    0   0.8877   age061_m72            0.0000     5.1690E+02    12.0783   2.9275    83.4545
130      0.0000     0.0000E+00    0.0000E+00    8.710000E+06  0.05000  1.050E-02    0   0.8638   age067_m72            0.0000     3.2964E+02     9.4245   3.3267    84.0369
131      0.0000     0.0000E+00    0.0000E+00    1.000000E+07  0.05000  8.954E-03    0   0.8524   age070_m72            0.0000     2.2901E+02     7.7548   3.6113    84.0701
132      0.0000     0.0000E+00    0.0000E+00    1.445000E+07  0.05000  6.392E-03    0   0.8262   age078_m72            0.0000     1.8963E+02     7.0826   3.5573    85.2217
133      0.0000     0.0000E+00    0.0000E+00    2.512000E+07  0.05000  4.207E-03    0   0.7902   age090_m72            0.0000     9.6980E+01     5.2644   3.1639    90.3440
134      0.0000     0.0000E+00    0.0000E+00    4.000000E+07  0.05000  3.198E-03    0   0.7618   age104_m72            0.0000     7.5786E+01     3.7406   2.6260   100.0714
135      0.0000     0.0000E+00    0.0000E+00    5.500000E+07  0.05000  2.593E-03    0   0.7432   age110_m72            0.0000     1.0860E+02     4.3683   2.5218   102.5689
136      0.0000     0.0000E+00    0.0000E+00    1.015200E+08  0.05000  1.716E-03    0   0.7092   age116_m72            0.0000     1.9013E+02     5.7108   2.3149   105.9348
137      0.0000     0.0000E+00    0.0000E+00    1.609000E+08  0.05000  1.218E-03    0   0.6876   age120_m72            0.0000     3.0344E+02     7.6297   2.0473   109.0443
138      0.0000     0.0000E+00    0.0000E+00    2.861200E+08  0.05000  7.047E-04    0   0.6618   age125_m72            0.0000     4.3224E+02     9.6116   1.5160   112.9292
139      0.0000     0.0000E+00    0.0000E+00    5.088000E+08  0.05000  3.590E-04    0   0.6356   age130_m72            0.0000     3.7275E+02     9.4609   0.9665   114.4577
140      0.0000     0.0000E+00    0.0000E+00    9.047900E+08  0.05000  1.484E-04    0   0.6088   age135_m72            0.0000     2.2131E+02     7.7119   0.2817   105.3798
141      0.0000     0.0000E+00    0.0000E+00    1.278050E+09  0.05000  9.435E-05    0   0.5924   age138_m72            0.0000     3.0816E+02     8.6745  -0.0892   101.0424
142      0.0000     0.0000E+00    0.0000E+00    1.434000E+09  0.05000  7.827E-05    0   0.5847   age139_m72            0.0000     3.0226E+02     8.4716  -0.0751   100.2857
143      0.0000     0.0000E+00    0.0000E+00    2.500000E+09  0.05000  3.759E-05    0   0.5583   age150_m72            0.0000     4.2683E+02     9.6711  -0.3812    98.7157
144      0.0000     0.0000E+00    0.0000E+00    4.250000E+09  0.05000  1.842E-05    0   0.5374   age158_m72            0.0000     5.6423E+02    10.8224  -0.6915    97.9149
145      0.0000     0.0000E+00    0.0000E+00    6.250000E+09  0.05000  1.207E-05    0   0.5242   age166_m72            0.0000     7.0708E+02    12.1134  -0.9196    97.2978
146      0.4364     2.6405E+00    2.7283E+00    7.500000E+09  0.05000  9.993E-06    0   0.5183   age171_m72            0.0000     7.2912E+02    12.3056  -0.9636    97.2460
147      0.2987     2.4777E+00    2.5097E+00    1.000000E+10  0.05000  7.291E-06    0   0.5081   age181_m72            0.0000     8.3891E+02    13.0839  -1.0000    94.7729
148      0.5619     6.3919E+00    6.3942E+00    1.300000E+10  0.05000  5.316E-06    0   0.5018   age193_m72            0.0000     1.0549E+03    14.5285  -1.0000    89.5790
149      0.7028     9.4508E+00    9.3675E+00    1.500000E+10  0.05000  4.497E-06    0   0.4972   age201_m72            0.0000     1.1708E+03    15.3040  -1.0000    87.7882
150      0.5244     8.4817E+00    8.3258E+00    1.800000E+10  0.05000  3.739E-06    0   0.4924   age213_m72            0.0000     1.3370E+03    16.3020  -1.0000    85.0256


## Synthesis Results - Average & Chains ##

# j      x_j: min, <> & last-chain-values for 1 ...  7 chains
  1      0.0000      0.0024      0.0000      0.0000      0.0000      0.0000      0.0000      0.0000      0.0000
  2     17.8036     13.0381     13.9190     13.8735     14.2164     14.3072     14.2115     14.1390     13.9153
  3      0.0000      0.1078      0.0115      0.1065      0.0307      0.0000      0.1568      0.0880      0.0000
  4      0.0000      0.0026      0.0018      0.0000      0.0000      0.0142      0.0000      0.0000      0.0000
  5      0.0000      0.0038      0.0000      0.0000      0.0000      0.0000      0.0000      0.0000      0.0000
  6      0.0000      0.0026      0.0000      0.0000      0.0101      0.0000      0.0000      0.0000      0.0000
  7      0.0000      0.0040      0.0000      0.0000      0.0000      0.0078      0.0000      0.0000      0.0000
  8      0.0000      0.0090      0.0702      0.0000      0.0000      0.0000      0.0000      0.0000      0.0200
  9      0.6741      1.3133      1.2749      1.4537      1.3967      1.3764      1.2722      1.1188      1.3592
 10      0.0090      0.8647      0.9149      0.6044      0.8711      0.4778      0.8704      0.8435      0.7722
 11      5.7929      5.9059      5.7111      6.3060      5.9390      5.9342      5.6757      5.8920      5.8786
 12      0.0000      0.0175      0.0151      0.0000      0.0000      0.0000      0.0000      0.0560      0.0000
 13      0.0000      0.0134      0.0000      0.0000      0.0000      0.0112      0.0000      0.0000      0.0000
 14      0.0000      0.0178      0.0000      0.0090      0.0000      0.1892      0.0490      0.0000      0.0000
 15      0.0000      0.0156      0.0000      0.0221      0.1208      0.0000      0.0000      0.0000      0.0000
 16      0.0000      0.0268      0.0000      0.1542      0.0000      0.0000      0.0000      0.0000      0.0000
 17      0.0000      0.0323      0.0410      0.0245      0.0055      0.0000      0.0000      0.0000      0.0000
 18      0.0000      0.0356      0.0472      0.0000      0.0000      0.0000      0.0000      0.1791      0.0000
 19      0.0000      0.0479      0.0000      0.0000      0.0669      0.1391      0.0437      0.0000      0.0000
 20      0.0000      0.0966      0.0000      0.0000      0.0000      0.0269      0.0000      0.1412      0.0000
 21      0.0664      0.1722      0.1683      0.1024      0.0000      0.3006      0.0893      0.2349      0.1899
 22      0.0000      0.1669      0.1919      0.0000      0.0000      0.2728      0.0000      0.0000      0.4384
 23      0.1508      0.2279      0.0000      0.3107      0.0000      0.1712      0.1649      0.2338      0.2635
 24      0.0328      0.1919      0.0000      0.0729      0.5407      0.0000      0.3399      0.2409      0.0406
 25      6.3581      7.9112      7.7768      8.0863      7.0420      7.2955      7.8674      7.2918      8.0364
 26      0.0000      0.0034      0.0000      0.0000      0.0000      0.0000      0.0000      0.0000      0.0399
 27      0.0000      0.0116      0.0000      0.0000      0.0000      0.0000      0.0000      0.0000      0.0000
 28      0.0000      0.0073      0.0262      0.0000      0.0000      0.0415      0.0000      0.0000      0.0000
 29      0.0000      0.0047      0.0000      0.0000      0.0000      0.0000      0.0000      0.0000      0.0000
 30      0.0000      0.0041      0.0006      0.0000      0.0000      0.0000      0.0114      0.0000      0.0217
 31      0.0000      0.0040      0.0000      0.0000      0.0000      0.0000      0.0000      0.0135      0.0000
 32      0.0000      0.0089      0.0000      0.0308      0.0000      0.0000      0.0000      0.0000      0.0000
 33      0.0000      0.0112      0.0000      0.0000      0.0000      0.0062      0.0074      0.0000      0.0293
 34      0.0000      0.0225      0.0000      0.0000      0.0000      0.0000      0.0000      0.0000      0.0000
 35      0.0000      0.0248      0.0694      0.0000      0.0000      0.0000      0.0000      0.0000      0.0000
 36      0.0000      0.0235      0.0278      0.0000      0.0000      0.1381      0.0000      0.0137      0.0000
 37      0.0000      0.1360      0.1653      0.0265      0.0000      0.0901      0.1842      0.1122      0.0000
 38      0.0000      0.0274      0.0000      0.0000      0.0000      0.0000      0.0000      0.1904      0.0000
 39      0.0000      0.0187      0.0000      0.0000      0.0000      0.0000      0.0000      0.0000      0.0441
 40      0.0000      0.0206      0.0555      0.0000      0.0000      0.0000      0.0087      0.0000      0.0000
 41      0.0000      0.0248      0.0000      0.0000      0.0000      0.0000      0.0245      0.0000      0.0000
 42      0.0000      0.0325      0.0000      0.0000      0.0156      0.0000      0.0000      0.0000      0.0000
 43      7.8200      4.9404      6.2360      5.2919      4.9171      5.3400      5.7911      5.0875      5.2064
 44     27.2530     26.0686     26.3318     26.2523     26.8520     26.2153     26.0041     26.5972     26.5077
 45     27.0524     26.8781     26.3365     26.7688     27.0796     26.9641     26.5920     26.9951     26.7399
 46      0.0000      0.1932      0.0000      0.0000      0.2347      0.0960      0.3250      0.0274      0.3351
 47      0.0000      0.0841      0.0000      0.0599      0.0000      0.2226      0.0000      0.0131      0.0000
 48      0.0000      0.0955      0.0000      0.0000      0.0566      0.0688      0.0000      0.0623      0.0000
 49      0.0000      0.0848      0.1182      0.0467      0.0286      0.0000      0.0510      0.0000      0.1069
 50      3.1159      6.1901      6.2068      5.9988      6.4922      6.1063      5.9807      6.1900      5.7509
 51      0.0000      0.0037      0.0000      0.0000      0.0000      0.0000      0.0000      0.0000      0.0000
 52      0.0000      0.0363      0.0000      0.0712      0.0000      0.0000      0.0000      0.0466      0.0000
 53      0.0000      0.0074      0.0000      0.0000      0.0000      0.0000      0.0000      0.0000      0.0000
 54      0.0000      0.0269      0.0382      0.0000      0.0000      0.0000      0.0000      0.0000      0.0077
 55      0.0000      0.0208      0.0128      0.0000      0.0000      0.0000      0.0000      0.0000      0.0000
 56      0.0000      0.0142      0.0000      0.0202      0.0000      0.0000      0.0000      0.0000      0.0000
 57      0.0000      0.0037      0.0148      0.0000      0.0000      0.0000      0.0000      0.0000      0.0000
 58      0.0000      0.0086      0.0608      0.0000      0.0000      0.0000      0.0000      0.0000      0.0000
 59      0.0000      0.0072      0.0000      0.0000      0.0000      0.0000      0.0000      0.0000      0.0000
 60      0.0000      0.0099      0.0175      0.0000      0.0000      0.0000      0.0395      0.0000      0.0000
 61      0.0000      0.0162      0.0000      0.0000      0.0000      0.0000      0.0000      0.0000      0.0198
 62      0.0000      0.0238      0.0000      0.0000      0.0000      0.0000      0.0000      0.1186      0.0469
 63      0.0000      0.0248      0.0000      0.0425      0.0000      0.0012      0.0000      0.0000      0.0000
 64      0.0000      0.0222      0.0000      0.0000      0.0000      0.0000      0.0000      0.0000      0.0017
 65      0.0000      0.0164      0.0000      0.0000      0.0000      0.0161      0.0000      0.0000      0.0000
 66      0.0000      0.0105      0.0000      0.0000      0.0000      0.0000      0.0000      0.0000      0.0248
 67      0.0000      0.0155      0.0000      0.0158      0.0000      0.0000      0.0035      0.0000      0.0000
 68      0.0000      0.0148      0.0000      0.0000      0.0000      0.0000      0.0000      0.0000      0.0000
 69      0.0000      0.0205      0.0000      0.0000      0.0000      0.0116      0.0000      0.0000      0.0000
 70      0.0000      0.0163      0.0000      0.0554      0.0000      0.0000      0.0000      0.0000      0.0000
 71      0.0000      0.0185      0.0000      0.0619      0.0000      0.0000      0.1603      0.0000      0.0000
 72      0.0000      0.1041      0.0021      0.0186      0.0000      0.0000      0.0000      0.0000      0.0000
 73      0.0000      0.0143      0.0000      0.0000      0.0000      0.0000      0.0138      0.0000      0.0000
 74      0.0000      0.0442      0.0206      0.0466      0.0000      0.0000      0.0000      0.0000      0.0201
 75      0.0000      0.0142      0.0000      0.0109      0.0000      0.0000      0.0000      0.0000      0.0000
 76      0.0000      0.0034      0.0000      0.0000      0.0000      0.0197      0.0000      0.0000      0.0270
 77      0.0000      0.0041      0.0000      0.0000      0.0000      0.0031      0.0000      0.0000      0.0000
 78      0.0000      0.0036      0.0000      0.0000      0.0000      0.0000      0.0000      0.0000      0.0000
 79      0.0000      0.0059      0.0000      0.0000      0.0000      0.0369      0.0061      0.0000      0.0000
 80      0.0000      0.0073      0.0070      0.0000      0.0000      0.0000      0.0000      0.0000      0.0000
 81      0.0000      0.0060      0.0000      0.0000      0.0000      0.0000      0.0000      0.0000      0.0000
 82      0.0000      0.0069      0.0000      0.0000      0.0000      0.0000      0.0000      0.0000      0.0000
 83      0.0000      0.0434      0.0000      0.0000      0.0000      0.0000      0.0000      0.0000      0.0000
 84      0.0000      0.0233      0.0000      0.0000      0.0000      0.0000      0.0000      0.0000      0.0000
 85      0.0000      0.0181      0.0000      0.0000      0.0000      0.0000      0.0000      0.0000      0.0000
 86      0.0000      0.0103      0.0000      0.0000      0.0000      0.0000      0.0000      0.0000      0.0000
 87      0.0000      0.0114      0.0000      0.0000      0.0000      0.0000      0.0000      0.0000      0.0000
 88      0.0000      0.0099      0.0000      0.0000      0.0000      0.0000      0.0000      0.0000      0.0000
 89      0.0000      0.0082      0.0000      0.0000      0.0000      0.0000      0.0000      0.0000      0.0000
 90      0.0000      0.0051      0.0000      0.0000      0.0000      0.0000      0.0000      0.0000      0.0000
 91      0.0000      0.0033      0.0000      0.0000      0.0000      0.0000      0.0000      0.0000      0.0000
 92      0.0000      0.0049      0.0000      0.0000      0.0396      0.0000      0.0000      0.0577      0.0137
 93      0.0000      0.0046      0.0000      0.0000      0.0000      0.0000      0.0000      0.0000      0.0000
 94      0.0000      0.0058      0.0000      0.0000      0.0000      0.0000      0.0000      0.0000      0.0000
 95      0.0000      0.0062      0.0000      0.0000      0.0000      0.0000      0.0000      0.0000      0.0000
 96      0.0000      0.0047      0.0000      0.0000      0.0000      0.0000      0.0000      0.0000      0.0000
 97      0.0000      0.0039      0.0000      0.0243      0.0000      0.0000      0.0000      0.0000      0.0000
 98      0.0000      0.0035      0.0000      0.0000      0.0000      0.0000      0.0000      0.0000      0.0000
 99      0.0000      0.0039      0.0000      0.0000      0.0000      0.0532      0.0000      0.0000      0.0000
100      0.0000      0.0027      0.0000      0.0000      0.0000      0.0000      0.0000      0.0000      0.0000
101      0.0000      0.0025      0.0124      0.0059      0.0000      0.0000      0.0000      0.0000      0.0000
102      0.0000      0.0030      0.0000      0.0000      0.0000      0.0000      0.0000      0.0000      0.0000
103      0.0000      0.0099      0.0132      0.0000      0.0000      0.0000      0.0035      0.0000      0.0000
104      0.0000      0.0061      0.0000      0.0000      0.0000      0.0040      0.0000      0.0000      0.0000
105      0.0000      0.0032      0.0000      0.0000      0.0000      0.0000      0.0000      0.0000      0.0000
106      0.0000      0.0032      0.0480      0.0000      0.0000      0.0000      0.0000      0.0000      0.0000
107      0.0000      0.0033      0.0000      0.0000      0.0000      0.0000      0.0000      0.0000      0.0000
108      0.0000      0.0024      0.0000      0.0000      0.0000      0.0000      0.0000      0.0000      0.0000
109      0.0000      0.0049      0.0000      0.0000      0.0000      0.0050      0.0000      0.0000      0.0000
110      0.0000      0.0052      0.0000      0.0212      0.0000      0.0000      0.0000      0.0000      0.0000
111      0.0000      0.0081      0.0000      0.0000      0.0000      0.0000      0.0000      0.0000      0.0000
112      0.0000      0.0108      0.0000      0.0000      0.0000      0.0000      0.0000      0.0000      0.1222
113      0.0000      0.0086      0.0000      0.0000      0.0762      0.0000      0.0000      0.0000      0.0113
114      0.0000      0.0048      0.0000      0.0000      0.0000      0.0142      0.0000      0.0000      0.0000
115      0.0000      0.0040      0.0000      0.0000      0.0000      0.0000      0.0205      0.0000      0.0000
116      0.0000      0.0052      0.0000      0.0038      0.0000      0.0000      0.0000      0.0000      0.0000
117      0.0000      0.0057      0.0000      0.0000      0.0000      0.0000      0.0469      0.0000      0.0356
118      0.0000      0.0030      0.0000      0.0000      0.0000      0.0055      0.0000      0.0000      0.0000
119      0.0000      0.0033      0.0000      0.0000      0.0000      0.0000      0.0000      0.0000      0.0000
120      0.0000      0.0025      0.0000      0.0000      0.0104      0.0000      0.0000      0.0000      0.0000
121      0.0000      0.0033      0.0000      0.0000      0.0000      0.0000      0.0000      0.0000      0.0000
122      0.0000      0.0024      0.0000      0.0000      0.0000      0.0000      0.0422      0.0000      0.0000
123      0.0000      0.0087      0.0000      0.0000      0.0000      0.0000      0.0000      0.0000      0.0000
124      0.0000      0.0881      0.0214      0.0173      0.0323      0.0000      0.0000      0.0191      0.0000
125      0.0000      0.5184      0.5016      0.4629      0.3632      0.3894      0.4635      0.1669      0.4195
126      0.0000      0.0025      0.0000      0.0000      0.0000      0.0000      0.0000      0.0000      0.0000
127      0.0000      0.0033      0.0000      0.0000      0.0049      0.0000      0.0000      0.0000      0.0000
128      0.0000      0.0050      0.0000      0.0000      0.0000      0.0000      0.0000      0.0000      0.0000
129      0.0000      0.0045      0.0000      0.0000      0.0000      0.0000      0.0000      0.0000      0.0000
130      0.0000      0.0020      0.0000      0.0000      0.0000      0.0000      0.0000      0.0000      0.0000
131      0.0000      0.0019      0.0000      0.0000      0.0000      0.0000      0.0000      0.0150      0.0000
132      0.0000      0.0018      0.0000      0.0000      0.0000      0.0000      0.0000      0.0000      0.0000
133      0.0000      0.0025      0.0000      0.0000      0.0000      0.0000      0.0000      0.0000      0.0000
134      0.0000      0.0063      0.0061      0.0000      0.0000      0.0053      0.0000      0.0000      0.0000
135      0.0000      0.0082      0.0000      0.0000      0.0000      0.0000      0.0000      0.0000      0.0000
136      0.0000      0.0096      0.0000      0.0000      0.0000      0.0930      0.0000      0.0443      0.0000
137      0.0000      0.0098      0.0000      0.0000      0.0000      0.0000      0.0167      0.0000      0.0000
138      0.0000      0.0072      0.0000      0.0000      0.0000      0.0000      0.0000      0.0052      0.0000
139      0.0000      0.0050      0.0000      0.0000      0.0000      0.0000      0.0000      0.0000      0.0000
140      0.0000      0.0078      0.0000      0.0000      0.0000      0.0268      0.0000      0.0000      0.0000
141      0.0000      0.0068      0.0000      0.0004      0.0090      0.0000      0.0000      0.0000      0.0000
142      0.0000      0.0065      0.0000      0.0000      0.0000      0.0000      0.0000      0.0000      0.0000
143      0.0000      0.0036      0.0000      0.0000      0.0000      0.0000      0.0000      0.0000      0.0000
144      0.0000      0.2419      0.3445      0.2009      0.3173      0.2377      0.2851      0.2259      0.3273
145      0.0000      0.2004      0.1833      0.1561      0.2218      0.1845      0.2132      0.1849      0.2601
146      0.4364      0.2519      0.2511      0.3220      0.2466      0.3760      0.2498      0.3332      0.2528
147      0.2987      0.2380      0.2973      0.3048      0.2510      0.2914      0.2243      0.3209      0.1980
148      0.5619      0.2547      0.2915      0.2849      0.2945      0.2968      0.2543      0.4100      0.2943
149      0.7028      0.3434      0.3483      0.3435      0.3928      0.3549      0.4542      0.4549      0.4310
150      0.5244      0.3582      0.4221      0.4560      0.4077      0.3582      0.3669      0.4403      0.3576

# j      m_j: min, <> & last-chain-values for 1 ...  7 chains
  1  0.0000E+00  3.4207E-05  0.0000E+00  0.0000E+00  0.0000E+00  0.0000E+00  0.0000E+00  0.0000E+00  0.0000E+00
  2  4.5097E-02  3.1313E-02  3.3585E-02  3.3215E-02  3.4543E-02  3.5079E-02  3.4363E-02  3.4007E-02  3.3719E-02
  3  0.0000E+00  6.1080E-04  6.5636E-05  6.0187E-04  1.7598E-04  0.0000E+00  8.9478E-04  4.9973E-04  0.0000E+00
  4  0.0000E+00  2.7499E-05  1.9235E-05  0.0000E+00  0.0000E+00  1.5413E-04  0.0000E+00  0.0000E+00  0.0000E+00
  5  0.0000E+00  5.0886E-05  0.0000E+00  0.0000E+00  0.0000E+00  0.0000E+00  0.0000E+00  0.0000E+00  0.0000E+00
  6  0.0000E+00  4.1992E-05  0.0000E+00  0.0000E+00  1.6323E-04  0.0000E+00  0.0000E+00  0.0000E+00  0.0000E+00
  7  0.0000E+00  8.0700E-05  0.0000E+00  0.0000E+00  0.0000E+00  1.6022E-04  0.0000E+00  0.0000E+00  0.0000E+00
  8  0.0000E+00  2.0558E-04  1.6068E-03  0.0000E+00  0.0000E+00  0.0000E+00  0.0000E+00  0.0000E+00  4.5949E-04
  9  1.7414E-02  3.2164E-02  3.1371E-02  3.5493E-02  3.4608E-02  3.4415E-02  3.1369E-02  2.7441E-02  3.3589E-02
 10  2.6773E-04  2.4275E-02  2.5803E-02  1.6915E-02  2.4741E-02  1.3694E-02  2.4601E-02  2.3713E-02  2.1873E-02
 11  2.0504E-01  1.9820E-01  1.9256E-01  2.1096E-01  2.0165E-01  2.0331E-01  1.9177E-01  1.9803E-01  1.9905E-01
 12  0.0000E+00  1.0260E-03  8.8917E-04  0.0000E+00  0.0000E+00  0.0000E+00  0.0000E+00  3.2904E-03  0.0000E+00
 13  0.0000E+00  9.1498E-04  0.0000E+00  0.0000E+00  0.0000E+00  7.8071E-04  0.0000E+00  0.0000E+00  0.0000E+00
 14  0.0000E+00  1.7250E-03  0.0000E+00  8.6736E-04  0.0000E+00  1.8696E-02  4.7737E-03  0.0000E+00  0.0000E+00
 15  0.0000E+00  2.2760E-03  0.0000E+00  3.2148E-03  1.7857E-02  0.0000E+00  0.0000E+00  0.0000E+00  0.0000E+00
 16  0.0000E+00  5.6655E-03  0.0000E+00  3.2526E-02  0.0000E+00  0.0000E+00  0.0000E+00  0.0000E+00  0.0000E+00
 17  0.0000E+00  7.5857E-03  9.6891E-03  5.7290E-03  1.3000E-03  0.0000E+00  0.0000E+00  0.0000E+00  0.0000E+00
 18  0.0000E+00  1.3620E-02  1.8136E-02  0.0000E+00  0.0000E+00  0.0000E+00  0.0000E+00  6.8645E-02  0.0000E+00
 19  0.0000E+00  2.7806E-02  0.0000E+00  0.0000E+00  3.9281E-02  8.2379E-02  2.5538E-02  0.0000E+00  0.0000E+00
 20  0.0000E+00  8.0141E-02  0.0000E+00  0.0000E+00  0.0000E+00  2.2783E-02  0.0000E+00  1.1727E-01  0.0000E+00
 21  6.7248E-02  1.6521E-01  1.6231E-01  9.7946E-02  0.0000E+00  2.9448E-01  8.6278E-02  2.2571E-01  1.8390E-01
 22  0.0000E+00  2.0666E-01  2.3865E-01  0.0000E+00  0.0000E+00  3.4487E-01  0.0000E+00  0.0000E+00  5.4769E-01
 23  2.4954E-01  3.5769E-01  0.0000E+00  4.8610E-01  0.0000E+00  2.7427E-01  2.6053E-01  3.6752E-01  4.1727E-01
 24  6.2111E-02  3.4446E-01  0.0000E+00  1.3049E-01  9.8188E-01  0.0000E+00  6.1422E-01  4.3309E-01  7.3509E-02
 25  1.4459E+01  1.7057E+01  1.6846E+01  1.7380E+01  1.5361E+01  1.6059E+01  1.7078E+01  1.5745E+01  1.7483E+01
 26  0.0000E+00  4.6246E-05  0.0000E+00  0.0000E+00  0.0000E+00  0.0000E+00  0.0000E+00  0.0000E+00  5.4398E-04
 27  0.0000E+00  3.3313E-05  0.0000E+00  0.0000E+00  0.0000E+00  0.0000E+00  0.0000E+00  0.0000E+00  0.0000E+00
 28  0.0000E+00  4.1066E-05  1.4810E-04  0.0000E+00  0.0000E+00  2.3877E-04  0.0000E+00  0.0000E+00  0.0000E+00
 29  0.0000E+00  4.1514E-05  0.0000E+00  0.0000E+00  0.0000E+00  0.0000E+00  0.0000E+00  0.0000E+00  0.0000E+00
 30  0.0000E+00  4.5088E-05  6.2903E-06  0.0000E+00  0.0000E+00  0.0000E+00  1.2524E-04  0.0000E+00  2.3929E-04
 31  0.0000E+00  5.0684E-05  0.0000E+00  0.0000E+00  0.0000E+00  0.0000E+00  0.0000E+00  1.7037E-04  0.0000E+00
 32  0.0000E+00  1.2455E-04  0.0000E+00  4.2831E-04  0.0000E+00  0.0000E+00  0.0000E+00  0.0000E+00  0.0000E+00
 33  0.0000E+00  2.2144E-04  0.0000E+00  0.0000E+00  0.0000E+00  1.2510E-04  1.4695E-04  0.0000E+00  5.8560E-04
 34  0.0000E+00  5.4218E-04  0.0000E+00  0.0000E+00  0.0000E+00  0.0000E+00  0.0000E+00  0.0000E+00  0.0000E+00
 35  0.0000E+00  7.2264E-04  2.0304E-03  0.0000E+00  0.0000E+00  0.0000E+00  0.0000E+00  0.0000E+00  0.0000E+00
 36  0.0000E+00  8.7540E-04  1.0403E-03  0.0000E+00  0.0000E+00  5.2614E-03  0.0000E+00  5.1297E-04  0.0000E+00
 37  0.0000E+00  6.3057E-03  7.7007E-03  1.2255E-03  0.0000E+00  4.2635E-03  8.6007E-03  5.2092E-03  0.0000E+00
 38  0.0000E+00  1.7702E-03  0.0000E+00  0.0000E+00  0.0000E+00  0.0000E+00  0.0000E+00  1.2312E-02  0.0000E+00
 39  0.0000E+00  1.7982E-03  0.0000E+00  0.0000E+00  0.0000E+00  0.0000E+00  0.0000E+00  0.0000E+00  4.2875E-03
 40  0.0000E+00  3.5105E-03  9.4773E-03  0.0000E+00  0.0000E+00  0.0000E+00  1.4895E-03  0.0000E+00  0.0000E+00
 41  0.0000E+00  5.6369E-03  0.0000E+00  0.0000E+00  0.0000E+00  0.0000E+00  5.6253E-03  0.0000E+00  0.0000E+00
 42  0.0000E+00  8.2619E-03  0.0000E+00  0.0000E+00  4.0172E-03  0.0000E+00  0.0000E+00  0.0000E+00  0.0000E+00
 43  3.4121E+00  2.0439E+00  2.5919E+00  2.1824E+00  2.0581E+00  2.2554E+00  2.4121E+00  2.1078E+00  2.1732E+00
 44  1.8807E+01  1.7056E+01  1.7309E+01  1.7122E+01  1.7775E+01  1.7511E+01  1.7130E+01  1.7428E+01  1.7499E+01
 45  2.6019E+01  2.4511E+01  2.4129E+01  2.4334E+01  2.4984E+01  2.5103E+01  2.4414E+01  2.4654E+01  2.4603E+01
 46  0.0000E+00  2.0988E-01  0.0000E+00  0.0000E+00  2.5796E-01  1.0650E-01  3.5549E-01  2.9808E-02  3.6725E-01
 47  0.0000E+00  1.1967E-01  0.0000E+00  8.5069E-02  0.0000E+00  3.2361E-01  0.0000E+00  1.8616E-02  0.0000E+00
 48  0.0000E+00  1.6193E-01  0.0000E+00  0.0000E+00  9.7165E-02  1.1909E-01  0.0000E+00  1.0572E-01  0.0000E+00
 49  0.0000E+00  1.6085E-01  2.2529E-01  8.8367E-02  5.4789E-02  0.0000E+00  9.7302E-02  0.0000E+00  2.0449E-01
 50  7.3313E+00  1.3809E+01  1.3911E+01  1.3340E+01  1.4653E+01  1.3907E+01  1.3432E+01  1.3829E+01  1.2944E+01
 51  0.0000E+00  3.7496E-05  0.0000E+00  0.0000E+00  0.0000E+00  0.0000E+00  0.0000E+00  0.0000E+00  0.0000E+00
 52  0.0000E+00  1.0197E-04  0.0000E+00  1.9916E-04  0.0000E+00  0.0000E+00  0.0000E+00  1.3098E-04  0.0000E+00
 53  0.0000E+00  3.1562E-05  0.0000E+00  0.0000E+00  0.0000E+00  0.0000E+00  0.0000E+00  0.0000E+00  0.0000E+00
 54  0.0000E+00  1.0974E-04  1.5661E-04  0.0000E+00  0.0000E+00  0.0000E+00  0.0000E+00  0.0000E+00  3.1814E-05
 55  0.0000E+00  1.2524E-04  7.7511E-05  0.0000E+00  0.0000E+00  0.0000E+00  0.0000E+00  0.0000E+00  0.0000E+00
 56  0.0000E+00  1.1327E-04  0.0000E+00  1.6048E-04  0.0000E+00  0.0000E+00  0.0000E+00  0.0000E+00  0.0000E+00
 57  0.0000E+00  4.6793E-05  1.8995E-04  0.0000E+00  0.0000E+00  0.0000E+00  0.0000E+00  0.0000E+00  0.0000E+00
 58  0.0000E+00  1.5938E-04  1.1263E-03  0.0000E+00  0.0000E+00  0.0000E+00  0.0000E+00  0.0000E+00  0.0000E+00
 59  0.0000E+00  1.8552E-04  0.0000E+00  0.0000E+00  0.0000E+00  0.0000E+00  0.0000E+00  0.0000E+00  0.0000E+00
 60  0.0000E+00  2.8161E-04  5.0030E-04  0.0000E+00  0.0000E+00  0.0000E+00  1.1343E-03  0.0000E+00  0.0000E+00
 61  0.0000E+00  5.8968E-04  0.0000E+00  0.0000E+00  0.0000E+00  0.0000E+00  0.0000E+00  0.0000E+00  7.2582E-04
 62  0.0000E+00  1.0958E-03  0.0000E+00  0.0000E+00  0.0000E+00  0.0000E+00  0.0000E+00  5.4709E-03  2.1786E-03
 63  0.0000E+00  1.7357E-03  0.0000E+00  2.9654E-03  0.0000E+00  8.6158E-05  0.0000E+00  0.0000E+00  0.0000E+00
 64  0.0000E+00  2.5579E-03  0.0000E+00  0.0000E+00  0.0000E+00  0.0000E+00  0.0000E+00  0.0000E+00  1.9827E-04
 65  0.0000E+00  3.1999E-03  0.0000E+00  0.0000E+00  0.0000E+00  3.1957E-03  0.0000E+00  0.0000E+00  0.0000E+00
 66  0.0000E+00  2.6159E-03  0.0000E+00  0.0000E+00  0.0000E+00  0.0000E+00  0.0000E+00  0.0000E+00  6.2360E-03
 67  0.0000E+00  5.2931E-03  0.0000E+00  5.3830E-03  0.0000E+00  0.0000E+00  1.2013E-03  0.0000E+00  0.0000E+00
 68  0.0000E+00  9.3952E-03  0.0000E+00  0.0000E+00  0.0000E+00  0.0000E+00  0.0000E+00  0.0000E+00  0.0000E+00
 69  0.0000E+00  2.2476E-02  0.0000E+00  0.0000E+00  0.0000E+00  1.3008E-02  0.0000E+00  0.0000E+00  0.0000E+00
 70  0.0000E+00  2.4844E-02  0.0000E+00  8.4268E-02  0.0000E+00  0.0000E+00  0.0000E+00  0.0000E+00  0.0000E+00
 71  0.0000E+00  3.3273E-02  0.0000E+00  1.1105E-01  0.0000E+00  0.0000E+00  2.9063E-01  0.0000E+00  0.0000E+00
 72  0.0000E+00  2.4690E-01  5.0866E-03  4.4026E-02  0.0000E+00  0.0000E+00  0.0000E+00  0.0000E+00  0.0000E+00
 73  0.0000E+00  4.2856E-02  0.0000E+00  0.0000E+00  0.0000E+00  0.0000E+00  4.1451E-02  0.0000E+00  0.0000E+00
 74  0.0000E+00  1.4739E-01  6.9199E-02  1.5485E-01  0.0000E+00  0.0000E+00  0.0000E+00  0.0000E+00  6.7531E-02
 75  0.0000E+00  5.4320E-02  0.0000E+00  4.1706E-02  0.0000E+00  0.0000E+00  0.0000E+00  0.0000E+00  0.0000E+00
 76  0.0000E+00  2.9857E-05  0.0000E+00  0.0000E+00  0.0000E+00  1.7910E-04  0.0000E+00  0.0000E+00  2.4200E-04
 77  0.0000E+00  1.4786E-05  0.0000E+00  0.0000E+00  0.0000E+00  1.1572E-05  0.0000E+00  0.0000E+00  0.0000E+00
 78  0.0000E+00  1.4469E-05  0.0000E+00  0.0000E+00  0.0000E+00  0.0000E+00  0.0000E+00  0.0000E+00  0.0000E+00
 79  0.0000E+00  2.8720E-05  0.0000E+00  0.0000E+00  0.0000E+00  1.8371E-04  2.9877E-05  0.0000E+00  0.0000E+00
 80  0.0000E+00  4.5640E-05  4.4079E-05  0.0000E+00  0.0000E+00  0.0000E+00  0.0000E+00  0.0000E+00  0.0000E+00
 81  0.0000E+00  4.9544E-05  0.0000E+00  0.0000E+00  0.0000E+00  0.0000E+00  0.0000E+00  0.0000E+00  0.0000E+00
 82  0.0000E+00  7.6954E-05  0.0000E+00  0.0000E+00  0.0000E+00  0.0000E+00  0.0000E+00  0.0000E+00  0.0000E+00
 83  0.0000E+00  7.1307E-04  0.0000E+00  0.0000E+00  0.0000E+00  0.0000E+00  0.0000E+00  0.0000E+00  0.0000E+00
 84  0.0000E+00  5.2977E-04  0.0000E+00  0.0000E+00  0.0000E+00  0.0000E+00  0.0000E+00  0.0000E+00  0.0000E+00
 85  0.0000E+00  5.0011E-04  0.0000E+00  0.0000E+00  0.0000E+00  0.0000E+00  0.0000E+00  0.0000E+00  0.0000E+00
 86  0.0000E+00  3.8590E-04  0.0000E+00  0.0000E+00  0.0000E+00  0.0000E+00  0.0000E+00  0.0000E+00  0.0000E+00
 87  0.0000E+00  5.6702E-04  0.0000E+00  0.0000E+00  0.0000E+00  0.0000E+00  0.0000E+00  0.0000E+00  0.0000E+00
 88  0.0000E+00  7.5194E-04  0.0000E+00  0.0000E+00  0.0000E+00  0.0000E+00  0.0000E+00  0.0000E+00  0.0000E+00
 89  0.0000E+00  1.0334E-03  0.0000E+00  0.0000E+00  0.0000E+00  0.0000E+00  0.0000E+00  0.0000E+00  0.0000E+00
 90  0.0000E+00  1.1837E-03  0.0000E+00  0.0000E+00  0.0000E+00  0.0000E+00  0.0000E+00  0.0000E+00  0.0000E+00
 91  0.0000E+00  9.7873E-04  0.0000E+00  0.0000E+00  0.0000E+00  0.0000E+00  0.0000E+00  0.0000E+00  0.0000E+00
 92  0.0000E+00  1.9759E-03  0.0000E+00  0.0000E+00  1.6127E-02  0.0000E+00  0.0000E+00  2.3222E-02  5.5428E-03
 93  0.0000E+00  3.7564E-03  0.0000E+00  0.0000E+00  0.0000E+00  0.0000E+00  0.0000E+00  0.0000E+00  0.0000E+00
 94  0.0000E+00  8.4727E-03  0.0000E+00  0.0000E+00  0.0000E+00  0.0000E+00  0.0000E+00  0.0000E+00  0.0000E+00
 95  0.0000E+00  1.2271E-02  0.0000E+00  0.0000E+00  0.0000E+00  0.0000E+00  0.0000E+00  0.0000E+00  0.0000E+00
 96  0.0000E+00  1.1195E-02  0.0000E+00  0.0000E+00  0.0000E+00  0.0000E+00  0.0000E+00  0.0000E+00  0.0000E+00
 97  0.0000E+00  1.2122E-02  0.0000E+00  7.5072E-02  0.0000E+00  0.0000E+00  0.0000E+00  0.0000E+00  0.0000E+00
 98  0.0000E+00  1.4008E-02  0.0000E+00  0.0000E+00  0.0000E+00  0.0000E+00  0.0000E+00  0.0000E+00  0.0000E+00
 99  0.0000E+00  1.7813E-02  0.0000E+00  0.0000E+00  0.0000E+00  2.4627E-01  0.0000E+00  0.0000E+00  0.0000E+00
100  0.0000E+00  1.3859E-02  0.0000E+00  0.0000E+00  0.0000E+00  0.0000E+00  0.0000E+00  0.0000E+00  0.0000E+00
101  0.0000E+00  1.4082E-05  7.1594E-05  3.3596E-05  0.0000E+00  0.0000E+00  0.0000E+00  0.0000E+00  0.0000E+00
102  0.0000E+00  8.8696E-06  0.0000E+00  0.0000E+00  0.0000E+00  0.0000E+00  0.0000E+00  0.0000E+00  0.0000E+00
103  0.0000E+00  3.2915E-05  4.3893E-05  0.0000E+00  0.0000E+00  0.0000E+00  1.1592E-05  0.0000E+00  0.0000E+00
104  0.0000E+00  2.6491E-05  0.0000E+00  0.0000E+00  0.0000E+00  1.7969E-05  0.0000E+00  0.0000E+00  0.0000E+00
105  0.0000E+00  2.9749E-05  0.0000E+00  0.0000E+00  0.0000E+00  0.0000E+00  0.0000E+00  0.0000E+00  0.0000E+00
106  0.0000E+00  3.1742E-05  4.7723E-04  0.0000E+00  0.0000E+00  0.0000E+00  0.0000E+00  0.0000E+00  0.0000E+00
107  0.0000E+00  4.3067E-05  0.0000E+00  0.0000E+00  0.0000E+00  0.0000E+00  0.0000E+00  0.0000E+00  0.0000E+00
108  0.0000E+00  5.3161E-05  0.0000E+00  0.0000E+00  0.0000E+00  0.0000E+00  0.0000E+00  0.0000E+00  0.0000E+00
109  0.0000E+00  1.2869E-04  0.0000E+00  0.0000E+00  0.0000E+00  1.3482E-04  0.0000E+00  0.0000E+00  0.0000E+00
110  0.0000E+00  1.6496E-04  0.0000E+00  6.6924E-04  0.0000E+00  0.0000E+00  0.0000E+00  0.0000E+00  0.0000E+00
111  0.0000E+00  3.5520E-04  0.0000E+00  0.0000E+00  0.0000E+00  0.0000E+00  0.0000E+00  0.0000E+00  0.0000E+00
112  0.0000E+00  6.2706E-04  0.0000E+00  0.0000E+00  0.0000E+00  0.0000E+00  0.0000E+00  0.0000E+00  7.1352E-03
113  0.0000E+00  7.4082E-04  0.0000E+00  0.0000E+00  6.6550E-03  0.0000E+00  0.0000E+00  0.0000E+00  9.8570E-04
114  0.0000E+00  7.2723E-04  0.0000E+00  0.0000E+00  0.0000E+00  2.1975E-03  0.0000E+00  0.0000E+00  0.0000E+00
115  0.0000E+00  1.2026E-03  0.0000E+00  0.0000E+00  0.0000E+00  0.0000E+00  6.2803E-03  0.0000E+00  0.0000E+00
116  0.0000E+00  2.5471E-03  0.0000E+00  1.8510E-03  0.0000E+00  0.0000E+00  0.0000E+00  0.0000E+00  0.0000E+00
117  0.0000E+00  3.2765E-03  0.0000E+00  0.0000E+00  0.0000E+00  0.0000E+00  2.7110E-02  0.0000E+00  2.0627E-02
118  0.0000E+00  3.5442E-03  0.0000E+00  0.0000E+00  0.0000E+00  6.5024E-03  0.0000E+00  0.0000E+00  0.0000E+00
119  0.0000E+00  6.6128E-03  0.0000E+00  0.0000E+00  0.0000E+00  0.0000E+00  0.0000E+00  0.0000E+00  0.0000E+00
120  0.0000E+00  7.2496E-03  0.0000E+00  0.0000E+00  3.0146E-02  0.0000E+00  0.0000E+00  0.0000E+00  0.0000E+00
121  0.0000E+00  1.1210E-02  0.0000E+00  0.0000E+00  0.0000E+00  0.0000E+00  0.0000E+00  0.0000E+00  0.0000E+00
122  0.0000E+00  1.0647E-02  0.0000E+00  0.0000E+00  0.0000E+00  0.0000E+00  1.9178E-01  0.0000E+00  0.0000E+00
123  0.0000E+00  5.1864E-02  0.0000E+00  0.0000E+00  0.0000E+00  0.0000E+00  0.0000E+00  0.0000E+00  0.0000E+00
124  0.0000E+00  6.0180E-01  1.4701E-01  1.1795E-01  2.2352E-01  0.0000E+00  0.0000E+00  1.3067E-01  0.0000E+00
125  0.0000E+00  4.2405E+00  4.1218E+00  3.7748E+00  3.0053E+00  3.2518E+00  3.8169E+00  1.3674E+00  3.4623E+00
126  0.0000E+00  1.0702E-05  0.0000E+00  0.0000E+00  0.0000E+00  0.0000E+00  0.0000E+00  0.0000E+00  0.0000E+00
127  0.0000E+00  7.4789E-06  0.0000E+00  0.0000E+00  1.1230E-05  0.0000E+00  0.0000E+00  0.0000E+00  0.0000E+00
128  0.0000E+00  1.6711E-05  0.0000E+00  0.0000E+00  0.0000E+00  0.0000E+00  0.0000E+00  0.0000E+00  0.0000E+00
129  0.0000E+00  3.1091E-05  0.0000E+00  0.0000E+00  0.0000E+00  0.0000E+00  0.0000E+00  0.0000E+00  0.0000E+00
130  0.0000E+00  1.9076E-05  0.0000E+00  0.0000E+00  0.0000E+00  0.0000E+00  0.0000E+00  0.0000E+00  0.0000E+00
131  0.0000E+00  2.0129E-05  0.0000E+00  0.0000E+00  0.0000E+00  0.0000E+00  0.0000E+00  1.6331E-04  0.0000E+00
132  0.0000E+00  2.7111E-05  0.0000E+00  0.0000E+00  0.0000E+00  0.0000E+00  0.0000E+00  0.0000E+00  0.0000E+00
133  0.0000E+00  5.3539E-05  0.0000E+00  0.0000E+00  0.0000E+00  0.0000E+00  0.0000E+00  0.0000E+00  0.0000E+00
134  0.0000E+00  1.7091E-04  1.6558E-04  0.0000E+00  0.0000E+00  1.4696E-04  0.0000E+00  0.0000E+00  0.0000E+00
135  0.0000E+00  2.6742E-04  0.0000E+00  0.0000E+00  0.0000E+00  0.0000E+00  0.0000E+00  0.0000E+00  0.0000E+00
136  0.0000E+00  4.5248E-04  0.0000E+00  0.0000E+00  0.0000E+00  4.4831E-03  0.0000E+00  2.0949E-03  0.0000E+00
137  0.0000E+00  6.2930E-04  0.0000E+00  0.0000E+00  0.0000E+00  0.0000E+00  1.0870E-03  0.0000E+00  0.0000E+00
138  0.0000E+00  7.6871E-04  0.0000E+00  0.0000E+00  0.0000E+00  0.0000E+00  0.0000E+00  5.5511E-04  0.0000E+00
139  0.0000E+00  1.0181E-03  0.0000E+00  0.0000E+00  0.0000E+00  0.0000E+00  0.0000E+00  0.0000E+00  0.0000E+00
140  0.0000E+00  3.6619E-03  0.0000E+00  0.0000E+00  0.0000E+00  1.2816E-02  0.0000E+00  0.0000E+00  0.0000E+00
141  0.0000E+00  4.8468E-03  0.0000E+00  2.6615E-04  6.5637E-03  0.0000E+00  0.0000E+00  0.0000E+00  0.0000E+00
142  0.0000E+00  5.5848E-03  0.0000E+00  0.0000E+00  0.0000E+00  0.0000E+00  0.0000E+00  0.0000E+00  0.0000E+00
143  0.0000E+00  6.0973E-03  0.0000E+00  0.0000E+00  0.0000E+00  0.0000E+00  0.0000E+00  0.0000E+00  0.0000E+00
144  0.0000E+00  8.0670E-01  1.1541E+00  6.6776E-01  1.0703E+00  8.0908E-01  9.5707E-01  7.5439E-01  1.1010E+00
145  0.0000E+00  9.9490E-01  9.1400E-01  7.7228E-01  1.1139E+00  9.3508E-01  1.0657E+00  9.1928E-01  1.3028E+00
146  2.7283E+00  1.4930E+00  1.4954E+00  1.9031E+00  1.4789E+00  2.2758E+00  1.4908E+00  1.9781E+00  1.5121E+00
147  2.5097E+00  1.8956E+00  2.3788E+00  2.4204E+00  2.0225E+00  2.3694E+00  1.7991E+00  2.5597E+00  1.5909E+00
148  6.3942E+00  2.7477E+00  3.1599E+00  3.0639E+00  3.2142E+00  3.2694E+00  2.7620E+00  4.4300E+00  3.2031E+00
149  9.3675E+00  4.3400E+00  4.4216E+00  4.3275E+00  5.0217E+00  4.5780E+00  5.7783E+00  5.7571E+00  5.4953E+00
150  8.3258E+00  5.3918E+00  6.3827E+00  6.8415E+00  6.2093E+00  5.5038E+00  5.5595E+00  6.6368E+00  5.4304E+00

# AV, chi2 & Mass for <> & i_chain = 1 ...  7 solutions
AV       0.9492      0.9317      0.9342      0.9354      0.9347      0.9383      0.9331      0.9326      0.9336
chi2 2.7057E+00  2.8696E+00  2.8293E+00  2.8271E+00  2.8210E+00  2.8202E+00  2.8241E+00  2.8110E+00  2.8290E+00
Mass 1.1596E-09  1.1945E-09  1.1930E-09  1.2043E-09  1.1855E-09  1.1805E-09  1.1887E-09  1.1941E-09  1.1870E-09
 -21.25                                  [v0_min (km/s) before EX0s...]
  64.51                                  [vd_min (km/s) before EX0s...]


## Synthetic spectrum (Best Model) ##l_obs f_obs f_syn wei
 3070    [Nl_obs]
 3359.00    0.18587   0.42219   -1.000
 3360.00    0.24109   0.41464   -1.000
 3361.00    0.24529   0.42563   -1.000
 3362.00    0.25920   0.44756   -1.000
 3363.00    0.27400   0.47004   -1.000
 3364.00    0.28935   0.48142   -1.000
 3365.00    0.30315   0.47938   -1.000
 3366.00    0.30835   0.47289   -1.000
 3367.00    0.31259   0.46652   -1.000
 3368.00    0.31069   0.45933   -1.000
 3369.00    0.30849   0.44889   -1.000
 3370.00    0.30990   0.43506   -1.000
 3371.00    0.30774   0.42675   -1.000
 3372.00    0.30735   0.43101   -1.000
 3373.00    0.31024   0.44678   -1.000
 3374.00    0.32298   0.46718   -1.000
 3375.00    0.33907   0.48424   -1.000
 3376.00    0.34460   0.49063   -1.000
 3377.00    0.35229   0.48593   -1.000
 3378.00    0.36165   0.47649   -1.000
 3379.00    0.35811   0.47137   -1.000
 3380.00    0.35675   0.47390   -1.000
 3381.00    0.35579   0.48012   -1.000
 3382.00    0.35616   0.48576   -1.000
 3383.00    0.35678   0.48989   -1.000
 3384.00    0.36609   0.49351   -1.000
 3385.00    0.37419   0.49473   -1.000
 3386.00    0.37920   0.48928   -1.000
 3387.00    0.38088   0.48078   -1.000
 3388.00    0.38078   0.47815   -1.000
 3389.00    0.38398   0.48428   -1.000
 3390.00    0.39209   0.49309   -1.000
 3391.00    0.39111   0.49670   -1.000
 3392.00    0.39103   0.49275   -1.000
 3393.00    0.39570   0.48972   -1.000
 3394.00    0.39872   0.49407   -1.000
 3395.00    0.40068   0.50405   -1.000
 3396.00    0.40856   0.51537   -1.000
 3397.00    0.41924   0.52432   -1.000
 3398.00    0.43191   0.52941   -1.000
 3399.00    0.43897   0.52882   -1.000
 3400.00    0.43827   0.52271   -1.000
 3401.00    0.43722   0.51127   -1.000
 3402.00    0.42970   0.49787   43.375
 3403.00    0.42560   0.48969   44.057
 3404.00    0.42478   0.48818   44.856
 3405.00    0.42131   0.49110   -1.000
 3406.00    0.41681   0.49150   -1.000
 3407.00    0.41446   0.48754   -1.000
 3408.00    0.41585   0.48385   -1.000
 3409.00    0.41318   0.48611   -1.000
 3410.00    0.41013   0.49091   -1.000
 3411.00    0.41924   0.49044   -1.000
 3412.00    0.42638   0.48563   46.404
 3413.00    0.42291   0.48152   47.543
 3414.00    0.42118   0.48468   47.655
 3415.00    0.42461   0.49511   -1.000
 3416.00    0.42941   0.50629   -1.000
 3417.00    0.43626   0.51472   -1.000
 3418.00    0.44341   0.52096   -1.000
 3419.00    0.44837   0.52585   -1.000
 3420.00    0.45604   0.52825   39.813
 3421.00    0.46007   0.52398   39.937
 3422.00    0.46015   0.51218   40.898
 3423.00    0.45601   0.50081   41.893
 3424.00    0.45189   0.49744   41.174
 3425.00    0.45311   0.50153   40.057
 3426.00    0.46111   0.50936   39.650
 3427.00    0.46412   0.52044   -1.000
 3428.00    0.46857   0.53383   -1.000
 3429.00    0.47749   0.54401   -1.000
 3430.00    0.48126   0.54297   -1.000
 3431.00    0.48447   0.53011   -1.000
 3432.00    0.47813   0.51696   50.840
 3433.00    0.47095   0.51461   39.557
 3434.00    0.47137   0.52427   -1.000
 3435.00    0.48167   0.53508   -1.000
 3436.00    0.48256   0.53608   50.411
 3437.00    0.47894   0.52724   40.884
 3438.00    0.47163   0.51433   43.222
 3439.00    0.45852   0.50059   46.470
 3440.00    0.44854   0.48683   48.784
 3441.00    0.44722   0.47522   49.297
 3442.00    0.44102   0.46999   49.149
 3443.00    0.43962   0.47231   47.584
 3444.00    0.45139   0.48045   45.130
 3445.00    0.46502   0.49328   42.633
 3446.00    0.47226   0.51053   40.954
 3447.00    0.48053   0.52846   -1.000
 3448.00    0.49501   0.54128   -1.000
 3449.00    0.50190   0.54262   -1.000
 3450.00    0.49692   0.53029   -1.000
 3451.00    0.50006   0.51309   -1.000
 3452.00    0.50209   0.50214  321.479
 3453.00    0.49984   0.50137  321.479
 3454.00    0.49778   0.50750  321.479
 3455.00    0.50711   0.51419  321.479
 3456.00    0.51484   0.51672  321.479
 3457.00    0.51390   0.51424  321.479
 3458.00    0.50767   0.50804   50.286
 3459.00    0.50029   0.49989   40.010
 3460.00    0.49974   0.49269   39.928
 3461.00    0.49769   0.49236  126.364
 3462.00    0.49515   0.50010  321.479
 3463.00    0.49914   0.50832  321.479
 3464.00    0.50504   0.51046  321.479
 3465.00    0.50946   0.50889  321.479
 3466.00    0.51415   0.51154  321.479
 3467.00    0.51168   0.52089  321.479
 3468.00    0.51926   0.53308   -1.000
 3469.00    0.52908   0.54234   -1.000
 3470.00    0.53291   0.54440   -1.000
 3471.00    0.53702   0.53891  321.479
 3472.00    0.53315   0.52723  321.479
 3473.00    0.52403   0.51120   -1.000
 3474.00    0.50321   0.49753   50.466
 3475.00    0.49328   0.49181   41.081
 3476.00    0.49485   0.49606   40.722
 3477.00    0.50006   0.50756  128.318
 3478.00    0.51387   0.51946  321.479
 3479.00    0.53591   0.52929  321.479
 3480.00    0.55335   0.53632   -1.000
 3481.00    0.55452   0.53767   -1.000
 3482.00    0.55231   0.53411   -1.000
 3483.00    0.54784   0.53030   -1.000
 3484.00    0.54731   0.53136   -1.000
 3485.00    0.55061   0.53832   -1.000
 3486.00    0.55578   0.54477   -1.000
 3487.00    0.55529   0.54448   -1.000
 3488.00    0.55758   0.53668   -1.000
 3489.00    0.54500   0.52505   -1.000
 3490.00    0.52596   0.51782   -1.000
 3491.00    0.52006   0.52026  321.479
 3492.00    0.51523   0.52680   -1.000
 3493.00    0.51885   0.52865   -1.000
 3494.00    0.52402   0.52386  321.479
 3495.00    0.52801   0.51556   -1.000
 3496.00    0.51861   0.51055  321.479
 3497.00    0.51801   0.51243  321.479
 3498.00    0.52739   0.51777   -1.000
 3499.00    0.53419   0.52241   -1.000
 3500.00    0.54249   0.52339   -1.000
 3501.00    0.54521   0.52418   -1.000
 3502.00    0.54777   0.52778   -1.000
 3503.00    0.55198   0.53051   -1.000
 3504.00    0.55610   0.52889   -1.000
 3505.00    0.54763   0.52310   -1.000
 3506.00    0.54497   0.51715   -1.000
 3507.00    0.54434   0.51386   -1.000
 3508.00    0.54888   0.51380   -1.000
 3509.00    0.55265   0.51561   -1.000
 3510.00    0.54672   0.51599   -1.000
 3511.00    0.53833   0.51344   -1.000
 3512.00    0.53024   0.50841   -1.000
 3513.00    0.52675   0.50485   -1.000
 3514.00    0.52606   0.50773   -1.000
 3515.00    0.53122   0.51939   -1.000
 3516.00    0.54269   0.53620  321.479
 3517.00    0.54737   0.54797  314.262
 3518.00    0.55488   0.54726  320.904
 3519.00    0.55231   0.53611   -1.000
 3520.00    0.54392   0.52377   -1.000
 3521.00    0.54267   0.51545   -1.000
 3522.00    0.53393   0.50987   -1.000
 3523.00    0.52355   0.50345   49.453
 3524.00    0.51364   0.49584   40.690
 3525.00    0.50342   0.49293   40.795
 3526.00    0.50101   0.49893  133.453
 3527.00    0.50401   0.51110  321.479
 3528.00    0.51996   0.52547  321.479
 3529.00    0.53391   0.53789  321.479
 3530.00    0.53934   0.54589  321.479
 3531.00    0.54902   0.54784  321.479
 3532.00    0.55044   0.54119  321.479
 3533.00    0.54583   0.52917   -1.000
 3534.00    0.54618   0.52120   -1.000
 3535.00    0.55071   0.52416   -1.000
 3536.00    0.54989   0.53745   -1.000
 3537.00    0.55246   0.55230  315.673
 3538.00    0.55650   0.56194  311.718
 3539.00    0.56444   0.56560  313.025
 3540.00    0.56679   0.56474  318.346
 3541.00    0.56536   0.56281  321.479
 3542.00    0.56400   0.56378  320.719
 3543.00    0.56794   0.56809  316.404
 3544.00    0.57449   0.57109  314.642
 3545.00    0.57647   0.57001  319.090
 3546.00    0.57529   0.56662  321.479
 3547.00    0.57300   0.56349  321.479
 3548.00    0.56996   0.56274  321.479
 3549.00    0.56407   0.56522  321.479
 3550.00    0.56267   0.56964   -1.000
 3551.00    0.56103   0.57150   -1.000
 3552.00    0.56389   0.56666  321.479
 3553.00    0.55842   0.55779  321.479
 3554.00    0.55232   0.55226  321.479
 3555.00    0.54843   0.55385  321.479
 3556.00    0.54778   0.56083   -1.000
 3557.00    0.55238   0.56898   -1.000
 3558.00    0.55386   0.57357   -1.000
 3559.00    0.55034   0.57411   -1.000
 3560.00    0.55102   0.57351   -1.000
 3561.00    0.55167   0.57258   -1.000
 3562.00    0.55638   0.56832   -1.000
 3563.00    0.55299   0.55808  321.479
 3564.00    0.54446   0.54330   49.399
 3565.00    0.52398   0.52946   41.270
 3566.00    0.51348   0.52205   41.234
 3567.00    0.51044   0.52098   40.950
 3568.00    0.50500   0.52120   42.013
 3569.00    0.50282   0.51740   42.929
 3570.00    0.49880   0.50942   42.003
 3571.00    0.49479   0.50292   40.225
 3572.00    0.50116   0.50176  135.642
 3573.00    0.50463   0.50481  321.479
 3574.00    0.50841   0.51061  321.479
 3575.00    0.51257   0.51799  321.479
 3576.00    0.51761   0.52493  321.479
 3577.00    0.52076   0.53001   -1.000
 3578.00    0.52139   0.53088   50.905
 3579.00    0.52088   0.52544   43.902
 3580.00    0.50693   0.51600   46.547
 3581.00    0.49561   0.50706   47.299
 3582.00    0.48468   0.50253   47.511
 3583.00    0.48091   0.50129   48.510
 3584.00    0.48216   0.49629   50.041
 3585.00    0.47284   0.48479   50.940
 3586.00    0.46624   0.47347   48.990
 3587.00    0.46673   0.47153   46.393
 3588.00    0.47439   0.48214   44.106
 3589.00    0.49150   0.50047   40.487
 3590.00    0.51181   0.51756  135.231
 3591.00    0.52597   0.52762  321.479
 3592.00    0.53378   0.53121  321.479
 3593.00    0.54086   0.53346  321.479
 3594.00    0.54029   0.53898  321.479
 3595.00    0.53759   0.54776   -1.000
 3596.00    0.54549   0.55605   -1.000
 3597.00    0.55802   0.56135  303.404
 3598.00    0.56522   0.56383  297.854
 3599.00    0.56848   0.56371  299.794
 3600.00    0.56588   0.55884  312.130
 3601.00    0.55917   0.54918  321.479
 3602.00    0.54930   0.53997  321.479
 3603.00    0.54115   0.53605  321.479
 3604.00    0.53289   0.53802  321.479
 3605.00    0.53071   0.54047   -1.000
 3606.00    0.52965   0.53901   -1.000
 3607.00    0.52919   0.53455  321.479
 3608.00    0.52708   0.53017  321.479
 3609.00    0.52283   0.52811  321.479
 3610.00    0.51975   0.52865  321.479
 3611.00    0.52361   0.53201   -1.000
 3612.00    0.53440   0.53749  321.479
 3613.00    0.53918   0.54436  321.479
 3614.00    0.54508   0.55389   -1.000
 3615.00    0.55161   0.56267   -1.000
 3616.00    0.55357   0.56314   -1.000
 3617.00    0.55292   0.55415  321.479
 3618.00    0.53993   0.54163   48.093
 3619.00    0.52781   0.53554  137.399
 3620.00    0.53394   0.54074  321.479
 3621.00    0.54935   0.55196  321.479
 3622.00    0.56155   0.56236  312.042
 3623.00    0.57032   0.57001  307.550
 3624.00    0.57387   0.57839  297.524
 3625.00    0.57616   0.59112   -1.000
 3626.00    0.58735   0.60573   -1.000
 3627.00    0.59446   0.61317   -1.000
 3628.00    0.59254   0.60504   -1.000
 3629.00    0.58150   0.58289  321.479
 3630.00    0.55411   0.55784  321.479
 3631.00    0.53684   0.54382  321.479
 3632.00    0.53295   0.54583   -1.000
 3633.00    0.54654   0.55704   -1.000
 3634.00    0.55462   0.56607   -1.000
 3635.00    0.56179   0.56896   -1.000
 3636.00    0.56707   0.57165  312.809
 3637.00    0.57214   0.57900   -1.000
 3638.00    0.57919   0.58804   -1.000
 3639.00    0.59210   0.59348  285.905
 3640.00    0.59503   0.59291  291.754
 3641.00    0.58574   0.58645  301.190
 3642.00    0.57424   0.57672  316.460
 3643.00    0.56442   0.56763  321.479
 3644.00    0.55960   0.56124  321.479
 3645.00    0.55729   0.55731  321.479
 3646.00    0.55737   0.55497  321.479
 3647.00    0.55362   0.55412  321.479
 3648.00    0.55009   0.55436  321.479
 3649.00    0.55594   0.55563  321.479
 3650.00    0.56140   0.55904  310.113
 3651.00    0.56698   0.56605  296.719
 3652.00    0.57446   0.57638  288.519
 3653.00    0.58289   0.58753  283.972
 3654.00    0.59287   0.59829  282.494
 3655.00    0.59936   0.60774   -1.000
 3656.00    0.60192   0.61420   -1.000
 3657.00    0.60502   0.61665   -1.000
 3658.00    0.60383   0.61581   -1.000
 3659.00    0.60371   0.61303   -1.000
 3660.00    0.60334   0.60840  274.203
 3661.00    0.60562   0.60210  277.176
 3662.00    0.59612   0.59631  281.633
 3663.00    0.59677   0.59405  284.266
 3664.00    0.59826   0.59603  281.761
 3665.00    0.59735   0.59936  281.290
 3666.00    0.59665   0.60075  286.251
 3667.00    0.58988   0.59866   -1.000
 3668.00    0.58455   0.59392   -1.000
 3669.00    0.58728   0.58993  296.143
 3670.00    0.57900   0.58993   -1.000
 3671.00    0.58706   0.59468   -1.000
 3672.00    0.59594   0.60125  278.069
 3673.00    0.59291   0.60478   -1.000
 3674.00    0.59434   0.60296   -1.000
 3675.00    0.59568   0.59605  285.645
 3676.00    0.59313   0.58526  294.584
 3677.00    0.58259   0.57403  303.564
 3678.00    0.57626   0.56745  311.561
 3679.00    0.56888   0.56816  312.204
 3680.00    0.56260   0.57322   -1.000
 3681.00    0.57276   0.57815  296.472
 3682.00    0.57689   0.58051  292.726
 3683.00    0.57619   0.57985  298.194
 3684.00    0.57595   0.57642  309.660
 3685.00    0.57071   0.57105  321.479
 3686.00    0.55850   0.56848   -1.000
 3687.00    0.55610   0.57454   -1.000
 3688.00    0.56873   0.58920   -1.000
 3689.00    0.58350   0.60423   -1.000
 3690.00    0.59725   0.61161   -1.000
 3691.00    0.60400   0.61243   -1.000
 3692.00    0.60823   0.61245  279.891
 3693.00    0.60996   0.61451  284.421
 3694.00    0.61164   0.61692  284.010
 3695.00    0.61498   0.61574  281.667
 3696.00    0.60463   0.61080  278.366
 3697.00    0.60333   0.61025  270.126
 3698.00    0.61953   0.62138  262.914
 3699.00    0.63359   0.64025  258.889
 3700.00    0.64280   0.65243   -1.000
 3701.00    0.64142   0.64360  273.389
 3702.00    0.62485   0.61402  297.140
 3703.00    0.59896   0.57818   -1.000
 3704.00    0.56952   0.55356   -1.000
 3705.00    0.56030   0.54869   -1.000
 3706.00    0.56883   0.56015   -1.000
 3707.00    0.58350   0.57727  321.479
 3708.00    0.59862   0.58787   -1.000
 3709.00    0.59474   0.58469  309.601
 3710.00    0.58887   0.57234   -1.000
 3711.00    0.58797   0.56364   -1.000
 3712.00    0.59118   0.57014   -1.000
 3713.00    0.60787   0.59435  257.861
 3714.00    0.63392   0.62724  256.165
 3715.00    0.66257   0.65558  261.731
 3716.00    0.67045   0.67068  272.778
 3717.00    0.66500   0.66788  296.524
 3718.00    0.63948   0.64281  321.479
 3719.00    0.59661   0.59673  321.479
 3720.00    0.54995   0.54545   47.875
 3721.00    0.52248   0.51390  150.361
 3722.00    0.52294   0.51590   -1.000
 3723.00    0.55436   0.54947  303.165
 3724.00    0.60078   0.59796  287.612
 3725.00    0.64316   0.63789  287.571
 3726.00    0.66179   0.65906  295.920
 3727.00    0.66799   0.66832  299.595
 3728.00    0.67179   0.67374  295.764
 3729.00    0.66702   0.67482  297.521
 3730.00    0.65777   0.66247  309.458
 3731.00    0.63298   0.62672  321.479
 3732.00    0.59410   0.57179   46.773
 3733.00    0.54497   0.51729   43.318
 3734.00    0.50342   0.48289   45.577
 3735.00    0.49657   0.48141   43.931
 3736.00    0.51806   0.51254   40.080
 3737.00    0.55924   0.56278  146.591
 3738.00    0.60960   0.61696  318.845
 3739.00    0.65183   0.66367   -1.000
 3740.00    0.67959   0.69176   -1.000
 3741.00    0.69403   0.69783  303.583
 3742.00    0.69093   0.68766  321.479
 3743.00    0.67874   0.67035   -1.000
 3744.00    0.65264   0.64985  321.479
 3745.00    0.63043   0.62589  321.479
 3746.00    0.60609   0.59611   47.357
 3747.00    0.57488   0.55989   42.142
 3748.00    0.53613   0.52225   42.980
 3749.00    0.51040   0.49572  162.813
 3750.00    0.51000   0.49695   -1.000
 3751.00    0.54435   0.53099   -1.000
 3752.00    0.59275   0.58500  286.074
 3753.00    0.64161   0.63965  270.036
 3754.00    0.68165   0.68077  263.381
 3755.00    0.70468   0.70212  275.119
 3756.00    0.70668   0.70230  308.237
 3757.00    0.69417   0.68662  321.479
 3758.00    0.67412   0.66867  321.479
 3759.00    0.66529   0.65968  321.479
 3760.00    0.67380   0.66274  313.815
 3761.00    0.69390   0.67415   -1.000
 3762.00    0.70505   0.68538   -1.000
 3763.00    0.70778   0.68965   -1.000
 3764.00    0.69714   0.68505   -1.000
 3765.00    0.69225   0.67224   -1.000
 3766.00    0.67672   0.65119   -1.000
 3767.00    0.65277   0.62026   -1.000
 3768.00    0.62474   0.58173   -1.000
 3769.00    0.59638   0.54608   -1.000
 3770.00    0.57617   0.52900   -1.000
 3771.00    0.57922   0.54149   -1.000
 3772.00    0.60654   0.57878   -1.000
 3773.00    0.64292   0.62313   -1.000
 3774.00    0.67601   0.65820   -1.000
 3775.00    0.69869   0.68144   -1.000
 3776.00    0.71554   0.70034   -1.000
 3777.00    0.73466   0.72235   -1.000
 3778.00    0.75328   0.74731  260.219
 3779.00    0.77480   0.77048  253.739
 3780.00    0.79042   0.78745  251.422
 3781.00    0.79723   0.79509  249.882
 3782.00    0.80517   0.79423  249.783
 3783.00    0.80608   0.78855   -1.000
 3784.00    0.79866   0.78007   -1.000
 3785.00    0.78211   0.76778   -1.000
 3786.00    0.76516   0.75204   -1.000
 3787.00    0.75061   0.73683   -1.000
 3788.00    0.73966   0.72750   -1.000
 3789.00    0.73784   0.72480   -1.000
 3790.00    0.73869   0.72389   -1.000
 3791.00    0.72940   0.71843   -1.000
 3792.00    0.71914   0.70340   -1.000
 3793.00    0.69214   0.67609   -1.000
 3794.00    0.65305   0.63713   -1.000
 3795.00    0.62262   0.59105   -1.000
 3796.00    0.59065   0.54537   -1.000
 3797.00    0.54680   0.51168   -1.000
 3798.00    0.53405   0.50576   -1.000
 3799.00    0.55488   0.53682   -1.000
 3800.00    0.60192   0.59478  302.212
 3801.00    0.65500   0.65633  287.458
 3802.00    0.69598   0.70438  280.251
 3803.00    0.72812   0.73373  278.027
 3804.00    0.74753   0.74823  281.501
 3805.00    0.75647   0.75341  291.383
 3806.00    0.75755   0.75696  297.887
 3807.00    0.76480   0.76591  291.920
 3808.00    0.78020   0.78159  280.967
 3809.00    0.79898   0.79904  276.735
 3810.00    0.80268   0.80890  281.003
 3811.00    0.80722   0.80252  294.911
 3812.00    0.80069   0.78097   -1.000
 3813.00    0.77951   0.75619   -1.000
 3814.00    0.76373   0.74125   -1.000
 3815.00    0.76048   0.74228   -1.000
 3816.00    0.76625   0.75441   -1.000
 3817.00    0.77808   0.76563   -1.000
 3818.00    0.78160   0.76457   -1.000
 3819.00    0.76351   0.75141   -1.000
 3820.00    0.74392   0.73814  321.479
 3821.00    0.74479   0.73522   -1.000
 3822.00    0.74988   0.73907   -1.000
 3823.00    0.74685   0.73462   -1.000
 3824.00    0.73081   0.71729   48.076
 3825.00    0.70584   0.69739   42.101
 3826.00    0.69461   0.68287   41.908
 3827.00    0.69345   0.67302   41.268
 3828.00    0.68863   0.66387   40.588
 3829.00    0.67859   0.65221   40.936
 3830.00    0.66745   0.63400   42.628
 3831.00    0.64051   0.60436   45.860
 3832.00    0.60346   0.56182   47.588
 3833.00    0.55937   0.51374   46.955
 3834.00    0.52690   0.47666   45.164
 3835.00    0.51323   0.46371   44.062
 3836.00    0.52092   0.47669   44.751
 3837.00    0.54755   0.50882   45.830
 3838.00    0.57478   0.54900   45.264
 3839.00    0.60627   0.58888   42.885
 3840.00    0.63468   0.62738  172.573
 3841.00    0.66774   0.66587  321.479
 3842.00    0.70898   0.70322  321.479
 3843.00    0.74754   0.73615   -1.000
 3844.00    0.76389   0.76051  320.695
 3845.00    0.77135   0.77699  320.550
 3846.00    0.78802   0.78896  321.058
 3847.00    0.79860   0.79669  321.479
 3848.00    0.79465   0.79812  321.479
 3849.00    0.79036   0.79528  321.479
 3850.00    0.79135   0.79641  321.479
 3851.00    0.79384   0.80664   -1.000
 3852.00    0.80216   0.82081   -1.000
 3853.00    0.81617   0.82928   -1.000
 3854.00    0.81392   0.82697   -1.000
 3855.00    0.80594   0.81666   -1.000
 3856.00    0.79752   0.80480  321.479
 3857.00    0.78687   0.79508   45.179
 3858.00    0.77224   0.78850   41.280
 3859.00    0.76392   0.78810   40.812
 3860.00    0.76711   0.79630   -1.000
 3861.00    0.78724   0.80998   -1.000
 3862.00    0.82233   0.82178  314.620
 3863.00    0.84186   0.82730   -1.000
 3864.00    0.84221   0.82749   -1.000
 3865.00    0.83912   0.82654   -1.000
 3866.00    0.83614   0.82866  321.479
 3867.00    0.83310   0.83400  321.479
 3868.00    0.82959   0.83765  321.479
 3869.00    0.81477   0.83336   -1.000
 3870.00    0.79205   0.81943   45.658
 3871.00    0.76850   0.79985   -1.000
 3872.00    0.75587   0.78296   -1.000
 3873.00    0.76020   0.77721   -1.000
 3874.00    0.77419   0.78216  306.577
 3875.00    0.79472   0.78721  313.592
 3876.00    0.79382   0.78134   -1.000
 3877.00    0.76846   0.76560  321.479
 3878.00    0.74050   0.75143  321.479
 3879.00    0.72925   0.74732   -1.000
 3880.00    0.72937   0.74900   -1.000
 3881.00    0.72068   0.74531   -1.000
 3882.00    0.70637   0.73259   -1.000
 3883.00    0.70264   0.71294  316.555
 3884.00    0.69637   0.68421   -1.000
 3885.00    0.66865   0.64264   -1.000
 3886.00    0.63313   0.59067   -1.000
 3887.00    0.59700   0.54084   -1.000
 3888.00    0.56562   0.51140   -1.000
 3889.00    0.55739   0.51489   -1.000
 3890.00    0.58521   0.55078   -1.000
 3891.00    0.63069   0.60377   -1.000
 3892.00    0.67809   0.65267   -1.000
 3893.00    0.71394   0.68538   -1.000
 3894.00    0.72704   0.70515   -1.000
 3895.00    0.73809   0.72065   -1.000
 3896.00    0.75355   0.73685   -1.000
 3897.00    0.77302   0.75207   -1.000
 3898.00    0.78705   0.76168   -1.000
 3899.00    0.78949   0.76698   -1.000
 3900.00    0.79636   0.77449   -1.000
 3901.00    0.80242   0.78465   -1.000
 3902.00    0.81379   0.79195   -1.000
 3903.00    0.81496   0.79314   -1.000
 3904.00    0.81776   0.79041   -1.000
 3905.00    0.81429   0.79016   -1.000
 3906.00    0.81344   0.79899   -1.000
 3907.00    0.83536   0.81915   -1.000
 3908.00    0.86102   0.84440   -1.000
 3909.00    0.87068   0.86486  242.813
 3910.00    0.88449   0.87492  240.516
 3911.00    0.88974   0.87510   -1.000
 3912.00    0.89029   0.86792   -1.000
 3913.00    0.88531   0.85664   -1.000
 3914.00    0.87799   0.84725   -1.000
 3915.00    0.87150   0.84432   -1.000
 3916.00    0.86960   0.84491   -1.000
 3917.00    0.86809   0.84333   -1.000
 3918.00    0.85879   0.83775   -1.000
 3919.00    0.84515   0.83098   -1.000
 3920.00    0.83590   0.82651   -1.000
 3921.00    0.83028   0.82510  295.660
 3922.00    0.83087   0.82617  290.448
 3923.00    0.84009   0.82770   -1.000
 3924.00    0.84198   0.82586   -1.000
 3925.00    0.83406   0.81507   -1.000
 3926.00    0.81061   0.79209   -1.000
 3927.00    0.77709   0.75815   49.667
 3928.00    0.73350   0.71475   50.198
 3929.00    0.67822   0.66206   58.744
 3930.00    0.61409   0.59577   69.426
 3931.00    0.52475   0.51588   81.346
 3932.00    0.43265   0.43923   89.679
 3933.00    0.38408   0.39493   87.295
 3934.00    0.39735   0.40494   76.550
 3935.00    0.46414   0.46470   63.591
 3936.00    0.55534   0.54750   52.245
 3937.00    0.63658   0.62888   43.808
 3938.00    0.70123   0.69734  186.827
 3939.00    0.75269   0.74786  321.479
 3940.00    0.78450   0.78106  321.479
 3941.00    0.80347   0.79934  321.479
 3942.00    0.80709   0.80653  321.479
 3943.00    0.80306   0.80954  320.589
 3944.00    0.81141   0.81461  292.446
 3945.00    0.83330   0.82372  274.418
 3946.00    0.85397   0.83358   -1.000
 3947.00    0.85891   0.83830   -1.000
 3948.00    0.85738   0.83639   -1.000
 3949.00    0.85921   0.83164   -1.000
 3950.00    0.86128   0.82776   -1.000
 3951.00    0.85961   0.82622   -1.000
 3952.00    0.85572   0.82877   -1.000
 3953.00    0.86596   0.83436   -1.000
 3954.00    0.87349   0.83674   -1.000
 3955.00    0.86469   0.83163   -1.000
 3956.00    0.85016   0.82127   -1.000
 3957.00    0.84018   0.81246   -1.000
 3958.00    0.83616   0.80743   -1.000
 3959.00    0.82933   0.79818   -1.000
 3960.00    0.80297   0.77773   -1.000
 3961.00    0.76225   0.74743   -1.000
 3962.00    0.72153   0.71225   -1.000
 3963.00    0.69178   0.67406   46.386
 3964.00    0.65058   0.62479   47.356
 3965.00    0.57840   0.55623   58.073
 3966.00    0.48220   0.47033   71.141
 3967.00    0.38456   0.38396   79.623
 3968.00    0.32012   0.32582   75.382
 3969.00    0.31450   0.31735   62.845
 3970.00    0.36530   0.35936   51.629
 3971.00    0.44533   0.43451   43.117
 3972.00    0.52778   0.51841  187.677
 3973.00    0.60034   0.59353  321.479
 3974.00    0.66891   0.65571   -1.000
 3975.00    0.72801   0.70548   -1.000
 3976.00    0.77351   0.74503   -1.000
 3977.00    0.80497   0.77664   -1.000
 3978.00    0.82852   0.80203   -1.000
 3979.00    0.85894   0.82023   -1.000
 3980.00    0.87155   0.82929   -1.000
 3981.00    0.86783   0.83238   -1.000
 3982.00    0.87256   0.83625   -1.000
 3983.00    0.87863   0.84583   -1.000
 3984.00    0.89986   0.86012   -1.000
 3985.00    0.91680   0.87361   -1.000
 3986.00    0.92440   0.88330   -1.000
 3987.00    0.92958   0.89113   -1.000
 3988.00    0.93352   0.89790   -1.000
 3989.00    0.94032   0.90284   -1.000
 3990.00    0.94776   0.90805   -1.000
 3991.00    0.95515   0.91557   -1.000
 3992.00    0.96206   0.92452   -1.000
 3993.00    0.96434   0.93052   -1.000
 3994.00    0.95415   0.92846   -1.000
 3995.00    0.94663   0.91748   -1.000
 3996.00    0.93903   0.90377   -1.000
 3997.00    0.92868   0.89682   -1.000
 3998.00    0.93052   0.90110   -1.000
 3999.00    0.94885   0.91263   -1.000
 4000.00    0.96160   0.92377   -1.000
 4001.00    0.98058   0.92979   -1.000
 4002.00    0.98335   0.92949   -1.000
 4003.00    0.98119   0.92329   -1.000
 4004.00    0.96084   0.91348   -1.000
 4005.00    0.94559   0.90728   -1.000
 4006.00    0.94640   0.91166   -1.000
 4007.00    0.96170   0.92546   -1.000
 4008.00    0.98052   0.94064   -1.000
 4009.00    0.99608   0.95023   -1.000
 4010.00    1.00000   0.95357   -1.000
 4011.00    0.99655   0.95302   -1.000
 4012.00    0.98761   0.95140   -1.000
 4013.00    0.98556   0.95192   -1.000
 4014.00    0.98616   0.95593   -1.000
 4015.00    0.99756   0.96202   -1.000
 4016.00    1.00336   0.96794   -1.000
 4017.00    1.00486   0.97311   -1.000
 4018.00    1.00370   0.97821   -1.000
 4019.00    1.00714   0.98231   -1.000
 4020.00    1.00372   0.98260   -1.000
 4021.00    1.00060   0.97747   -1.000
 4022.00    0.99526   0.96859   -1.000
 4023.00    0.99112   0.95932   -1.000
 4024.00    0.99228   0.95412   -1.000
 4025.00    0.99815   0.95727   -1.000
 4026.00    1.00984   0.96719   -1.000
 4027.00    1.01481   0.97504   -1.000
 4028.00    1.01095   0.97344   -1.000
 4029.00    0.99801   0.96211   -1.000
 4030.00    0.97768   0.94661   -1.000
 4031.00    0.96020   0.93499   -1.000
 4032.00    0.94941   0.93174   -1.000
 4033.00    0.95414   0.93672  203.476
 4034.00    0.96571   0.94872  193.624
 4035.00    0.98819   0.96605   -1.000
 4036.00    1.00653   0.98552  177.357
 4037.00    1.02469   1.00120   -1.000
 4038.00    1.02637   1.00766  179.667
 4039.00    1.02648   1.00536   -1.000
 4040.00    1.01983   0.99915   -1.000
 4041.00    1.01213   0.99251   -1.000
 4042.00    1.00832   0.98312   -1.000
 4043.00    0.99511   0.96642   -1.000
 4044.00    0.96720   0.94459   -1.000
 4045.00    0.94131   0.92876  223.681
 4046.00    0.94257   0.93094  202.669
 4047.00    0.97440   0.95035   -1.000
 4048.00    1.00481   0.97345   -1.000
 4049.00    1.01652   0.98879   -1.000
 4050.00    1.01897   0.99449   -1.000
 4051.00    1.01704   0.99308   -1.000
 4052.00    1.01452   0.98685   -1.000
 4053.00    1.01000   0.97954   -1.000
 4054.00    1.00332   0.97496   -1.000
 4055.00    0.99466   0.97401   -1.000
 4056.00    0.99142   0.97528  200.382
 4057.00    0.98881   0.97864  198.351
 4058.00    0.99450   0.98536  191.451
 4059.00    1.00237   0.99164  187.401
 4060.00    1.01649   0.98946   -1.000
 4061.00    0.99885   0.97581   -1.000
 4062.00    0.97343   0.95604   -1.000
 4063.00    0.95966   0.93890   -1.000
 4064.00    0.95790   0.93047   -1.000
 4065.00    0.96541   0.93210   -1.000
 4066.00    0.97319   0.93950   -1.000
 4067.00    0.98268   0.94643   -1.000
 4068.00    0.99789   0.94973   -1.000
 4069.00    1.00334   0.94718   -1.000
 4070.00    0.99570   0.93747   -1.000
 4071.00    0.97867   0.92628   -1.000
 4072.00    0.97069   0.92247   -1.000
 4073.00    0.97908   0.92655   -1.000
 4074.00    0.98216   0.92907   -1.000
 4075.00    0.96897   0.92062   -1.000
 4076.00    0.94484   0.90343   -1.000
 4077.00    0.92368   0.89011   -1.000
 4078.00    0.92885   0.89266   -1.000
 4079.00    0.94316   0.91118   -1.000
 4080.00    0.96873   0.93340   -1.000
 4081.00    0.99057   0.94701   -1.000
 4082.00    0.98645   0.94792   -1.000
 4083.00    0.97477   0.94017   -1.000
 4084.00    0.96584   0.93119   -1.000
 4085.00    0.95615   0.92756   -1.000
 4086.00    0.96215   0.93150   -1.000
 4087.00    0.97770   0.93999   -1.000
 4088.00    0.98713   0.94731   -1.000
 4089.00    0.98556   0.94898   -1.000
 4090.00    0.97400   0.94490   -1.000
 4091.00    0.96392   0.93725   -1.000
 4092.00    0.95474   0.92609   -1.000
 4093.00    0.94996   0.91099   -1.000
 4094.00    0.93480   0.89240   -1.000
 4095.00    0.91027   0.86987   -1.000
 4096.00    0.88777   0.84290   -1.000
 4097.00    0.86355   0.80962   -1.000
 4098.00    0.83302   0.76680   -1.000
 4099.00    0.78929   0.71247   -1.000
 4100.00    0.72552   0.65538   -1.000
 4101.00    0.66610   0.61819   -1.000
 4102.00    0.65492   0.62272   -1.000
 4103.00    0.70285   0.66893   -1.000
 4104.00    0.77347   0.73387   -1.000
 4105.00    0.82574   0.79214   -1.000
 4106.00    0.86159   0.83169   -1.000
 4107.00    0.88346   0.85504   -1.000
 4108.00    0.88928   0.86883   -1.000
 4109.00    0.89598   0.87882   -1.000
 4110.00    0.90566   0.88915  198.560
 4111.00    0.91834   0.90194  194.151
 4112.00    0.93333   0.91710  190.745
 4113.00    0.94946   0.93306  187.793
 4114.00    0.96186   0.94776  185.895
 4115.00    0.97087   0.95748  186.656
 4116.00    0.97671   0.95903   -1.000
 4117.00    0.97066   0.95329   -1.000
 4118.00    0.96309   0.94500   -1.000
 4119.00    0.95796   0.94010   -1.000
 4120.00    0.95676   0.94102  195.091
 4121.00    0.96213   0.94514  195.168
 4122.00    0.97536   0.94988   -1.000
 4123.00    0.97937   0.95592   -1.000
 4124.00    0.98152   0.96345  189.023
 4125.00    0.98970   0.96881   -1.000
 4126.00    0.99519   0.96816   -1.000
 4127.00    0.98905   0.96268   -1.000
 4128.00    0.98154   0.95730   -1.000
 4129.00    0.97401   0.95404  200.707
 4130.00    0.97052   0.95032   -1.000
 4131.00    0.96760   0.94484   -1.000
 4132.00    0.95707   0.94225  214.353
 4133.00    0.95076   0.94839  207.666
 4134.00    0.96530   0.96236  197.292
 4135.00    0.98479   0.97863  190.664
 4136.00    0.99845   0.99328  187.427
 4137.00    1.01239   1.00541  184.497
 4138.00    1.02038   1.01487  183.651
 4139.00    1.02302   1.01885  187.194
 4140.00    1.02249   1.01328  196.789
 4141.00    1.00197   0.99772  213.209
 4142.00    0.96991   0.97788  224.930
 4143.00    0.94763   0.96432   -1.000
 4144.00    0.95395   0.96490  204.745
 4145.00    0.97687   0.97727  196.843
 4146.00    0.99557   0.99076  194.532
 4147.00    1.00437   0.99722  197.971
 4148.00    0.99663   0.99757  203.477
 4149.00    0.98957   0.99680  206.184
 4150.00    0.98968   0.99728  204.873
 4151.00    0.99191   0.99722  203.664
 4152.00    0.99418   0.99421  205.426
 4153.00    0.98989   0.98901  208.770
 4154.00    0.98037   0.98490  203.941
 4155.00    0.96844   0.98524   -1.000
 4156.00    1.04293   0.99069   -1.000
 4157.00    1.12130   0.99925   -1.000
 4158.00    0.98775   1.00759   -1.000
 4159.00    0.90568   1.01258   -1.000
 4160.00    0.98557   1.01387   -1.000
 4161.00    1.03002   1.01383  188.248
 4162.00    1.01809   1.01558  189.235
 4163.00    1.02034   1.01994  192.294
 4164.00    1.02272   1.02489  195.186
 4165.00    1.01917   1.02662  199.541
 4166.00    1.01563   1.02371  202.677
 4167.00    1.00807   1.01939  201.342
 4168.00    1.01022   1.01568  197.891
 4169.00    1.01654   1.00968  199.711
 4170.00    1.00656   0.99585  211.263
 4171.00    0.98287   0.97476  224.223
 4172.00    0.96125   0.95650  225.473
 4173.00    0.94567   0.95114  217.660
 4174.00    0.94653   0.96026   -1.000
 4175.00    0.96595   0.97430  209.254
 4176.00    0.97355   0.98160   -1.000
 4177.00    0.97090   0.98151   -1.000
 4178.00    0.97284   0.98192   -1.000
 4179.00    0.98379   0.98841  204.382
 4180.00    0.99406   0.99687  204.464
 4181.00    0.99708   1.00059  202.362
 4182.00    0.99383   1.00139  198.342
 4183.00    0.99298   1.00355  194.804
 4184.00    0.99487   1.00591  194.944
 4185.00    0.99591   1.00470  201.346
 4186.00    0.98765   0.99900  207.197
 4187.00    0.97690   0.99376   -1.000
 4188.00    0.97480   0.99381   -1.000
 4189.00    0.98503   0.99743   -1.000
 4190.00    0.99264   1.00058  197.092
 4191.00    0.99434   1.00288  192.850
 4192.00    1.00331   1.00653  190.228
 4193.00    1.01230   1.01074  195.515
 4194.00    1.00618   1.00990  205.748
 4195.00    0.99158   1.00030  212.728
 4196.00    0.97434   0.98503   -1.000
 4197.00    0.96625   0.96970  217.160
 4198.00    0.95810   0.95899  214.859
 4199.00    0.95547   0.95557  211.420
 4200.00    0.96283   0.95756  210.757
 4201.00    0.96595   0.96073  209.426
 4202.00    0.97053   0.96486  206.167
 4203.00    0.96896   0.97203  204.636
 4204.00    0.96760   0.98110   -1.000
 4205.00    0.97624   0.98987   -1.000
 4206.00    0.98744   0.99792  191.857
 4207.00    0.99708   1.00425  190.826
 4208.00    0.99948   1.00732  191.583
 4209.00    1.00281   1.00845  191.214
 4210.00    1.00317   1.01058  189.880
 4211.00    0.99827   1.01467   -1.000
 4212.00    1.00020   1.01679   -1.000
 4213.00    1.00551   1.01076  206.115
 4214.00    0.98555   0.99732   -1.000
 4215.00    0.96128   0.98492   -1.000
 4216.00    0.96143   0.98267   -1.000
 4217.00    0.98010   0.99225  183.452
 4218.00    0.99568   1.00615  178.273
 4219.00    1.01154   1.01708  176.277
 4220.00    1.02083   1.02251  177.789
 4221.00    1.01226   1.02088  185.011
 4222.00    0.99674   1.00955   -1.000
 4223.00    0.98439   0.98622  217.471
 4224.00    0.95573   0.95446  246.663
 4225.00    0.91782   0.92530  267.227
 4226.00    0.88615   0.91244   -1.000
 4227.00    0.88821   0.92540   -1.000
 4228.00    0.93052   0.95993   -1.000
 4229.00    0.98393   0.99712   -1.000
 4230.00    1.00416   1.01717   -1.000
 4231.00    1.00198   1.01647   -1.000
 4232.00    0.98816   1.00421   -1.000
 4233.00    0.97926   0.99126   -1.000
 4234.00    0.96852   0.98514   -1.000
 4235.00    0.97656   0.98655  202.368
 4236.00    0.96719   0.99107   -1.000
 4237.00    0.96164   0.99676   -1.000
 4238.00    0.97037   1.00400   -1.000
 4239.00    0.98073   1.01274   -1.000
 4240.00    0.99077   1.02233   -1.000
 4241.00    0.99894   1.03057   -1.000
 4242.00    1.00234   1.03541   -1.000
 4243.00    1.00149   1.03590   -1.000
 4244.00    1.00664   1.03129   -1.000
 4245.00    1.00011   1.02073   -1.000
 4246.00    0.98427   1.00595   -1.000
 4247.00    0.96788   0.99287   -1.000
 4248.00    0.95137   0.98558   -1.000
 4249.00    0.94846   0.98365   -1.000
 4250.00    0.95303   0.98673   -1.000
 4251.00    0.96690   0.99460   -1.000
 4252.00    0.97680   1.00288   -1.000
 4253.00    0.98353   1.00744   -1.000
 4254.00    0.97249   1.00951   -1.000
 4255.00    0.97531   1.01274   -1.000
 4256.00    0.98672   1.01658   -1.000
 4257.00    0.99601   1.01534   -1.000
 4258.00    0.98919   1.00668   -1.000
 4259.00    0.96894   0.99637   -1.000
 4260.00    0.95563   0.99302   -1.000
 4261.00    0.96497   1.00111   -1.000
 4262.00    0.99126   1.01778   -1.000
 4263.00    1.00698   1.03467   -1.000
 4264.00    1.01783   1.04423   -1.000
 4265.00    1.02228   1.04534   -1.000
 4266.00    1.01936   1.04102   -1.000
 4267.00    1.00565   1.03242   -1.000
 4268.00    0.99120   1.01909   -1.000
 4269.00    0.97839   1.00093   -1.000
 4270.00    0.95220   0.98061   -1.000
 4271.00    0.93304   0.96471   -1.000
 4272.00    0.92390   0.95903   -1.000
 4273.00    0.93174   0.96428   -1.000
 4274.00    0.93777   0.97714   -1.000
 4275.00    0.94520   0.99480   -1.000
 4276.00    0.97978   1.01450   -1.000
 4277.00    1.00149   1.03013   -1.000
 4278.00    1.00104   1.03571   -1.000
 4279.00    0.98597   1.03099   -1.000
 4280.00    0.97303   1.02106   -1.000
 4281.00    0.96645   1.01266   -1.000
 4282.00    0.97278   1.00896   -1.000
 4283.00    0.97957   1.00907   -1.000
 4284.00    0.97302   1.00939   -1.000
 4285.00    0.95803   1.00488   -1.000
 4286.00    0.95046   0.99277   -1.000
 4287.00    0.94118   0.97444   -1.000
 4288.00    0.92299   0.95441   -1.000
 4289.00    0.89733   0.93997   -1.000
 4290.00    0.89031   0.93857   -1.000
 4291.00    0.90865   0.94965   -1.000
 4292.00    0.93333   0.96247   -1.000
 4293.00    0.94847   0.96687   -1.000
 4294.00    0.94524   0.96428   -1.000
 4295.00    0.93471   0.96059   -1.000
 4296.00    0.92852   0.95421   -1.000
 4297.00    0.91102   0.94025   -1.000
 4298.00    0.87751   0.91843   -1.000
 4299.00    0.85176   0.89440   -1.000
 4300.00    0.83457   0.87716   -1.000
 4301.00    0.83793   0.87187   -1.000
 4302.00    0.84237   0.87744   -1.000
 4303.00    0.85099   0.88948   -1.000
 4304.00    0.86415   0.90089   -1.000
 4305.00    0.86986   0.90363   -1.000
 4306.00    0.86212   0.89670   -1.000
 4307.00    0.84224   0.88748   -1.000
 4308.00    0.82718   0.88515   -1.000
 4309.00    0.82519   0.89298   -1.000
 4310.00    0.83746   0.90612   -1.000
 4311.00    0.86162   0.91677   -1.000
 4312.00    0.87779   0.92171   -1.000
 4313.00    0.89225   0.92736   -1.000
 4314.00    0.91913   0.94304   -1.000
 4315.00    0.95325   0.97123   -1.000
 4316.00    0.99144   1.00356  165.536
 4317.00    1.01856   1.02663  165.566
 4318.00    1.02895   1.03461  168.197
 4319.00    1.02464   1.03065  172.040
 4320.00    1.01284   1.02113  177.915
 4321.00    0.99783   1.00946  186.743
 4322.00    0.97522   0.99422   -1.000
 4323.00    0.94285   0.97323   -1.000
 4324.00    0.90903   0.95118   -1.000
 4325.00    0.89385   0.94118   -1.000
 4326.00    0.90885   0.95109   -1.000
 4327.00    0.94201   0.97273   -1.000
 4328.00    0.96964   0.99071   -1.000
 4329.00    0.97660   0.99632   -1.000
 4330.00    0.97538   0.99330   -1.000
 4331.00    0.97094   0.98901   -1.000
 4332.00    0.96144   0.98439   -1.000
 4333.00    0.95384   0.97489   -1.000
 4334.00    0.94737   0.95556  170.749
 4335.00    0.92696   0.92246  181.932
 4336.00    0.89300   0.87279   -1.000
 4337.00    0.84192   0.80814   -1.000
 4338.00    0.77590   0.74032   -1.000
 4339.00    0.71019   0.68904   -1.000
 4340.00    0.67705   0.67269  223.829
 4341.00    0.69556   0.70028  201.548
 4342.00    0.76164   0.76086  189.272
 4343.00    0.83175   0.82815  183.402
 4344.00    0.87694   0.88240  178.424
 4345.00    0.90637   0.92225   -1.000
 4346.00    0.92626   0.95283   -1.000
 4347.00    0.94426   0.97532   -1.000
 4348.00    0.95833   0.98603   -1.000
 4349.00    0.96861   0.98211  181.031
 4350.00    0.95882   0.96822  194.809
 4351.00    0.93281   0.95667   -1.000
 4352.00    0.92469   0.95856   -1.000
 4353.00    0.94129   0.97583   -1.000
 4354.00    0.97047   1.00003   -1.000
 4355.00    0.99150   1.02031   -1.000
 4356.00    1.00172   1.03121   -1.000
 4357.00    1.00653   1.03387   -1.000
 4358.00    1.00587   1.03305   -1.000
 4359.00    0.99892   1.03435   -1.000
 4360.00    1.00421   1.04040   -1.000
 4361.00    1.01990   1.04942   -1.000
 4362.00    1.02996   1.05814   -1.000
 4363.00    1.03409   1.06402   -1.000
 4364.00    1.03892   1.06554   -1.000
 4365.00    1.03884   1.06164   -1.000
 4366.00    1.02538   1.05230   -1.000
 4367.00    1.01061   1.04091   -1.000
 4368.00    1.00773   1.03276   -1.000
 4369.00    1.01104   1.02940   -1.000
 4370.00    1.01219   1.02828   -1.000
 4371.00    1.01597   1.02491  176.119
 4372.00    1.01732   1.01547  183.538
 4373.00    0.99993   1.00067  190.852
 4374.00    0.98024   0.98831  190.753
 4375.00    0.97407   0.98908  182.617
 4376.00    0.99276   1.00538  173.369
 4377.00    1.01185   1.02769   -1.000
 4378.00    1.02745   1.04306   -1.000
 4379.00    1.03508   1.04557  174.763
 4380.00    1.03329   1.03496  183.234
 4381.00    1.01966   1.01150  204.077
 4382.00    0.98048   0.97994  227.323
 4383.00    0.94117   0.95323   -1.000
 4384.00    0.92748   0.94427   -1.000
 4385.00    0.94768   0.95612  187.576
 4386.00    0.98088   0.97930  181.836
 4387.00    1.00294   1.00038  182.146
 4388.00    1.01131   1.01291  184.208
 4389.00    1.00476   1.01760  184.743
 4390.00    1.00748   1.01875  181.006
 4391.00    1.01664   1.01970  176.898
 4392.00    1.02070   1.01835  178.295
 4393.00    1.01756   1.01115  182.390
 4394.00    1.00545   1.00237  181.532
 4395.00    1.00680   1.00192  172.905
 4396.00    1.01727   1.01126  167.993
 4397.00    1.03402   1.02029  170.634
 4398.00    1.03602   1.02048  177.146
 4399.00    1.01812   1.01420  182.365
 4400.00    1.00764   1.01047  179.936
 4401.00    1.01557   1.01296  176.633
 4402.00    1.02609   1.01646  183.262
 4403.00    1.02476   1.01559  194.250
 4404.00    1.00475   1.01196  195.443
 4405.00    0.99957   1.01116  188.543
 4406.00    1.01278   1.01485  185.956
 4407.00    1.01672   1.02006  184.338
 4408.00    1.01303   1.02586  177.033
 4409.00    1.02387   1.03500  169.402
 4410.00    1.04374   1.04707  163.716
 4411.00    1.05879   1.05598  161.934
 4412.00    1.06911   1.05520  166.607
 4413.00    1.05815   1.04263  176.514
 4414.00    1.03944   1.02244  182.718
 4415.00    1.01730   1.00441  181.357
 4416.00    1.00755   0.99852  174.772
 4417.00    1.01657   1.00826  167.450
 4418.00    1.03065   1.02875  162.824
 4419.00    1.04886   1.04916  164.023
 4420.00    1.05790   1.06033  168.546
 4421.00    1.04722   1.06109   -1.000
 4422.00    1.03829   1.05805   -1.000
 4423.00    1.04407   1.05635  169.549
 4424.00    1.04301   1.05518  170.262
 4425.00    1.03490   1.05291   -1.000
 4426.00    1.02276   1.05113   -1.000
 4427.00    1.02436   1.05252   -1.000
 4428.00    1.03389   1.05700   -1.000
 4429.00    1.03386   1.06178   -1.000
 4430.00    1.03543   1.06469   -1.000
 4431.00    1.04206   1.06498   -1.000
 4432.00    1.05102   1.06150  173.980
 4433.00    1.04401   1.05345  182.690
 4434.00    1.02033   1.04438   -1.000
 4435.00    1.00631   1.04265   -1.000
 4436.00    1.02483   1.05392   -1.000
 4437.00    1.05633   1.07336  158.686
 4438.00    1.07755   1.08874  158.539
 4439.00    1.08094   1.09012  163.870
 4440.00    1.07579   1.07591  171.923
 4441.00    1.05196   1.05326  179.146
 4442.00    1.01862   1.03374   -1.000
 4443.00    1.00912   1.02840   -1.000
 4444.00    1.02191   1.03996   -1.000
 4445.00    1.04630   1.06021  162.001
 4446.00    1.06254   1.07680  162.228
 4447.00    1.06302   1.08429   -1.000
 4448.00    1.06808   1.08502   -1.000
 4449.00    1.06945   1.08291  166.052
 4450.00    1.06009   1.08115   -1.000
 4451.00    1.06276   1.08058   -1.000
 4452.00    1.06593   1.07802  172.321
 4453.00    1.05516   1.06953   -1.000
 4454.00    1.03500   1.05771   -1.000
 4455.00    1.01975   1.05110   -1.000
 4456.00    1.03218   1.05385   -1.000
 4457.00    1.04652   1.06115   -1.000
 4458.00    1.04832   1.06587   -1.000
 4459.00    1.04514   1.06616   -1.000
 4460.00    1.03808   1.06474   -1.000
 4461.00    1.03698   1.06529   -1.000
 4462.00    1.04479   1.06920   -1.000
 4463.00    1.05889   1.07431   -1.000
 4464.00    1.06652   1.07747  166.959
 4465.00    1.06290   1.07620   -1.000
 4466.00    1.05633   1.06916  169.101
 4467.00    1.04812   1.05827  172.461
 4468.00    1.03654   1.04978   -1.000
 4469.00    1.03782   1.05023  170.754
 4470.00    1.04993   1.06120  165.201
 4471.00    1.06199   1.07817   -1.000
 4472.00    1.07856   1.09446   -1.000
 4473.00    1.09912   1.10582  154.035
 4474.00    1.10193   1.11128  154.411
 4475.00    1.10076   1.11292  152.954
 4476.00    1.09865   1.11332  152.090
 4477.00    1.10759   1.11188  153.598
 4478.00    1.10757   1.10402  159.579
 4479.00    1.09113   1.08765  166.936
 4480.00    1.07362   1.06953  171.483
 4481.00    1.05935   1.06096  169.186
 4482.00    1.05483   1.06833  161.723
 4483.00    1.07018   1.08767   -1.000
 4484.00    1.08983   1.10830   -1.000
 4485.00    1.10224   1.12106   -1.000
 4486.00    1.10954   1.12204  156.598
 4487.00    1.10263   1.11276  162.799
 4488.00    1.09266   1.09988  166.392
 4489.00    1.07928   1.09224  164.257
 4490.00    1.07023   1.09386   -1.000
 4491.00    1.07999   1.10105   -1.000
 4492.00    1.09453   1.10588  159.923
 4493.00    1.09038   1.10461   -1.000
 4494.00    1.08036   1.10085   -1.000
 4495.00    1.07250   1.09960   -1.000
 4496.00    1.07326   1.10209   -1.000
 4497.00    1.08542   1.10584   -1.000
 4498.00    1.10257   1.10654  154.467
 4499.00    1.10123   1.10139  156.512
 4500.00    1.08940   1.09403  157.291
 4501.00    1.08140   1.09330  152.919
 4502.00    1.08813   1.10335  147.566
 4503.00    1.11567   1.11906  145.119
 4504.00    1.13115   1.13097  146.323
 4505.00    1.13332   1.13392  149.466
 4506.00    1.13238   1.12940  150.823
 4507.00    1.12281   1.12297  150.861
 4508.00    1.11479   1.12045  149.621
 4509.00    1.11874   1.12321  148.586
 4510.00    1.12472   1.12739  150.003
 4511.00    1.12422   1.12852  153.097
 4512.00    1.11407   1.12584  155.811
 4513.00    1.11254   1.12084  156.665
 4514.00    1.10863   1.11543  155.778
 4515.00    1.10603   1.11166  155.712
 4516.00    1.10399   1.10975  157.756
 4517.00    1.10011   1.10762  158.607
 4518.00    1.10230   1.10411  155.677
 4519.00    1.10351   1.10106  152.574
 4520.00    1.10637   1.09984  153.271
 4521.00    1.10881   1.09831  157.130
 4522.00    1.09395   1.09476  160.277
 4523.00    1.08313   1.09130  161.526
 4524.00    1.08431   1.09014  164.342
 4525.00    1.08275   1.08911  169.551
 4526.00    1.07549   1.08452  174.313
 4527.00    1.06413   1.07613  176.217
 4528.00    1.06274   1.06820  174.716
 4529.00    1.06258   1.06564  171.524
 4530.00    1.06301   1.06827  168.383
 4531.00    1.07310   1.06974  167.708
 4532.00    1.07422   1.06390  172.811
 4533.00    1.05893   1.05333  178.763
 4534.00    1.03983   1.04854  175.864
 4535.00    1.04379   1.05717  165.342
 4536.00    1.07066   1.07703  155.572
 4537.00    1.10134   1.09938  151.714
 4538.00    1.11905   1.11535  153.551
 4539.00    1.12195   1.12078  157.412
 4540.00    1.11815   1.11822  156.979
 4541.00    1.11498   1.11392  155.775
 4542.00    1.11473   1.11212  155.332
 4543.00    1.10376   1.11211   -2.000
 4544.00    1.15043   1.11128   -2.000
 4545.00    0.77789   1.10920   -2.000
 4546.00   -0.02144   1.10533    0.000
 4547.00   -0.03811   1.09620    0.000
 4548.00    0.35244   1.08128   -1.000
 4549.00    0.78344   1.06893   -1.000
 4550.00    0.24629   1.06903   -1.000
 4551.00    1.07688   1.07897  162.856
 4552.00    1.08809   1.08525  165.504
 4553.00    1.07617   1.08096  166.942
 4554.00    1.07110   1.07325  164.156
 4555.00    1.07342   1.07351  157.932
 4556.00    1.08919   1.08543  151.547
 4557.00    1.10594   1.10289  149.123
 4558.00    1.12143   1.11782  150.159
 4559.00    1.12855   1.12779  150.000
 4560.00    1.13055   1.13324  150.096
 4561.00    1.12405   1.13191  153.825
 4562.00    1.11503   1.12269  157.675
 4563.00    1.10402   1.11130  160.263
 4564.00    1.09172   1.10660  158.208
 4565.00    1.09982   1.11188  154.047
 4566.00    1.12280   1.12271  149.979
 4567.00    1.13046   1.13198  148.653
 4568.00    1.13095   1.13469  150.502
 4569.00    1.12600   1.12915  154.475
 4570.00    1.11117   1.11733  158.506
 4571.00    1.09272   1.10587  156.995
 4572.00    1.08435   1.10376   -1.000
 4573.00    1.09645   1.11274  150.060
 4574.00    1.11984   1.12366  150.284
 4575.00    1.12733   1.12820  151.013
 4576.00    1.12571   1.12688  151.919
 4577.00    1.12626   1.12326  154.655
 4578.00    1.11786   1.11755  159.421
 4579.00    1.10683   1.10903  162.577
 4580.00    1.10108   1.09963  161.880
 4581.00    1.09956   1.09173  159.496
 4582.00    1.09349   1.08579  158.406
 4583.00    1.09347   1.08343  158.984
 4584.00    1.09670   1.08747  159.979
 4585.00    1.10252   1.09642  157.545
 4586.00    1.10976   1.10529  153.297
 4587.00    1.11635   1.11086  150.125
 4588.00    1.12354   1.11296  150.110
 4589.00    1.12353   1.11314  152.466
 4590.00    1.11897   1.11311  155.349
 4591.00    1.11059   1.11319  158.031
 4592.00    1.10740   1.11368  158.005
 4593.00    1.10491   1.11609  156.573
 4594.00    1.11391   1.12082  155.361
 4595.00    1.12335   1.12668  154.997
 4596.00    1.12633   1.13183  154.674
 4597.00    1.13006   1.13425  154.350
 4598.00    1.13031   1.13291  155.818
 4599.00    1.12975   1.12857  157.205
 4600.00    1.12119   1.12305  157.553
 4601.00    1.11032   1.11884  155.754
 4602.00    1.10761   1.11784  154.032
 4603.00    1.11047   1.11998  154.400
 4604.00    1.11888   1.12354  154.083
 4605.00    1.12879   1.12697  152.296
 4606.00    1.13477   1.13043  149.195
 4607.00    1.13967   1.13486  146.008
 4608.00    1.14503   1.13987  144.413
 4609.00    1.14882   1.14366  145.221
 4610.00    1.14686   1.14429  147.302
 4611.00    1.14349   1.14212  148.900
 4612.00    1.13701   1.13957  149.793
 4613.00    1.13625   1.13827  148.939
 4614.00    1.13898   1.13759  147.590
 4615.00    1.13808   1.13586  147.075
 4616.00    1.13891   1.13277  148.159
 4617.00    1.13787   1.12944  149.241
 4618.00    1.13594   1.12720  148.997
 4619.00    1.13752   1.12778  147.475
 4620.00    1.14119   1.13247  145.117
 4621.00    1.14453   1.13987  145.221
 4622.00    1.14987   1.14599  145.607
 4623.00    1.15032   1.14783  145.910
 4624.00    1.14348   1.14575  147.303
 4625.00    1.14262   1.14232  147.590
 4626.00    1.14029   1.13908  147.510
 4627.00    1.13956   1.13574  148.519
 4628.00    1.13316   1.13233  148.770
 4629.00    1.12806   1.13128  147.938
 4630.00    1.13095   1.13468  146.219
 4631.00    1.13754   1.14021  147.055
 4632.00    1.13931   1.14300  149.291
 4633.00    1.13731   1.14153  150.861
 4634.00    1.13642   1.13881  150.647
 4635.00    1.14158   1.13826  151.979
 4636.00    1.13757   1.13947  154.016
 4637.00    1.13681   1.14055  154.538
 4638.00    1.13371   1.14166  154.210
 4639.00    1.13359   1.14448  151.415
 4640.00    1.14023   1.14953  147.671
 4641.00    1.15429   1.15511  145.810
 4642.00    1.15570   1.15860  146.615
 4643.00    1.15928   1.15848  149.522
 4644.00    1.15366   1.15435  153.838
 4645.00    1.13645   1.14702  158.001
 4646.00    1.12238   1.13870  158.356
 4647.00    1.12282   1.13385  155.321
 4648.00    1.12946   1.13568  151.673
 4649.00    1.13893   1.14227  149.733
 4650.00    1.14443   1.14904  149.577
 4651.00    1.14030   1.15280  149.317
 4652.00    1.14104   1.15254  151.277
 4653.00    1.13560   1.14879  154.859
 4654.00    1.12712   1.14330  156.436
 4655.00    1.12415   1.13878  154.798
 4656.00    1.12653   1.13806  149.620
 4657.00    1.13586   1.14366  143.888
 4658.00    1.15398   1.15552  140.887
 4659.00    1.16543   1.16835  140.980
 4660.00    1.16701   1.17537  142.902
 4661.00    1.16639   1.17429  146.512
 4662.00    1.16083   1.16804  149.278
 4663.00    1.15800   1.16043  149.531
 4664.00    1.15622   1.15233  152.254
 4665.00    1.14881   1.14203  159.081
 4666.00    1.13365   1.12924  165.493
 4667.00    1.11230   1.11809  165.086
 4668.00    1.10520   1.11429  159.648
 4669.00    1.11574   1.11928  152.923
 4670.00    1.13326   1.12975  149.031
 4671.00    1.14441   1.14094  148.368
 4672.00    1.14862   1.14905  148.529
 4673.00    1.15235   1.15361  148.294
 4674.00    1.15630   1.15713  146.241
 4675.00    1.16456   1.16077  144.116
 4676.00    1.16529   1.16260  145.106
 4677.00    1.16195   1.15998  148.412
 4678.00    1.15472   1.15322  151.310
 4679.00    1.14592   1.14544  153.747
 4680.00    1.14174   1.13922  155.051
 4681.00    1.13183   1.13631  152.837
 4682.00    1.13773   1.13765  148.919
 4683.00    1.14599   1.14194  147.169
 4684.00    1.15439   1.14644  147.805
 4685.00    1.16298   1.14911  147.857
 4686.00    1.16086   1.15003  148.727
 4687.00    1.15814   1.15041  148.679
 4688.00    1.15801   1.15104  148.735
 4689.00    1.15550   1.15143  149.851
 4690.00    1.15578   1.15074  150.032
 4691.00    1.15011   1.14975  148.105
 4692.00    1.15885   1.15018  145.830
 4693.00    1.16871   1.15209  142.557
 4694.00    1.17064   1.15434  140.920
 4695.00    1.17424   1.15589  141.898
 4696.00    1.17770   1.15499   -1.000
 4697.00    1.16884   1.15009  150.560
 4698.00    1.16083   1.14282  152.024
 4699.00    1.15532   1.13643  150.713
 4700.00    1.15242   1.13167   -1.000
 4701.00    1.15313   1.12697   -1.000
 4702.00    1.14497   1.12259   -1.000
 4703.00    1.12889   1.12139  152.160
 4704.00    1.13327   1.12495  150.135
 4705.00    1.14689   1.12974  152.542
 4706.00    1.14467   1.13044  155.604
 4707.00    1.13238   1.12628  156.907
 4708.00    1.13006   1.12207  155.781
 4709.00    1.13505   1.12312  150.972
 4710.00    1.14445   1.12972  146.966
 4711.00    1.15754   1.13720  145.787
 4712.00    1.16803   1.14072   -1.000
 4713.00    1.16384   1.13951   -1.000
 4714.00    1.15057   1.13741  149.880
 4715.00    1.15169   1.13890  146.725
 4716.00    1.16045   1.14467  143.996
 4717.00    1.16144   1.15152  143.238
 4718.00    1.16437   1.15644  142.751
 4719.00    1.16714   1.15914  142.336
 4720.00    1.16858   1.16030  143.652
 4721.00    1.16794   1.16036  144.574
 4722.00    1.16276   1.16051  143.579
 4723.00    1.16489   1.16218  142.056
 4724.00    1.16868   1.16477  142.531
 4725.00    1.16939   1.16558  146.296
 4726.00    1.16899   1.16255  151.906
 4727.00    1.15650   1.15591  154.976
 4728.00    1.14473   1.14796  154.117
 4729.00    1.14945   1.14125  152.501
 4730.00    1.15841   1.13690  151.295
 4731.00    1.16005   1.13640   -1.000
 4732.00    1.15443   1.14054  148.208
 4733.00    1.15633   1.14648  147.393
 4734.00    1.15443   1.15009  146.685
 4735.00    1.15851   1.15000  148.352
 4736.00    1.15543   1.14807  148.347
 4737.00    1.15406   1.14715  146.389
 4738.00    1.16191   1.14814  146.618
 4739.00    1.16844   1.14989  147.489
 4740.00    1.16454   1.15142  147.572
 4741.00    1.16626   1.15318  146.282
 4742.00    1.16684   1.15611  144.750
 4743.00    1.17337   1.15997  145.153
 4744.00    1.17193   1.16341  145.205
 4745.00    1.17047   1.16603  144.025
 4746.00    1.16950   1.16902  142.600
 4747.00    1.17320   1.17328  142.397
 4748.00    1.17462   1.17779  142.639
 4749.00    1.17892   1.18112  142.773
 4750.00    1.17743   1.18329  143.904
 4751.00    1.17756   1.18410  145.556
 4752.00    1.17355   1.18268  146.738
 4753.00    1.16532   1.17941  147.666
 4754.00    1.16132   1.17617  147.371
 4755.00    1.16403   1.17467  148.029
 4756.00    1.16325   1.17536  149.112
 4757.00    1.16613   1.17719  149.142
 4758.00    1.16051   1.17843  147.869
 4759.00    1.15779   1.17762   -1.000
 4760.00    1.15904   1.17361  150.344
 4761.00    1.14742   1.16574   -1.000
 4762.00    1.14076   1.15579  155.883
 4763.00    1.13521   1.14789  155.984
 4764.00    1.13292   1.14557  155.588
 4765.00    1.14200   1.14939  154.387
 4766.00    1.15044   1.15716  152.109
 4767.00    1.16268   1.16620  148.642
 4768.00    1.16875   1.17478  146.787
 4769.00    1.17472   1.18115  147.223
 4770.00    1.17592   1.18336  148.535
 4771.00    1.16788   1.18163  149.682
 4772.00    1.16375   1.17933  147.685
 4773.00    1.16751   1.18003  144.556
 4774.00    1.17414   1.18387  143.758
 4775.00    1.17815   1.18780  143.950
 4776.00    1.18256   1.18931  144.420
 4777.00    1.18192   1.18778  145.436
 4778.00    1.17433   1.18338  147.074
 4779.00    1.16402   1.17800  147.865
 4780.00    1.16429   1.17523  148.228
 4781.00    1.16839   1.17634  149.004
 4782.00    1.16561   1.17829  150.164
 4783.00    1.16924   1.17808  150.059
 4784.00    1.16566   1.17592  150.660
 4785.00    1.16369   1.17299  152.188
 4786.00    1.15752   1.17012  152.964
 4787.00    1.15379   1.16864  152.716
 4788.00    1.15496   1.16932  151.918
 4789.00    1.15559   1.17181   -1.000
 4790.00    1.16249   1.17610  149.262
 4791.00    1.17138   1.18246  146.704
 4792.00    1.17934   1.19011  143.423
 4793.00    1.18217   1.19750  141.125
 4794.00    1.19041   1.20297  140.833
 4795.00    1.18998   1.20461  142.452
 4796.00    1.18270   1.20173   -1.000
 4797.00    1.17855   1.19570  148.056
 4798.00    1.16909   1.18974   -1.000
 4799.00    1.17188   1.18763  147.974
 4800.00    1.17397   1.19082  144.936
 4801.00    1.18086   1.19689  143.049
 4802.00    1.18213   1.20069   -1.000
 4803.00    1.18353   1.19788  145.512
 4804.00    1.17850   1.18946  147.335
 4805.00    1.16960   1.18202  148.557
 4806.00    1.17032   1.18037  148.419
 4807.00    1.17376   1.18399  148.011
 4808.00    1.17626   1.18947  147.284
 4809.00    1.18235   1.19348  145.925
 4810.00    1.18023   1.19479  144.917
 4811.00    1.17816   1.19515   -1.000
 4812.00    1.18155   1.19709  144.107
 4813.00    1.18844   1.20117  143.731
 4814.00    1.19151   1.20570  143.179
 4815.00    1.19615   1.20882  142.254
 4816.00    1.19591   1.21048  141.394
 4817.00    1.19370   1.21128   -1.000
 4818.00    1.19651   1.21110  140.853
 4819.00    1.19451   1.20974  140.943
 4820.00    1.19307   1.20681  142.421
 4821.00    1.18891   1.20081  146.272
 4822.00    1.17626   1.19096   -1.000
 4823.00    1.16847   1.18017  148.180
 4824.00    1.16534   1.17416  145.454
 4825.00    1.16932   1.17575  143.419
 4826.00    1.18053   1.18168  144.247
 4827.00    1.18344   1.18633  145.962
 4828.00    1.18106   1.18714  146.758
 4829.00    1.17786   1.18559  146.765
 4830.00    1.17384   1.18381  148.132
 4831.00    1.17321   1.18241  148.133
 4832.00    1.17542   1.18145  145.645
 4833.00    1.18357   1.18143  143.834
 4834.00    1.18627   1.18196  143.429
 4835.00    1.17846   1.18220  143.737
 4836.00    1.17859   1.18201  144.539
 4837.00    1.18008   1.18177  146.635
 4838.00    1.17351   1.18096  149.121
 4839.00    1.16677   1.17902  149.042
 4840.00    1.16145   1.17706  148.677
 4841.00    1.16126   1.17601  147.880
 4842.00    1.16203   1.17503  146.729
 4843.00    1.16677   1.17343  145.181
 4844.00    1.17275   1.17199  142.963
 4845.00    1.17044   1.17106  142.569
 4846.00    1.16389   1.16889  145.610
 4847.00    1.15657   1.16358  147.579
 4848.00    1.14525   1.15680  147.300
 4849.00    1.14300   1.15222  145.253
 4850.00    1.14370   1.15026  145.091
 4851.00    1.14566   1.14779  146.008
 4852.00    1.13903   1.14128  147.499
 4853.00    1.12866   1.12807  152.075
 4854.00    1.10639   1.10825  156.032
 4855.00    1.08723   1.08623  155.355
 4856.00    1.07592   1.06563  154.143
 4857.00    1.06110   1.04094  159.311
 4858.00    1.02719   0.99841   -1.000
 4859.00    0.96323   0.93023   -1.000
 4860.00    0.86628   0.85182  200.959
 4861.00    0.80477   0.80179  187.266
 4862.00    0.83342   0.81045   -1.000
 4863.00    0.92245   0.87104   -1.000
 4864.00    1.00278   0.94750   -1.000
 4865.00    1.04570   1.01033   -1.000
 4866.00    1.07157   1.05351  151.591
 4867.00    1.08943   1.08289  151.124
 4868.00    1.10491   1.10211  152.755
 4869.00    1.11302   1.11018  157.183
 4870.00    1.10355   1.10769  160.603
 4871.00    1.08685   1.10173   -1.000
 4872.00    1.08425   1.10203   -1.000
 4873.00    1.10568   1.11221  151.720
 4874.00    1.12836   1.12693  150.634
 4875.00    1.13644   1.13874  149.851
 4876.00    1.13740   1.14554  149.227
 4877.00    1.13863   1.15055  147.017
 4878.00    1.14352   1.15781  145.705
 4879.00    1.14932   1.16793   -1.000
 4880.00    1.15604   1.17679   -1.000
 4881.00    1.15508   1.17927   -1.000
 4882.00    1.14939   1.17527   -1.000
 4883.00    1.14447   1.17011   -1.000
 4884.00    1.14463   1.16817   -1.000
 4885.00    1.15163   1.16968   -1.000
 4886.00    1.15193   1.17231   -1.000
 4887.00    1.15515   1.17338   -1.000
 4888.00    1.15317   1.17057   -1.000
 4889.00    1.14194   1.16303   -1.000
 4890.00    1.12600   1.15421   -1.000
 4891.00    1.12583   1.15187   -1.000
 4892.00    1.14227   1.16201   -1.000
 4893.00    1.17306   1.18147  139.389
 4894.00    1.19080   1.20129  136.989
 4895.00    1.20128   1.21561  136.483
 4896.00    1.20612   1.22328  137.033
 4897.00    1.20769   1.22496  140.151
 4898.00    1.20097   1.22127   -1.000
 4899.00    1.18921   1.21404   -1.000
 4900.00    1.18308   1.20717   -1.000
 4901.00    1.17684   1.20347   -1.000
 4902.00    1.17806   1.20201   -1.000
 4903.00    1.17948   1.20181   -1.000
 4904.00    1.18051   1.20501   -1.000
 4905.00    1.19596   1.21250  140.225
 4906.00    1.20428   1.21966  141.792
 4907.00    1.20058   1.22093   -1.000
 4908.00    1.19332   1.21563   -1.000
 4909.00    1.18581   1.20686   -1.000
 4910.00    1.17707   1.19871   -1.000
 4911.00    1.17865   1.19530  146.031
 4912.00    1.18731   1.19828  144.062
 4913.00    1.19572   1.20540  142.240
 4914.00    1.20209   1.21276  141.170
 4915.00    1.20459   1.21662  142.276
 4916.00    1.20021   1.21300  147.676
 4917.00    1.18544   1.19912  155.837
 4918.00    1.16387   1.17669  162.759
 4919.00    1.13580   1.15327   -1.000
 4920.00    1.11728   1.13817   -1.000
 4921.00    1.12340   1.13571  152.678
 4922.00    1.14075   1.14149  150.712
 4923.00    1.14996   1.14850  150.478
 4924.00    1.15569   1.15650  148.311
 4925.00    1.16761   1.16971  144.460
 4926.00    1.18540   1.18753  142.030
 4927.00    1.20298   1.20432  140.768
 4928.00    1.21104   1.21643  139.824
 4929.00    1.21498   1.22349  139.183
 4930.00    1.21620   1.22478  140.851
 4931.00    1.20928   1.21850  144.907
 4932.00    1.19519   1.20458  149.809
 4933.00    1.17227   1.18832  149.729
 4934.00    1.15831   1.17878  147.164
 4935.00    1.16974   1.17973  147.553
 4936.00    1.18452   1.18408  152.054
 4937.00    1.18052   1.18312  155.741
 4938.00    1.15872   1.17766   -1.000
 4939.00    1.15386   1.17609   -1.000
 4940.00    1.17011   1.18422  143.902
 4941.00    1.19035   1.19976  141.430
 4942.00    1.20378   1.21559  140.308
 4943.00    1.21414   1.22589  140.539
 4944.00    1.21144   1.22939  141.511
 4945.00    1.21099   1.22843  141.644
 4946.00    1.21075   1.22691  140.274
 4947.00    1.21043   1.22778  138.710
 4948.00    1.21224   1.23111  138.316
 4949.00    1.21422   1.23463  137.849
 4950.00    1.21570   1.23623  138.636
 4951.00    1.21607   1.23567  139.660
 4952.00    1.21626   1.23366  141.315
 4953.00    1.21234   1.23002  143.273
 4954.00    1.21235   1.22196  147.515
 4955.00    1.20053   1.20542  155.140
 4956.00    1.16673   1.18146  160.438
 4957.00    1.13977   1.16139   -1.000
 4958.00    1.14414   1.15926  147.507
 4959.00    1.17247   1.17656  142.907
 4960.00    1.19946   1.20077  142.089
 4961.00    1.21261   1.21930  142.854
 4962.00    1.21499   1.22813  144.065
 4963.00    1.20825   1.22902   -1.000
 4964.00    1.20114   1.22435   -1.000
 4965.00    1.19544   1.21662   -1.000
 4966.00    1.18957   1.20958   -1.000
 4967.00    1.19464   1.20624  150.086
 4968.00    1.20291   1.20677  148.904
 4969.00    1.20525   1.21013  147.292
 4970.00    1.20327   1.21556  145.693
 4971.00    1.20476   1.22164  143.980
 4972.00    1.20980   1.22674  142.709
 4973.00    1.21127   1.22991  142.307
 4974.00    1.21936   1.23067  143.399
 4975.00    1.22005   1.22920  144.973
 4976.00    1.21575   1.22599  147.000
 4977.00    1.20997   1.22160  149.358
 4978.00    1.20428   1.21682  151.210
 4979.00    1.19835   1.21088  153.644
 4980.00    1.18705   1.20075  158.807
 4981.00    1.16969   1.18569   -1.000
 4982.00    1.15135   1.17035   -1.000
 4983.00    1.14278   1.16181   -1.000
 4984.00    1.15096   1.16397  155.071
 4985.00    1.16597   1.17502  150.235
 4986.00    1.17872   1.19025  146.934
 4987.00    1.19043   1.20456  147.379
 4988.00    1.19837   1.21263  149.553
 4989.00    1.19315   1.21171   -1.000
 4990.00    1.18782   1.20498  150.799
 4991.00    1.17904   1.19896   -1.000
 4992.00    1.18521   1.19793  148.930
 4993.00    1.18899   1.20155  148.804
 4994.00    1.18857   1.20757   -1.000
 4995.00    1.19370   1.21402   -1.000
 4996.00    1.19973   1.21806   -1.000
 4997.00    1.19728   1.21589   -1.000
 4998.00    1.18910   1.20559  153.606
 4999.00    1.18114   1.19047  155.308
 5000.00    1.17680   1.17903  155.196
 5001.00    1.17418   1.17739  153.724
 5002.00    1.17856   1.18240  153.060
 5003.00    1.18455   1.18605  155.536
 5004.00    1.18338   1.18290  159.243
 5005.00    1.16850   1.17394  159.521
 5006.00    1.15713   1.16674  155.370
 5007.00    1.16231   1.16882  150.928
 5008.00    1.17932   1.17916  149.785
 5009.00    1.19513   1.18906  152.122
 5010.00    1.19341   1.19104  156.905
 5011.00    1.17497   1.18404  162.611
 5012.00    1.15342   1.17232   -1.000
 5013.00    1.13981   1.16238   -1.000
 5014.00    1.14016   1.15900   -1.000
 5015.00    1.15208   1.16132  157.813
 5016.00    1.16122   1.16319  157.298
 5017.00    1.16409   1.16028  157.149
 5018.00    1.16532   1.15669  155.360
 5019.00    1.16795   1.16044  154.319
 5020.00    1.17977   1.17213  155.024
 5021.00    1.18786   1.18449  155.219
 5022.00    1.19289   1.19309  154.209
 5023.00    1.19067   1.19987  152.618
 5024.00    1.19221   1.20700  151.806
 5025.00    1.19516   1.21285   -1.000
 5026.00    1.19109   1.21484   -1.000
 5027.00    1.18964   1.21357   -1.000
 5028.00    1.19556   1.21206  148.618
 5029.00    1.19985   1.21216  146.484
 5030.00    1.20511   1.21420  144.169
 5031.00    1.21033   1.21843  142.742
 5032.00    1.21162   1.22353  143.515
 5033.00    1.21582   1.22535  148.391
 5034.00    1.20799   1.22083  153.960
 5035.00    1.19203   1.21202   -1.000
 5036.00    1.18051   1.20415   -1.000
 5037.00    1.18025   1.19903   -1.000
 5038.00    1.17405   1.19215   -1.000
 5039.00    1.15791   1.17914   -1.000
 5040.00    1.14082   1.16357   -1.000
 5041.00    1.12906   1.15599   -1.000
 5042.00    1.14608   1.16387  152.135
 5043.00    1.17898   1.18415  146.380
 5044.00    1.20413   1.20737  143.076
 5045.00    1.22134   1.22572  138.631
 5046.00    1.20521   1.23513   -1.000
 5047.00    0.95353   1.23415   -1.000
 5048.00    0.41291   1.22401   -1.000
 5049.00    0.08845   1.20904   -1.000
 5050.00    0.75791   1.19503   -1.000
 5051.00    1.21216   1.18753   -1.000
 5052.00    1.18729   1.19094  146.421
 5053.00    1.20896   1.20492  143.938
 5054.00    1.22402   1.22201  142.715
 5055.00    1.23004   1.23417  142.369
 5056.00    1.23000   1.23999  142.655
 5057.00    1.23216   1.24263  142.882
 5058.00    1.23334   1.24466  142.703
 5059.00    1.22809   1.24675  141.824
 5060.00    1.22322   1.24843   -1.000
 5061.00    1.22265   1.24842   -1.000
 5062.00    1.22276   1.24460   -1.000
 5063.00    1.21558   1.23582   -1.000
 5064.00    1.20060   1.22449   -1.000
 5065.00    1.19223   1.21571   -1.000
 5066.00    1.19669   1.21249  150.772
 5067.00    1.20745   1.21312  150.326
 5068.00    1.20924   1.21469  149.568
 5069.00    1.21224   1.21645  148.838
 5070.00    1.21842   1.21823  150.122
 5071.00    1.21774   1.21867  150.929
 5072.00    1.21378   1.21717  149.044
 5073.00    1.21576   1.21526  148.024
 5074.00    1.21577   1.21452  147.870
 5075.00    1.20886   1.21459  147.948
 5076.00    1.21303   1.21326  149.901
 5077.00    1.20780   1.20764  155.522
 5078.00    1.18823   1.19721  162.342
 5079.00    1.16629   1.18653   -1.000
 5080.00    1.16347   1.18203   -1.000
 5081.00    1.16991   1.18498  156.439
 5082.00    1.18616   1.19132  154.272
 5083.00    1.19262   1.19843  151.353
 5084.00    1.20382   1.20690  148.961
 5085.00    1.21835   1.21605  148.061
 5086.00    1.22253   1.22307  147.819
 5087.00    1.22737   1.22688  147.009
 5088.00    1.22933   1.22928  145.965
 5089.00    1.23154   1.23217  145.176
 5090.00    1.23354   1.23574  144.305
 5091.00    1.23054   1.23949  142.648
 5092.00    1.23396   1.24332  141.711
 5093.00    1.23987   1.24648  143.320
 5094.00    1.24293   1.24681  146.401
 5095.00    1.23463   1.24227  149.621
 5096.00    1.22246   1.23292  153.209
 5097.00    1.21235   1.22134  156.050
 5098.00    1.20173   1.21173  155.864
 5099.00    1.20176   1.20849  151.776
 5100.00    1.21160   1.21318  147.748
 5101.00    1.22055   1.22243  146.852
 5102.00    1.22628   1.23066  147.940
 5103.00    1.22821   1.23456  149.928
 5104.00    1.22693   1.23347  151.814
 5105.00    1.22123   1.22751  153.678
 5106.00    1.20563   1.21763  155.325
 5107.00    1.18953   1.20749  154.900
 5108.00    1.18618   1.20176  153.861
 5109.00    1.18735   1.20215  152.601
 5110.00    1.18983   1.20775  150.402
 5111.00    1.20241   1.21726  148.574
 5112.00    1.22059   1.22839  146.826
 5113.00    1.23213   1.23801  145.593
 5114.00    1.23736   1.24448  144.730
 5115.00    1.23600   1.24866  143.210
 5116.00    1.23830   1.25208  142.244
 5117.00    1.24309   1.25474  142.925
 5118.00    1.24627   1.25519  144.899
 5119.00    1.24309   1.25231  147.124
 5120.00    1.23528   1.24608  149.748
 5121.00    1.22638   1.23705  153.760
 5122.00    1.21327   1.22635  157.955
 5123.00    1.19237   1.21649   -1.000
 5124.00    1.18724   1.21052   -1.000
 5125.00    1.19576   1.20906  156.368
 5126.00    1.19681   1.20926  155.584
 5127.00    1.19845   1.20837  155.809
 5128.00    1.19228   1.20700   -1.000
 5129.00    1.19942   1.20788  153.190
 5130.00    1.20672   1.21244  150.737
 5131.00    1.21523   1.21930  149.541
 5132.00    1.22136   1.22596  148.119
 5133.00    1.21994   1.23111  146.946
 5134.00    1.22506   1.23437  147.023
 5135.00    1.23041   1.23461  149.940
 5136.00    1.22331   1.23038  153.468
 5137.00    1.20911   1.22192  155.548
 5138.00    1.19284   1.21252   -1.000
 5139.00    1.18678   1.20681   -1.000
 5140.00    1.19018   1.20668  155.783
 5141.00    1.19554   1.20969  157.901
 5142.00    1.19571   1.21286  156.574
 5143.00    1.19608   1.21637   -1.000
 5144.00    1.20323   1.22108  153.994
 5145.00    1.21208   1.22512  155.377
 5146.00    1.21692   1.22648  155.379
 5147.00    1.21400   1.22599  153.514
 5148.00    1.21516   1.22485  153.091
 5149.00    1.21964   1.22210  155.246
 5150.00    1.20730   1.21658  157.872
 5151.00    1.19280   1.20981   -1.000
 5152.00    1.18836   1.20542   -1.000
 5153.00    1.19407   1.20587  154.093
 5154.00    1.21005   1.21154  150.129
 5155.00    1.22404   1.22169  146.458
 5156.00    1.24007   1.23409  144.002
 5157.00    1.24627   1.24495  143.163
 5158.00    1.24990   1.25161  143.259
 5159.00    1.25444   1.25385  143.812
 5160.00    1.25025   1.25257  144.771
 5161.00    1.24165   1.24877  146.533
 5162.00    1.23585   1.24303  149.314
 5163.00    1.22769   1.23333  156.106
 5164.00    1.21600   1.21355  169.864
 5165.00    1.18248   1.17823  186.982
 5166.00    1.13066   1.13204  196.782
 5167.00    1.08936   1.09262  190.899
 5168.00    1.08521   1.07735  180.832
 5169.00    1.11529   1.08587   -1.000
 5170.00    1.13572   1.09949   -1.000
 5171.00    1.12896   1.10219   -1.000
 5172.00    1.10590   1.09950  191.644
 5173.00    1.10866   1.11068  171.069
 5174.00    1.15532   1.14324  158.339
 5175.00    1.21122   1.18415   -1.000
 5176.00    1.24019   1.21599  151.979
 5177.00    1.25012   1.23294  152.002
 5178.00    1.25367   1.23867  154.160
 5179.00    1.24956   1.23564  160.582
 5180.00    1.23640   1.22112  173.530
 5181.00    1.21099   1.19162  193.258
 5182.00    1.16586   1.15199  204.233
 5183.00    1.11956   1.11956  191.368
 5184.00    1.11843   1.11365  170.160
 5185.00    1.16348   1.13678   -1.000
 5186.00    1.20958   1.17090   -1.000
 5187.00    1.22275   1.19603  152.062
 5188.00    1.21895   1.20691  151.805
 5189.00    1.21823   1.20845  154.038
 5190.00    1.20953   1.20444  159.024
 5191.00    1.19300   1.19663  162.516
 5192.00    1.18051   1.18930  160.751
 5193.00    1.18272   1.18772  157.969
 5194.00    1.19465   1.19220  155.661
 5195.00    1.20846   1.19893  153.251
 5196.00    1.22595   1.20566  150.194
 5197.00    1.24022   1.21291   -1.000
 5198.00    1.24650   1.22108   -1.000
 5199.00    1.25105   1.22879  147.010
 5200.00    1.25017   1.23325  148.497
 5201.00    1.24228   1.23159  151.384
 5202.00    1.23143   1.22229  155.092
 5203.00    1.21657   1.20625  160.044
 5204.00    1.18963   1.18769  164.282
 5205.00    1.17481   1.17306  164.688
 5206.00    1.17507   1.16637  165.611
 5207.00    1.18252   1.16614  166.073
 5208.00    1.18801   1.16933  162.976
 5209.00    1.19290   1.17689  157.301
 5210.00    1.20543   1.19160  150.935
 5211.00    1.22634   1.21138  145.486
 5212.00    1.24997   1.22907  143.343
 5213.00    1.25817   1.23800  145.465
 5214.00    1.25434   1.23628  148.746
 5215.00    1.23455   1.22832  149.971
 5216.00    1.22255   1.22249  148.236
 5217.00    1.23116   1.22513  145.080
 5218.00    1.24847   1.23585  143.111
 5219.00    1.25972   1.24905  142.152
 5220.00    1.26534   1.25921  141.993
 5221.00    1.26999   1.26372  144.367
 5222.00    1.26880   1.26118  149.173
 5223.00    1.25454   1.24970  155.565
 5224.00    1.22933   1.22813  162.447
 5225.00    1.19949   1.20017  165.455
 5226.00    1.17033   1.17699  160.533
 5227.00    1.17073   1.17158  151.698
 5228.00    1.19985   1.18671  146.206
 5229.00    1.23271   1.21084  144.172
 5230.00    1.25243   1.22821   -1.000
 5231.00    1.24817   1.23118  147.637
 5232.00    1.23279   1.22322  149.756
 5233.00    1.22422   1.21428  148.736
 5234.00    1.22830   1.21355  145.130
 5235.00    1.23992   1.22327  141.966
 5236.00    1.25726   1.23818  140.715
 5237.00    1.26984   1.25119  140.761
 5238.00    1.27168   1.25878  141.123
 5239.00    1.27362   1.26175  140.731
 5240.00    1.27494   1.26253  140.041
 5241.00    1.27080   1.26271  140.235
 5242.00    1.27195   1.26306  139.924
 5243.00    1.26947   1.26385  140.209
 5244.00    1.27233   1.26399  143.475
 5245.00    1.26562   1.26095  147.884
 5246.00    1.25039   1.25360  150.737
 5247.00    1.23646   1.24454  150.925
 5248.00    1.23560   1.23755  151.326
 5249.00    1.23031   1.23374  152.054
 5250.00    1.22593   1.23250  150.991
 5251.00    1.23418   1.23380  148.918
 5252.00    1.24333   1.23689  147.738
 5253.00    1.24577   1.23969  147.661
 5254.00    1.24542   1.24172  146.113
 5255.00    1.25411   1.24537  142.463
 5256.00    1.26495   1.25286  139.030
 5257.00    1.28124   1.26238  138.385
 5258.00    1.28403   1.26866  140.248
 5259.00    1.27741   1.26708  144.604
 5260.00    1.26387   1.25610  151.007
 5261.00    1.24430   1.23758  157.925
 5262.00    1.21823   1.21594  162.893
 5263.00    1.19930   1.19612  165.621
 5264.00    1.18829   1.18199  165.319
 5265.00    1.18542   1.17552  162.235
 5266.00    1.19300   1.17493  160.444
 5267.00    1.20175   1.17362   -1.000
 5268.00    1.18853   1.16543   -1.000
 5269.00    1.16375   1.15417  165.290
 5270.00    1.16078   1.15287  155.493
 5271.00    1.18707   1.16876  149.892
 5272.00    1.22035   1.19340   -1.000
 5273.00    1.23554   1.21229  149.009
 5274.00    1.23875   1.22048  148.180
 5275.00    1.24305   1.22442  144.778
 5276.00    1.24996   1.23214  140.100
 5277.00    1.26579   1.24503  138.232
 5278.00    1.28112   1.25734   -1.000
 5279.00    1.27940   1.26206  143.278
 5280.00    1.26956   1.25712  146.831
 5281.00    1.25643   1.24604  149.100
 5282.00    1.24506   1.23490  149.041
 5283.00    1.23584   1.23002  145.521
 5284.00    1.24550   1.23556  140.958
 5285.00    1.26098   1.25036  137.117
 5286.00    1.26812   1.26763  136.596
 5287.00    1.28841   1.28026  137.286
 5288.00    1.29241   1.28636  137.072
 5289.00    1.29404   1.28822  136.314
 5290.00    1.29802   1.28797  136.254
 5291.00    1.29459   1.28653  137.210
 5292.00    1.29031   1.28457  138.633
 5293.00    1.28383   1.28210  140.850
 5294.00    1.27787   1.27753  145.086
 5295.00    1.26864   1.26881  150.479
 5296.00    1.25510   1.25639  153.496
 5297.00    1.24521   1.24468  151.690
 5298.00    1.23982   1.23921  147.864
 5299.00    1.25171   1.24167  145.512
 5300.00    1.25828   1.24858  144.530
 5301.00    1.25955   1.25580  142.292
 5302.00    1.26225   1.26256  138.552
 5303.00    1.27196   1.26977  136.486
 5304.00    1.28541   1.27642  136.570
 5305.00    1.29164   1.28000  137.979
 5306.00    1.28745   1.27985  138.775
 5307.00    1.28389   1.27846  137.636
 5308.00    1.28573   1.27894  136.265
 5309.00    1.29540   1.28189  135.617
 5310.00    1.30014   1.28520  135.929
 5311.00    1.29795   1.28647  136.700
 5312.00    1.29907   1.28482  137.351
 5313.00    1.29888   1.28011  138.446
 5314.00    1.29217   1.27223  139.815
 5315.00    1.28060   1.26258  140.823
 5316.00    1.27266   1.25527  140.588
 5317.00    1.27122   1.25469  139.562
 5318.00    1.27607   1.26110  139.206
 5319.00    1.28499   1.26980  139.875
 5320.00    1.28611   1.27500  141.012
 5321.00    1.28133   1.27348  142.867
 5322.00    1.27558   1.26541  145.209
 5323.00    1.26349   1.25404  146.210
 5324.00    1.25408   1.24315  146.819
 5325.00    1.25346   1.23221   -1.000
 5326.00    1.24158   1.21675   -1.000
 5327.00    1.20921   1.19748  164.000
 5328.00    1.19137   1.18547  156.279
 5329.00    1.20554   1.19240  147.587
 5330.00    1.24275   1.21604   -1.000
 5331.00    1.26856   1.24166   -1.000
 5332.00    1.27549   1.25796  140.983
 5333.00    1.27697   1.26466  139.520
 5334.00    1.28515   1.26614  139.270
 5335.00    1.28843   1.26517   -1.000
 5336.00    1.28211   1.26275  141.287
 5337.00    1.27859   1.25909  143.263
 5338.00    1.27182   1.25362  146.821
 5339.00    1.26060   1.24659  148.584
 5340.00    1.24964   1.24136  146.565
 5341.00    1.25139   1.24275  142.691
 5342.00    1.27067   1.25109   -1.000
 5343.00    1.28801   1.26061   -1.000
 5344.00    1.29175   1.26545   -1.000
 5345.00    1.28137   1.26463  142.890
 5346.00    1.27607   1.26088  143.690
 5347.00    1.27474   1.25707  144.847
 5348.00    1.27446   1.25495   -1.000
 5349.00    1.27227   1.25603  141.987
 5350.00    1.27965   1.26131   -1.000
 5351.00    1.29056   1.26937   -1.000
 5352.00    1.29311   1.27715  137.058
 5353.00    1.29505   1.28306  135.794
 5354.00    1.30132   1.28789  134.155
 5355.00    1.30992   1.29257   -1.000
 5356.00    1.31387   1.29656   -1.000
 5357.00    1.31265   1.29878  133.890
 5358.00    1.31309   1.29879  134.612
 5359.00    1.30899   1.29640  136.402
 5360.00    1.30096   1.29140  138.683
 5361.00    1.29656   1.28418  140.484
 5362.00    1.28437   1.27615  141.367
 5363.00    1.27290   1.26913  142.188
 5364.00    1.27345   1.26449  142.788
 5365.00    1.27396   1.26271  142.345
 5366.00    1.27838   1.26266  142.665
 5367.00    1.27937   1.26134   -1.000
 5368.00    1.27330   1.25519  148.551
 5369.00    1.25761   1.24327  152.313
 5370.00    1.23878   1.22995  151.246
 5371.00    1.23643   1.22398  145.020
 5372.00    1.25032   1.23168   -1.000
 5373.00    1.27726   1.25021   -1.000
 5374.00    1.30492   1.26994   -1.000
 5375.00    1.31346   1.28318   -1.000
 5376.00    1.31105   1.28899   -1.000
 5377.00    1.30947   1.29046   -1.000
 5378.00    1.31199   1.28965   -1.000
 5379.00    1.30281   1.28648  138.828
 5380.00    1.29403   1.28121  140.053
 5381.00    1.29068   1.27564  140.531
 5382.00    1.28235   1.27209  140.268
 5383.00    1.28696   1.27203  139.391
 5384.00    1.29404   1.27561   -1.000
 5385.00    1.29843   1.28160  138.088
 5386.00    1.30553   1.28734   -1.000
 5387.00    1.30644   1.28991  140.475
 5388.00    1.30184   1.28799  142.569
 5389.00    1.29579   1.28250  143.923
 5390.00    1.29329   1.27563  144.380
 5391.00    1.28976   1.26932   -1.000
 5392.00    1.28389   1.26442   -1.000
 5393.00    1.27688   1.26054  146.392
 5394.00    1.27221   1.25578  148.605
 5395.00    1.26536   1.24797  151.093
 5396.00    1.25321   1.23859  149.994
 5397.00    1.24912   1.23406  145.251
 5398.00    1.26246   1.23935   -1.000
 5399.00    1.28152   1.25161   -1.000
 5400.00    1.29235   1.26307   -1.000
 5401.00    1.29127   1.26768   -1.000
 5402.00    1.28411   1.26317   -1.000
 5403.00    1.27025   1.25036   -1.000
 5404.00    1.25022   1.23404  154.038
 5405.00    1.23808   1.22253  151.754
 5406.00    1.24241   1.22196   -1.000
 5407.00    1.26076   1.22999   -1.000
 5408.00    1.27017   1.23834   -1.000
 5409.00    1.26176   1.24244  147.722
 5410.00    1.26283   1.24546  143.677
 5411.00    1.27595   1.25193   -1.000
 5412.00    1.29046   1.26058   -1.000
 5413.00    1.29822   1.26679   -1.000
 5414.00    1.29367   1.26945   -1.000
 5415.00    1.28880   1.27146   -1.000
 5416.00    1.29210   1.27508   -1.000
 5417.00    1.29583   1.27935  138.977
 5418.00    1.29475   1.28222  140.299
 5419.00    1.29557   1.28315  140.787
 5420.00    1.29959   1.28258  140.115
 5421.00    1.30324   1.28046   -1.000
 5422.00    1.29846   1.27661   -1.000
 5423.00    1.28604   1.27202  142.740
 5424.00    1.28108   1.26957  140.810
 5425.00    1.28707   1.27167  138.979
 5426.00    1.29432   1.27606   -1.000
 5427.00    1.29412   1.27627   -1.000
 5428.00    1.27631   1.26887  148.387
 5429.00    1.25676   1.25870  147.653
 5430.00    1.25889   1.25355  145.364
 5431.00    1.26761   1.25433  145.980
 5432.00    1.27504   1.25505   -1.000
 5433.00    1.26671   1.25164  149.311
 5434.00    1.25566   1.24777  148.049
 5435.00    1.26032   1.25034  144.672
 5436.00    1.27633   1.26122  140.818
 5437.00    1.29329   1.27593  138.166
 5438.00    1.31012   1.28882   -1.000
 5439.00    1.31847   1.29734   -1.000
 5440.00    1.31690   1.30208  135.481
 5441.00    1.31844   1.30409  135.802
 5442.00    1.31546   1.30283  137.833
 5443.00    1.30504   1.29604  142.131
 5444.00    1.28691   1.28194  147.923
 5445.00    1.26253   1.26282  151.370
 5446.00    1.24716   1.24656  148.939
 5447.00    1.24822   1.24187  144.022
 5448.00    1.26935   1.25064  140.661
 5449.00    1.29547   1.26629   -1.000
 5450.00    1.30993   1.27974   -1.000
 5451.00    1.31340   1.28544   -1.000
 5452.00    1.30902   1.28220   -1.000
 5453.00    1.29247   1.27123   -1.000
 5454.00    1.27146   1.25661  151.556
 5455.00    1.25963   1.24637  148.232
 5456.00    1.25929   1.24810  143.128
 5457.00    1.28768   1.26171   -1.000
 5458.00    1.31408   1.27876   -1.000
 5459.00    1.31703   1.29018   -1.000
 5460.00    1.31526   1.29273   -1.000
 5461.00    1.30794   1.28846  146.274
 5462.00    1.29981   1.28165  146.387
 5463.00    1.29300   1.27699  144.386
 5464.00    1.29866   1.27719   -1.000
 5465.00    1.30358   1.28129   -1.000
 5466.00    1.30800   1.28631   -1.000
 5467.00    1.31499   1.29034   -1.000
 5468.00    1.31821   1.29315   -1.000
 5469.00    1.31089   1.29473  143.415
 5470.00    1.30997   1.29439  143.894
 5471.00    1.31422   1.29176   -1.000
 5472.00    1.31106   1.28729   -1.000
 5473.00    1.30403   1.28096   -1.000
 5474.00    1.29215   1.27193   -1.000
 5475.00    1.27663   1.26081  153.382
 5476.00    1.26420   1.25200  150.904
 5477.00    1.26741   1.25144  146.447
 5478.00    1.28408   1.25994   -1.000
 5479.00    1.29652   1.27105   -1.000
 5480.00    1.30172   1.27797   -1.000
 5481.00    1.30000   1.28009   -1.000
 5482.00    1.29952   1.28142  143.811
 5483.00    1.29994   1.28516  141.238
 5484.00    1.30058   1.29063  140.751
 5485.00    1.30031   1.29464  142.479
 5486.00    1.30091   1.29501  144.290
 5487.00    1.30276   1.29241  144.832
 5488.00    1.30195   1.28934  144.554
 5489.00    1.30407   1.28798  143.442
 5490.00    1.30592   1.28902  142.522
 5491.00    1.30616   1.29154  142.237
 5492.00    1.30724   1.29385  142.559
 5493.00    1.30844   1.29446  142.566
 5494.00    1.31117   1.29258  142.792
 5495.00    1.30707   1.28808   -1.000
 5496.00    1.29793   1.28212  144.500
 5497.00    1.29233   1.27762  143.365
 5498.00    1.29619   1.27680   -1.000
 5499.00    1.29891   1.27777   -1.000
 5500.00    1.29494   1.27685  145.904
 5501.00    1.28945   1.27392  145.618
 5502.00    1.28957   1.27245  144.523
 5503.00    1.29727   1.27386   -1.000
 5504.00    1.30585   1.27472   -1.000
 5505.00    1.29357   1.27178   -1.000
 5506.00    1.28153   1.26736  145.765
 5507.00    1.28389   1.26679  143.757
 5508.00    1.29270   1.27179   -1.000
 5509.00    1.30515   1.27825   -1.000
 5510.00    1.30329   1.28092   -1.000
 5511.00    1.29788   1.27878   -1.000
 5512.00    1.28802   1.27473  150.701
 5513.00    1.28765   1.27226  148.448
 5514.00    1.29360   1.27327   -1.000
 5515.00    1.30684   1.27779   -1.000
 5516.00    1.31803   1.28468   -1.000
 5517.00    1.32199   1.29219   -1.000
 5518.00    1.32392   1.29844   -1.000
 5519.00    1.32496   1.30206   -1.000
 5520.00    1.32424   1.30307   -1.000
 5521.00    1.32379   1.30283   -1.000
 5522.00    1.32176   1.30240   -1.000
 5523.00    1.31786   1.30087  141.585
 5524.00    1.31506   1.29572   -1.000
 5525.00    1.30900   1.28513   -1.000
 5526.00    1.29295   1.27076   -1.000
 5527.00    1.27616   1.25849   -1.000
 5528.00    1.27337   1.25492   -1.000
 5529.00    1.28226   1.26206   -1.000
 5530.00    1.29781   1.27502   -1.000
 5531.00    1.30747   1.28567   -1.000
 5532.00    1.31060   1.28908   -1.000
 5533.00    1.30854   1.28636   -1.000
 5534.00    1.29994   1.28263  143.377
 5535.00    1.29937   1.28257  142.349
 5536.00    1.30378   1.28694  142.008
 5537.00    1.30976   1.29314  141.165
 5538.00    1.31860   1.29857   -1.000
 5539.00    1.32232   1.30234   -1.000
 5540.00    1.32454   1.30438   -1.000
 5541.00    1.32510   1.30448   -1.000
 5542.00    1.32158   1.30265   -1.000
 5543.00    1.31683   1.29997  142.286
 5544.00    1.31306   1.29818  141.849
 5545.00    1.31634   1.29827   -1.000
 5546.00    1.32188   1.30009   -1.000
 5547.00    1.32462   1.30335   -1.000
 5548.00    1.32629   1.30747   -1.000
 5549.00    1.32463   1.31101  138.029
 5550.00    1.32613   1.31241  138.970
 5551.00    1.32899   1.31160   -1.000
 5552.00    1.32831   1.30973   -1.000
 5553.00    1.32253   1.30786  142.103
 5554.00    1.31810   1.30653  141.762
 5555.00    1.31758   1.30602  141.350
 5556.00    1.32229   1.30631  141.145
 5557.00    1.32519   1.30703   -1.000
 5558.00    1.32534   1.30781  140.942
 5559.00    1.32498   1.30832  141.392
 5560.00    1.32616   1.30793  142.334
 5561.00    1.32408   1.30611  143.736
 5562.00    1.31507   1.30341  144.544
 5563.00    1.31296   1.30119  144.877
 5564.00    1.31323   1.29986  145.131
 5565.00    1.31546   1.29859  145.152
 5566.00    1.31184   1.29664  144.808
 5567.00    1.30891   1.29411  144.691
 5568.00    1.30796   1.29161  145.043
 5569.00    1.30241   1.28966  144.914
 5570.00    1.30151   1.28793  145.051
 5571.00    1.30813   1.28566   -1.000
 5572.00    1.32183   1.28370   -1.000
 5573.00    1.38273   1.28410   -1.000
 5574.00    1.55930   1.28727   -1.000
 5575.00    1.84653   1.29177   -1.000
 5576.00    2.01095   1.29613   -1.000
 5577.00    1.90384   1.29989   -1.000
 5578.00    1.62731   1.30298   -1.000
 5579.00    1.39645   1.30485   -1.000
 5580.00    1.33655   1.30490   -1.000
 5581.00    1.32618   1.30371   -1.000
 5582.00    1.31915   1.30246  142.993
 5583.00    1.31770   1.30062  144.518
 5584.00    1.31213   1.29548  148.074
 5585.00    1.30144   1.28511  151.747
 5586.00    1.28348   1.27154  154.530
 5587.00    1.26909   1.25996  154.723
 5588.00    1.26538   1.25499  152.396
 5589.00    1.27058   1.25790  149.734
 5590.00    1.28302   1.26624  148.122
 5591.00    1.29514   1.27530   -1.000
 5592.00    1.30270   1.28115   -1.000
 5593.00    1.29946   1.28357  147.011
 5594.00    1.29637   1.28540  145.025
 5595.00    1.30258   1.28833  144.580
 5596.00    1.30892   1.29018   -1.000
 5597.00    1.30588   1.28833  148.880
 5598.00    1.29921   1.28376  149.919
 5599.00    1.29746   1.27884  149.932
 5600.00    1.29816   1.27439   -1.000
 5601.00    1.29282   1.27150   -1.000
 5602.00    1.28851   1.27302  147.500
 5603.00    1.29657   1.28081  143.508
 5604.00    1.31525   1.29303   -1.000
 5605.00    1.32990   1.30526   -1.000
 5606.00    1.33620   1.31402   -1.000
 5607.00    1.33759   1.31873  139.741
 5608.00    1.33461   1.32081  139.918
 5609.00    1.33497   1.32195  139.658
 5610.00    1.33593   1.32266  139.488
 5611.00    1.33704   1.32154  140.843
 5612.00    1.33419   1.31593  144.489
 5613.00    1.31961   1.30448  149.273
 5614.00    1.30015   1.29038  151.304
 5615.00    1.28800   1.28103  149.007
 5616.00    1.29234   1.28178  145.657
 5617.00    1.30563   1.29047  144.249
 5618.00    1.31895   1.30043  143.961
 5619.00    1.32609   1.30707  143.246
 5620.00    1.32846   1.31017  142.886
 5621.00    1.33110   1.31085   -1.000
 5622.00    1.32757   1.30915  147.239
 5623.00    1.31864   1.30529  149.021
 5624.00    1.30997   1.30147  147.560
 5625.00    1.30854   1.30058  145.016
 5626.00    1.31644   1.30335  143.081
 5627.00    1.32631   1.30794  141.619
 5628.00    1.33472   1.31230   -1.000
 5629.00    1.33954   1.31556   -1.000
 5630.00    1.34157   1.31754   -1.000
 5631.00    1.33652   1.31817  140.494
 5632.00    1.33581   1.31757  141.660
 5633.00    1.33669   1.31631   -1.000
 5634.00    1.33254   1.31478  143.556
 5635.00    1.32860   1.31278  144.609
 5636.00    1.32575   1.31024  145.316
 5637.00    1.32385   1.30782  145.193
 5638.00    1.32544   1.30594   -1.000
 5639.00    1.32237   1.30431  145.654
 5640.00    1.32114   1.30277  145.503
 5641.00    1.32127   1.30211  144.834
 5642.00    1.32302   1.30314   -1.000
 5643.00    1.32906   1.30548   -1.000
 5644.00    1.33400   1.30793   -1.000
 5645.00    1.33544   1.30972   -1.000
 5646.00    1.33297   1.31079   -1.000
 5647.00    1.33337   1.31140   -1.000
 5648.00    1.33567   1.31176   -1.000
 5649.00    1.33659   1.31205   -1.000
 5650.00    1.33775   1.31266   -1.000
 5651.00    1.33652   1.31371   -1.000
 5652.00    1.33215   1.31459   -1.000
 5653.00    1.32988   1.31429  143.178
 5654.00    1.33054   1.31146   -1.000
 5655.00    1.32689   1.30450   -1.000
 5656.00    1.31768   1.29315   -1.000
 5657.00    1.30176   1.28119   -1.000
 5658.00    1.28807   1.27490  150.470
 5659.00    1.29161   1.27695  147.865
 5660.00    1.30537   1.28374   -1.000
 5661.00    1.31681   1.29009   -1.000
 5662.00    1.31796   1.29506   -1.000
 5663.00    1.32384   1.30070   -1.000
 5664.00    1.33282   1.30639   -1.000
 5665.00    1.33202   1.30877   -1.000
 5666.00    1.33065   1.30654   -1.000
 5667.00    1.32797   1.30236   -1.000
 5668.00    1.32544   1.30007   -1.000
 5669.00    1.32634   1.30129   -1.000
 5670.00    1.32721   1.30505   -1.000
 5671.00    1.33432   1.30960   -1.000
 5672.00    1.34311   1.31364   -1.000
 5673.00    1.34809   1.31654   -1.000
 5674.00    1.34748   1.31829   -1.000
 5675.00    1.34285   1.31945   -1.000
 5676.00    1.34388   1.32040   -1.000
 5677.00    1.34323   1.32083   -1.000
 5678.00    1.33786   1.32005   -1.000
 5679.00    1.33974   1.31760   -1.000
 5680.00    1.33990   1.31331   -1.000
 5681.00    1.33461   1.30751   -1.000
 5682.00    1.32834   1.30163   -1.000
 5683.00    1.32525   1.29795   -1.000
 5684.00    1.32506   1.29781   -1.000
 5685.00    1.32856   1.30001   -1.000
 5686.00    1.32975   1.30194   -1.000
 5687.00    1.32798   1.30231   -1.000
 5688.00    1.32874   1.30213   -1.000
 5689.00    1.33424   1.30332   -1.000
 5690.00    1.33950   1.30677   -1.000
 5691.00    1.34579   1.31163   -1.000
 5692.00    1.34779   1.31615   -1.000
 5693.00    1.35026   1.31912   -1.000
 5694.00    1.34829   1.32047   -1.000
 5695.00    1.34525   1.32067   -1.000
 5696.00    1.34233   1.31991   -1.000
 5697.00    1.33685   1.31789   -1.000
 5698.00    1.33211   1.31443   -1.000
 5699.00    1.32717   1.31008   -1.000
 5700.00    1.32040   1.30607  147.301
 5701.00    1.31925   1.30386  145.903
 5702.00    1.31463   1.30429  144.693
 5703.00    1.31613   1.30654  144.853
 5704.00    1.32310   1.30819  146.271
 5705.00    1.32322   1.30711  148.643
 5706.00    1.31610   1.30261  151.349
 5707.00    1.30649   1.29550  153.215
 5708.00    1.29831   1.28780  153.585
 5709.00    1.29025   1.28222  152.748
 5710.00    1.29045   1.28118  150.588
 5711.00    1.30002   1.28542  147.142
 5712.00    1.31583   1.29333   -1.000
 5713.00    1.33097   1.30188   -1.000
 5714.00    1.33709   1.30871   -1.000
 5715.00    1.33969   1.31337   -1.000
 5716.00    1.34129   1.31664   -1.000
 5717.00    1.34070   1.31917   -1.000
 5718.00    1.34018   1.32133   -1.000
 5719.00    1.34386   1.32341   -1.000
 5720.00    1.34892   1.32537   -1.000
 5721.00    1.35050   1.32691   -1.000
 5722.00    1.35124   1.32793   -1.000
 5723.00    1.35018   1.32828   -1.000
 5724.00    1.34924   1.32727   -1.000
 5725.00    1.34691   1.32436   -1.000
 5726.00    1.34261   1.32041   -1.000
 5727.00    1.34046   1.31736   -1.000
 5728.00    1.34220   1.31644   -1.000
 5729.00    1.34104   1.31734   -1.000
 5730.00    1.34042   1.31893   -1.000
 5731.00    1.34261   1.32050   -1.000
 5732.00    1.34260   1.32235   -1.000
 5733.00    1.34556   1.32484   -1.000
 5734.00    1.34713   1.32728   -1.000
 5735.00    1.34779   1.32863   -1.000
 5736.00    1.35070   1.32888   -1.000
 5737.00    1.34862   1.32865   -1.000
 5738.00    1.34449   1.32840   -1.000
 5739.00    1.34244   1.32836  140.662
 5740.00    1.34204   1.32846  140.795
 5741.00    1.34164   1.32837  140.451
 5742.00    1.34501   1.32824   -1.000
 5743.00    1.34454   1.32862   -1.000
 5744.00    1.34489   1.32949   -1.000
 5745.00    1.34705   1.32990   -1.000
 5746.00    1.34541   1.32915   -1.000
 5747.00    1.34072   1.32794  141.079
 5748.00    1.34028   1.32761  140.241
 5749.00    1.34512   1.32826   -1.000
 5750.00    1.34608   1.32818   -1.000
 5751.00    1.34184   1.32576   -1.000
 5752.00    1.33267   1.32154  144.418
 5753.00    1.32785   1.31830  143.673
 5754.00    1.32713   1.31879  141.406
 5755.00    1.33288   1.32323  139.010
 5756.00    1.34572   1.32936   -1.000
 5757.00    1.35105   1.33442   -1.000
 5758.00    1.35079   1.33639  140.827
 5759.00    1.34872   1.33452  142.718
 5760.00    1.34397   1.32979  144.294
 5761.00    1.33554   1.32472  144.168
 5762.00    1.33270   1.32238  142.076
 5763.00    1.33655   1.32456  139.709
 5764.00    1.33999   1.32997  138.490
 5765.00    1.34720   1.33517  138.265
 5766.00    1.35321   1.33791  138.108
 5767.00    1.35628   1.33840   -1.000
 5768.00    1.35355   1.33781   -1.000
 5769.00    1.34910   1.33685  138.985
 5770.00    1.34714   1.33572  139.820
 5771.00    1.34375   1.33446  140.531
 5772.00    1.34396   1.33288  140.772
 5773.00    1.34249   1.33073  140.787
 5774.00    1.34235   1.32827  140.315
 5775.00    1.33967   1.32638  139.753
 5776.00    1.33611   1.32534  139.864
 5777.00    1.32563   1.32409  140.853
 5778.00    1.30748   1.32146  143.425
 5779.00    1.29683   1.31738  146.347
 5780.00    1.30234   1.31282  147.415
 5781.00    1.31533   1.30919  146.862
 5782.00    1.32357   1.30756  146.298
 5783.00    1.32899   1.30796   -1.000
 5784.00    1.33245   1.30961   -1.000
 5785.00    1.33459   1.31179   -1.000
 5786.00    1.33949   1.31432   -1.000
 5787.00    1.33968   1.31710   -1.000
 5788.00    1.34537   1.31977   -1.000
 5789.00    1.35013   1.32175   -1.000
 5790.00    1.34668   1.32294   -1.000
 5791.00    1.34176   1.32432   -1.000
 5792.00    1.34144   1.32709  138.931
 5793.00    1.34652   1.33123   -1.000
 5794.00    1.34283   1.33516  138.601
 5795.00    1.33891   1.33698  139.532
 5796.00    1.34031   1.33625  139.926
 5797.00    1.34538   1.33469  138.752
 5798.00    1.34964   1.33462   -1.000
 5799.00    1.35508   1.33675   -1.000
 5800.00    1.35942   1.33984   -1.000
 5801.00    1.36153   1.34215   -1.000
 5802.00    1.36412   1.34261   -1.000
 5803.00    1.35774   1.34144   -1.000
 5804.00    1.35286   1.34000  139.293
 5805.00    1.35193   1.33964  138.826
 5806.00    1.35375   1.34065  138.328
 5807.00    1.35728   1.34230   -1.000
 5808.00    1.35692   1.34365  138.046
 5809.00    1.35901   1.34444   -1.000
 5810.00    1.36425   1.34495   -1.000
 5811.00    1.36759   1.34522   -1.000
 5812.00    1.36889   1.34479   -1.000
 5813.00    1.36950   1.34323   -1.000
 5814.00    1.36573   1.34091   -1.000
 5815.00    1.36162   1.33911   -1.000
 5816.00    1.36218   1.33918   -1.000
 5817.00    1.36646   1.34122   -1.000
 5818.00    1.37087   1.34400   -1.000
 5819.00    1.37372   1.34622   -1.000
 5820.00    1.37247   1.34756   -1.000
 5821.00    1.37025   1.34827   -1.000
 5822.00    1.37176   1.34853   -1.000
 5823.00    1.37104   1.34842   -1.000
 5824.00    1.37244   1.34831   -1.000
 5825.00    1.37706   1.34865   -1.000
 5826.00    1.37722   1.34963   -1.000
 5827.00    1.37549   1.35105   -1.000
 5828.00    1.37388   1.35248   -1.000
 5829.00    1.37494   1.35333   -1.000
 5830.00    1.37948   1.35328   -1.000
 5831.00    1.37938   1.35247   -1.000
 5832.00    1.37679   1.35113   -1.000
 5833.00    1.37438   1.34953   -1.000
 5834.00    1.37209   1.34821   -1.000
 5835.00    1.37637   1.34784   -1.000
 5836.00    1.37779   1.34859   -1.000
 5837.00    1.37514   1.35010   -1.000
 5838.00    1.37796   1.35189   -1.000
 5839.00    1.38283   1.35349   -1.000
 5840.00    1.38189   1.35438   -1.000
 5841.00    1.37560   1.35419   -1.000
 5842.00    1.37288   1.35284   -1.000
 5843.00    1.37424   1.35061   -1.000
 5844.00    1.37516   1.34809   -1.000
 5845.00    1.37733   1.34586   -1.000
 5846.00    1.36893   1.34421   -1.000
 5847.00    1.36728   1.34309   -1.000
 5848.00    1.36824   1.34209   -1.000
 5849.00    1.37126   1.34048   -1.000
 5850.00    1.37118   1.33741   -1.000
 5851.00    1.36489   1.33254   -1.000
 5852.00    1.35406   1.32698   -1.000
 5853.00    1.34607   1.32270   -1.000
 5854.00    1.34679   1.32010   -1.000
 5855.00    1.34720   1.31728   -1.000
 5856.00    1.34736   1.31307   -1.000
 5857.00    1.34815   1.30956   -1.000
 5858.00    1.34912   1.30988   -1.000
 5859.00    1.35417   1.31447   -1.000
 5860.00    1.36273   1.32077   -1.000
 5861.00    1.36426   1.32611   -1.000
 5862.00    1.36668   1.32951   -1.000
 5863.00    1.37382   1.33103   -1.000
 5864.00    1.37491   1.33071   -1.000
 5865.00    1.37144   1.32905   -1.000
 5866.00    1.37167   1.32762   -1.000
 5867.00    1.37390   1.32821   -1.000
 5868.00    1.37478   1.33105   -1.000
 5869.00    1.37960   1.33469   -1.000
 5870.00    1.38331   1.33726   -1.000
 5871.00    1.38083   1.33780   -1.000
 5872.00    1.37872   1.33644   -1.000
 5873.00    1.38064   1.33396   -1.000
 5874.00    1.38286   1.33120   -1.000
 5875.00    1.38065   1.32890   -1.000
 5876.00    1.37492   1.32723   -1.000
 5877.00    1.37154   1.32550   -1.000
 5878.00    1.37190   1.32306   -1.000
 5879.00    1.37032   1.32023   -1.000
 5880.00    1.36672   1.31767   -1.000
 5881.00    1.36541   1.31531   -1.000
 5882.00    1.36468   1.31246   -1.000
 5883.00    1.36041   1.30865   -1.000
 5884.00    1.35509   1.30374   -1.000
 5885.00    1.33744   1.29608   -1.000
 5886.00    1.29684   1.28109  152.769
 5887.00    1.24244   1.25450  163.139
 5888.00    1.20530   1.22041   -1.000
 5889.00    1.20660   1.19319  170.759
 5890.00    1.23305   1.18638   -1.000
 5891.00    1.25534   1.19909   -1.000
 5892.00    1.25537   1.21638   -1.000
 5893.00    1.22567   1.22270  161.243
 5894.00    1.19763   1.21532   -1.000
 5895.00    1.19838   1.20560  161.736
 5896.00    1.23662   1.20718   -1.000
 5897.00    1.28948   1.22296   -1.000
 5898.00    1.32689   1.24527   -1.000
 5899.00    1.34848   1.26591   -1.000
 5900.00    1.35592   1.28189   -1.000
 5901.00    1.35942   1.29357   -1.000
 5902.00    1.36455   1.30184   -1.000
 5903.00    1.36601   1.30732   -1.000
 5904.00    1.36987   1.31072   -1.000
 5905.00    1.37103   1.31283   -1.000
 5906.00    1.37084   1.31428   -1.000
 5907.00    1.37016   1.31554   -1.000
 5908.00    1.36827   1.31687   -1.000
 5909.00    1.36774   1.31796   -1.000
 5910.00    1.36408   1.31801   -1.000
 5911.00    1.36670   1.31625   -1.000
 5912.00    1.36824   1.31252   -1.000
 5913.00    1.36779   1.30766   -1.000
 5914.00    1.36169   1.30342   -1.000
 5915.00    1.35710   1.30127   -1.000
 5916.00    1.35438   1.30161   -1.000
 5917.00    1.35508   1.30391   -1.000
 5918.00    1.35483   1.30719   -1.000
 5919.00    1.35875   1.31031   -1.000
 5920.00    1.36602   1.31249   -1.000
 5921.00    1.36470   1.31365   -1.000
 5922.00    1.36152   1.31436   -1.000
 5923.00    1.36636   1.31554   -1.000
 5924.00    1.37227   1.31766   -1.000
 5925.00    1.37527   1.32022   -1.000
 5926.00    1.37553   1.32201   -1.000
 5927.00    1.37424   1.32193   -1.000
 5928.00    1.36888   1.32003   -1.000
 5929.00    1.36353   1.31789   -1.000
 5930.00    1.36463   1.31730   -1.000
 5931.00    1.36899   1.31838   -1.000
 5932.00    1.37218   1.31968   -1.000
 5933.00    1.37201   1.31990   -1.000
 5934.00    1.36877   1.31920   -1.000
 5935.00    1.36660   1.31890   -1.000
 5936.00    1.36579   1.31968   -1.000
 5937.00    1.36397   1.32057   -1.000
 5938.00    1.36295   1.32000   -1.000
 5939.00    1.36227   1.31766   -1.000
 5940.00    1.35953   1.31476   -1.000
 5941.00    1.35916   1.31269   -1.000
 5942.00    1.36256   1.31225   -1.000
 5943.00    1.36259   1.31357   -1.000
 5944.00    1.36375   1.31583   -1.000
 5945.00    1.36683   1.31748   -1.000
 5946.00    1.36249   1.31748   -1.000
 5947.00    1.35790   1.31638   -1.000
 5948.00    1.35469   1.31584   -1.000
 5949.00    1.35579   1.31671   -1.000
 5950.00    1.36312   1.31825   -1.000
 5951.00    1.36839   1.31941   -1.000
 5952.00    1.36771   1.31989   -1.000
 5953.00    1.36467   1.31965   -1.000
 5954.00    1.36237   1.31847   -1.000
 5955.00    1.35700   1.31660   -1.000
 5956.00    1.35057   1.31521   -1.000
 5957.00    1.34968   1.31565   -1.000
 5958.00    1.35513   1.31822   -1.000
 5959.00    1.36361   1.32204   -1.000
 5960.00    1.36993   1.32578   -1.000
 5961.00    1.37220   1.32841   -1.000
 5962.00    1.37503   1.32934   -1.000
 5963.00    1.37231   1.32850   -1.000
 5964.00    1.36596   1.32641   -1.000
 5965.00    1.36210   1.32426   -1.000
 5966.00    1.36196   1.32322   -1.000
 5967.00    1.36289   1.32369   -1.000
 5968.00    1.36677   1.32520   -1.000
 5969.00    1.36863   1.32708   -1.000
 5970.00    1.36751   1.32875   -1.000
 5971.00    1.36760   1.32972   -1.000
 5972.00    1.36646   1.32978   -1.000
 5973.00    1.36446   1.32893   -1.000
 5974.00    1.36216   1.32704   -1.000
 5975.00    1.35700   1.32432   -1.000
 5976.00    1.35609   1.32172   -1.000
 5977.00    1.36094   1.32052   -1.000
 5978.00    1.35967   1.32138   -1.000
 5979.00    1.35714   1.32364   -1.000
 5980.00    1.35989   1.32559   -1.000
 5981.00    1.35997   1.32564   -1.000
 5982.00    1.35866   1.32353   -1.000
 5983.00    1.35272   1.32070   -1.000
 5984.00    1.34851   1.31912   -1.000
 5985.00    1.35080   1.31975   -1.000
 5986.00    1.35392   1.32198   -1.000
 5987.00    1.35562   1.32450   -1.000
 5988.00    1.35771   1.32627   -1.000
 5989.00    1.35700   1.32690   -1.000
 5990.00    1.35508   1.32709   -1.000
 5991.00    1.35564   1.32825   -1.000
 5992.00    1.35767   1.33115   -1.000
 5993.00    1.35860   1.33483   -1.000
 5994.00    1.35878   1.33732   -1.000
 5995.00    1.36036   1.33744   -1.000
 5996.00    1.35889   1.33582   -1.000
 5997.00    1.35568   1.33407   -1.000
 5998.00    1.35530   1.33320   -1.000
 5999.00    1.35702   1.33284   -1.000
 6000.00    1.35763   1.33213   -1.000
 6001.00    1.35507   1.33085   -1.000
 6002.00    1.35306   1.32950   -1.000
 6003.00    1.35285   1.32849   -1.000
 6004.00    1.35080   1.32740   -1.000
 6005.00    1.34577   1.32539   -1.000
 6006.00    1.34479   1.32251   -1.000
 6007.00    1.34180   1.32036   -1.000
 6008.00    1.33782   1.32075   -1.000
 6009.00    1.33982   1.32369   -1.000
 6010.00    1.34442   1.32706   -1.000
 6011.00    1.34889   1.32895   -1.000
 6012.00    1.34846   1.32938   -1.000
 6013.00    1.34721   1.32957   -1.000
 6014.00    1.35098   1.33007   -1.000
 6015.00    1.34960   1.33025   -1.000
 6016.00    1.34666   1.32956   -1.000
 6017.00    1.34669   1.32811   -1.000
 6018.00    1.34923   1.32637   -1.000
 6019.00    1.34661   1.32486   -1.000
 6020.00    1.34317   1.32394   -1.000
 6021.00    1.34339   1.32369   -1.000
 6022.00    1.34115   1.32413   -1.000
 6023.00    1.34281   1.32560   -1.000
 6024.00    1.34004   1.32822  143.360
 6025.00    1.34070   1.33143  142.807
 6026.00    1.34798   1.33443  141.948
 6027.00    1.35146   1.33685   -1.000
 6028.00    1.35518   1.33863   -1.000
 6029.00    1.35740   1.33980   -1.000
 6030.00    1.35761   1.34063   -1.000
 6031.00    1.35715   1.34142   -1.000
 6032.00    1.35762   1.34238   -1.000
 6033.00    1.36066   1.34367   -1.000
 6034.00    1.35958   1.34512  140.420
 6035.00    1.35369   1.34590  140.293
 6036.00    1.35428   1.34514  140.750
 6037.00    1.35247   1.34289  141.415
 6038.00    1.35018   1.33997  141.699
 6039.00    1.35214   1.33720   -1.000
 6040.00    1.35280   1.33479   -1.000
 6041.00    1.35174   1.33214   -1.000
 6042.00    1.35248   1.33006   -1.000
 6043.00    1.35211   1.33120   -1.000
 6044.00    1.35478   1.33613   -1.000
 6045.00    1.35538   1.34201  139.632
 6046.00    1.35323   1.34592  139.523
 6047.00    1.35203   1.34724  139.842
 6048.00    1.34904   1.34669  140.294
 6049.00    1.35022   1.34531  140.511
 6050.00    1.35572   1.34401  140.678
 6051.00    1.35452   1.34305  141.086
 6052.00    1.35271   1.34219  141.637
 6053.00    1.35135   1.34104  142.189
 6054.00    1.35267   1.33947  142.882
 6055.00    1.35223   1.33777   -1.000
 6056.00    1.34678   1.33650  142.495
 6057.00    1.34916   1.33602  141.704
 6058.00    1.35386   1.33646   -1.000
 6059.00    1.35451   1.33747   -1.000
 6060.00    1.35247   1.33790   -1.000
 6061.00    1.34508   1.33625  145.173
 6062.00    1.32177   1.33181  144.982
 6063.00    1.31385   1.32581  164.993
 6064.00    1.30148   1.32108   93.238
 6065.00    1.03806   1.32044   -1.000
 6066.00    0.69473   1.32455   -1.000
 6067.00    0.96554   1.33130   -1.000
 6068.00    1.34864   1.33771  140.313
 6069.00    1.33192   1.34224  136.970
 6070.00    1.32525   1.34499  137.227
 6071.00    1.30396   1.34671   -1.000
 6072.00    1.31641   1.34780   -1.000
 6073.00    1.35845   1.34808  140.462
 6074.00    1.35069   1.34724  141.077
 6075.00    1.35058   1.34526  141.860
 6076.00    1.34698   1.34266  142.793
 6077.00    1.34467   1.34024  143.840
 6078.00    1.34453   1.33846  144.374
 6079.00    1.34261   1.33718  144.402
 6080.00    1.34182   1.33588  144.663
 6081.00    1.34117   1.33434  144.936
 6082.00    1.33972   1.33307  144.842
 6083.00    1.33605   1.33273  144.715
 6084.00    1.33513   1.33346  144.451
 6085.00    1.33778   1.33493  143.940
 6086.00    1.34090   1.33669  143.689
 6087.00    1.34210   1.33813  144.292
 6088.00    1.33797   1.33854  145.109
 6089.00    1.33719   1.33758  145.418
 6090.00    1.33827   1.33590  144.940
 6091.00    1.33769   1.33488  144.020
 6092.00    1.34002   1.33550  143.293
 6093.00    1.34277   1.33760  142.542
 6094.00    1.34384   1.34039  142.211
 6095.00    1.34455   1.34308  142.444
 6096.00    1.34562   1.34528  142.715
 6097.00    1.34119   1.34647  142.746
 6098.00    1.33752   1.34565  143.426
 6099.00    1.33539   1.34148  146.022
 6100.00    1.33191   1.33353  149.277
 6101.00    1.31841   1.32379  150.143
 6102.00    1.30804   1.31679  148.044
 6103.00    1.31243   1.31609  145.335
 6104.00    1.32231   1.32123  143.889
 6105.00    1.33016   1.32872  143.951
 6106.00    1.33482   1.33549  144.498
 6107.00    1.33367   1.34054  144.659
 6108.00    1.33014   1.34397  144.463
 6109.00    1.33214   1.34573  144.001
 6110.00    1.33521   1.34585  143.582
 6111.00    1.34074   1.34503  143.316
 6112.00    1.34099   1.34443  142.644
 6113.00    1.33881   1.34454  142.709
 6114.00    1.33794   1.34508  143.496
 6115.00    1.33289   1.34542  144.172
 6116.00    1.33053   1.34490  144.501
 6117.00    1.33004   1.34207  145.819
 6118.00    1.33106   1.33522  147.972
 6119.00    1.32159   1.32486  149.651
 6120.00    1.31414   1.31362  150.511
 6121.00    1.30800   1.30587  149.477
 6122.00    1.30173   1.30584  147.046
 6123.00    1.30700   1.31322  145.971
 6124.00    1.31576   1.32321  146.441
 6125.00    1.32193   1.33091  146.935
 6126.00    1.32568   1.33429  146.592
 6127.00    1.32507   1.33429  145.917
 6128.00    1.32207   1.33424  144.568
 6129.00    1.32358   1.33709  143.628
 6130.00    1.32850   1.34214  143.658
 6131.00    1.33174   1.34619  144.411
 6132.00    1.32815   1.34619  146.642
 6133.00    1.32194   1.34004  150.550
 6134.00    1.30813   1.32731  154.825
 6135.00    1.28746   1.31122  157.251
 6136.00    1.27239   1.29895   -1.000
 6137.00    1.26927   1.29591  151.155
 6138.00    1.28176   1.30063  147.939
 6139.00    1.29755   1.30663  147.297
 6140.00    1.29842   1.31007  147.684
 6141.00    1.29703   1.31312  147.192
 6142.00    1.30063   1.31889  145.439
 6143.00    1.31028   1.32667  144.313
 6144.00    1.32339   1.33310  144.592
 6145.00    1.32591   1.33573  145.424
 6146.00    1.32081   1.33458  146.418
 6147.00    1.31723   1.33126  147.405
 6148.00    1.31758   1.32805  147.896
 6149.00    1.31986   1.32676  147.606
 6150.00    1.31930   1.32788  146.821
 6151.00    1.31640   1.33038  146.104
 6152.00    1.31656   1.33257  146.591
 6153.00    1.31893   1.33300  147.754
 6154.00    1.31921   1.33144  148.181
 6155.00    1.31987   1.32872  148.448
 6156.00    1.31942   1.32562  149.518
 6157.00    1.31622   1.32192  151.710
 6158.00    1.31234   1.31591  155.417
 6159.00    1.30343   1.30529  160.211
 6160.00    1.28714   1.29050  163.542
 6161.00    1.27244   1.27672  163.171
 6162.00    1.26499   1.27050  159.559
 6163.00    1.26833   1.27367  155.827
 6164.00    1.28158   1.28236  154.348
 6165.00    1.29234   1.29094  154.251
 6166.00    1.29595   1.29600  155.402
 6167.00    1.29390   1.29684  157.385
 6168.00    1.28836   1.29502  157.761
 6169.00    1.28366   1.29378  155.557
 6170.00    1.28739   1.29583  152.757
 6171.00    1.29526   1.30111  151.673
 6172.00    1.30021   1.30734  152.000
 6173.00    1.30173   1.31272  151.879
 6174.00    1.30339   1.31687  151.501
 6175.00    1.30923   1.31976  151.175
 6176.00    1.31115   1.32152  150.607
 6177.00    1.30732   1.32252  149.916
 6178.00    1.30454   1.32308  149.425
 6179.00    1.30683   1.32358  148.856
 6180.00    1.31163   1.32447  148.275
 6181.00    1.31250   1.32568  148.218
 6182.00    1.31392   1.32665  148.670
 6183.00    1.31628   1.32702  149.488
 6184.00    1.31451   1.32649  150.935
 6185.00    1.31102   1.32464  152.585
 6186.00    1.30738   1.32125  154.095
 6187.00    1.30177   1.31621  155.401
 6188.00    1.30051   1.30918  156.882
 6189.00    1.29593   1.30080  158.593
 6190.00    1.28309   1.29387  158.293
 6191.00    1.27658   1.29224  155.345
 6192.00    1.28371   1.29716  151.888
 6193.00    1.29589   1.30598  150.222
 6194.00    1.30445   1.31462  149.715
 6195.00    1.30740   1.32065  150.054
 6196.00    1.30988   1.32331  151.474
 6197.00    1.30724   1.32279  153.072
 6198.00    1.29863   1.32029   -1.000
 6199.00    1.29555   1.31853   -1.000
 6200.00    1.29494   1.31945   -1.000
 6201.00    1.29307   1.32278   -1.000
 6202.00    1.29959   1.32684   -1.000
 6203.00    1.30596   1.33013   -1.000
 6204.00    1.31158   1.33221  149.323
 6205.00    1.31455   1.33341  149.601
 6206.00    1.31348   1.33409  149.978
 6207.00    1.31396   1.33427  150.189
 6208.00    1.31650   1.33363  151.243
 6209.00    1.31279   1.33180  152.601
 6210.00    1.30611   1.32852   -1.000
 6211.00    1.30238   1.32357   -1.000
 6212.00    1.29645   1.31737   -1.000
 6213.00    1.29003   1.31153   -1.000
 6214.00    1.29009   1.30760   -1.000
 6215.00    1.29478   1.30578  156.403
 6216.00    1.29735   1.30490  156.660
 6217.00    1.29497   1.30383  157.240
 6218.00    1.28977   1.30255  156.203
 6219.00    1.29081   1.30214  155.948
 6220.00    1.29784   1.30347  161.615
 6221.00    1.30437   1.30602  167.039
 6222.00    1.30647   1.30841  158.750
 6223.00    1.30503   1.31008  154.460
 6224.00    1.30775   1.31126  154.916
 6225.00    1.30725   1.31184  155.291
 6226.00    1.30550   1.31080  156.798
 6227.00    1.29918   1.30668  159.251
 6228.00    1.28972   1.29923  161.662
 6229.00    1.27956   1.29067  162.459
 6230.00    1.27429   1.28506  160.799
 6231.00    1.27787   1.28539  158.049
 6232.00    1.28922   1.29140  155.192
 6233.00    1.30493   1.29990  153.505
 6234.00    1.31397   1.30707  153.711
 6235.00    1.31786   1.31019  155.110
 6236.00    1.31659   1.30910  156.713
 6237.00    1.31146   1.30541  158.336
 6238.00    1.30697   1.30154  159.585
 6239.00    1.30083   1.29911  159.833
 6240.00    1.29476   1.29819  160.264
 6241.00    1.29189   1.29731  161.511
 6242.00    1.28611   1.29495  162.032
 6243.00    1.28214   1.29105  161.419
 6244.00    1.28248   1.28711  160.069
 6245.00    1.27893   1.28551  158.240
 6246.00    1.27741   1.28794  156.350
 6247.00    1.28260   1.29372  155.402
 6248.00    1.28783   1.29994  156.068
 6249.00    1.28920   1.30322  158.274
 6250.00    1.28710   1.30158  160.896
 6251.00    1.27934   1.29612  162.386
 6252.00    1.26821   1.29019   -1.000
 6253.00    1.26288   1.28661   -1.000
 6254.00    1.26512   1.28583   -1.000
 6255.00    1.27241   1.28645  165.523
 6256.00    1.27644   1.28719  166.014
 6257.00    1.27661   1.28844  164.327
 6258.00    1.27755   1.29128  161.729
 6259.00    1.27802   1.29599   -1.000
 6260.00    1.28324   1.30152   -1.000
 6261.00    1.28998   1.30675  155.400
 6262.00    1.28940   1.31065   -1.000
 6263.00    1.28753   1.31267   -1.000
 6264.00    1.28735   1.31321   -1.000
 6265.00    1.28419   1.31347   -1.000
 6266.00    1.28369   1.31408   -1.000
 6267.00    1.28705   1.31428   -1.000
 6268.00    1.28731   1.31332   -1.000
 6269.00    1.28512   1.31148   -1.000
 6270.00    1.28521   1.30961   -1.000
 6271.00    1.28855   1.30776   -1.000
 6272.00    1.28631   1.30477  156.753
 6273.00    1.27720   1.29922   -1.000
 6274.00    1.26324   1.29082   -1.000
 6275.00    1.24509   1.28107   -1.000
 6276.00    1.22854   1.27217   -1.000
 6277.00    1.21748   1.26620   -1.000
 6278.00    1.21426   1.26394   -1.000
 6279.00    1.21406   1.26540   -1.000
 6280.00    1.21233   1.27027   -1.000
 6281.00    1.21412   1.27801   -1.000
 6282.00    1.22438   1.28723   -1.000
 6283.00    1.24049   1.29623   -1.000
 6284.00    1.25755   1.30350   -1.000
 6285.00    1.27398   1.30860   -1.000
 6286.00    1.28332   1.31165   -1.000
 6287.00    1.28553   1.31270   -1.000
 6288.00    1.28596   1.31163   -1.000
 6289.00    1.28439   1.30917   -1.000
 6290.00    1.28160   1.30648   -1.000
 6291.00    1.28007   1.30444   -1.000
 6292.00    1.28227   1.30291  158.491
 6293.00    1.28929   1.30120  159.203
 6294.00    1.30091   1.29861  160.433
 6295.00    1.32552   1.29515   -1.000
 6296.00    1.37106   1.29186   -1.000
 6297.00    1.43991   1.28990   -1.000
 6298.00    1.52187   1.28948   -1.000
 6299.00    1.55724   1.28966   -1.000
 6300.00    1.50066   1.28996   -1.000
 6301.00    1.39288   1.29133   -1.000
 6302.00    1.31662   1.29469   -1.000
 6303.00    1.29237   1.29947  157.768
 6304.00    1.29339   1.30415  156.146
 6305.00    1.30013   1.30782  154.810
 6306.00    1.30377   1.31076  153.904
 6307.00    1.30094   1.31329  154.157
 6308.00    1.29480   1.31533  155.061
 6309.00    1.29224   1.31655   -1.000
 6310.00    1.29085   1.31662   -1.000
 6311.00    1.29176   1.31553   -1.000
 6312.00    1.28799   1.31359   -1.000
 6313.00    1.28245   1.31123   -1.000
 6314.00    1.27840   1.30878   -1.000
 6315.00    1.27167   1.30646   -1.000
 6316.00    1.27207   1.30431   -1.000
 6317.00    1.27418   1.30314   -1.000
 6318.00    1.27475   1.30440   -1.000
 6319.00    1.28146   1.30817   -1.000
 6320.00    1.28967   1.31291  154.574
 6321.00    1.29242   1.31730   -1.000
 6322.00    1.29417   1.32120   -1.000
 6323.00    1.29868   1.32469   -1.000
 6324.00    1.30806   1.32732  152.442
 6325.00    1.31418   1.32857  152.077
 6326.00    1.31545   1.32872  151.666
 6327.00    1.31849   1.32837  151.867
 6328.00    1.31893   1.32811  151.962
 6329.00    1.31792   1.32832  151.772
 6330.00    1.31738   1.32899  151.306
 6331.00    1.31302   1.32927  151.381
 6332.00    1.31017   1.32762  151.823
 6333.00    1.30429   1.32323  153.607
 6334.00    1.29007   1.31723   -1.000
 6335.00    1.27956   1.31285   -1.000
 6336.00    1.28491   1.31255   -1.000
 6337.00    1.29457   1.31599  152.181
 6338.00    1.30158   1.32095  150.916
 6339.00    1.30975   1.32532  150.244
 6340.00    1.31473   1.32797  149.881
 6341.00    1.31236   1.32861  150.617
 6342.00    1.31253   1.32732  151.550
 6343.00    1.31338   1.32474  151.390
 6344.00    1.31513   1.32213  150.756
 6345.00    1.31920   1.32080  149.804
 6346.00    1.32426   1.32175  148.955
 6347.00    1.32532   1.32513  148.694
 6348.00    1.32534   1.33003  148.601
 6349.00    1.32479   1.33464  148.455
 6350.00    1.32445   1.33732  148.855
 6351.00    1.32679   1.33745  149.548
 6352.00    1.32702   1.33551  150.701
 6353.00    1.32241   1.33262  152.320
 6354.00    1.31931   1.32994  153.035
 6355.00    1.31832   1.32786  153.194
 6356.00    1.31375   1.32594  154.263
 6357.00    1.31527   1.32363  155.619
 6358.00    1.31914   1.32118  155.615
 6359.00    1.33348   1.31917  154.970
 6360.00    1.35630   1.31767   -1.000
 6361.00    1.38160   1.31669   -1.000
 6362.00    1.40211   1.31675   -1.000
 6363.00    1.39983   1.31842   -1.000
 6364.00    1.37335   1.32132   -1.000
 6365.00    1.34561   1.32447   -1.000
 6366.00    1.33295   1.32705  149.771
 6367.00    1.32688   1.32844  149.047
 6368.00    1.32265   1.32816  148.925
 6369.00    1.31959   1.32664  148.783
 6370.00    1.32177   1.32528  148.197
 6371.00    1.32559   1.32554  148.052
 6372.00    1.32771   1.32781  148.383
 6373.00    1.32535   1.33081  148.567
 6374.00    1.32297   1.33291  149.009
 6375.00    1.32086   1.33342  149.670
 6376.00    1.31839   1.33253  150.563
 6377.00    1.31696   1.33073  151.403
 6378.00    1.31438   1.32853  151.733
 6379.00    1.31074   1.32643  151.895
 6380.00    1.30882   1.32488  152.053
 6381.00    1.30809   1.32424  151.822
 6382.00    1.30621   1.32456  151.900
 6383.00    1.30496   1.32558  152.519
 6384.00    1.30484   1.32697  152.620
 6385.00    1.30288   1.32857  152.735
 6386.00    1.30050   1.33010   -1.000
 6387.00    1.29348   1.33098   -1.000
 6388.00    1.28764   1.33067   -1.000
 6389.00    1.28239   1.32870   -1.000
 6390.00    1.27315   1.32459   -1.000
 6391.00    1.26440   1.31891   -1.000
 6392.00    1.25285   1.31396   -1.000
 6393.00    1.24560   1.31265   -1.000
 6394.00    1.24693   1.31570   -1.000
 6395.00    1.25040   1.32052   -1.000
 6396.00    1.24872   1.32330   -1.000
 6397.00    1.24072   1.32179   -1.000
 6398.00    1.22770   1.31725   -1.000
 6399.00    1.21496   1.31353   -1.000
 6400.00    1.20951   1.31419   -1.000
 6401.00    1.21342   1.31950   -1.000
 6402.00    1.21936   1.32655   -1.000
 6403.00    1.22225   1.33186   -1.000
 6404.00    1.22090   1.33335   -1.000
 6405.00    1.21028   1.33085   -1.000
 6406.00    1.19795   1.32595   -1.000
 6407.00    1.19029   1.32107   -1.000
 6408.00    1.18478   1.31875   -1.000
 6409.00    1.17654   1.31942   -1.000
 6410.00    1.16660   1.32099   -1.000
 6411.00    1.15989   1.32213   -1.000
 6412.00    1.15614   1.32299   -1.000
 6413.00    1.15415   1.32390   -1.000
 6414.00    1.15139   1.32482   -1.000
 6415.00    1.14360   1.32592   -1.000
 6416.00    1.13385   1.32670   -1.000
 6417.00    1.12694   1.32598   -1.000
 6418.00    1.11562   1.32317   -1.000
 6419.00    1.10271   1.31948   -1.000
 6420.00    1.09093   1.31762   -1.000
 6421.00    1.08026   1.31961   -1.000
 6422.00    1.07504   1.32500   -1.000
 6423.00    1.07344   1.33154   -1.000
 6424.00    1.07125   1.33709   -1.000
 6425.00    1.06533   1.34051   -1.000
 6426.00    1.05400   1.34119   -1.000
 6427.00    1.04294   1.33846   -1.000
 6428.00    1.03093   1.33243   -1.000
