###################################################################
## OUTPUT of StarlightChains_v04.for    [Cid@UFSC - 01/Apr/2007] ##
###################################################################

## Some input info
NGC5904_b_1.cxt                          [arq_obs]
Base.BC03.S                              [arq_base]
NGC5904_b_1.msk                          [arq_masks]
StCv04.C99.config                        [arq_config]
  150                                    [N_base]
    0                                    [N_YAV_components = # of components with extra extinction!]
    0                                    [i_FitPowerLaw (1/0 = Yes/No)]
-9.99                                    [alpha_PowerLaw]
CCM                                      [red_law_option]
 1.458241                                [q_norm = A(l_norm)/A(V)]

## (Re)Sampling Parameters
 3359.00                                 [l_ini (A)]
 6428.00                                 [l_fin (A)]
    1.00                                 [dl    (A)]     (OBS: dl_cushion =    50.00 A)

## Normalization info
 4020.00                                 [l_norm (A) - for base]
 4010.00                                 [llow_norm (A) - window for f_obs]
 4060.00                                 [lupp_norm (A) - window for f_obs]
8.938202E-14                             [fobs_norm (in input units)]

## S/N
 4730.00                                 [llow_SN (A) - window for S/N]
 4780.00                                 [lupp_SN (A) - window for S/N]
  94.706                                 [S/N in S/N window]
  90.136                                 [S/N in norm. window]
 354.791                                 [S/N_err in S/N window]
 337.672                                 [S/N_err in norm. window]
  1.0000                                 [fscale_chi2]

## etc...
  2147483634                             [idum_orig]
  3067                                   [NOl_eff]
   967                                   [Nl_eff]
  2100    NSIGMA                         [Ntot_cliped & clip_method]
  3540180                                [Nglobal_steps]
   7                                     [N_chains]
  21                                     [NEX0s_base = N_base in EX0s-fits]
 0   0   1      257   2.0   7.096E+02    [Clip-Bug, RC-Crash & Burn-In warning-flags, n_censored_weights, wei_nsig_threshold & wei_limit]
   161    160.855    160.847      0.008  [idt_all, wdt_TotTime, wdt_UsrTime & wdt_SysTime (sec)]

## Synthesis Results - Best model ##

 2.68836E+00                             [chi2/Nl_eff]
     0.52902                             [adev (%)]

   101.05859                             [sum-of-x (%)]
 1.12942E-13                             [Flux_tot (units of input spectrum!)]
 1.45540E-09                             [Mini_tot (???)]
 7.53229E-10                             [Mcor_tot (???)]

 -16.16                                  [v0_min  (km/s)]
  65.21                                  [vd_min  (km/s)]
 0.1664                                  [AV_min  (mag)]
 0.0000                                  [YAV_min (mag)]

# j     x_j(%)      Mini_j(%)     Mcor_j(%)     age_j(yr)     Z_j      (L/M)_j    YAV?  Mstars   component_j        a/Fe...       SSP_chi2r SSP_adev(%)   SSP_AV   SSP_x(%)
  1      0.0000     0.0000E+00    0.0000E+00    1.000000E+06  0.00010  8.160E-03    0   1.0000   age020_m22            0.0000     1.8772E+03    11.4171   3.5875    74.0255
  2     19.1162     3.0845E-02    5.9599E-02    3.160000E+06  0.00010  4.759E-02    0   1.0000   age045_m22            0.0000     2.5793E+02     4.5498   1.5320    95.3646
  3      0.0000     0.0000E+00    0.0000E+00    5.010000E+06  0.00010  1.932E-02    0   0.9582   age055_m22            0.0000     1.8156E+03    11.4470   1.8677    80.6630
  4      0.0000     0.0000E+00    0.0000E+00    6.610000E+06  0.00010  9.973E-03    0   0.9297   age061_m22            0.0000     1.9422E+03    11.7595   3.5359    77.0708
  5      0.0000     0.0000E+00    0.0000E+00    8.710000E+06  0.00010  7.690E-03    0   0.9030   age067_m22            0.0000     1.8381E+03    11.4776   3.5277    77.5270
  6      0.0000     0.0000E+00    0.0000E+00    1.000000E+07  0.00010  6.375E-03    0   0.8902   age070_m22            0.0000     1.7584E+03    11.2546   3.5410    77.7229
  7      0.0000     0.0000E+00    0.0000E+00    1.445000E+07  0.00010  4.874E-03    0   0.8589   age078_m22            0.0000     1.2821E+03     9.7665   3.3541    80.8135
  8      0.0000     0.0000E+00    0.0000E+00    2.512000E+07  0.00010  4.103E-03    0   0.8174   age090_m22            0.0000     5.3816E+02     6.7392   2.9275    88.1151
  9      0.0000     0.0000E+00    0.0000E+00    4.000000E+07  0.00010  3.654E-03    0   0.7830   age104_m22            0.0000     2.7272E+02     4.6776   2.6068    93.9868
 10      0.0000     0.0000E+00    0.0000E+00    5.500000E+07  0.00010  3.093E-03    0   0.7597   age110_m22            0.0000     2.4087E+02     4.0353   2.4981    95.9544
 11      0.0000     0.0000E+00    0.0000E+00    1.015200E+08  0.00010  2.431E-03    0   0.7138   age116_m22            0.0000     3.1181E+02     3.7264   2.1390    99.5971
 12      0.0000     0.0000E+00    0.0000E+00    1.609000E+08  0.00010  1.319E-03    0   0.6775   age120_m22            0.0000     3.0296E+02     3.3157   1.6639   101.9166
 13      0.0000     0.0000E+00    0.0000E+00    2.861200E+08  0.00010  1.075E-03    0   0.6412   age125_m22            0.0000     1.0055E+03     5.9426   1.7088   106.9262
 14      0.0000     0.0000E+00    0.0000E+00    5.088000E+08  0.00010  7.183E-04    0   0.6083   age130_m22            0.0000     1.3005E+03     7.0091   1.4744   109.0553
 15      0.0000     0.0000E+00    0.0000E+00    9.047900E+08  0.00010  4.524E-04    0   0.5785   age135_m22            0.0000     1.3319E+03     7.2076   1.2743   110.3905
 16      0.0000     0.0000E+00    0.0000E+00    1.278050E+09  0.00010  3.018E-04    0   0.5588   age138_m22            0.0000     5.2762E+02     4.4209   0.7551   107.6009
 17      0.0000     0.0000E+00    0.0000E+00    1.434000E+09  0.00010  2.691E-04    0   0.5532   age139_m22            0.0000     4.0169E+02     3.8672   0.6021   106.7968
 18      0.0000     0.0000E+00    0.0000E+00    2.500000E+09  0.00010  1.582E-04    0   0.5296   age150_m22            0.0000     3.2089E+02     3.3234   0.4900   107.3590
 19      0.0000     0.0000E+00    0.0000E+00    4.250000E+09  0.00010  1.007E-04    0   0.5110   age158_m22            0.0000     1.3403E+02     2.2694   0.3486   104.9228
 20      0.0000     0.0000E+00    0.0000E+00    6.250000E+09  0.00010  6.869E-05    0   0.4985   age166_m22            0.0000     4.3913E+01     1.6378   0.3012   101.4008
 21      0.0000     0.0000E+00    0.0000E+00    7.500000E+09  0.00010  5.873E-05    0   0.4931   age171_m22            0.0000     4.6400E+01     1.7605   0.2910   100.7305
 22      0.0000     0.0000E+00    0.0000E+00    1.000000E+10  0.00010  4.481E-05    0   0.4854   age181_m22            0.0000     4.2599E+01     1.7031   0.2539   100.3321
 23      0.0000     0.0000E+00    0.0000E+00    1.300000E+10  0.00010  3.489E-05    0   0.4791   age193_m22            0.0000     3.5499E+01     1.5834   0.1995    99.6774
 24      0.0535     1.3544E-01    1.2473E-01    1.500000E+10  0.00010  3.035E-05    0   0.4766   age201_m22            0.0000     3.3040E+01     1.5333   0.1613    99.4240
 25      0.0000     0.0000E+00    0.0000E+00    1.800000E+10  0.00010  2.510E-05    0   0.4735   age213_m22            0.0000     3.0901E+01     1.4909   0.0949    98.6650
 26      0.0000     0.0000E+00    0.0000E+00    1.000000E+06  0.00040  8.458E-03    0   1.0000   age020_m32            0.0000     1.8773E+03    11.4660   3.5994    74.7398
 27      0.0000     0.0000E+00    0.0000E+00    3.160000E+06  0.00040  3.973E-02    0   1.0000   age045_m32            0.0000     6.1147E+02     7.0699   2.8242    87.9988
 28      0.0000     0.0000E+00    0.0000E+00    5.010000E+06  0.00040  1.935E-02    0   0.9532   age055_m32            0.0000     1.4755E+03    10.5213   3.0700    81.3135
 29      0.0000     0.0000E+00    0.0000E+00    6.610000E+06  0.00040  1.204E-02    0   0.9243   age061_m32            0.0000     1.6039E+03    10.8011   3.3902    79.2255
 30      0.0000     0.0000E+00    0.0000E+00    8.710000E+06  0.00040  9.433E-03    0   0.9001   age067_m32            0.0000     1.4286E+03    10.2711   3.3614    80.1837
 31      0.0000     0.0000E+00    0.0000E+00    1.000000E+07  0.00040  8.053E-03    0   0.8877   age070_m32            0.0000     1.3609E+03    10.0419   3.3244    80.6880
 32      0.0000     0.0000E+00    0.0000E+00    1.445000E+07  0.00040  7.027E-03    0   0.8578   age078_m32            0.0000     8.1236E+02     8.1006   2.7849    86.5265
 33      0.0000     0.0000E+00    0.0000E+00    2.512000E+07  0.00040  4.707E-03    0   0.8166   age090_m32            0.0000     4.6259E+02     6.3467   2.4766    91.0781
 34      0.0000     0.0000E+00    0.0000E+00    4.000000E+07  0.00040  3.714E-03    0   0.7827   age104_m32            0.0000     2.6746E+02     4.7131   2.2587    95.2666
 35      0.0000     0.0000E+00    0.0000E+00    5.500000E+07  0.00040  2.982E-03    0   0.7593   age110_m32            0.0000     2.4167E+02     4.1789   2.1921    96.8083
 36      0.0000     0.0000E+00    0.0000E+00    1.015200E+08  0.00040  2.188E-03    0   0.7143   age116_m32            0.0000     4.6177E+02     4.0166   1.9061   102.4604
 37      0.0000     0.0000E+00    0.0000E+00    1.609000E+08  0.00040  1.690E-03    0   0.6856   age120_m32            0.0000     7.7172E+02     4.9159   1.6836   105.9784
 38      0.0000     0.0000E+00    0.0000E+00    2.861200E+08  0.00040  1.152E-03    0   0.6509   age125_m32            0.0000     1.0810E+03     6.1979   1.4584   108.2734
 39      0.0000     0.0000E+00    0.0000E+00    5.088000E+08  0.00040  7.331E-04    0   0.6182   age130_m32            0.0000     1.2098E+03     6.7983   1.2958   109.1195
 40      0.0000     0.0000E+00    0.0000E+00    9.047900E+08  0.00040  3.960E-04    0   0.5890   age135_m32            0.0000     5.6628E+02     4.9585   0.8500   106.8241
 41      0.0000     0.0000E+00    0.0000E+00    1.278050E+09  0.00040  2.854E-04    0   0.5687   age138_m32            0.0000     4.0102E+02     3.8036   0.5563   108.4458
 42      0.0000     0.0000E+00    0.0000E+00    1.434000E+09  0.00040  2.531E-04    0   0.5632   age139_m32            0.0000     3.8486E+02     3.6614   0.4937   108.4442
 43     17.7138     9.1413E+00    9.5133E+00    2.500000E+09  0.00040  1.488E-04    0   0.5386   age150_m32            0.0000     2.2642E+02     2.8059   0.2401   106.3325
 44     38.6612     3.2688E+01    3.2837E+01    4.250000E+09  0.00040  9.082E-05    0   0.5199   age158_m32            0.0000     2.9496E+01     1.2000   0.1597   101.7436
 45      1.2339     1.4893E+00    1.4607E+00    6.250000E+09  0.00040  6.362E-05    0   0.5076   age166_m32            0.0000     5.1170E+01     1.7130   0.1331    97.3340
 46      0.9710     1.4098E+00    1.3693E+00    7.500000E+09  0.00040  5.289E-05    0   0.5027   age171_m32            0.0000     6.6931E+01     1.8681   0.1001    95.9172
 47      0.0628     1.2150E-01    1.1616E-01    1.000000E+10  0.00040  3.972E-05    0   0.4948   age181_m32            0.0000     7.6543E+01     1.8838   0.0411    94.4828
 48      0.0000     0.0000E+00    0.0000E+00    1.300000E+10  0.00040  3.283E-05    0   0.4870   age193_m32            0.0000     2.0744E+01     1.1294  -0.0114    97.6675
 49      0.0000     0.0000E+00    0.0000E+00    1.500000E+10  0.00040  2.925E-05    0   0.4854   age201_m32            0.0000     1.1579E+01     0.9361  -0.0349    99.5495
 50      0.0000     0.0000E+00    0.0000E+00    1.800000E+10  0.00040  2.469E-05    0   0.4819   age213_m32            0.0000     1.2633E+01     0.9446  -0.0775   100.1731
 51      0.0000     0.0000E+00    0.0000E+00    1.000000E+06  0.00400  1.114E-02    0   1.0000   age020_m42            0.0000     1.7849E+03    11.1177   3.5277    75.2188
 52      0.0000     0.0000E+00    0.0000E+00    3.160000E+06  0.00400  4.073E-02    0   0.9999   age045_m42            0.0000     3.9634E+02     5.7648   2.5173    90.9525
 53      0.0000     0.0000E+00    0.0000E+00    5.010000E+06  0.00400  2.534E-02    0   0.9488   age055_m42            0.0000     9.2284E+02     8.3902   2.9430    83.7875
 54      0.0000     0.0000E+00    0.0000E+00    6.610000E+06  0.00400  2.583E-02    0   0.9220   age061_m42            0.0000     2.8489E+02     5.0047   2.3245    92.2465
 55      0.0000     0.0000E+00    0.0000E+00    8.710000E+06  0.00400  1.706E-02    0   0.8983   age067_m42            0.0000     5.4189E+02     6.8616   2.1573    89.7634
 56      0.0000     0.0000E+00    0.0000E+00    1.000000E+07  0.00400  1.271E-02    0   0.8862   age070_m42            0.0000     8.3303E+02     8.4432   2.1478    87.8927
 57      0.0000     0.0000E+00    0.0000E+00    1.445000E+07  0.00400  7.666E-03    0   0.8571   age078_m42            0.0000     1.0787E+03     9.1521   2.5647    84.1486
 58      0.0000     0.0000E+00    0.0000E+00    2.512000E+07  0.00400  5.070E-03    0   0.8174   age090_m42            0.0000     7.1083E+02     7.8037   2.0125    89.6241
 59      0.0000     0.0000E+00    0.0000E+00    4.000000E+07  0.00400  3.505E-03    0   0.7851   age104_m42            0.0000     4.0404E+02     5.8752   1.6873    92.9944
 60      0.0000     0.0000E+00    0.0000E+00    5.500000E+07  0.00400  3.059E-03    0   0.7629   age110_m42            0.0000     1.5804E+02     2.9672   1.7215    99.0943
 61      0.0000     0.0000E+00    0.0000E+00    1.015200E+08  0.00400  2.268E-03    0   0.7207   age116_m42            0.0000     6.4188E+02     4.5154   1.6060   106.1715
 62      0.0000     0.0000E+00    0.0000E+00    1.609000E+08  0.00400  1.720E-03    0   0.6930   age120_m42            0.0000     7.4987E+02     5.1636   1.4626   107.9825
 63      0.0000     0.0000E+00    0.0000E+00    2.861200E+08  0.00400  1.079E-03    0   0.6613   age125_m42            0.0000     7.5425E+02     5.1962   1.1089   108.5737
 64      0.0000     0.0000E+00    0.0000E+00    5.088000E+08  0.00400  6.261E-04    0   0.6313   age130_m42            0.0000     9.1841E+02     5.7811   0.9048   112.0463
 65      0.0000     0.0000E+00    0.0000E+00    9.047900E+08  0.00400  3.535E-04    0   0.6024   age135_m42            0.0000     4.7022E+02     4.4545   0.5141   111.4884
 66      0.0000     0.0000E+00    0.0000E+00    1.278050E+09  0.00400  2.677E-04    0   0.5837   age138_m42            0.0000     2.1859E+02     4.1766  -0.1431   107.0742
 67      0.0000     0.0000E+00    0.0000E+00    1.434000E+09  0.00400  1.910E-04    0   0.5716   age139_m42            0.0000     2.3088E+02     4.0678   0.0186   108.3627
 68      6.6721     5.2184E+00    5.5084E+00    2.500000E+09  0.00400  9.818E-05    0   0.5463   age150_m42            0.0000     1.6519E+02     3.4601  -0.2220   101.8532
 69      0.0000     0.0000E+00    0.0000E+00    4.250000E+09  0.00400  5.491E-05    0   0.5269   age158_m42            0.0000     2.2578E+02     3.4435  -0.3366    98.4507
 70      1.1240     2.2379E+00    2.2273E+00    6.250000E+09  0.00400  3.857E-05    0   0.5151   age166_m42            0.0000     3.3671E+02     4.0520  -0.4549    96.7467
 71      1.3925     3.2973E+00    3.2556E+00    7.500000E+09  0.00400  3.243E-05    0   0.5110   age171_m42            0.0000     4.1411E+02     4.4558  -0.5293    96.0300
 72      0.1780     5.6390E-01    5.4784E-01    1.000000E+10  0.00400  2.424E-05    0   0.5028   age181_m42            0.0000     5.2475E+02     4.9745  -0.6041    95.2173
 73      0.0000     0.0000E+00    0.0000E+00    1.300000E+10  0.00400  1.883E-05    0   0.4927   age193_m42            0.0000     6.1069E+02     5.3232  -0.6410    94.7640
 74      0.0000     0.0000E+00    0.0000E+00    1.500000E+10  0.00400  1.685E-05    0   0.4919   age201_m42            0.0000     5.8421E+02     5.1869  -0.6381    94.8226
 75      0.0000     0.0000E+00    0.0000E+00    1.800000E+10  0.00400  1.452E-05    0   0.4874   age213_m42            0.0000     5.3758E+02     4.9610  -0.6257    95.1384
 76      0.0000     0.0000E+00    0.0000E+00    1.000000E+06  0.00800  1.286E-02    0   1.0000   age020_m52            0.0000     1.5948E+03    10.5776   3.5003    77.1467
 77      0.0000     0.0000E+00    0.0000E+00    3.160000E+06  0.00800  3.147E-02    0   0.9966   age045_m52            0.0000     1.5245E+03    10.3935   3.4057    78.8333
 78      0.0000     0.0000E+00    0.0000E+00    5.010000E+06  0.00800  2.664E-02    0   0.9443   age055_m52            0.0000     1.0689E+03     8.7685   3.0693    82.5868
 79      0.0000     0.0000E+00    0.0000E+00    6.610000E+06  0.00800  2.151E-02    0   0.9177   age061_m52            0.0000     6.8607E+02     7.0625   1.7472    89.3697
 80      0.0000     0.0000E+00    0.0000E+00    8.710000E+06  0.00800  1.628E-02    0   0.8948   age067_m52            0.0000     6.4824E+02     7.2604   2.1130    90.0682
 81      0.0000     0.0000E+00    0.0000E+00    1.000000E+07  0.00800  1.215E-02    0   0.8827   age070_m52            0.0000     8.0666E+02     8.0335   2.4574    88.0270
 82      0.0000     0.0000E+00    0.0000E+00    1.445000E+07  0.00800  8.739E-03    0   0.8552   age078_m52            0.0000     6.2307E+02     7.1310   2.4922    89.6907
 83      0.0000     0.0000E+00    0.0000E+00    2.512000E+07  0.00800  5.676E-03    0   0.8162   age090_m52            0.0000     3.9036E+02     5.7133   2.0687    95.5174
 84      0.0000     0.0000E+00    0.0000E+00    4.000000E+07  0.00800  3.939E-03    0   0.7841   age104_m52            0.0000     2.7754E+02     4.2732   1.9010    98.6206
 85      0.0000     0.0000E+00    0.0000E+00    5.500000E+07  0.00800  3.155E-03    0   0.7627   age110_m52            0.0000     2.6522E+02     3.3621   1.8663   100.8162
 86      0.0000     0.0000E+00    0.0000E+00    1.015200E+08  0.00800  2.206E-03    0   0.7226   age116_m52            0.0000     4.5059E+02     3.6390   1.6726   105.4221
 87      0.0000     0.0000E+00    0.0000E+00    1.609000E+08  0.00800  1.596E-03    0   0.6963   age120_m52            0.0000     5.7565E+02     4.4173   1.4524   107.4579
 88      0.0000     0.0000E+00    0.0000E+00    2.861200E+08  0.00800  1.002E-03    0   0.6665   age125_m52            0.0000     1.0059E+03     6.5962   1.1506   110.9778
 89      0.0000     0.0000E+00    0.0000E+00    5.088000E+08  0.00800  5.759E-04    0   0.6377   age130_m52            0.0000     1.1355E+03     7.5751   0.7989   115.1481
 90      0.0000     0.0000E+00    0.0000E+00    9.047900E+08  0.00800  2.972E-04    0   0.6086   age135_m52            0.0000     6.2805E+02     6.4876   0.2826   112.8193
 91      0.0000     0.0000E+00    0.0000E+00    1.278050E+09  0.00800  2.242E-04    0   0.5907   age138_m52            0.0000     3.8308E+02     5.4198  -0.3109   109.7929
 92      0.0000     0.0000E+00    0.0000E+00    1.434000E+09  0.00800  1.645E-04    0   0.5787   age139_m52            0.0000     2.9536E+02     4.7607  -0.1631   109.1036
 93      0.0000     0.0000E+00    0.0000E+00    2.500000E+09  0.00800  7.723E-05    0   0.5519   age150_m52            0.0000     3.9305E+02     5.0384  -0.4807   104.0749
 94      0.2700     4.9946E-01    5.1342E-01    4.250000E+09  0.00800  4.151E-05    0   0.5320   age158_m52            0.0000     4.3447E+02     5.0123  -0.5401   101.0192
 95      0.7821     1.9952E+00    2.0036E+00    6.250000E+09  0.00800  3.010E-05    0   0.5197   age166_m52            0.0000     6.4772E+02     5.9024  -0.7245    99.2046
 96      1.3693     4.2620E+00    4.2321E+00    7.500000E+09  0.00800  2.467E-05    0   0.5139   age171_m52            0.0000     7.0892E+02     6.1637  -0.7639    98.7334
 97      1.9229     7.9299E+00    7.7439E+00    1.000000E+10  0.00800  1.862E-05    0   0.5054   age181_m52            0.0000     9.1054E+02     6.9992  -0.8883    98.1509
 98      2.1625     1.1588E+01    1.1168E+01    1.300000E+10  0.00800  1.433E-05    0   0.4988   age193_m52            0.0000     1.1454E+03     7.8370  -0.9806    98.6015
 99      1.1223     6.9277E+00    6.6073E+00    1.500000E+10  0.00800  1.244E-05    0   0.4936   age201_m52            0.0000     1.2401E+03     8.0692  -1.0000    98.7533
100      0.8865     6.3620E+00    6.0087E+00    1.800000E+10  0.00800  1.070E-05    0   0.4888   age213_m52            0.0000     1.3137E+03     8.1085  -1.0000    97.6071
101      0.0000     0.0000E+00    0.0000E+00    1.000000E+06  0.02000  1.989E-02    0   1.0000   age020_m62            0.0000     1.7834E+03    10.9957   3.4834    76.0953
102      0.0000     0.0000E+00    0.0000E+00    3.160000E+06  0.02000  3.772E-02    0   0.9858   age045_m62            0.0000     1.5919E+03    10.4881   3.3363    78.4865
103      0.0000     0.0000E+00    0.0000E+00    5.010000E+06  0.02000  3.227E-02    0   0.9342   age055_m62            0.0000     5.9339E+02     6.9323   2.7827    87.3642
104      0.0000     0.0000E+00    0.0000E+00    6.610000E+06  0.02000  2.387E-02    0   0.9090   age061_m62            0.0000     9.9755E+02     8.9454   2.5328    86.3623
105      0.0000     0.0000E+00    0.0000E+00    8.710000E+06  0.02000  1.102E-02    0   0.8861   age067_m62            0.0000     2.9514E+03    14.8934   2.1641    80.5281
106      0.0000     0.0000E+00    0.0000E+00    1.000000E+07  0.02000  1.011E-02    0   0.8751   age070_m62            0.0000     2.0688E+03    12.5484   2.1797    83.4235
107      0.0000     0.0000E+00    0.0000E+00    1.445000E+07  0.02000  7.331E-03    0   0.8472   age078_m62            0.0000     1.4401E+03    10.4997   2.1952    85.2428
108      0.0000     0.0000E+00    0.0000E+00    2.512000E+07  0.02000  4.206E-03    0   0.8099   age090_m62            0.0000     1.4524E+03    10.3754   2.1057    84.7504
109      0.0000     0.0000E+00    0.0000E+00    4.000000E+07  0.02000  3.373E-03    0   0.7799   age104_m62            0.0000     3.7202E+02     5.5315   1.8782    95.3599
110      0.0000     0.0000E+00    0.0000E+00    5.500000E+07  0.02000  2.747E-03    0   0.7595   age110_m62            0.0000     2.4579E+02     3.7848   1.7969    99.9022
111      0.0000     0.0000E+00    0.0000E+00    1.015200E+08  0.02000  1.878E-03    0   0.7221   age116_m62            0.0000     5.1664E+02     3.6826   1.6371   106.2985
112      0.0000     0.0000E+00    0.0000E+00    1.609000E+08  0.02000  1.378E-03    0   0.6978   age120_m62            0.0000     8.4626E+02     5.1506   1.4739   109.6689
113      0.0000     0.0000E+00    0.0000E+00    2.861200E+08  0.02000  8.869E-04    0   0.6700   age125_m62            0.0000     1.4767E+03     7.4370   1.0908   114.8962
114      0.0000     0.0000E+00    0.0000E+00    5.088000E+08  0.02000  4.834E-04    0   0.6430   age130_m62            0.0000     1.2954E+03     8.0112   0.6625   116.9723
115      0.0000     0.0000E+00    0.0000E+00    9.047900E+08  0.02000  2.312E-04    0   0.6152   age135_m62            0.0000     5.6630E+02     6.1926   0.0842   114.5760
116      0.0000     0.0000E+00    0.0000E+00    1.278050E+09  0.02000  1.387E-04    0   0.5927   age138_m62            0.0000     3.0277E+02     4.8169  -0.2724   108.4007
117      0.0000     0.0000E+00    0.0000E+00    1.434000E+09  0.02000  1.168E-04    0   0.5865   age139_m62            0.0000     2.9724E+02     4.7013  -0.2905   106.3865
118      0.0000     0.0000E+00    0.0000E+00    2.500000E+09  0.02000  5.505E-05    0   0.5610   age150_m62            0.0000     5.4297E+02     5.8050  -0.6451   102.3806
119      0.0000     0.0000E+00    0.0000E+00    4.250000E+09  0.02000  3.070E-05    0   0.5407   age158_m62            0.0000     9.9252E+02     7.6486  -0.9292   101.8823
120      0.0000     0.0000E+00    0.0000E+00    6.250000E+09  0.02000  2.104E-05    0   0.5277   age166_m62            0.0000     1.2824E+03     8.2442  -1.0000   100.4905
121      0.0000     0.0000E+00    0.0000E+00    7.500000E+09  0.02000  1.770E-05    0   0.5223   age171_m62            0.0000     1.5026E+03     8.5349  -1.0000    98.2783
122      0.0000     0.0000E+00    0.0000E+00    1.000000E+10  0.02000  1.297E-05    0   0.5121   age181_m62            0.0000     2.0933E+03     9.7114  -1.0000    94.0550
123      0.0000     0.0000E+00    0.0000E+00    1.300000E+10  0.02000  9.691E-06    0   0.5047   age193_m62            0.0000     2.5253E+03    10.5909  -1.0000    91.9072
124      0.0000     0.0000E+00    0.0000E+00    1.500000E+10  0.02000  8.360E-06    0   0.4999   age201_m62            0.0000     2.9247E+03    11.3673  -1.0000    90.0285
125      0.0000     0.0000E+00    0.0000E+00    1.800000E+10  0.02000  6.911E-06    0   0.4946   age213_m62            0.0000     3.4075E+03    12.2383  -1.0000    88.0789
126      0.0000     0.0000E+00    0.0000E+00    1.000000E+06  0.05000  2.651E-02    0   0.9998   age020_m72            0.0000     1.6454E+03    10.3931   3.4856    77.0007
127      0.0000     0.0000E+00    0.0000E+00    3.160000E+06  0.05000  4.817E-02    0   0.9577   age045_m72            0.0000     1.0905E+03     8.6614   3.1829    82.0655
128      0.0000     0.0000E+00    0.0000E+00    5.010000E+06  0.05000  3.101E-02    0   0.9147   age055_m72            0.0000     1.0437E+03     8.6951   2.8101    84.9358
129      0.0000     0.0000E+00    0.0000E+00    6.610000E+06  0.05000  1.472E-02    0   0.8877   age061_m72            0.0000     2.3765E+03    13.0283   2.3578    82.3372
130      0.0000     0.0000E+00    0.0000E+00    8.710000E+06  0.05000  1.050E-02    0   0.8638   age067_m72            0.0000     1.5763E+03    10.4492   2.7598    83.1793
131      0.0000     0.0000E+00    0.0000E+00    1.000000E+07  0.05000  8.954E-03    0   0.8524   age070_m72            0.0000     1.0984E+03     8.5084   3.0492    83.4166
132      0.0000     0.0000E+00    0.0000E+00    1.445000E+07  0.05000  6.392E-03    0   0.8262   age078_m72            0.0000     9.1645E+02     7.7592   2.9936    84.6490
133      0.0000     0.0000E+00    0.0000E+00    2.512000E+07  0.05000  4.207E-03    0   0.7902   age090_m72            0.0000     5.0264E+02     5.9710   2.5913    90.0101
134      0.0000     0.0000E+00    0.0000E+00    4.000000E+07  0.05000  3.198E-03    0   0.7618   age104_m72            0.0000     2.8326E+02     3.2541   2.0303   100.5419
135      0.0000     0.0000E+00    0.0000E+00    5.500000E+07  0.05000  2.593E-03    0   0.7432   age110_m72            0.0000     3.9744E+02     3.4991   1.9216   103.1922
136      0.0000     0.0000E+00    0.0000E+00    1.015200E+08  0.05000  1.716E-03    0   0.7092   age116_m72            0.0000     6.7316E+02     4.3742   1.7088   106.9344
137      0.0000     0.0000E+00    0.0000E+00    1.609000E+08  0.05000  1.218E-03    0   0.6876   age120_m72            0.0000     1.0544E+03     5.9798   1.4361   110.3755
138      0.0000     0.0000E+00    0.0000E+00    2.861200E+08  0.05000  7.047E-04    0   0.6618   age125_m72            0.0000     1.4622E+03     7.9148   0.8844   115.0188
139      0.0000     0.0000E+00    0.0000E+00    5.088000E+08  0.05000  3.590E-04    0   0.6356   age130_m72            0.0000     1.1565E+03     7.9583   0.3175   117.2167
140      1.6516     8.5460E-01    1.0053E+00    9.047900E+08  0.05000  1.484E-04    0   0.6088   age135_m72            0.0000     5.0458E+02     6.2433  -0.3758   108.1579
141      2.3625     1.9227E+00    2.2009E+00    1.278050E+09  0.05000  9.435E-05    0   0.5924   age138_m72            0.0000     7.8599E+02     7.4052  -0.7524   103.7646
142      1.3500     1.3244E+00    1.4963E+00    1.434000E+09  0.05000  7.827E-05    0   0.5847   age139_m72            0.0000     7.7225E+02     7.1972  -0.7379   102.9856
143      0.0000     0.0000E+00    0.0000E+00    2.500000E+09  0.05000  3.759E-05    0   0.5583   age150_m72            0.0000     1.2288E+03     8.2527  -1.0000   100.0506
144      0.0000     0.0000E+00    0.0000E+00    4.250000E+09  0.05000  1.842E-05    0   0.5374   age158_m72            0.0000     2.2266E+03    10.4172  -1.0000    90.2941
145      0.0000     0.0000E+00    0.0000E+00    6.250000E+09  0.05000  1.207E-05    0   0.5242   age166_m72            0.0000     3.5163E+03    12.9260  -1.0000    83.1429
146      0.0000     0.0000E+00    0.0000E+00    7.500000E+09  0.05000  9.993E-06    0   0.5183   age171_m72            0.0000     3.7664E+03    13.3632  -1.0000    81.8397
147      0.0000     0.0000E+00    0.0000E+00    1.000000E+10  0.05000  7.291E-06    0   0.5081   age181_m72            0.0000     4.6103E+03    14.6066  -1.0000    78.3455
148      0.0000     0.0000E+00    0.0000E+00    1.300000E+10  0.05000  5.316E-06    0   0.5018   age193_m72            0.0000     5.9965E+03    16.3888  -1.0000    73.2513
149      0.0000     0.0000E+00    0.0000E+00    1.500000E+10  0.05000  4.497E-06    0   0.4972   age201_m72            0.0000     6.6081E+03    17.0771  -1.0000    71.5023
150      0.0000     0.0000E+00    0.0000E+00    1.800000E+10  0.05000  3.739E-06    0   0.4924   age213_m72            0.0000     7.4620E+03    17.9546  -1.0000    68.8823


## Synthesis Results - Average & Chains ##

# j      x_j: min, <> & last-chain-values for 1 ...  7 chains
  1      0.0000      0.0008      0.0000      0.0000      0.0000      0.0000      0.0000      0.0000      0.0000
  2     19.1162     18.4773     18.6899     18.3905     18.7428     18.7258     18.8305     18.7119     18.7174
  3      0.0000      0.0063      0.0000      0.0000      0.0000      0.0000      0.0000      0.0000      0.0000
  4      0.0000      0.0008      0.0004      0.0000      0.0000      0.0000      0.0000      0.0000      0.0000
  5      0.0000      0.0007      0.0000      0.0000      0.0000      0.0000      0.0000      0.0097      0.0000
  6      0.0000      0.0007      0.0000      0.0000      0.0000      0.0000      0.0000      0.0000      0.0000
  7      0.0000      0.0012      0.0000      0.0000      0.0000      0.0000      0.0000      0.0000      0.0000
  8      0.0000      0.0023      0.0000      0.0000      0.0000      0.0000      0.0000      0.0000      0.0000
  9      0.0000      0.0077      0.0000      0.0000      0.0026      0.0000      0.0000      0.0000      0.0000
 10      0.0000      0.0050      0.0061      0.0133      0.0000      0.0000      0.0000      0.0000      0.0000
 11      0.0000      0.0143      0.0000      0.0000      0.0000      0.0000      0.0000      0.0000      0.0000
 12      0.0000      0.0062      0.0000      0.0000      0.0240      0.0000      0.0000      0.0000      0.0000
 13      0.0000      0.0053      0.0027      0.0000      0.0000      0.0000      0.0000      0.0000      0.0000
 14      0.0000      0.0072      0.0000      0.0000      0.0000      0.0000      0.0000      0.0000      0.0000
 15      0.0000      0.0086      0.0056      0.0000      0.0000      0.0000      0.0046      0.0000      0.0000
 16      0.0000      0.0128      0.0179      0.0000      0.0000      0.0000      0.0115      0.0000      0.0100
 17      0.0000      0.0181      0.0000      0.0000      0.0000      0.0041      0.0000      0.0000      0.0037
 18      0.0000      0.0239      0.0000      0.0173      0.0000      0.0000      0.0000      0.0000      0.0322
 19      0.0000      0.0410      0.0000      0.0000      0.0000      0.0000      0.0000      0.0000      0.0000
 20      0.0000      0.1021      0.1659      0.1418      0.2766      0.2542      0.0456      0.0000      0.1922
 21      0.0000      0.1237      0.0127      0.1041      0.0315      0.0186      0.2652      0.0000      0.0000
 22      0.0000      0.0879      0.0000      0.1267      0.0000      0.2028      0.0077      0.0000      0.0000
 23      0.0000      0.1351      0.1413      0.0798      0.0000      0.0000      0.2407      0.0010      0.0108
 24      0.0535      0.1038      0.2952      0.0972      0.0480      0.0000      0.0000      0.0958      0.0681
 25      0.0000      0.0930      0.0710      0.0000      0.0000      0.0000      0.0819      0.0001      0.0000
 26      0.0000      0.0009      0.0000      0.0000      0.0000      0.0000      0.0000      0.0000      0.0000
 27      0.0000      0.0021      0.0000      0.0000      0.0000      0.0000      0.0000      0.0000      0.0000
 28      0.0000      0.0015      0.0000      0.0000      0.0000      0.0000      0.0000      0.0000      0.0000
 29      0.0000      0.0010      0.0000      0.0063      0.0000      0.0000      0.0000      0.0000      0.0000
 30      0.0000      0.0012      0.0000      0.0000      0.0192      0.0000      0.0000      0.0000      0.0000
 31      0.0000      0.0010      0.0000      0.0000      0.0000      0.0000      0.0000      0.0011      0.0000
 32      0.0000      0.0024      0.0000      0.0000      0.0000      0.0000      0.0000      0.0000      0.0000
 33      0.0000      0.0024      0.0000      0.0000      0.0000      0.0000      0.0000      0.0000      0.0000
 34      0.0000      0.0043      0.0000      0.0000      0.0043      0.0000      0.0044      0.0000      0.0000
 35      0.0000      0.0085      0.0000      0.0000      0.0000      0.0000      0.0000      0.0000      0.0052
 36      0.0000      0.0145      0.0057      0.0407      0.0000      0.0000      0.0000      0.0000      0.0000
 37      0.0000      0.0143      0.0000      0.0000      0.0000      0.0000      0.0000      0.0462      0.0422
 38      0.0000      0.0104      0.0000      0.0000      0.0272      0.0000      0.0000      0.0055      0.0000
 39      0.0000      0.0066      0.0082      0.0000      0.0000      0.0000      0.0000      0.0000      0.0000
 40      0.0000      0.0133      0.0000      0.0032      0.0000      0.0000      0.0076      0.0000      0.0000
 41      0.0000      0.0301      0.1400      0.0000      0.0000      0.0000      0.0000      0.0000      0.0017
 42      0.0000      0.0276      0.0000      0.0000      0.0000      0.1081      0.0000      0.0000      0.0000
 43     17.7138     18.6748     18.4138     18.5974     18.7879     18.7439     18.2379     18.7521     18.5474
 44     38.6612     37.7330     37.7421     37.7862     38.2657     37.7360     38.8958     38.5104     38.6200
 45      1.2339      0.4947      0.5382      0.6748      0.9066      0.4484      0.0345      0.5709      0.1978
 46      0.9710      0.3939      0.8324      1.1295      0.5163      0.2330      0.4807      0.2128      0.7366
 47      0.0628      0.1944      0.3108      0.1561      0.0004      0.2265      0.1052      0.5559      0.0000
 48      0.0000      0.1451      0.2049      0.0021      0.0000      0.6989      0.0000      0.1612      0.1173
 49      0.0000      0.1109      0.0187      0.0000      0.0000      0.0233      0.0000      0.0876      0.0000
 50      0.0000      0.0827      0.0000      0.0000      0.0000      0.1207      0.0000      0.0000      0.0455
 51      0.0000      0.0007      0.0000      0.0000      0.0000      0.0000      0.0000      0.0000      0.0000
 52      0.0000      0.0078      0.0000      0.0000      0.0000      0.0000      0.0000      0.0000      0.0000
 53      0.0000      0.0031      0.0000      0.0000      0.0000      0.0000      0.0000      0.0000      0.0000
 54      0.0000      0.0068      0.0317      0.0585      0.0000      0.0000      0.0000      0.0000      0.0901
 55      0.0000      0.0075      0.0000      0.0000      0.0000      0.0000      0.0000      0.0000      0.0000
 56      0.0000      0.0038      0.0000      0.0000      0.0000      0.0000      0.0000      0.0000      0.0000
 57      0.0000      0.0019      0.0000      0.0000      0.0000      0.0000      0.0000      0.0000      0.0008
 58      0.0000      0.0033      0.0000      0.0000      0.0000      0.0000      0.0000      0.0000      0.0000
 59      0.0000      0.0028      0.0000      0.0000      0.0000      0.0000      0.0100      0.0000      0.0000
 60      0.0000      0.0061      0.0000      0.0000      0.0000      0.0000      0.0000      0.0000      0.0000
 61      0.0000      0.0100      0.0000      0.0000      0.0000      0.0000      0.0037      0.0120      0.0000
 62      0.0000      0.0161      0.0000      0.0045      0.0000      0.0000      0.0708      0.0000      0.0000
 63      0.0000      0.0077      0.0000      0.0000      0.0000      0.0000      0.0000      0.0000      0.0000
 64      0.0000      0.0131      0.0000      0.0000      0.0000      0.0122      0.0000      0.0000      0.0005
 65      0.0000      0.0271      0.0087      0.0500      0.1041      0.0000      0.0701      0.0145      0.0008
 66      0.0000      0.0222      0.0000      0.0000      0.0000      0.0109      0.0098      0.0000      0.0032
 67      0.0000      0.0596      0.0000      0.0000      0.0373      0.0000      0.0902      0.0000      0.1680
 68      6.6721      6.6893      6.6024      6.6114      6.6210      6.6637      6.7380      6.6940      6.6043
 69      0.0000      0.0615      0.0000      0.0000      0.1160      0.0875      0.0516      0.0000      0.1643
 70      1.1240      1.4892      1.0560      1.3223      1.5310      1.4441      1.1520      1.4577      1.5348
 71      1.3925      2.0383      1.5718      1.9730      1.9090      2.0304      2.1611      2.0833      1.8451
 72      0.1780      0.6327      0.6965      0.5433      0.3928      0.4866      0.5531      0.5721      0.5968
 73      0.0000      0.0109      0.0000      0.0646      0.0000      0.0000      0.0000      0.0000      0.0000
 74      0.0000      0.0135      0.0737      0.0000      0.0000      0.0000      0.0000      0.0000      0.0000
 75      0.0000      0.0107      0.0000      0.0000      0.0000      0.0000      0.0000      0.0096      0.0000
 76      0.0000      0.0012      0.0000      0.0000      0.0000      0.0000      0.0000      0.0000      0.0000
 77      0.0000      0.0008      0.0000      0.0000      0.0000      0.0000      0.0000      0.0000      0.0000
 78      0.0000      0.0016      0.0000      0.0000      0.0000      0.0108      0.0000      0.0000      0.0000
 79      0.0000      0.0059      0.0059      0.0329      0.0000      0.0000      0.0000      0.0000      0.0000
 80      0.0000      0.0039      0.0000      0.0000      0.0000      0.0000      0.0001      0.0000      0.0000
 81      0.0000      0.0024      0.0000      0.0050      0.0000      0.0000      0.0000      0.0000      0.0000
 82      0.0000      0.0028      0.0000      0.0000      0.0000      0.0000      0.0000      0.0000      0.0000
 83      0.0000      0.0064      0.0000      0.0000      0.0000      0.0187      0.0000      0.0000      0.0000
 84      0.0000      0.0051      0.0000      0.0000      0.0000      0.0518      0.0000      0.0000      0.0000
 85      0.0000      0.0056      0.0000      0.0000      0.0000      0.0000      0.0000      0.0000      0.0000
 86      0.0000      0.0065      0.0000      0.0000      0.0000      0.0000      0.0000      0.0000      0.0000
 87      0.0000      0.0085      0.0000      0.0000      0.0000      0.0000      0.0000      0.0000      0.0000
 88      0.0000      0.0066      0.0000      0.0000      0.0000      0.0000      0.0000      0.0000      0.0810
 89      0.0000      0.0089      0.0095      0.0000      0.0000      0.0000      0.0000      0.0000      0.0000
 90      0.0000      0.0302      0.0739      0.0000      0.0000      0.0000      0.0078      0.0000      0.0000
 91      0.0000      0.0158      0.0000      0.0000      0.0000      0.0000      0.0000      0.0000      0.0000
 92      0.0000      0.0335      0.0234      0.0000      0.0000      0.0000      0.0156      0.0908      0.0000
 93      0.0000      0.0498      0.0000      0.0556      0.0000      0.0403      0.0000      0.0000      0.0053
 94      0.2700      0.5183      0.3106      0.6070      0.4556      0.4569      0.5976      0.4444      0.4633
 95      0.7821      0.8303      0.8741      0.7662      0.7903      0.8497      0.8868      0.8451      0.7653
 96      1.3693      1.6081      1.6314      1.6221      1.6415      1.3854      1.5555      1.5767      1.5844
 97      1.9229      1.9906      1.9440      1.9300      2.0174      1.9378      2.0251      1.8558      2.0334
 98      2.1625      2.2829      2.1975      2.2879      2.2787      2.3012      2.2913      2.2691      2.3203
 99      1.1223      1.3162      1.2989      1.2788      1.3652      1.3452      1.2168      1.3238      1.2952
100      0.8865      1.0364      0.8457      0.9392      1.0957      1.0379      1.0815      1.0481      0.9299
101      0.0000      0.0009      0.0000      0.0000      0.0000      0.0000      0.0000      0.0000      0.0000
102      0.0000      0.0007      0.0000      0.0000      0.0000      0.0000      0.0000      0.0000      0.0000
103      0.0000      0.0024      0.0000      0.0000      0.0000      0.0000      0.0000      0.0000      0.0000
104      0.0000      0.0030      0.0000      0.0000      0.0000      0.0000      0.0000      0.0025      0.0000
105      0.0000      0.0012      0.0000      0.0000      0.0000      0.0000      0.0000      0.0000      0.0000
106      0.0000      0.0013      0.0000      0.0000      0.0000      0.0000      0.0000      0.0000      0.0010
107      0.0000      0.0016      0.0000      0.0000      0.0000      0.0000      0.0000      0.0000      0.0000
108      0.0000      0.0014      0.0000      0.0000      0.0000      0.0000      0.0000      0.0038      0.0000
109      0.0000      0.0028      0.0000      0.0000      0.0000      0.0000      0.0000      0.0000      0.0000
110      0.0000      0.0036      0.0000      0.0000      0.0080      0.0000      0.0000      0.0000      0.0000
111      0.0000      0.0042      0.0000      0.0000      0.0000      0.0000      0.0000      0.0000      0.0000
112      0.0000      0.0056      0.0000      0.0073      0.0000      0.0000      0.0000      0.0000      0.0000
113      0.0000      0.0053      0.0000      0.0294      0.0000      0.0000      0.0000      0.0000      0.0000
114      0.0000      0.0104      0.0000      0.0000      0.0000      0.0000      0.1542      0.0000      0.0000
115      0.0000      0.0419      0.0000      0.0000      0.1753      0.0000      0.0000      0.1787      0.0000
116      0.0000      0.0853      0.0947      0.2611      0.0000      0.0000      0.1466      0.0604      0.2873
117      0.0000      0.1378      0.0000      0.1861      0.1888      0.2601      0.1244      0.1608      0.1322
118      0.0000      0.0445      0.0906      0.0714      0.0882      0.0000      0.0253      0.1413      0.1841
119      0.0000      0.0446      0.0000      0.0000      0.1063      0.0000      0.0000      0.0556      0.0000
120      0.0000      0.0223      0.1787      0.0000      0.0000      0.0045      0.0731      0.0300      0.0000
121      0.0000      0.0110      0.0000      0.0000      0.0003      0.0000      0.0000      0.0000      0.0000
122      0.0000      0.0110      0.0000      0.0000      0.0095      0.0000      0.0000      0.0112      0.0850
123      0.0000      0.0091      0.0000      0.0000      0.0000      0.0427      0.0000      0.0000      0.0044
124      0.0000      0.0062      0.0168      0.0224      0.0344      0.0000      0.0041      0.0000      0.0196
125      0.0000      0.0045      0.0137      0.0000      0.0000      0.0069      0.0000      0.0000      0.0000
126      0.0000      0.0007      0.0091      0.0000      0.0000      0.0000      0.0000      0.0000      0.0000
127      0.0000      0.0015      0.0524      0.0000      0.0000      0.0000      0.0000      0.0000      0.0000
128      0.0000      0.0015      0.0000      0.0000      0.0012      0.0000      0.0000      0.0000      0.0000
129      0.0000      0.0014      0.0000      0.0000      0.0000      0.0000      0.0000      0.0000      0.0000
130      0.0000      0.0011      0.0000      0.0000      0.0000      0.0000      0.0000      0.0000      0.0000
131      0.0000      0.0011      0.0000      0.0000      0.0000      0.0000      0.0000      0.0000      0.0000
132      0.0000      0.0008      0.0000      0.0000      0.0000      0.0000      0.0000      0.0000      0.0000
133      0.0000      0.0014      0.0000      0.0000      0.0000      0.0000      0.0000      0.0000      0.0000
134      0.0000      0.0029      0.0000      0.0000      0.0000      0.0000      0.0000      0.0000      0.0000
135      0.0000      0.0034      0.0000      0.0000      0.0000      0.0000      0.0000      0.0000      0.0000
136      0.0000      0.0045      0.0000      0.0000      0.0000      0.0000      0.0000      0.0000      0.0010
137      0.0000      0.0077      0.0000      0.0000      0.0000      0.0000      0.0000      0.0000      0.0000
138      0.0000      0.0101      0.0031      0.0680      0.0000      0.0000      0.0000      0.0000      0.0000
139      0.0000      0.0544      0.1244      0.0000      0.0000      0.0000      0.0000      0.0000      0.0000
140      1.6516      0.6254      0.9636      0.9744      0.6038      1.0635      0.5814      0.5416      0.5883
141      2.3625      1.3292      1.7570      1.5198      1.4657      1.3861      1.4711      1.2218      1.5390
142      1.3500      0.2758      0.6572      0.3302      0.2653      0.5383      0.4748      0.3724      0.3376
143      0.0000      0.0436      0.1514      0.0396      0.0492      0.0320      0.1172      0.1853      0.0000
144      0.0000      0.0099      0.0000      0.0026      0.0451      0.0000      0.0000      0.0000      0.0000
145      0.0000      0.0063      0.0453      0.0000      0.0000      0.0000      0.0000      0.0033      0.0000
146      0.0000      0.0056      0.0000      0.0000      0.0000      0.0000      0.0000      0.0000      0.0000
147      0.0000      0.0047      0.0000      0.0067      0.0000      0.0043      0.0397      0.0161      0.0000
148      0.0000      0.0019      0.0000      0.0000      0.0000      0.0000      0.0000      0.0000      0.0300
149      0.0000      0.0021      0.0000      0.0000      0.0000      0.0000      0.0000      0.0058      0.0000
150      0.0000      0.0021      0.0000      0.0000      0.0058      0.0000      0.0000      0.0000      0.0000

# j      m_j: min, <> & last-chain-values for 1 ...  7 chains
  1  0.0000E+00  1.3840E-05  0.0000E+00  0.0000E+00  0.0000E+00  0.0000E+00  0.0000E+00  0.0000E+00  0.0000E+00
  2  5.9599E-02  5.3837E-02  5.5379E-02  5.4514E-02  5.5109E-02  5.5037E-02  5.5463E-02  5.4986E-02  5.5286E-02
  3  0.0000E+00  4.3385E-05  0.0000E+00  0.0000E+00  0.0000E+00  0.0000E+00  0.0000E+00  0.0000E+00  0.0000E+00
  4  0.0000E+00  1.0493E-05  5.9134E-06  0.0000E+00  0.0000E+00  0.0000E+00  0.0000E+00  0.0000E+00  0.0000E+00
  5  0.0000E+00  1.0852E-05  0.0000E+00  0.0000E+00  0.0000E+00  0.0000E+00  0.0000E+00  1.5985E-04  0.0000E+00
  6  0.0000E+00  1.3631E-05  0.0000E+00  0.0000E+00  0.0000E+00  0.0000E+00  0.0000E+00  0.0000E+00  0.0000E+00
  7  0.0000E+00  2.8354E-05  0.0000E+00  0.0000E+00  0.0000E+00  0.0000E+00  0.0000E+00  0.0000E+00  0.0000E+00
  8  0.0000E+00  6.3992E-05  0.0000E+00  0.0000E+00  0.0000E+00  0.0000E+00  0.0000E+00  0.0000E+00  0.0000E+00
  9  0.0000E+00  2.2828E-04  0.0000E+00  0.0000E+00  7.8927E-05  0.0000E+00  0.0000E+00  0.0000E+00  0.0000E+00
 10  0.0000E+00  1.7023E-04  2.1281E-04  4.6199E-04  0.0000E+00  0.0000E+00  0.0000E+00  0.0000E+00  0.0000E+00
 11  0.0000E+00  5.8024E-04  0.0000E+00  0.0000E+00  0.0000E+00  0.0000E+00  0.0000E+00  0.0000E+00  0.0000E+00
 12  0.0000E+00  4.4049E-04  0.0000E+00  0.0000E+00  1.7218E-03  0.0000E+00  0.0000E+00  0.0000E+00  0.0000E+00
 13  0.0000E+00  4.3643E-04  2.2508E-04  0.0000E+00  0.0000E+00  0.0000E+00  0.0000E+00  0.0000E+00  0.0000E+00
 14  0.0000E+00  8.4125E-04  0.0000E+00  0.0000E+00  0.0000E+00  0.0000E+00  0.0000E+00  0.0000E+00  0.0000E+00
 15  0.0000E+00  1.5284E-03  1.0016E-03  0.0000E+00  0.0000E+00  0.0000E+00  8.2431E-04  0.0000E+00  0.0000E+00
 16  0.0000E+00  3.2828E-03  4.6689E-03  0.0000E+00  0.0000E+00  0.0000E+00  2.9866E-03  0.0000E+00  2.5912E-03
 17  0.0000E+00  5.1461E-03  0.0000E+00  0.0000E+00  0.0000E+00  1.1654E-03  0.0000E+00  0.0000E+00  1.0830E-03
 18  0.0000E+00  1.1074E-02  0.0000E+00  8.1520E-03  0.0000E+00  0.0000E+00  0.0000E+00  0.0000E+00  1.5159E-02
 19  0.0000E+00  2.8819E-02  0.0000E+00  0.0000E+00  0.0000E+00  0.0000E+00  0.0000E+00  0.0000E+00  0.0000E+00
 20  0.0000E+00  1.0271E-01  1.6981E-01  1.4521E-01  2.8088E-01  2.5799E-01  4.6371E-02  0.0000E+00  1.9605E-01
 21  0.0000E+00  1.4401E-01  1.5003E-02  1.2334E-01  3.7059E-02  2.1791E-02  3.1207E-01  0.0000E+00  0.0000E+00
 22  0.0000E+00  1.3207E-01  0.0000E+00  1.9356E-01  0.0000E+00  3.0732E-01  1.1764E-02  0.0000E+00  0.0000E+00
 23  0.0000E+00  2.5726E-01  2.7355E-01  1.5456E-01  0.0000E+00  0.0000E+00  4.6321E-01  1.8832E-03  2.0836E-02
 24  1.2473E-01  2.2609E-01  6.5365E-01  2.1527E-01  1.0537E-01  0.0000E+00  0.0000E+00  2.1039E-01  1.5038E-01
 25  0.0000E+00  2.4323E-01  1.8890E-01  0.0000E+00  0.0000E+00  0.0000E+00  2.1666E-01  3.0920E-04  0.0000E+00
 26  0.0000E+00  1.4309E-05  0.0000E+00  0.0000E+00  0.0000E+00  0.0000E+00  0.0000E+00  0.0000E+00  0.0000E+00
 27  0.0000E+00  7.5001E-06  0.0000E+00  0.0000E+00  0.0000E+00  0.0000E+00  0.0000E+00  0.0000E+00  0.0000E+00
 28  0.0000E+00  1.0366E-05  0.0000E+00  0.0000E+00  0.0000E+00  0.0000E+00  0.0000E+00  0.0000E+00  0.0000E+00
 29  0.0000E+00  1.0788E-05  0.0000E+00  6.8122E-05  0.0000E+00  0.0000E+00  0.0000E+00  0.0000E+00  0.0000E+00
 30  0.0000E+00  1.5923E-05  0.0000E+00  0.0000E+00  2.5641E-04  0.0000E+00  0.0000E+00  0.0000E+00  0.0000E+00
 31  0.0000E+00  1.4754E-05  0.0000E+00  0.0000E+00  0.0000E+00  0.0000E+00  0.0000E+00  1.7212E-05  0.0000E+00
 32  0.0000E+00  4.0674E-05  0.0000E+00  0.0000E+00  0.0000E+00  0.0000E+00  0.0000E+00  0.0000E+00  0.0000E+00
 33  0.0000E+00  5.6839E-05  0.0000E+00  0.0000E+00  0.0000E+00  0.0000E+00  0.0000E+00  0.0000E+00  0.0000E+00
 34  0.0000E+00  1.2489E-04  0.0000E+00  0.0000E+00  1.2649E-04  0.0000E+00  1.3005E-04  0.0000E+00  0.0000E+00
 35  0.0000E+00  2.9979E-04  0.0000E+00  0.0000E+00  0.0000E+00  0.0000E+00  0.0000E+00  0.0000E+00  1.8757E-04
 36  0.0000E+00  6.5718E-04  2.6140E-04  1.8757E-03  0.0000E+00  0.0000E+00  0.0000E+00  0.0000E+00  0.0000E+00
 37  0.0000E+00  8.0517E-04  0.0000E+00  0.0000E+00  0.0000E+00  0.0000E+00  0.0000E+00  2.6202E-03  2.4037E-03
 38  0.0000E+00  8.1179E-04  0.0000E+00  0.0000E+00  2.1517E-03  0.0000E+00  0.0000E+00  4.3103E-04  0.0000E+00
 39  0.0000E+00  7.7565E-04  9.8087E-04  0.0000E+00  0.0000E+00  0.0000E+00  0.0000E+00  0.0000E+00  0.0000E+00
 40  0.0000E+00  2.7530E-03  0.0000E+00  6.7651E-04  0.0000E+00  0.0000E+00  1.5946E-03  0.0000E+00  0.0000E+00
 41  0.0000E+00  8.3203E-03  3.9336E-02  0.0000E+00  0.0000E+00  0.0000E+00  0.0000E+00  0.0000E+00  4.6299E-04
 42  0.0000E+00  8.5218E-03  0.0000E+00  0.0000E+00  0.0000E+00  3.3647E-02  0.0000E+00  0.0000E+00  0.0000E+00
 43  9.5133E+00  9.3730E+00  9.3985E+00  9.4961E+00  9.5158E+00  9.4898E+00  9.2533E+00  9.4921E+00  9.4369E+00
 44  3.2837E+01  2.9951E+01  3.0466E+01  3.0514E+01  3.0652E+01  3.0215E+01  3.1211E+01  3.0829E+01  3.1077E+01
 45  1.4607E+00  5.4728E-01  6.0548E-01  7.5948E-01  1.0122E+00  5.0046E-01  3.8533E-02  6.3695E-01  2.2189E-01
 46  1.3693E+00  5.1909E-01  1.1156E+00  1.5145E+00  6.8667E-01  3.0981E-01  6.4040E-01  2.8288E-01  9.8412E-01
 47  1.1616E-01  3.3587E-01  5.4601E-01  2.7425E-01  6.5738E-04  3.9465E-01  1.8373E-01  9.6835E-01  0.0000E+00
 48  0.0000E+00  2.9838E-01  4.2852E-01  4.3482E-03  0.0000E+00  1.4502E+00  0.0000E+00  3.3430E-01  2.4463E-01
 49  0.0000E+00  2.5527E-01  4.3770E-02  0.0000E+00  0.0000E+00  5.4166E-02  0.0000E+00  2.0324E-01  0.0000E+00
 50  0.0000E+00  2.2395E-01  0.0000E+00  0.0000E+00  0.0000E+00  3.2953E-01  0.0000E+00  0.0000E+00  1.2489E-01
 51  0.0000E+00  9.1676E-06  0.0000E+00  0.0000E+00  0.0000E+00  0.0000E+00  0.0000E+00  0.0000E+00  0.0000E+00
 52  0.0000E+00  2.6429E-05  0.0000E+00  0.0000E+00  0.0000E+00  0.0000E+00  0.0000E+00  0.0000E+00  0.0000E+00
 53  0.0000E+00  1.6048E-05  0.0000E+00  0.0000E+00  0.0000E+00  0.0000E+00  0.0000E+00  0.0000E+00  0.0000E+00
 54  0.0000E+00  3.3686E-05  1.5942E-04  2.9441E-04  0.0000E+00  0.0000E+00  0.0000E+00  0.0000E+00  4.5186E-04
 55  0.0000E+00  5.5088E-05  0.0000E+00  0.0000E+00  0.0000E+00  0.0000E+00  0.0000E+00  0.0000E+00  0.0000E+00
 56  0.0000E+00  3.6953E-05  0.0000E+00  0.0000E+00  0.0000E+00  0.0000E+00  0.0000E+00  0.0000E+00  0.0000E+00
 57  0.0000E+00  2.9157E-05  0.0000E+00  0.0000E+00  0.0000E+00  0.0000E+00  0.0000E+00  0.0000E+00  1.3011E-05
 58  0.0000E+00  7.4597E-05  0.0000E+00  0.0000E+00  0.0000E+00  0.0000E+00  0.0000E+00  0.0000E+00  0.0000E+00
 59  0.0000E+00  8.7058E-05  0.0000E+00  0.0000E+00  0.0000E+00  0.0000E+00  3.1284E-04  0.0000E+00  0.0000E+00
 60  0.0000E+00  2.0983E-04  0.0000E+00  0.0000E+00  0.0000E+00  0.0000E+00  0.0000E+00  0.0000E+00  0.0000E+00
 61  0.0000E+00  4.3859E-04  0.0000E+00  0.0000E+00  0.0000E+00  0.0000E+00  1.6690E-04  5.3299E-04  0.0000E+00
 62  0.0000E+00  9.0162E-04  0.0000E+00  2.5696E-04  0.0000E+00  0.0000E+00  3.9980E-03  0.0000E+00  0.0000E+00
 63  0.0000E+00  6.5686E-04  0.0000E+00  0.0000E+00  0.0000E+00  0.0000E+00  0.0000E+00  0.0000E+00  0.0000E+00
 64  0.0000E+00  1.8364E-03  0.0000E+00  0.0000E+00  0.0000E+00  1.7205E-03  0.0000E+00  0.0000E+00  7.1524E-05
 65  0.0000E+00  6.4043E-03  2.0907E-03  1.2020E-02  2.4813E-02  0.0000E+00  1.6751E-02  3.4575E-03  1.9223E-04
 66  0.0000E+00  6.7264E-03  0.0000E+00  0.0000E+00  0.0000E+00  3.3177E-03  2.9854E-03  0.0000E+00  9.8527E-04
 67  0.0000E+00  2.4731E-02  0.0000E+00  0.0000E+00  1.5608E-02  0.0000E+00  3.7835E-02  0.0000E+00  7.0675E-02
 68  5.5084E+00  5.1612E+00  5.1804E+00  5.1896E+00  5.1551E+00  5.1863E+00  5.2553E+00  5.2088E+00  5.1656E+00
 69  0.0000E+00  8.1811E-02  0.0000E+00  0.0000E+00  1.5572E-01  1.1743E-01  6.9406E-02  0.0000E+00  2.2164E-01
 70  2.2273E+00  2.7577E+00  1.9886E+00  2.4912E+00  2.8611E+00  2.6976E+00  2.1566E+00  2.7224E+00  2.8812E+00
 71  3.2556E+00  4.4534E+00  3.4923E+00  4.3857E+00  4.2092E+00  4.4749E+00  4.7731E+00  4.5907E+00  4.0868E+00
 72  5.4784E-01  1.8198E+00  2.0373E+00  1.5896E+00  1.1400E+00  1.4119E+00  1.6081E+00  1.6594E+00  1.7400E+00
 73  0.0000E+00  3.9661E-02  0.0000E+00  2.3842E-01  0.0000E+00  0.0000E+00  0.0000E+00  0.0000E+00  0.0000E+00
 74  0.0000E+00  5.4817E-02  3.0333E-01  0.0000E+00  0.0000E+00  0.0000E+00  0.0000E+00  0.0000E+00  0.0000E+00
 75  0.0000E+00  4.9753E-02  0.0000E+00  0.0000E+00  0.0000E+00  0.0000E+00  0.0000E+00  4.5219E-02  0.0000E+00
 76  0.0000E+00  1.2402E-05  0.0000E+00  0.0000E+00  0.0000E+00  0.0000E+00  0.0000E+00  0.0000E+00  0.0000E+00
 77  0.0000E+00  3.3731E-06  0.0000E+00  0.0000E+00  0.0000E+00  0.0000E+00  0.0000E+00  0.0000E+00  0.0000E+00
 78  0.0000E+00  7.8377E-06  0.0000E+00  0.0000E+00  0.0000E+00  5.3753E-05  0.0000E+00  0.0000E+00  0.0000E+00
 79  0.0000E+00  3.4711E-05  3.5626E-05  1.9808E-04  0.0000E+00  0.0000E+00  0.0000E+00  0.0000E+00  0.0000E+00
 80  0.0000E+00  2.9905E-05  0.0000E+00  0.0000E+00  0.0000E+00  0.0000E+00  7.4070E-07  0.0000E+00  0.0000E+00
 81  0.0000E+00  2.4587E-05  0.0000E+00  5.1686E-05  0.0000E+00  0.0000E+00  0.0000E+00  0.0000E+00  0.0000E+00
 82  0.0000E+00  3.7644E-05  0.0000E+00  0.0000E+00  0.0000E+00  0.0000E+00  0.0000E+00  0.0000E+00  0.0000E+00
 83  0.0000E+00  1.2664E-04  0.0000E+00  0.0000E+00  0.0000E+00  3.7535E-04  0.0000E+00  0.0000E+00  0.0000E+00
 84  0.0000E+00  1.4084E-04  0.0000E+00  0.0000E+00  0.0000E+00  1.4410E-03  0.0000E+00  0.0000E+00  0.0000E+00
 85  0.0000E+00  1.8848E-04  0.0000E+00  0.0000E+00  0.0000E+00  0.0000E+00  0.0000E+00  0.0000E+00  0.0000E+00
 86  0.0000E+00  2.9504E-04  0.0000E+00  0.0000E+00  0.0000E+00  0.0000E+00  0.0000E+00  0.0000E+00  0.0000E+00
 87  0.0000E+00  5.1551E-04  0.0000E+00  0.0000E+00  0.0000E+00  0.0000E+00  0.0000E+00  0.0000E+00  0.0000E+00
 88  0.0000E+00  6.0843E-04  0.0000E+00  0.0000E+00  0.0000E+00  0.0000E+00  0.0000E+00  0.0000E+00  7.5781E-03
 89  0.0000E+00  1.3599E-03  1.4815E-03  0.0000E+00  0.0000E+00  0.0000E+00  0.0000E+00  0.0000E+00  0.0000E+00
 90  0.0000E+00  8.5783E-03  2.1337E-02  0.0000E+00  0.0000E+00  0.0000E+00  2.2421E-03  0.0000E+00  0.0000E+00
 91  0.0000E+00  5.7634E-03  0.0000E+00  0.0000E+00  0.0000E+00  0.0000E+00  0.0000E+00  0.0000E+00  0.0000E+00
 92  0.0000E+00  1.6328E-02  1.1624E-02  0.0000E+00  0.0000E+00  0.0000E+00  7.6947E-03  4.4661E-02  0.0000E+00
 93  0.0000E+00  4.9315E-02  0.0000E+00  5.6067E-02  0.0000E+00  4.0254E-02  0.0000E+00  0.0000E+00  5.3716E-03
 94  5.1342E-01  9.2114E-01  5.6130E-01  1.0974E+00  8.1709E-01  8.1905E-01  1.0735E+00  7.9651E-01  8.3474E-01
 95  2.0036E+00  1.9878E+00  2.1280E+00  1.8661E+00  1.9093E+00  2.0520E+00  2.1461E+00  2.0406E+00  1.8573E+00
 96  4.2321E+00  4.6449E+00  4.7920E+00  4.7666E+00  4.7846E+00  4.0367E+00  4.5418E+00  4.5932E+00  4.6395E+00
 97  7.7439E+00  7.4919E+00  7.4406E+00  7.3899E+00  7.6620E+00  7.3569E+00  7.7050E+00  7.0443E+00  7.7582E+00
 98  1.1168E+01  1.1019E+01  1.0786E+01  1.1234E+01  1.1099E+01  1.1204E+01  1.1179E+01  1.1046E+01  1.1353E+01
 99  6.6073E+00  7.2417E+00  7.2675E+00  7.1581E+00  7.5800E+00  7.4658E+00  6.7675E+00  7.3458E+00  7.2240E+00
100  6.0087E+00  6.5649E+00  5.4480E+00  6.0526E+00  7.0040E+00  6.6320E+00  6.9254E+00  6.6958E+00  5.9711E+00
101  0.0000E+00  6.2190E-06  0.0000E+00  0.0000E+00  0.0000E+00  0.0000E+00  0.0000E+00  0.0000E+00  0.0000E+00
102  0.0000E+00  2.6741E-06  0.0000E+00  0.0000E+00  0.0000E+00  0.0000E+00  0.0000E+00  0.0000E+00  0.0000E+00
103  0.0000E+00  9.4765E-06  0.0000E+00  0.0000E+00  0.0000E+00  0.0000E+00  0.0000E+00  0.0000E+00  0.0000E+00
104  0.0000E+00  1.5772E-05  0.0000E+00  0.0000E+00  0.0000E+00  0.0000E+00  0.0000E+00  1.3338E-05  0.0000E+00
105  0.0000E+00  1.3195E-05  0.0000E+00  0.0000E+00  0.0000E+00  0.0000E+00  0.0000E+00  0.0000E+00  0.0000E+00
106  0.0000E+00  1.5406E-05  0.0000E+00  0.0000E+00  0.0000E+00  0.0000E+00  0.0000E+00  0.0000E+00  1.2321E-05
107  0.0000E+00  2.5969E-05  0.0000E+00  0.0000E+00  0.0000E+00  0.0000E+00  0.0000E+00  0.0000E+00  0.0000E+00
108  0.0000E+00  3.8695E-05  0.0000E+00  0.0000E+00  0.0000E+00  0.0000E+00  0.0000E+00  1.0330E-04  0.0000E+00
109  0.0000E+00  8.8797E-05  0.0000E+00  0.0000E+00  0.0000E+00  0.0000E+00  0.0000E+00  0.0000E+00  0.0000E+00
110  0.0000E+00  1.3745E-04  0.0000E+00  0.0000E+00  3.1044E-04  0.0000E+00  0.0000E+00  0.0000E+00  0.0000E+00
111  0.0000E+00  2.2305E-04  0.0000E+00  0.0000E+00  0.0000E+00  0.0000E+00  0.0000E+00  0.0000E+00  0.0000E+00
112  0.0000E+00  3.9636E-04  0.0000E+00  5.2109E-04  0.0000E+00  0.0000E+00  0.0000E+00  0.0000E+00  0.0000E+00
113  0.0000E+00  5.5018E-04  0.0000E+00  3.1302E-03  0.0000E+00  0.0000E+00  0.0000E+00  0.0000E+00  0.0000E+00
114  0.0000E+00  1.9131E-03  0.0000E+00  0.0000E+00  0.0000E+00  0.0000E+00  2.8758E-02  0.0000E+00  0.0000E+00
115  0.0000E+00  1.5471E-02  0.0000E+00  0.0000E+00  6.5284E-02  0.0000E+00  0.0000E+00  6.6487E-02  0.0000E+00
116  0.0000E+00  5.0559E-02  5.7074E-02  1.5738E-01  0.0000E+00  0.0000E+00  8.7791E-02  3.6081E-02  1.7260E-01
117  0.0000E+00  9.5967E-02  0.0000E+00  1.3184E-01  1.3263E-01  1.8267E-01  8.7561E-02  1.1292E-01  9.3337E-02
118  0.0000E+00  6.2941E-02  1.3021E-01  1.0262E-01  1.2577E-01  0.0000E+00  3.6153E-02  2.0143E-01  2.6369E-01
119  0.0000E+00  1.0901E-01  0.0000E+00  0.0000E+00  2.6192E-01  0.0000E+00  0.0000E+00  1.3692E-01  0.0000E+00
120  0.0000E+00  7.7558E-02  6.3190E-01  0.0000E+00  0.0000E+00  1.5632E-02  2.5715E-01  1.0539E-01  0.0000E+00
121  0.0000E+00  4.5138E-02  0.0000E+00  0.0000E+00  1.3495E-03  0.0000E+00  0.0000E+00  0.0000E+00  0.0000E+00
122  0.0000E+00  6.0087E-02  0.0000E+00  0.0000E+00  5.2317E-02  0.0000E+00  0.0000E+00  6.1905E-02  4.7156E-01
123  0.0000E+00  6.5580E-02  0.0000E+00  0.0000E+00  0.0000E+00  3.1116E-01  0.0000E+00  0.0000E+00  3.1989E-02
124  0.0000E+00  5.1538E-02  1.4144E-01  1.8877E-01  2.8814E-01  0.0000E+00  3.3974E-02  0.0000E+00  1.6479E-01
125  0.0000E+00  4.4770E-02  1.3827E-01  0.0000E+00  0.0000E+00  6.9345E-02  0.0000E+00  0.0000E+00  0.0000E+00
126  0.0000E+00  3.4544E-06  4.8509E-05  0.0000E+00  0.0000E+00  0.0000E+00  0.0000E+00  0.0000E+00  0.0000E+00
127  0.0000E+00  4.1787E-06  1.4680E-04  0.0000E+00  0.0000E+00  0.0000E+00  0.0000E+00  0.0000E+00  0.0000E+00
128  0.0000E+00  5.9596E-06  0.0000E+00  0.0000E+00  4.8667E-06  0.0000E+00  0.0000E+00  0.0000E+00  0.0000E+00
129  0.0000E+00  1.1335E-05  0.0000E+00  0.0000E+00  0.0000E+00  0.0000E+00  0.0000E+00  0.0000E+00  0.0000E+00
130  0.0000E+00  1.2982E-05  0.0000E+00  0.0000E+00  0.0000E+00  0.0000E+00  0.0000E+00  0.0000E+00  0.0000E+00
131  0.0000E+00  1.4377E-05  0.0000E+00  0.0000E+00  0.0000E+00  0.0000E+00  0.0000E+00  0.0000E+00  0.0000E+00
132  0.0000E+00  1.3724E-05  0.0000E+00  0.0000E+00  0.0000E+00  0.0000E+00  0.0000E+00  0.0000E+00  0.0000E+00
133  0.0000E+00  3.5542E-05  0.0000E+00  0.0000E+00  0.0000E+00  0.0000E+00  0.0000E+00  0.0000E+00  0.0000E+00
134  0.0000E+00  9.6469E-05  0.0000E+00  0.0000E+00  0.0000E+00  0.0000E+00  0.0000E+00  0.0000E+00  0.0000E+00
135  0.0000E+00  1.3554E-04  0.0000E+00  0.0000E+00  0.0000E+00  0.0000E+00  0.0000E+00  0.0000E+00  0.0000E+00
136  0.0000E+00  2.5505E-04  0.0000E+00  0.0000E+00  0.0000E+00  0.0000E+00  0.0000E+00  0.0000E+00  5.9369E-05
137  0.0000E+00  6.0303E-04  0.0000E+00  0.0000E+00  0.0000E+00  0.0000E+00  0.0000E+00  0.0000E+00  0.0000E+00
138  0.0000E+00  1.3178E-03  4.1652E-04  9.0084E-03  0.0000E+00  0.0000E+00  0.0000E+00  0.0000E+00  0.0000E+00
139  0.0000E+00  1.3356E-02  3.1059E-02  0.0000E+00  0.0000E+00  0.0000E+00  0.0000E+00  0.0000E+00  0.0000E+00
140  1.0053E+00  3.5575E-01  5.5744E-01  5.6390E-01  3.4659E-01  6.1025E-01  3.3435E-01  3.1074E-01  3.3927E-01
141  2.2009E+00  1.1573E+00  1.5556E+00  1.3461E+00  1.2877E+00  1.2173E+00  1.2947E+00  1.0728E+00  1.3583E+00
142  1.4963E+00  2.8565E-01  6.9230E-01  3.4799E-01  2.7728E-01  5.6244E-01  4.9717E-01  3.8904E-01  3.5449E-01
143  0.0000E+00  8.9798E-02  3.1712E-01  8.2944E-02  1.0226E-01  6.6399E-02  2.4400E-01  3.8485E-01  0.0000E+00
144  0.0000E+00  4.0205E-02  0.0000E+00  1.0632E-02  1.8392E-01  0.0000E+00  0.0000E+00  0.0000E+00  0.0000E+00
145  0.0000E+00  3.7982E-02  2.7770E-01  0.0000E+00  2.4038E-04  0.0000E+00  0.0000E+00  1.9760E-02  0.0000E+00
146  0.0000E+00  4.0530E-02  0.0000E+00  0.0000E+00  0.0000E+00  0.0000E+00  0.0000E+00  0.0000E+00  0.0000E+00
147  0.0000E+00  4.5393E-02  0.0000E+00  6.6042E-02  0.0000E+00  4.2309E-02  3.8760E-01  1.5689E-01  0.0000E+00
148  0.0000E+00  2.4465E-02  0.0000E+00  0.0000E+00  0.0000E+00  0.0000E+00  0.0000E+00  0.0000E+00  3.9802E-01
149  0.0000E+00  3.2412E-02  0.0000E+00  0.0000E+00  0.0000E+00  0.0000E+00  0.0000E+00  8.9549E-02  0.0000E+00
150  0.0000E+00  3.8463E-02  0.0000E+00  0.0000E+00  1.0732E-01  0.0000E+00  0.0000E+00  0.0000E+00  0.0000E+00

# AV, chi2 & Mass for <> & i_chain = 1 ...  7 solutions
AV       0.1664      0.1603      0.1601      0.1600      0.1603      0.1602      0.1601      0.1606      0.1608
chi2 2.6884E+00  2.8125E+00  2.7644E+00  2.7777E+00  2.7775E+00  2.7748E+00  2.7778E+00  2.7837E+00  2.7776E+00
Mass 7.5323E-10  7.9951E-10  7.8597E-10  7.8547E-10  7.9221E-10  7.9245E-10  7.9069E-10  7.9296E-10  7.8920E-10
 -16.25                                  [v0_min (km/s) before EX0s...]
  65.33                                  [vd_min (km/s) before EX0s...]


## Synthetic spectrum (Best Model) ##l_obs f_obs f_syn wei
 3070    [Nl_obs]
 3359.00    0.14878   0.45127   -1.000
 3360.00    0.26208   0.43810   -1.000
 3361.00    0.26586   0.44811   -1.000
 3362.00    0.28078   0.47441   -1.000
 3363.00    0.30071   0.50398   -1.000
 3364.00    0.31812   0.52138   -1.000
 3365.00    0.32998   0.52066   -1.000
 3366.00    0.33426   0.50970   -1.000
 3367.00    0.33224   0.49662   -1.000
 3368.00    0.32658   0.48481   -1.000
 3369.00    0.31928   0.47367   -1.000
 3370.00    0.31670   0.46164   -1.000
 3371.00    0.31832   0.45429   -1.000
 3372.00    0.31792   0.45874   -1.000
 3373.00    0.32746   0.47619   -1.000
 3374.00    0.34536   0.50049   -1.000
 3375.00    0.36284   0.52315   -1.000
 3376.00    0.37593   0.53469   -1.000
 3377.00    0.38385   0.53090   -1.000
 3378.00    0.38489   0.51671   -1.000
 3379.00    0.38364   0.50400   -1.000
 3380.00    0.38041   0.50096   -1.000
 3381.00    0.37919   0.50674   -1.000
 3382.00    0.38480   0.51587   -1.000
 3383.00    0.39040   0.52429   -1.000
 3384.00    0.40044   0.53116   -1.000
 3385.00    0.40775   0.53538   -1.000
 3386.00    0.40989   0.53325   -1.000
 3387.00    0.41715   0.52755   -1.000
 3388.00    0.42137   0.52593   -1.000
 3389.00    0.42515   0.52969   -1.000
 3390.00    0.42955   0.53324   -1.000
 3391.00    0.43145   0.53102   -1.000
 3392.00    0.42958   0.52342   -1.000
 3393.00    0.42695   0.52009   -1.000
 3394.00    0.43080   0.52724   -1.000
 3395.00    0.44111   0.54219   -1.000
 3396.00    0.45280   0.55904   -1.000
 3397.00    0.46937   0.57285   -1.000
 3398.00    0.47936   0.58071   -1.000
 3399.00    0.48309   0.58001   -1.000
 3400.00    0.48750   0.57165   -1.000
 3401.00    0.48389   0.55757   -1.000
 3402.00    0.47729   0.54203   -1.000
 3403.00    0.46790   0.53233   -1.000
 3404.00    0.46235   0.52946   -1.000
 3405.00    0.45768   0.52983   -1.000
 3406.00    0.45163   0.52708   -1.000
 3407.00    0.44809   0.52072   -1.000
 3408.00    0.44693   0.51634   -1.000
 3409.00    0.44631   0.51937   -1.000
 3410.00    0.44963   0.52612   -1.000
 3411.00    0.45698   0.52747   -1.000
 3412.00    0.46156   0.52249   -1.000
 3413.00    0.45735   0.51652   -1.000
 3414.00    0.45023   0.51705   -1.000
 3415.00    0.45360   0.52543   -1.000
 3416.00    0.46353   0.53705   -1.000
 3417.00    0.47219   0.54912   -1.000
 3418.00    0.48222   0.56043   -1.000
 3419.00    0.49312   0.56941   -1.000
 3420.00    0.49720   0.57312   -1.000
 3421.00    0.49537   0.56825   -1.000
 3422.00    0.49217   0.55638   -1.000
 3423.00    0.48752   0.54535   -1.000
 3424.00    0.48634   0.54158   -1.000
 3425.00    0.49195   0.54453   -1.000
 3426.00    0.49896   0.55092   -1.000
 3427.00    0.50648   0.56149   -1.000
 3428.00    0.51291   0.57663   -1.000
 3429.00    0.51913   0.58964   -1.000
 3430.00    0.52523   0.58975   -1.000
 3431.00    0.52557   0.57538   -1.000
 3432.00    0.51700   0.55905   -1.000
 3433.00    0.51244   0.55386   -1.000
 3434.00    0.51408   0.56241   -1.000
 3435.00    0.52096   0.57376   -1.000
 3436.00    0.52599   0.57536   -1.000
 3437.00    0.52085   0.56530   -1.000
 3438.00    0.50848   0.54801   -1.000
 3439.00    0.48915   0.52744   -1.000
 3440.00    0.46991   0.50698   -1.000
 3441.00    0.45944   0.49147   -1.000
 3442.00    0.45827   0.48601   -1.000
 3443.00    0.46198   0.49080   -1.000
 3444.00    0.47046   0.50260   -1.000
 3445.00    0.48191   0.51890   -1.000
 3446.00    0.49840   0.53899   -1.000
 3447.00    0.51478   0.55996   -1.000
 3448.00    0.52790   0.57641   -1.000
 3449.00    0.53903   0.58132   -1.000
 3450.00    0.54528   0.57057   -1.000
 3451.00    0.53826   0.55183   -1.000
 3452.00    0.52767   0.53800   -1.000
 3453.00    0.52750   0.53554   -1.000
 3454.00    0.53102   0.54161   -1.000
 3455.00    0.53814   0.54870   -1.000
 3456.00    0.54550   0.55049   -1.000
 3457.00    0.54374   0.54536  709.558
 3458.00    0.53549   0.53583  144.415
 3459.00    0.52884   0.52536   91.326
 3460.00    0.52347   0.51729   91.474
 3461.00    0.52068   0.51786  191.585
 3462.00    0.52619   0.52916  709.558
 3463.00    0.53761   0.54226   -1.000
 3464.00    0.54756   0.54713  709.558
 3465.00    0.55469   0.54507   -1.000
 3466.00    0.55679   0.54553   -1.000
 3467.00    0.55395   0.55385  709.558
 3468.00    0.56331   0.56737   -1.000
 3469.00    0.57350   0.57872   -1.000
 3470.00    0.57544   0.58147   -1.000
 3471.00    0.57314   0.57457  709.558
 3472.00    0.56471   0.56047  709.558
 3473.00    0.55236   0.54149   -1.000
 3474.00    0.53840   0.52335  145.020
 3475.00    0.52201   0.51306   93.367
 3476.00    0.51116   0.51502   93.562
 3477.00    0.51718   0.52778  194.551
 3478.00    0.53877   0.54389   -1.000
 3479.00    0.56093   0.55800  709.558
 3480.00    0.57464   0.56697   -1.000
 3481.00    0.57763   0.56803   -1.000
 3482.00    0.57240   0.56274   -1.000
 3483.00    0.56952   0.55711   -1.000
 3484.00    0.57126   0.55812   -1.000
 3485.00    0.57776   0.56799   -1.000
 3486.00    0.58810   0.57868   -1.000
 3487.00    0.59122   0.58005   -1.000
 3488.00    0.58273   0.56992   -1.000
 3489.00    0.56827   0.55376   -1.000
 3490.00    0.55111   0.54221   -1.000
 3491.00    0.54494   0.54210  709.558
 3492.00    0.54721   0.54847  709.558
 3493.00    0.55192   0.55144  709.558
 3494.00    0.55299   0.54677   -1.000
 3495.00    0.54921   0.53653   -1.000
 3496.00    0.54306   0.52952   -1.000
 3497.00    0.53989   0.53381   -1.000
 3498.00    0.55358   0.54664   -1.000
 3499.00    0.57209   0.55924   -1.000
 3500.00    0.58339   0.56460   -1.000
 3501.00    0.59026   0.56581   -1.000
 3502.00    0.59207   0.56838   -1.000
 3503.00    0.59477   0.57032   -1.000
 3504.00    0.59622   0.56781   -1.000
 3505.00    0.59142   0.56116   -1.000
 3506.00    0.58793   0.55501   -1.000
 3507.00    0.58563   0.55212   -1.000
 3508.00    0.58604   0.55118   -1.000
 3509.00    0.58911   0.54966   -1.000
 3510.00    0.58167   0.54591   -1.000
 3511.00    0.57265   0.54047   -1.000
 3512.00    0.56470   0.53412   -1.000
 3513.00    0.55760   0.52981   -1.000
 3514.00    0.55506   0.53282   -1.000
 3515.00    0.56159   0.54657   -1.000
 3516.00    0.57844   0.56723   -1.000
 3517.00    0.59216   0.58299   -1.000
 3518.00    0.59647   0.58446   -1.000
 3519.00    0.59027   0.57231   -1.000
 3520.00    0.57790   0.55611   -1.000
 3521.00    0.56629   0.54345   -1.000
 3522.00    0.55511   0.53435   -1.000
 3523.00    0.54448   0.52484  142.259
 3524.00    0.52988   0.51453   92.497
 3525.00    0.51571   0.51014   93.466
 3526.00    0.51545   0.51788  199.004
 3527.00    0.53151   0.53520  709.558
 3528.00    0.55345   0.55548  709.558
 3529.00    0.56901   0.57150  709.558
 3530.00    0.57818   0.57934  709.558
 3531.00    0.58200   0.58005  709.558
 3532.00    0.58575   0.57625   -1.000
 3533.00    0.58882   0.57117   -1.000
 3534.00    0.58999   0.56874   -1.000
 3535.00    0.58994   0.57158   -1.000
 3536.00    0.58847   0.57998   -1.000
 3537.00    0.59081   0.59082  709.558
 3538.00    0.59883   0.60027  709.558
 3539.00    0.60365   0.60525  709.558
 3540.00    0.60165   0.60474   -1.000
 3541.00    0.59466   0.60187   -1.000
 3542.00    0.59360   0.60172   -1.000
 3543.00    0.59775   0.60590   -1.000
 3544.00    0.59998   0.60998   -1.000
 3545.00    0.60254   0.60974   -1.000
 3546.00    0.60052   0.60617   -1.000
 3547.00    0.59324   0.60273   -1.000
 3548.00    0.59104   0.60207   -1.000
 3549.00    0.59165   0.60434   -1.000
 3550.00    0.59104   0.60736   -1.000
 3551.00    0.58904   0.60699   -1.000
 3552.00    0.58276   0.60049   -1.000
 3553.00    0.57396   0.59147   -1.000
 3554.00    0.56937   0.58647   -1.000
 3555.00    0.57349   0.58802   -1.000
 3556.00    0.57670   0.59377   -1.000
 3557.00    0.57495   0.59951   -1.000
 3558.00    0.57208   0.60158   -1.000
 3559.00    0.57191   0.60124   -1.000
 3560.00    0.57467   0.60226   -1.000
 3561.00    0.58160   0.60512   -1.000
 3562.00    0.58512   0.60429   -1.000
 3563.00    0.57765   0.59301   -1.000
 3564.00    0.56189   0.57196  141.857
 3565.00    0.53844   0.55091   93.725
 3566.00    0.51990   0.53926   94.562
 3567.00    0.51815   0.53702   93.794
 3568.00    0.51891   0.53650   95.524
 3569.00    0.51553   0.53133   97.899
 3570.00    0.50909   0.52320   96.685
 3571.00    0.50971   0.51873   92.821
 3572.00    0.51757   0.52055  198.367
 3573.00    0.52783   0.52546  709.558
 3574.00    0.53518   0.53134  709.558
 3575.00    0.53882   0.53837  709.558
 3576.00    0.54250   0.54554  709.558
 3577.00    0.54483   0.55029   -1.000
 3578.00    0.54401   0.54863  146.388
 3579.00    0.53320   0.53859   99.007
 3580.00    0.51381   0.52470  105.450
 3581.00    0.50044   0.51362  108.110
 3582.00    0.49565   0.50994  108.631
 3583.00    0.49751   0.51043  110.476
 3584.00    0.49417   0.50522  113.806
 3585.00    0.48318   0.49189  116.261
 3586.00    0.47565   0.47957  113.186
 3587.00    0.47891   0.47871  107.231
 3588.00    0.48927   0.49184  101.843
 3589.00    0.50626   0.51351   94.250
 3590.00    0.52834   0.53524  197.760
 3591.00    0.54584   0.55059   -1.000
 3592.00    0.55678   0.55810  709.558
 3593.00    0.56146   0.56180  709.558
 3594.00    0.56343   0.56778   -1.000
 3595.00    0.57299   0.57821   -1.000
 3596.00    0.58588   0.58931   -1.000
 3597.00    0.59425   0.59742   -1.000
 3598.00    0.60118   0.60232  683.616
 3599.00    0.60662   0.60386  684.382
 3600.00    0.60658   0.59876   -1.000
 3601.00    0.59316   0.58555   -1.000
 3602.00    0.57614   0.56965   -1.000
 3603.00    0.56594   0.55838   -1.000
 3604.00    0.55924   0.55582  709.558
 3605.00    0.55756   0.55801  709.558
 3606.00    0.55923   0.55807  709.558
 3607.00    0.55610   0.55359  709.558
 3608.00    0.54761   0.54710  709.558
 3609.00    0.53851   0.54346   -1.000
 3610.00    0.53583   0.54502   -1.000
 3611.00    0.54401   0.55066   -1.000
 3612.00    0.55479   0.55768  709.558
 3613.00    0.55928   0.56528   -1.000
 3614.00    0.56378   0.57577   -1.000
 3615.00    0.57454   0.58604   -1.000
 3616.00    0.57903   0.58575   -1.000
 3617.00    0.56284   0.57170   -1.000
 3618.00    0.53878   0.55334  138.530
 3619.00    0.52883   0.54557   -1.000
 3620.00    0.54061   0.55445   -1.000
 3621.00    0.56348   0.57210   -1.000
 3622.00    0.58298   0.58787   -1.000
 3623.00    0.59154   0.59843   -1.000
 3624.00    0.59797   0.60907   -1.000
 3625.00    0.60965   0.62468   -1.000
 3626.00    0.62056   0.64207   -1.000
 3627.00    0.62709   0.65139   -1.000
 3628.00    0.62563   0.64259   -1.000
 3629.00    0.60567   0.61568   -1.000
 3630.00    0.57278   0.58268   -1.000
 3631.00    0.54935   0.56040   -1.000
 3632.00    0.54267   0.55743   -1.000
 3633.00    0.55028   0.56905   -1.000
 3634.00    0.56397   0.58272   -1.000
 3635.00    0.57487   0.59066   -1.000
 3636.00    0.58451   0.59615   -1.000
 3637.00    0.59385   0.60546   -1.000
 3638.00    0.60720   0.61785   -1.000
 3639.00    0.62044   0.62699   -1.000
 3640.00    0.62267   0.62762   -1.000
 3641.00    0.61544   0.61898   -1.000
 3642.00    0.60163   0.60479  709.558
 3643.00    0.58715   0.59106   -1.000
 3644.00    0.57395   0.58144   -1.000
 3645.00    0.56689   0.57554   -1.000
 3646.00    0.56592   0.57180   -1.000
 3647.00    0.56590   0.57032  709.558
 3648.00    0.56627   0.57154   -1.000
 3649.00    0.57288   0.57568  709.558
 3650.00    0.58066   0.58359  709.558
 3651.00    0.58991   0.59549   -1.000
 3652.00    0.60404   0.60964   -1.000
 3653.00    0.61684   0.62268   -1.000
 3654.00    0.62440   0.63343   -1.000
 3655.00    0.62669   0.64250   -1.000
 3656.00    0.62932   0.64994   -1.000
 3657.00    0.63543   0.65469   -1.000
 3658.00    0.63965   0.65605   -1.000
 3659.00    0.63796   0.65428   -1.000
 3660.00    0.63258   0.64936   -1.000
 3661.00    0.63012   0.64190   -1.000
 3662.00    0.62580   0.63432   -1.000
 3663.00    0.62352   0.62981   -1.000
 3664.00    0.62701   0.62974  646.264
 3665.00    0.62940   0.63181  643.522
 3666.00    0.62874   0.63229  652.317
 3667.00    0.62765   0.62884  662.061
 3668.00    0.61878   0.62279   -1.000
 3669.00    0.60959   0.61905   -1.000
 3670.00    0.60716   0.62132   -1.000
 3671.00    0.61591   0.62923   -1.000
 3672.00    0.62803   0.63815   -1.000
 3673.00    0.63277   0.64257   -1.000
 3674.00    0.63222   0.64042   -1.000
 3675.00    0.62849   0.63202  649.694
 3676.00    0.62284   0.61882  670.099
 3677.00    0.61153   0.60463   -1.000
 3678.00    0.59750   0.59474  709.486
 3679.00    0.59427   0.59276  709.558
 3680.00    0.59718   0.59727  701.947
 3681.00    0.60214   0.60407  682.163
 3682.00    0.60632   0.60920  670.940
 3683.00    0.60615   0.60926  679.065
 3684.00    0.60060   0.60277  703.007
 3685.00    0.59432   0.59190  709.558
 3686.00    0.58350   0.58409  709.558
 3687.00    0.57942   0.58797   -1.000
 3688.00    0.58944   0.60510   -1.000
 3689.00    0.60911   0.62649   -1.000
 3690.00    0.63018   0.64137   -1.000
 3691.00    0.63768   0.64658   -1.000
 3692.00    0.63596   0.64646   -1.000
 3693.00    0.63990   0.64634   -1.000
 3694.00    0.64188   0.64674   -1.000
 3695.00    0.63752   0.64498   -1.000
 3696.00    0.63265   0.64117   -1.000
 3697.00    0.63246   0.64287   -1.000
 3698.00    0.64625   0.65721   -1.000
 3699.00    0.66931   0.67894   -1.000
 3700.00    0.68138   0.69251   -1.000
 3701.00    0.67276   0.68256   -1.000
 3702.00    0.64467   0.64854   -1.000
 3703.00    0.60950   0.60536  709.558
 3704.00    0.57940   0.57214   -1.000
 3705.00    0.56511   0.56095   -1.000
 3706.00    0.57367   0.57007  709.558
 3707.00    0.59014   0.58761  709.558
 3708.00    0.60037   0.60025  709.558
 3709.00    0.60471   0.60159  709.558
 3710.00    0.60354   0.59578   -1.000
 3711.00    0.60596   0.59396   -1.000
 3712.00    0.62151   0.60574   -1.000
 3713.00    0.65098   0.63277   -1.000
 3714.00    0.67986   0.66620   -1.000
 3715.00    0.69756   0.69257  595.769
 3716.00    0.70385   0.70402  618.769
 3717.00    0.69268   0.69666   -1.000
 3718.00    0.65898   0.66579   -1.000
 3719.00    0.60773   0.61345   -1.000
 3720.00    0.55258   0.55732  137.978
 3721.00    0.51879   0.52279  209.444
 3722.00    0.52640   0.52433  709.558
 3723.00    0.57061   0.56027   -1.000
 3724.00    0.62398   0.61350   -1.000
 3725.00    0.66307   0.65709   -1.000
 3726.00    0.68043   0.67852  672.769
 3727.00    0.67892   0.68606   -1.000
 3728.00    0.67748   0.69063   -1.000
 3729.00    0.67793   0.69218   -1.000
 3730.00    0.66862   0.68021   -1.000
 3731.00    0.63972   0.64386   -1.000
 3732.00    0.59118   0.58665  134.311
 3733.00    0.53493   0.52763   96.887
 3734.00    0.49350   0.48716  103.558
 3735.00    0.48156   0.47979  101.529
 3736.00    0.50166   0.50772   93.451
 3737.00    0.54615   0.55915  204.704
 3738.00    0.60439   0.61860   -1.000
 3739.00    0.65901   0.67192   -1.000
 3740.00    0.69289   0.70533   -1.000
 3741.00    0.70333   0.71349   -1.000
 3742.00    0.69623   0.70180   -1.000
 3743.00    0.67528   0.68047   -1.000
 3744.00    0.64971   0.65570   -1.000
 3745.00    0.62343   0.62864   -1.000
 3746.00    0.59154   0.59691  136.470
 3747.00    0.55982   0.55934   95.236
 3748.00    0.52112   0.52139   98.150
 3749.00    0.49120   0.49695  225.307
 3750.00    0.50192   0.50230  709.558
 3751.00    0.54935   0.54172   -1.000
 3752.00    0.61079   0.60153   -1.000
 3753.00    0.66595   0.66172  624.286
 3754.00    0.71080   0.70638  604.898
 3755.00    0.73691   0.72739   -1.000
 3756.00    0.73265   0.72229   -1.000
 3757.00    0.70317   0.69825   -1.000
 3758.00    0.67508   0.67276  709.558
 3759.00    0.66712   0.66083   -1.000
 3760.00    0.67974   0.66468   -1.000
 3761.00    0.70217   0.67756   -1.000
 3762.00    0.71300   0.69044   -1.000
 3763.00    0.71508   0.69704   -1.000
 3764.00    0.71183   0.69476   -1.000
 3765.00    0.70272   0.68333   -1.000
 3766.00    0.68482   0.66350   -1.000
 3767.00    0.66171   0.63537   -1.000
 3768.00    0.63489   0.60154   -1.000
 3769.00    0.60932   0.56995   -1.000
 3770.00    0.59054   0.55378   -1.000
 3771.00    0.59673   0.56524   -1.000
 3772.00    0.63261   0.60099   -1.000
 3773.00    0.67539   0.64370   -1.000
 3774.00    0.70612   0.67761   -1.000
 3775.00    0.72385   0.70036   -1.000
 3776.00    0.73813   0.71932   -1.000
 3777.00    0.75888   0.74187   -1.000
 3778.00    0.78375   0.76774   -1.000
 3779.00    0.80517   0.79243   -1.000
 3780.00    0.82273   0.81182   -1.000
 3781.00    0.83252   0.82255   -1.000
 3782.00    0.83573   0.82458   -1.000
 3783.00    0.83138   0.81993   -1.000
 3784.00    0.82533   0.80875   -1.000
 3785.00    0.81021   0.78993   -1.000
 3786.00    0.78447   0.76607   -1.000
 3787.00    0.76136   0.74405   -1.000
 3788.00    0.74953   0.73118   -1.000
 3789.00    0.74366   0.72821   -1.000
 3790.00    0.74083   0.72896   -1.000
 3791.00    0.74041   0.72524   -1.000
 3792.00    0.72824   0.71118   -1.000
 3793.00    0.69759   0.68456   -1.000
 3794.00    0.66289   0.64681   -1.000
 3795.00    0.62576   0.60283   -1.000
 3796.00    0.58458   0.55838   -1.000
 3797.00    0.54889   0.52342   -1.000
 3798.00    0.53588   0.51458   -1.000
 3799.00    0.56031   0.54288   -1.000
 3800.00    0.61304   0.60065   -1.000
 3801.00    0.67065   0.66579   -1.000
 3802.00    0.72007   0.71892  644.012
 3803.00    0.75796   0.75259   -1.000
 3804.00    0.77789   0.76845   -1.000
 3805.00    0.78477   0.77081   -1.000
 3806.00    0.78340   0.76991   -1.000
 3807.00    0.78453   0.77671   -1.000
 3808.00    0.79547   0.79404  647.960
 3809.00    0.81616   0.81500  634.526
 3810.00    0.83095   0.82721  640.399
 3811.00    0.82538   0.82042   -1.000
 3812.00    0.80814   0.79492   -1.000
 3813.00    0.78293   0.76335   -1.000
 3814.00    0.75948   0.74148   -1.000
 3815.00    0.75430   0.73852   -1.000
 3816.00    0.76609   0.75052   -1.000
 3817.00    0.77962   0.76360   -1.000
 3818.00    0.78226   0.76351   -1.000
 3819.00    0.75770   0.74855   -1.000
 3820.00    0.73208   0.73248  709.558
 3821.00    0.73197   0.72809   -1.000
 3822.00    0.74741   0.73172   -1.000
 3823.00    0.74688   0.72660   -1.000
 3824.00    0.71843   0.70607  138.530
 3825.00    0.68924   0.68179   95.932
 3826.00    0.67484   0.66522   96.070
 3827.00    0.66800   0.65666   94.735
 3828.00    0.66330   0.65055   93.177
 3829.00    0.65831   0.64181   93.423
 3830.00    0.64737   0.62508   96.648
 3831.00    0.61478   0.59575  103.285
 3832.00    0.56969   0.55371  108.259
 3833.00    0.52678   0.50761  107.890
 3834.00    0.49845   0.47353  104.198
 3835.00    0.49286   0.46181   -1.000
 3836.00    0.50824   0.47296   -1.000
 3837.00    0.52959   0.50071   -1.000
 3838.00    0.55272   0.53580  103.961
 3839.00    0.58086   0.57247   99.289
 3840.00    0.61489   0.61164  229.859
 3841.00    0.66087   0.65383   -1.000
 3842.00    0.70840   0.69573   -1.000
 3843.00    0.74578   0.73202   -1.000
 3844.00    0.77082   0.75823   -1.000
 3845.00    0.78330   0.77582   -1.000
 3846.00    0.79085   0.78887  709.558
 3847.00    0.79968   0.79763  709.558
 3848.00    0.80196   0.79943  709.558
 3849.00    0.79433   0.79647  709.558
 3850.00    0.78652   0.79737   -1.000
 3851.00    0.79363   0.80784   -1.000
 3852.00    0.81154   0.82260   -1.000
 3853.00    0.81918   0.83101   -1.000
 3854.00    0.81292   0.82797   -1.000
 3855.00    0.80034   0.81671   -1.000
 3856.00    0.78902   0.80324   -1.000
 3857.00    0.77687   0.79075  130.173
 3858.00    0.76004   0.78063   93.274
 3859.00    0.74642   0.77799   93.841
 3860.00    0.75089   0.78781   -1.000
 3861.00    0.77878   0.80701   -1.000
 3862.00    0.81375   0.82519   -1.000
 3863.00    0.83604   0.83422  709.558
 3864.00    0.84256   0.83431   -1.000
 3865.00    0.83717   0.83125   -1.000
 3866.00    0.83300   0.83086  709.558
 3867.00    0.83224   0.83415  709.558
 3868.00    0.82728   0.83591   -1.000
 3869.00    0.81368   0.82883   -1.000
 3870.00    0.79160   0.81078  131.810
 3871.00    0.76857   0.78738   -1.000
 3872.00    0.75531   0.76935   -1.000
 3873.00    0.76203   0.76665  709.558
 3874.00    0.78390   0.77748   -1.000
 3875.00    0.79857   0.78715   -1.000
 3876.00    0.79070   0.78147   -1.000
 3877.00    0.75866   0.76239  709.558
 3878.00    0.73191   0.74509   -1.000
 3879.00    0.72893   0.73949   -1.000
 3880.00    0.72811   0.74105   -1.000
 3881.00    0.71998   0.73847   -1.000
 3882.00    0.71171   0.72758   -1.000
 3883.00    0.70660   0.71008  709.558
 3884.00    0.69312   0.68363   -1.000
 3885.00    0.66642   0.64401   -1.000
 3886.00    0.62638   0.59382   -1.000
 3887.00    0.58737   0.54621   -1.000
 3888.00    0.55759   0.51856   -1.000
 3889.00    0.55650   0.52260   -1.000
 3890.00    0.59061   0.55883   -1.000
 3891.00    0.65122   0.61271   -1.000
 3892.00    0.69531   0.66174   -1.000
 3893.00    0.71811   0.69332   -1.000
 3894.00    0.73197   0.71108   -1.000
 3895.00    0.74676   0.72524   -1.000
 3896.00    0.76765   0.74126   -1.000
 3897.00    0.78174   0.75623   -1.000
 3898.00    0.78671   0.76537   -1.000
 3899.00    0.79015   0.77038   -1.000
 3900.00    0.79890   0.77827   -1.000
 3901.00    0.81073   0.78965   -1.000
 3902.00    0.81738   0.79779   -1.000
 3903.00    0.81892   0.79818   -1.000
 3904.00    0.81375   0.79329   -1.000
 3905.00    0.80131   0.79121   -1.000
 3906.00    0.80297   0.79981  627.253
 3907.00    0.82825   0.82196   -1.000
 3908.00    0.85712   0.85100   -1.000
 3909.00    0.87682   0.87513  556.564
 3910.00    0.88409   0.88784  551.409
 3911.00    0.88981   0.88947  547.497
 3912.00    0.88843   0.88229   -1.000
 3913.00    0.88017   0.86996   -1.000
 3914.00    0.87203   0.85903   -1.000
 3915.00    0.86679   0.85427   -1.000
 3916.00    0.86162   0.85327   -1.000
 3917.00    0.85354   0.85037  604.823
 3918.00    0.84320   0.84287  628.816
 3919.00    0.83174   0.83305  658.375
 3920.00    0.82121   0.82560  677.799
 3921.00    0.81409   0.82316   -1.000
 3922.00    0.81540   0.82510   -1.000
 3923.00    0.81839   0.82753   -1.000
 3924.00    0.81484   0.82461   -1.000
 3925.00    0.80320   0.81040   -1.000
 3926.00    0.77288   0.78214   -1.000
 3927.00    0.72915   0.74196  142.728
 3928.00    0.67398   0.69296  111.043
 3929.00    0.61677   0.63648  130.024
 3930.00    0.54911   0.56965   -1.000
 3931.00    0.46838   0.49171   -1.000
 3932.00    0.39688   0.41606   -1.000
 3933.00    0.35363   0.36953   -1.000
 3934.00    0.35806   0.37476   -1.000
 3935.00    0.41024   0.42950  150.972
 3936.00    0.48939   0.50982  124.180
 3937.00    0.57162   0.59278  103.680
 3938.00    0.64083   0.66530   -1.000
 3939.00    0.69409   0.72099   -1.000
 3940.00    0.73717   0.75859   -1.000
 3941.00    0.76247   0.77936   -1.000
 3942.00    0.77047   0.78846   -1.000
 3943.00    0.77332   0.79430   -1.000
 3944.00    0.78504   0.80300   -1.000
 3945.00    0.80908   0.81541   -1.000
 3946.00    0.83224   0.82747   -1.000
 3947.00    0.83778   0.83387  614.162
 3948.00    0.83677   0.83432  597.163
 3949.00    0.84322   0.83258   -1.000
 3950.00    0.85178   0.83109   -1.000
 3951.00    0.85437   0.83019   -1.000
 3952.00    0.85394   0.83180   -1.000
 3953.00    0.85734   0.83649   -1.000
 3954.00    0.86291   0.83870   -1.000
 3955.00    0.85781   0.83329   -1.000
 3956.00    0.83606   0.82231   -1.000
 3957.00    0.82348   0.81306   -1.000
 3958.00    0.82609   0.80743   -1.000
 3959.00    0.81683   0.79620   -1.000
 3960.00    0.78471   0.77088   -1.000
 3961.00    0.74039   0.73382   -1.000
 3962.00    0.69906   0.69295   -1.000
 3963.00    0.65953   0.65147  133.732
 3964.00    0.60887   0.60189  104.686
 3965.00    0.54071   0.53482  126.915
 3966.00    0.45188   0.45104  155.824
 3967.00    0.36371   0.36676  178.473
 3968.00    0.30667   0.30907  175.170
 3969.00    0.29904   0.29846  149.359
 3970.00    0.34308   0.33712  122.742
 3971.00    0.41708   0.40945  102.156
 3972.00    0.49761   0.49283  237.337
 3973.00    0.57740   0.57035   -1.000
 3974.00    0.64925   0.63639   -1.000
 3975.00    0.70707   0.69082   -1.000
 3976.00    0.75071   0.73550   -1.000
 3977.00    0.78588   0.77243   -1.000
 3978.00    0.82200   0.80344   -1.000
 3979.00    0.85059   0.82660   -1.000
 3980.00    0.86780   0.83849   -1.000
 3981.00    0.87554   0.84116   -1.000
 3982.00    0.87436   0.84245   -1.000
 3983.00    0.87966   0.85017   -1.000
 3984.00    0.89621   0.86471   -1.000
 3985.00    0.90955   0.87977   -1.000
 3986.00    0.91841   0.89096   -1.000
 3987.00    0.92871   0.90000   -1.000
 3988.00    0.94024   0.90853   -1.000
 3989.00    0.94377   0.91558   -1.000
 3990.00    0.94765   0.92269   -1.000
 3991.00    0.96233   0.93193   -1.000
 3992.00    0.97198   0.94206   -1.000
 3993.00    0.97717   0.94797   -1.000
 3994.00    0.96777   0.94419   -1.000
 3995.00    0.95058   0.93092   -1.000
 3996.00    0.93625   0.91585   -1.000
 3997.00    0.93351   0.90945   -1.000
 3998.00    0.94115   0.91602   -1.000
 3999.00    0.96131   0.93088   -1.000
 4000.00    0.97945   0.94569   -1.000
 4001.00    0.99129   0.95418   -1.000
 4002.00    0.99649   0.95349   -1.000
 4003.00    0.98692   0.94351   -1.000
 4004.00    0.96412   0.92767   -1.000
 4005.00    0.94036   0.91624   -1.000
 4006.00    0.93896   0.91988   -1.000
 4007.00    0.96288   0.93764   -1.000
 4008.00    0.98214   0.95834   -1.000
 4009.00    0.99529   0.97195   -1.000
 4010.00    1.00100   0.97679   -1.000
 4011.00    1.00000   0.97598   -1.000
 4012.00    0.99510   0.97370   -1.000
 4013.00    0.99244   0.97400   -1.000
 4014.00    0.99899   0.97788   -1.000
 4015.00    1.00728   0.98319   -1.000
 4016.00    1.00905   0.98812   -1.000
 4017.00    1.00819   0.99312   -1.000
 4018.00    1.00881   0.99927   -1.000
 4019.00    1.01510   1.00497   -1.000
 4020.00    1.01440   1.00638   -1.000
 4021.00    1.00667   1.00136  438.407
 4022.00    1.00057   0.99177   -1.000
 4023.00    0.99532   0.98162   -1.000
 4024.00    0.99034   0.97628   -1.000
 4025.00    0.99452   0.98084   -1.000
 4026.00    1.00937   0.99346   -1.000
 4027.00    1.02299   1.00295   -1.000
 4028.00    1.02152   0.99886   -1.000
 4029.00    0.99920   0.98111   -1.000
 4030.00    0.97197   0.95831   -1.000
 4031.00    0.95148   0.94128   -1.000
 4032.00    0.94450   0.93605   -1.000
 4033.00    0.95074   0.94234   -1.000
 4034.00    0.97001   0.95785   -1.000
 4035.00    0.99026   0.98009   -1.000
 4036.00    1.01487   1.00494   -1.000
 4037.00    1.03498   1.02501   -1.000
 4038.00    1.04282   1.03298   -1.000
 4039.00    1.03843   1.02923   -1.000
 4040.00    1.02517   1.02081  425.029
 4041.00    1.01450   1.01248  427.788
 4042.00    1.00881   1.00042   -1.000
 4043.00    0.98951   0.97746   -1.000
 4044.00    0.95078   0.94732  520.372
 4045.00    0.91867   0.92689   -1.000
 4046.00    0.92581   0.93113  473.697
 4047.00    0.96074   0.95763  439.735
 4048.00    0.99923   0.98841   -1.000
 4049.00    1.02077   1.00848   -1.000
 4050.00    1.02746   1.01516   -1.000
 4051.00    1.01984   1.01191   -1.000
 4052.00    1.01196   1.00221   -1.000
 4053.00    1.00197   0.99086   -1.000
 4054.00    0.99205   0.98272   -1.000
 4055.00    0.98887   0.97878   -1.000
 4056.00    0.98466   0.97765  457.478
 4057.00    0.98283   0.98019  455.057
 4058.00    0.98564   0.98868  441.547
 4059.00    0.99865   0.99884  430.553
 4060.00    1.00719   0.99950  433.327
 4061.00    0.99606   0.98479   -1.000
 4062.00    0.96167   0.96061  490.786
 4063.00    0.93638   0.93907  495.206
 4064.00    0.93709   0.92926   -1.000
 4065.00    0.95341   0.93230   -1.000
 4066.00    0.96762   0.94259   -1.000
 4067.00    0.97661   0.95335   -1.000
 4068.00    0.99319   0.96012   -1.000
 4069.00    1.00313   0.95845   -1.000
 4070.00    0.98972   0.94674   -1.000
 4071.00    0.96868   0.93297   -1.000
 4072.00    0.96455   0.92855   -1.000
 4073.00    0.97352   0.93368   -1.000
 4074.00    0.97866   0.93565   -1.000
 4075.00    0.96105   0.92306   -1.000
 4076.00    0.92976   0.90018   -1.000
 4077.00    0.91114   0.88381   -1.000
 4078.00    0.91440   0.88826   -1.000
 4079.00    0.93926   0.91274   -1.000
 4080.00    0.97078   0.94117   -1.000
 4081.00    0.98960   0.95726   -1.000
 4082.00    0.98757   0.95664   -1.000
 4083.00    0.97202   0.94603   -1.000
 4084.00    0.95900   0.93584   -1.000
 4085.00    0.95820   0.93382   -1.000
 4086.00    0.96934   0.94153   -1.000
 4087.00    0.98756   0.95405   -1.000
 4088.00    1.00180   0.96376   -1.000
 4089.00    1.00154   0.96527   -1.000
 4090.00    0.98870   0.95897   -1.000
 4091.00    0.97386   0.94893   -1.000
 4092.00    0.96325   0.93660   -1.000
 4093.00    0.95490   0.92099   -1.000
 4094.00    0.93773   0.90149   -1.000
 4095.00    0.90760   0.87766   -1.000
 4096.00    0.88005   0.85002   -1.000
 4097.00    0.85751   0.81772   -1.000
 4098.00    0.82828   0.77681   -1.000
 4099.00    0.78027   0.72378   -1.000
 4100.00    0.71386   0.66648   -1.000
 4101.00    0.66160   0.62737   -1.000
 4102.00    0.65848   0.62846   -1.000
 4103.00    0.70491   0.67236   -1.000
 4104.00    0.77356   0.73784   -1.000
 4105.00    0.83178   0.79784   -1.000
 4106.00    0.86879   0.83838   -1.000
 4107.00    0.88351   0.86079   -1.000
 4108.00    0.89168   0.87199   -1.000
 4109.00    0.89840   0.87922   -1.000
 4110.00    0.90435   0.88785   -1.000
 4111.00    0.91852   0.90072   -1.000
 4112.00    0.93788   0.91765   -1.000
 4113.00    0.95131   0.93613   -1.000
 4114.00    0.96312   0.95295   -1.000
 4115.00    0.97245   0.96368   -1.000
 4116.00    0.97875   0.96491   -1.000
 4117.00    0.97192   0.95770   -1.000
 4118.00    0.95850   0.94774   -1.000
 4119.00    0.95379   0.94181   -1.000
 4120.00    0.95608   0.94242   -1.000
 4121.00    0.95961   0.94640   -1.000
 4122.00    0.96316   0.95097   -1.000
 4123.00    0.96972   0.95734   -1.000
 4124.00    0.98192   0.96544   -1.000
 4125.00    0.98806   0.97069   -1.000
 4126.00    0.98494   0.96893   -1.000
 4127.00    0.97772   0.96184   -1.000
 4128.00    0.96829   0.95511   -1.000
 4129.00    0.96504   0.95086   -1.000
 4130.00    0.96003   0.94556   -1.000
 4131.00    0.94754   0.93761   -1.000
 4132.00    0.93592   0.93265  490.302
 4133.00    0.93033   0.93817   -1.000
 4134.00    0.94275   0.95453   -1.000
 4135.00    0.96488   0.97535   -1.000
 4136.00    0.98867   0.99458  430.296
 4137.00    1.00440   1.00990  423.578
 4138.00    1.01105   1.02095   -1.000
 4139.00    1.01612   1.02497   -1.000
 4140.00    1.01190   1.01706  445.143
 4141.00    0.98960   0.99638   -1.000
 4142.00    0.95428   0.97046   -1.000
 4143.00    0.92706   0.95305   -1.000
 4144.00    0.93280   0.95426   -1.000
 4145.00    0.95776   0.97071   -1.000
 4146.00    0.98228   0.98850  446.024
 4147.00    0.99131   0.99667  451.029
 4148.00    0.98750   0.99567   -1.000
 4149.00    0.97934   0.99257   -1.000
 4150.00    0.97945   0.99184   -1.000
 4151.00    0.98040   0.99164   -1.000
 4152.00    0.97597   0.98799   -1.000
 4153.00    0.96696   0.98084   -1.000
 4154.00    0.97184   0.97444  469.351
 4155.00    0.98986   0.97340   -1.000
 4156.00    0.97246   0.97901   -1.000
 4157.00    0.96503   0.98934   -1.000
 4158.00    0.97118   1.00064   -1.000
 4159.00    0.98171   1.00887   -1.000
 4160.00    0.99784   1.01254   -1.000
 4161.00    1.00388   1.01371   -1.000
 4162.00    1.00535   1.01569   -1.000
 4163.00    1.00242   1.01947   -1.000
 4164.00    1.00095   1.02299   -1.000
 4165.00    0.99812   1.02294   -1.000
 4166.00    0.99143   1.01853   -1.000
 4167.00    0.98508   1.01340   -1.000
 4168.00    0.98308   1.00954   -1.000
 4169.00    0.98684   1.00243   -1.000
 4170.00    0.98007   0.98514  477.038
 4171.00    0.95183   0.95859   -1.000
 4172.00    0.92325   0.93528   -1.000
 4173.00    0.91253   0.92820   -1.000
 4174.00    0.92157   0.93904   -1.000
 4175.00    0.93737   0.95606   -1.000
 4176.00    0.94806   0.96561   -1.000
 4177.00    0.95069   0.96652   -1.000
 4178.00    0.95255   0.96734   -1.000
 4179.00    0.96423   0.97402   -1.000
 4180.00    0.97548   0.98257   -1.000
 4181.00    0.97609   0.98624   -1.000
 4182.00    0.96863   0.98686   -1.000
 4183.00    0.96719   0.98957   -1.000
 4184.00    0.97077   0.99311   -1.000
 4185.00    0.97063   0.99221   -1.000
 4186.00    0.95893   0.98551   -1.000
 4187.00    0.94763   0.97903   -1.000
 4188.00    0.95159   0.97906   -1.000
 4189.00    0.96011   0.98409   -1.000
 4190.00    0.96593   0.98933   -1.000
 4191.00    0.97248   0.99396   -1.000
 4192.00    0.98493   0.99919   -1.000
 4193.00    0.99526   1.00275   -1.000
 4194.00    0.99113   0.99867   -1.000
 4195.00    0.97264   0.98456   -1.000
 4196.00    0.95138   0.96546   -1.000
 4197.00    0.93458   0.94836   -1.000
 4198.00    0.92344   0.93751   -1.000
 4199.00    0.92201   0.93428   -1.000
 4200.00    0.92787   0.93652   -1.000
 4201.00    0.93032   0.94006   -1.000
 4202.00    0.93098   0.94445   -1.000
 4203.00    0.93546   0.95220   -1.000
 4204.00    0.94240   0.96283   -1.000
 4205.00    0.94968   0.97407   -1.000
 4206.00    0.95860   0.98504   -1.000
 4207.00    0.97170   0.99380   -1.000
 4208.00    0.98230   0.99788   -1.000
 4209.00    0.98426   0.99870   -1.000
 4210.00    0.98069   1.00024   -1.000
 4211.00    0.98088   1.00393   -1.000
 4212.00    0.98326   1.00522   -1.000
 4213.00    0.97717   0.99739   -1.000
 4214.00    0.95754   0.98147   -1.000
 4215.00    0.93909   0.96736   -1.000
 4216.00    0.93726   0.96580   -1.000
 4217.00    0.95527   0.97863   -1.000
 4218.00    0.97396   0.99683   -1.000
 4219.00    0.98773   1.01082   -1.000
 4220.00    0.99635   1.01674   -1.000
 4221.00    0.99362   1.01263   -1.000
 4222.00    0.98216   0.99583   -1.000
 4223.00    0.95576   0.96501   -1.000
 4224.00    0.91733   0.92505   -1.000
 4225.00    0.86604   0.88868   -1.000
 4226.00    0.82577   0.87258   -1.000
 4227.00    0.83466   0.88837   -1.000
 4228.00    0.88740   0.93051   -1.000
 4229.00    0.94577   0.97574   -1.000
 4230.00    0.97932   1.00105   -1.000
 4231.00    0.98006   1.00149   -1.000
 4232.00    0.96497   0.98745   -1.000
 4233.00    0.95139   0.97165   -1.000
 4234.00    0.94557   0.96215   -1.000
 4235.00    0.94118   0.95996   -1.000
 4236.00    0.93672   0.96179   -1.000
 4237.00    0.93591   0.96670   -1.000
 4238.00    0.93930   0.97514   -1.000
 4239.00    0.95143   0.98602   -1.000
 4240.00    0.96533   0.99728   -1.000
 4241.00    0.97180   1.00669   -1.000
 4242.00    0.97620   1.01307   -1.000
 4243.00    0.97771   1.01588   -1.000
 4244.00    0.97640   1.01338   -1.000
 4245.00    0.97202   1.00273   -1.000
 4246.00    0.95284   0.98508   -1.000
 4247.00    0.93249   0.96776   -1.000
 4248.00    0.92247   0.95747   -1.000
 4249.00    0.91574   0.95508   -1.000
 4250.00    0.91801   0.95936   -1.000
 4251.00    0.93217   0.96847   -1.000
 4252.00    0.94868   0.97701   -1.000
 4253.00    0.95054   0.98049   -1.000
 4254.00    0.94094   0.98144   -1.000
 4255.00    0.94526   0.98514   -1.000
 4256.00    0.96009   0.99030   -1.000
 4257.00    0.96641   0.98862   -1.000
 4258.00    0.95417   0.97641   -1.000
 4259.00    0.92785   0.96177   -1.000
 4260.00    0.91613   0.95716   -1.000
 4261.00    0.92618   0.96860   -1.000
 4262.00    0.95118   0.99136   -1.000
 4263.00    0.97578   1.01384   -1.000
 4264.00    0.99141   1.02630   -1.000
 4265.00    0.99622   1.02729   -1.000
 4266.00    0.99202   1.02070   -1.000
 4267.00    0.97640   1.00863   -1.000
 4268.00    0.95966   0.99080   -1.000
 4269.00    0.94447   0.96722   -1.000
 4270.00    0.91665   0.94123   -1.000
 4271.00    0.88737   0.92070   -1.000
 4272.00    0.87596   0.91335   -1.000
 4273.00    0.88102   0.92021   -1.000
 4274.00    0.89558   0.93675   -1.000
 4275.00    0.91317   0.95904   -1.000
 4276.00    0.94338   0.98336   -1.000
 4277.00    0.96797   1.00203   -1.000
 4278.00    0.97179   1.00783   -1.000
 4279.00    0.95603   1.00116   -1.000
 4280.00    0.94014   0.98953   -1.000
 4281.00    0.93215   0.98093   -1.000
 4282.00    0.93236   0.97742   -1.000
 4283.00    0.93636   0.97626   -1.000
 4284.00    0.93593   0.97397   -1.000
 4285.00    0.92505   0.96725   -1.000
 4286.00    0.91250   0.95406   -1.000
 4287.00    0.89959   0.93475   -1.000
 4288.00    0.87996   0.91240   -1.000
 4289.00    0.85747   0.89513   -1.000
 4290.00    0.85281   0.89287   -1.000
 4291.00    0.86982   0.90631   -1.000
 4292.00    0.89520   0.92315   -1.000
 4293.00    0.90724   0.93013   -1.000
 4294.00    0.90806   0.92680   -1.000
 4295.00    0.90333   0.91979   -1.000
 4296.00    0.89398   0.90925   -1.000
 4297.00    0.87265   0.89056   -1.000
 4298.00    0.84030   0.86358   -1.000
 4299.00    0.80468   0.83568   -1.000
 4300.00    0.78871   0.81683   -1.000
 4301.00    0.79491   0.81181   -1.000
 4302.00    0.80215   0.81826   -1.000
 4303.00    0.81069   0.83106   -1.000
 4304.00    0.82289   0.84298   -1.000
 4305.00    0.83038   0.84560   -1.000
 4306.00    0.81702   0.83705   -1.000
 4307.00    0.79227   0.82487   -1.000
 4308.00    0.77925   0.82025   -1.000
 4309.00    0.78478   0.82878   -1.000
 4310.00    0.80639   0.84614   -1.000
 4311.00    0.82786   0.86279   -1.000
 4312.00    0.84243   0.87402   -1.000
 4313.00    0.85425   0.88595   -1.000
 4314.00    0.87628   0.90813   -1.000
 4315.00    0.91315   0.94279   -1.000
 4316.00    0.95602   0.98020   -1.000
 4317.00    0.98617   1.00614   -1.000
 4318.00    0.99464   1.01416   -1.000
 4319.00    0.98616   1.00782   -1.000
 4320.00    0.97197   0.99384   -1.000
 4321.00    0.95730   0.97573   -1.000
 4322.00    0.93709   0.95247   -1.000
 4323.00    0.90614   0.92335   -1.000
 4324.00    0.86686   0.89545   -1.000
 4325.00    0.84343   0.88433   -1.000
 4326.00    0.85676   0.89895   -1.000
 4327.00    0.89595   0.92925   -1.000
 4328.00    0.93314   0.95511   -1.000
 4329.00    0.94610   0.96504   -1.000
 4330.00    0.94070   0.96318   -1.000
 4331.00    0.93752   0.95918   -1.000
 4332.00    0.93809   0.95613   -1.000
 4333.00    0.93738   0.94979   -1.000
 4334.00    0.92844   0.93379  389.087
 4335.00    0.90939   0.90225  410.074
 4336.00    0.87408   0.85147   -1.000
 4337.00    0.81367   0.78474   -1.000
 4338.00    0.74523   0.71650   -1.000
 4339.00    0.68292   0.66605   -1.000
 4340.00    0.64951   0.65007  521.486
 4341.00    0.67046   0.67607  471.871
 4342.00    0.73735   0.73341  438.954
 4343.00    0.80307   0.79756  422.484
 4344.00    0.84538   0.85032  410.761
 4345.00    0.87647   0.88939   -1.000
 4346.00    0.89801   0.91988   -1.000
 4347.00    0.91637   0.94274   -1.000
 4348.00    0.92904   0.95340   -1.000
 4349.00    0.93399   0.94726   -1.000
 4350.00    0.91906   0.92832   -1.000
 4351.00    0.88920   0.91099   -1.000
 4352.00    0.87882   0.90984   -1.000
 4353.00    0.90214   0.92785   -1.000
 4354.00    0.93184   0.95496   -1.000
 4355.00    0.95265   0.97820   -1.000
 4356.00    0.96615   0.99101   -1.000
 4357.00    0.97077   0.99398   -1.000
 4358.00    0.96251   0.99241   -1.000
 4359.00    0.95342   0.99362   -1.000
 4360.00    0.96373   1.00147   -1.000
 4361.00    0.98170   1.01355   -1.000
 4362.00    0.99099   1.02508   -1.000
 4363.00    0.99577   1.03297   -1.000
 4364.00    1.00033   1.03524   -1.000
 4365.00    1.00045   1.02993   -1.000
 4366.00    0.98868   1.01723   -1.000
 4367.00    0.97098   1.00225   -1.000
 4368.00    0.96314   0.99168   -1.000
 4369.00    0.96762   0.98748   -1.000
 4370.00    0.97425   0.98620   -1.000
 4371.00    0.97592   0.98193  402.008
 4372.00    0.97057   0.97026  415.887
 4373.00    0.95275   0.95233  432.809
 4374.00    0.93360   0.93783  436.668
 4375.00    0.92715   0.93878   -1.000
 4376.00    0.94205   0.95725   -1.000
 4377.00    0.97020   0.98197   -1.000
 4378.00    0.98864   0.99867   -1.000
 4379.00    0.99146   1.00040  398.196
 4380.00    0.98843   0.98621  414.611
 4381.00    0.96750   0.95620   -1.000
 4382.00    0.92282   0.91639   -1.000
 4383.00    0.87358   0.88340   -1.000
 4384.00    0.85414   0.87435   -1.000
 4385.00    0.88197   0.89200   -1.000
 4386.00    0.92658   0.92190  418.785
 4387.00    0.95311   0.94664   -1.000
 4388.00    0.95978   0.95932  420.387
 4389.00    0.95689   0.96300  422.468
 4390.00    0.95426   0.96402   -1.000
 4391.00    0.96594   0.96610  406.877
 4392.00    0.97399   0.96642   -1.000
 4393.00    0.96925   0.96074   -1.000
 4394.00    0.95613   0.95329  415.903
 4395.00    0.95070   0.95462  400.079
 4396.00    0.96590   0.96614  386.842
 4397.00    0.98729   0.97633   -1.000
 4398.00    0.98853   0.97503   -1.000
 4399.00    0.97103   0.96548  414.525
 4400.00    0.95295   0.95928  413.092
 4401.00    0.95695   0.96085  405.869
 4402.00    0.96987   0.96310   -1.000
 4403.00    0.96057   0.95888  438.415
 4404.00    0.94057   0.95136   -1.000
 4405.00    0.93268   0.94889   -1.000
 4406.00    0.94260   0.95364   -1.000
 4407.00    0.94777   0.96098   -1.000
 4408.00    0.95079   0.96924   -1.000
 4409.00    0.96088   0.98173   -1.000
 4410.00    0.98448   0.99805   -1.000
 4411.00    1.00575   1.01039  371.400
 4412.00    1.01613   1.01017  378.632
 4413.00    1.00753   0.99507   -1.000
 4414.00    0.98174   0.97110   -1.000
 4415.00    0.95342   0.95110  415.789
 4416.00    0.94571   0.94627  403.326
 4417.00    0.95746   0.95886  386.877
 4418.00    0.97854   0.98180  374.902
 4419.00    0.99953   1.00341  374.602
 4420.00    1.00936   1.01379  383.196
 4421.00    1.00343   1.01234   -1.000
 4422.00    0.99506   1.00731   -1.000
 4423.00    0.99339   1.00537   -1.000
 4424.00    0.99533   1.00565   -1.000
 4425.00    0.99324   1.00504   -1.000
 4426.00    0.98695   1.00398   -1.000
 4427.00    0.98537   1.00464   -1.000
 4428.00    0.98993   1.00699   -1.000
 4429.00    0.99365   1.00926   -1.000
 4430.00    0.99286   1.01043   -1.000
 4431.00    0.99528   1.00997   -1.000
 4432.00    0.99902   1.00574  394.793
 4433.00    0.98515   0.99612   -1.000
 4434.00    0.95946   0.98562   -1.000
 4435.00    0.94779   0.98434   -1.000
 4436.00    0.96274   0.99838   -1.000
 4437.00    0.99445   1.02141   -1.000
 4438.00    1.02055   1.03935   -1.000
 4439.00    1.02761   1.04091   -1.000
 4440.00    1.01641   1.02475   -1.000
 4441.00    0.99176   0.99914  406.017
 4442.00    0.96155   0.97771   -1.000
 4443.00    0.94497   0.97243   -1.000
 4444.00    0.95518   0.98608   -1.000
 4445.00    0.97982   1.00924   -1.000
 4446.00    0.99868   1.02796   -1.000
 4447.00    1.00604   1.03595   -1.000
 4448.00    1.00680   1.03596   -1.000
 4449.00    1.00293   1.03272   -1.000
 4450.00    0.99903   1.02941   -1.000
 4451.00    0.99965   1.02655   -1.000
 4452.00    0.99816   1.02075   -1.000
 4453.00    0.98560   1.00814   -1.000
 4454.00    0.96130   0.99217   -1.000
 4455.00    0.94667   0.98240   -1.000
 4456.00    0.95262   0.98342   -1.000
 4457.00    0.96782   0.98985   -1.000
 4458.00    0.97111   0.99404   -1.000
 4459.00    0.96876   0.99377   -1.000
 4460.00    0.96308   0.99207   -1.000
 4461.00    0.96086   0.99345   -1.000
 4462.00    0.96822   0.99970   -1.000
 4463.00    0.98217   1.00822   -1.000
 4464.00    0.99199   1.01446   -1.000
 4465.00    0.99463   1.01520   -1.000
 4466.00    0.99202   1.00935   -1.000
 4467.00    0.98480   0.99876   -1.000
 4468.00    0.97293   0.98978   -1.000
 4469.00    0.96751   0.98984   -1.000
 4470.00    0.97612   1.00153   -1.000
 4471.00    0.99376   1.02036   -1.000
 4472.00    1.01242   1.03899   -1.000
 4473.00    1.03111   1.05235   -1.000
 4474.00    1.03989   1.05952   -1.000
 4475.00    1.03903   1.06267   -1.000
 4476.00    1.04084   1.06395   -1.000
 4477.00    1.04374   1.06171   -1.000
 4478.00    1.04292   1.05093   -1.000
 4479.00    1.02787   1.03025  377.920
 4480.00    1.00385   1.00788  389.937
 4481.00    0.98128   0.99690   -1.000
 4482.00    0.98025   1.00466   -1.000
 4483.00    0.99761   1.02660   -1.000
 4484.00    1.02059   1.05043   -1.000
 4485.00    1.03688   1.06497   -1.000
 4486.00    1.04515   1.06518   -1.000
 4487.00    1.03806   1.05274   -1.000
 4488.00    1.01955   1.03595   -1.000
 4489.00    1.00109   1.02547   -1.000
 4490.00    0.99752   1.02663   -1.000
 4491.00    1.01092   1.03530   -1.000
 4492.00    1.02274   1.04168   -1.000
 4493.00    1.02498   1.04012   -1.000
 4494.00    1.01215   1.03458   -1.000
 4495.00    1.00144   1.03258   -1.000
 4496.00    1.00379   1.03681   -1.000
 4497.00    1.01521   1.04387   -1.000
 4498.00    1.03148   1.04800   -1.000
 4499.00    1.03762   1.04532  357.007
 4500.00    1.02748   1.03914   -1.000
 4501.00    1.02203   1.03858   -1.000
 4502.00    1.03079   1.04892   -1.000
 4503.00    1.05019   1.06570   -1.000
 4504.00    1.06397   1.07926   -1.000
 4505.00    1.06590   1.08334   -1.000
 4506.00    1.05966   1.07864   -1.000
 4507.00    1.05141   1.07100   -1.000
 4508.00    1.04808   1.06702   -1.000
 4509.00    1.05161   1.06876   -1.000
 4510.00    1.05249   1.07223   -1.000
 4511.00    1.05238   1.07212   -1.000
 4512.00    1.04869   1.06705   -1.000
 4513.00    1.04027   1.05915   -1.000
 4514.00    1.03415   1.05149   -1.000
 4515.00    1.03084   1.04666   -1.000
 4516.00    1.02682   1.04478   -1.000
 4517.00    1.02174   1.04337   -1.000
 4518.00    1.01904   1.04106   -1.000
 4519.00    1.02174   1.03950   -1.000
 4520.00    1.02808   1.03937   -1.000
 4521.00    1.02859   1.03790   -1.000
 4522.00    1.01823   1.03301   -1.000
 4523.00    1.00941   1.02701   -1.000
 4524.00    1.00658   1.02234   -1.000
 4525.00    1.00291   1.01722   -1.000
 4526.00    0.99562   1.00845   -1.000
 4527.00    0.98187   0.99640   -1.000
 4528.00    0.97093   0.98634   -1.000
 4529.00    0.97119   0.98378   -1.000
 4530.00    0.97742   0.98857   -1.000
 4531.00    0.98441   0.99338   -1.000
 4532.00    0.98310   0.99028  392.611
 4533.00    0.97003   0.98037   -1.000
 4534.00    0.95410   0.97443   -1.000
 4535.00    0.95506   0.98262   -1.000
 4536.00    0.97887   1.00441   -1.000
 4537.00    1.01579   1.02961   -1.000
 4538.00    1.03986   1.04677  350.345
 4539.00    1.04109   1.05125   -1.000
 4540.00    1.03245   1.04711   -1.000
 4541.00    1.02407   1.04207   -1.000
 4542.00    1.05487   1.04036   -1.000
 4543.00    0.89415   1.04013   -1.000
 4544.00    0.21497   1.03812   -2.000
 4545.00   -0.01567   1.03454   -2.000
 4546.00    0.18296   1.02983   -2.000
 4547.00    0.66955   1.02074   -1.000
 4548.00    0.33022   1.00598   -1.000
 4549.00    0.74090   0.99312   -1.000
 4550.00    0.97742   0.99222   -1.000
 4551.00    0.99573   1.00164  372.070
 4552.00    1.00221   1.00841  377.261
 4553.00    0.99411   1.00494   -1.000
 4554.00    0.98402   0.99761   -1.000
 4555.00    0.98520   0.99795   -1.000
 4556.00    0.99891   1.01040   -1.000
 4557.00    1.02289   1.02893  342.475
 4558.00    1.03604   1.04486  343.036
 4559.00    1.04477   1.05539   -1.000
 4560.00    1.04664   1.06102   -1.000
 4561.00    1.04177   1.05976   -1.000
 4562.00    1.03337   1.04979   -1.000
 4563.00    1.01658   1.03588   -1.000
 4564.00    1.01002   1.02761   -1.000
 4565.00    1.01553   1.03046   -1.000
 4566.00    1.02697   1.04151   -1.000
 4567.00    1.03908   1.05298   -1.000
 4568.00    1.05013   1.05792  343.335
 4569.00    1.04755   1.05350  351.268
 4570.00    1.02961   1.04161   -1.000
 4571.00    1.01077   1.02934   -1.000
 4572.00    1.00920   1.02644   -1.000
 4573.00    1.02425   1.03521   -1.000
 4574.00    1.03649   1.04678   -1.000
 4575.00    1.04076   1.05217   -1.000
 4576.00    1.04131   1.05096   -1.000
 4577.00    1.04041   1.04620  352.337
 4578.00    1.03215   1.03829  362.164
 4579.00    1.01842   1.02719   -1.000
 4580.00    1.00740   1.01564  370.816
 4581.00    1.00595   1.00659  366.208
 4582.00    1.00448   1.00045  363.014
 4583.00    1.00180   0.99810  363.455
 4584.00    1.00334   1.00153  365.583
 4585.00    1.00822   1.00981  361.836
 4586.00    1.01836   1.01934  353.008
 4587.00    1.02848   1.02740  345.140
 4588.00    1.03284   1.03238  343.430
 4589.00    1.03433   1.03376  347.558
 4590.00    1.03133   1.03235  353.877
 4591.00    1.02194   1.02948  360.185
 4592.00    1.01501   1.02710   -1.000
 4593.00    1.01477   1.02732   -1.000
 4594.00    1.02045   1.03034   -1.000
 4595.00    1.03036   1.03478  354.854
 4596.00    1.03458   1.03923  354.094
 4597.00    1.03454   1.04203  353.307
 4598.00    1.03837   1.04182  355.732
 4599.00    1.03546   1.03856  358.973
 4600.00    1.02545   1.03388  360.373
 4601.00    1.01959   1.03024   -1.000
 4602.00    1.02055   1.02932  353.324
 4603.00    1.02561   1.03088  353.108
 4604.00    1.03475   1.03379  352.778
 4605.00    1.03833   1.03761  349.484
 4606.00    1.04087   1.04300  343.059
 4607.00    1.04649   1.04998  335.758
 4608.00    1.05742   1.05695  331.233
 4609.00    1.06219   1.06139  331.807
 4610.00    1.06008   1.06147  335.914
 4611.00    1.05421   1.05792  339.845
 4612.00    1.04778   1.05366  342.312
 4613.00    1.04369   1.05128  341.278
 4614.00    1.04594   1.05069  338.417
 4615.00    1.04360   1.04970  336.758
 4616.00    1.04290   1.04705  338.412
 4617.00    1.04238   1.04344  340.932
 4618.00    1.04128   1.04058  341.104
 4619.00    1.04130   1.04058  338.306
 4620.00    1.04923   1.04491  333.240
 4621.00    1.05615   1.05216  332.222
 4622.00    1.06162   1.05831  332.963
 4623.00    1.06015   1.06025  333.659
 4624.00    1.05419   1.05843  336.323
 4625.00    1.05160   1.05517  337.564
 4626.00    1.05044   1.05193  337.529
 4627.00    1.04952   1.04843  339.305
 4628.00    1.04399   1.04487  340.311
 4629.00    1.03316   1.04355   -1.000
 4630.00    1.03976   1.04638  335.409
 4631.00    1.05081   1.05093  335.969
 4632.00    1.05327   1.05248  340.384
 4633.00    1.04889   1.04951  344.395
 4634.00    1.04560   1.04522  344.760
 4635.00    1.04329   1.04288  346.986
 4636.00    1.04105   1.04222  351.342
 4637.00    1.03616   1.04177  353.350
 4638.00    1.03427   1.04194  353.139
 4639.00    1.03959   1.04452  348.024
 4640.00    1.04644   1.05006  339.843
 4641.00    1.05560   1.05654  334.540
 4642.00    1.06465   1.06066  334.946
 4643.00    1.06299   1.05985  340.454
 4644.00    1.05536   1.05360  349.590
 4645.00    1.04253   1.04319  359.358
 4646.00    1.02924   1.03209  362.302
 4647.00    1.02186   1.02570  357.081
 4648.00    1.02545   1.02758  348.953
 4649.00    1.03595   1.03591  343.588
 4650.00    1.04299   1.04555  342.349
 4651.00    1.04499   1.05184  341.702
 4652.00    1.04196   1.05252   -1.000
 4653.00    1.03616   1.04788   -1.000
 4654.00    1.02745   1.04070   -1.000
 4655.00    1.02004   1.03505   -1.000
 4656.00    1.02090   1.03486   -1.000
 4657.00    1.03314   1.04261  332.190
 4658.00    1.05297   1.05683  323.853
 4659.00    1.06971   1.07078  322.443
 4660.00    1.07537   1.07713  325.827
 4661.00    1.07387   1.07408  333.257
 4662.00    1.06529   1.06535  340.154
 4663.00    1.05701   1.05514  341.889
 4664.00    1.05624   1.04408   -1.000
 4665.00    1.04953   1.03011   -1.000
 4666.00    1.03049   1.01362   -1.000
 4667.00    1.00622   1.00042  378.241
 4668.00    0.99686   0.99735  368.336
 4669.00    1.00734   1.00528  353.388
 4670.00    1.02354   1.01908  342.947
 4671.00    1.03954   1.03248  339.808
 4672.00    1.05091   1.04179   -1.000
 4673.00    1.05297   1.04728  339.553
 4674.00    1.05207   1.05163  335.761
 4675.00    1.05550   1.05596  330.753
 4676.00    1.06426   1.05779  331.344
 4677.00    1.06312   1.05394   -1.000
 4678.00    1.05357   1.04507   -1.000
 4679.00    1.04115   1.03507  350.490
 4680.00    1.03258   1.02763  354.255
 4681.00    1.02989   1.02491  351.047
 4682.00    1.03456   1.02734  342.764
 4683.00    1.04436   1.03302   -1.000
 4684.00    1.05171   1.03860   -1.000
 4685.00    1.05532   1.04178   -1.000
 4686.00    1.05473   1.04250   -1.000
 4687.00    1.05505   1.04205   -1.000
 4688.00    1.05331   1.04138   -1.000
 4689.00    1.05231   1.04033   -1.000
 4690.00    1.04930   1.03850   -1.000
 4691.00    1.04974   1.03705   -1.000
 4692.00    1.05085   1.03803   -1.000
 4693.00    1.05977   1.04153   -1.000
 4694.00    1.06944   1.04553   -1.000
 4695.00    1.07665   1.04778   -1.000
 4696.00    1.07793   1.04599   -1.000
 4697.00    1.07007   1.03897   -1.000
 4698.00    1.05839   1.02909   -1.000
 4699.00    1.04886   1.02035   -1.000
 4700.00    1.04553   1.01390   -1.000
 4701.00    1.04327   1.00831   -1.000
 4702.00    1.03258   1.00370   -1.000
 4703.00    1.02413   1.00286   -1.000
 4704.00    1.03068   1.00699   -1.000
 4705.00    1.03903   1.01221   -1.000
 4706.00    1.03732   1.01295   -1.000
 4707.00    1.02630   1.00844   -1.000
 4708.00    1.01515   1.00393   -1.000
 4709.00    1.01559   1.00518   -1.000
 4710.00    1.02861   1.01270   -1.000
 4711.00    1.04630   1.02156   -1.000
 4712.00    1.05835   1.02603   -1.000
 4713.00    1.05537   1.02474   -1.000
 4714.00    1.04298   1.02210   -1.000
 4715.00    1.04192   1.02376   -1.000
 4716.00    1.05139   1.03085   -1.000
 4717.00    1.05979   1.03957   -1.000
 4718.00    1.06718   1.04612   -1.000
 4719.00    1.06812   1.04953   -1.000
 4720.00    1.06569   1.05035   -1.000
 4721.00    1.06203   1.04943   -1.000
 4722.00    1.06262   1.04867   -1.000
 4723.00    1.06528   1.04995   -1.000
 4724.00    1.06773   1.05214   -1.000
 4725.00    1.07113   1.05134   -1.000
 4726.00    1.06071   1.04483   -1.000
 4727.00    1.04643   1.03389   -1.000
 4728.00    1.03941   1.02298   -1.000
 4729.00    1.03886   1.01577   -1.000
 4730.00    1.04260   1.01296   -1.000
 4731.00    1.04258   1.01435   -1.000
 4732.00    1.04360   1.01960   -1.000
 4733.00    1.04593   1.02610   -1.000
 4734.00    1.04963   1.02998   -1.000
 4735.00    1.04872   1.02983   -1.000
 4736.00    1.04438   1.02790   -1.000
 4737.00    1.04269   1.02742   -1.000
 4738.00    1.04618   1.02929   -1.000
 4739.00    1.05269   1.03173   -1.000
 4740.00    1.05149   1.03329   -1.000
 4741.00    1.04734   1.03468   -1.000
 4742.00    1.05230   1.03711   -1.000
 4743.00    1.05633   1.04040   -1.000
 4744.00    1.05859   1.04367   -1.000
 4745.00    1.05883   1.04688   -1.000
 4746.00    1.06045   1.05053   -1.000
 4747.00    1.06152   1.05473  325.902
 4748.00    1.06534   1.05868  326.258
 4749.00    1.06733   1.06156  326.527
 4750.00    1.07014   1.06302  328.588
 4751.00    1.06718   1.06250  332.158
 4752.00    1.05874   1.05927  335.107
 4753.00    1.05326   1.05408  337.469
 4754.00    1.05075   1.04901  337.291
 4755.00    1.04868   1.04623  338.299
 4756.00    1.04768   1.04672  340.665
 4757.00    1.04673   1.04960  341.366
 4758.00    1.04634   1.05277  338.965
 4759.00    1.04938   1.05404  337.996
 4760.00    1.05158   1.05099  342.447
 4761.00    1.04467   1.04217  350.642
 4762.00    1.03132   1.02955  355.826
 4763.00    1.02220   1.01826  356.900
 4764.00    1.02133   1.01277   -1.000
 4765.00    1.02585   1.01416   -1.000
 4766.00    1.03374   1.02092   -1.000
 4767.00    1.04123   1.03113   -1.000
 4768.00    1.04921   1.04262  336.700
 4769.00    1.05753   1.05200  336.540
 4770.00    1.05802   1.05590  339.125
 4771.00    1.05155   1.05461  342.140
 4772.00    1.04634   1.05255  339.173
 4773.00    1.04949   1.05408  332.294
 4774.00    1.05987   1.05921  329.296
 4775.00    1.06769   1.06441  329.246
 4776.00    1.06622   1.06688  330.140
 4777.00    1.06579   1.06607  332.137
 4778.00    1.06078   1.06198  335.674
 4779.00    1.05476   1.05603  337.932
 4780.00    1.04913   1.05170  338.924
 4781.00    1.04867   1.05067  340.458
 4782.00    1.04678   1.05057  343.069
 4783.00    1.04224   1.04888  343.351
 4784.00    1.04187   1.04574  344.295
 4785.00    1.04073   1.04190  347.427
 4786.00    1.03537   1.03787  349.665
 4787.00    1.03122   1.03523  349.634
 4788.00    1.03153   1.03518  348.080
 4789.00    1.03244   1.03735  345.979
 4790.00    1.03593   1.04149  342.567
 4791.00    1.04355   1.04803  337.209
 4792.00    1.05091   1.05681  329.927
 4793.00    1.05990   1.06655  324.009
 4794.00    1.06810   1.07457  322.222
 4795.00    1.07089   1.07763  324.888
 4796.00    1.06849   1.07419  331.042
 4797.00    1.05934   1.06582  337.353
 4798.00    1.05000   1.05663  341.692
 4799.00    1.04307   1.05151  339.660
 4800.00    1.04350   1.05306  333.235
 4801.00    1.05154   1.05950  328.139
 4802.00    1.05963   1.06520  327.916
 4803.00    1.05927   1.06458  331.815
 4804.00    1.05250   1.05744  336.136
 4805.00    1.04474   1.04934  339.370
 4806.00    1.04278   1.04560  339.713
 4807.00    1.04653   1.04678  338.934
 4808.00    1.05200   1.05040  337.496
 4809.00    1.05344   1.05394  334.633
 4810.00    1.05588   1.05616  332.134
 4811.00    1.05783   1.05745  330.345
 4812.00    1.05856   1.05930  329.837
 4813.00    1.06316   1.06261  329.110
 4814.00    1.06611   1.06667  327.973
 4815.00    1.06486   1.07033  326.019
 4816.00    1.06563   1.07333  323.985
 4817.00    1.07007   1.07557  322.573
 4818.00    1.07239   1.07644  322.299
 4819.00    1.06787   1.07551  322.306
 4820.00    1.06527   1.07225  324.759
 4821.00    1.06472   1.06511  332.597
 4822.00    1.05417   1.05343  339.350
 4823.00    1.04148   1.04083  339.666
 4824.00    1.03510   1.03377  334.308
 4825.00    1.04068   1.03541  328.987
 4826.00    1.05197   1.04198   -1.000
 4827.00    1.05622   1.04703   -1.000
 4828.00    1.05281   1.04753  335.452
 4829.00    1.04808   1.04495  335.644
 4830.00    1.04558   1.04159  338.304
 4831.00    1.04360   1.03848  339.262
 4832.00    1.04330   1.03649  334.601
 4833.00    1.04763   1.03666   -1.000
 4834.00    1.05243   1.03847   -1.000
 4835.00    1.05345   1.03994   -1.000
 4836.00    1.05397   1.03988   -1.000
 4837.00    1.05025   1.03829   -1.000
 4838.00    1.04501   1.03508   -1.000
 4839.00    1.03547   1.03050  341.108
 4840.00    1.02668   1.02636  340.456
 4841.00    1.02746   1.02430  338.871
 4842.00    1.03148   1.02391  336.441
 4843.00    1.03485   1.02417   -1.000
 4844.00    1.03689   1.02509   -1.000
 4845.00    1.04448   1.02625   -1.000
 4846.00    1.04282   1.02510   -1.000
 4847.00    1.03444   1.01957   -1.000
 4848.00    1.02281   1.01216   -1.000
 4849.00    1.01905   1.00769   -1.000
 4850.00    1.02266   1.00709   -1.000
 4851.00    1.02482   1.00640   -1.000
 4852.00    1.02077   1.00085   -1.000
 4853.00    1.00930   0.98759   -1.000
 4854.00    0.98833   0.96744   -1.000
 4855.00    0.96657   0.94572   -1.000
 4856.00    0.95577   0.92702   -1.000
 4857.00    0.94653   0.90736   -1.000
 4858.00    0.92187   0.87389   -1.000
 4859.00    0.85789   0.81736   -1.000
 4860.00    0.76830   0.74938   -1.000
 4861.00    0.71432   0.70259   -1.000
 4862.00    0.73715   0.70557   -1.000
 4863.00    0.81021   0.75473   -1.000
 4864.00    0.87674   0.81986   -1.000
 4865.00    0.91925   0.87463   -1.000
 4866.00    0.94722   0.91302   -1.000
 4867.00    0.96502   0.93902   -1.000
 4868.00    0.97867   0.95491   -1.000
 4869.00    0.98327   0.95978   -1.000
 4870.00    0.97198   0.95447   -1.000
 4871.00    0.95780   0.94610   -1.000
 4872.00    0.96079   0.94501   -1.000
 4873.00    0.98103   0.95523   -1.000
 4874.00    0.99937   0.97088   -1.000
 4875.00    1.00771   0.98360   -1.000
 4876.00    1.01016   0.99095   -1.000
 4877.00    1.00931   0.99647   -1.000
 4878.00    1.01166   1.00420   -1.000
 4879.00    1.02427   1.01420   -1.000
 4880.00    1.03188   1.02219   -1.000
 4881.00    1.02677   1.02374  343.678
 4882.00    1.02299   1.01911  342.920
 4883.00    1.02140   1.01268   -1.000
 4884.00    1.01900   1.00811   -1.000
 4885.00    1.01554   1.00605   -1.000
 4886.00    1.01631   1.00575   -1.000
 4887.00    1.01689   1.00559   -1.000
 4888.00    1.01266   1.00275   -1.000
 4889.00    1.00338   0.99519   -1.000
 4890.00    0.98955   0.98579  360.566
 4891.00    0.98804   0.98336  347.607
 4892.00    1.00538   0.99524   -1.000
 4893.00    1.03431   1.01867   -1.000
 4894.00    1.06079   1.04316   -1.000
 4895.00    1.06996   1.06048   -1.000
 4896.00    1.07532   1.06870  312.864
 4897.00    1.07470   1.06920  318.834
 4898.00    1.06615   1.06384  326.372
 4899.00    1.05320   1.05538  330.567
 4900.00    1.04800   1.04785  329.642
 4901.00    1.04811   1.04365  329.784
 4902.00    1.04373   1.04152  333.399
 4903.00    1.03936   1.04053  330.854
 4904.00    1.04194   1.04316  324.148
 4905.00    1.05111   1.05053  320.993
 4906.00    1.06105   1.05774  323.238
 4907.00    1.05926   1.05827  330.436
 4908.00    1.04810   1.05060  339.863
 4909.00    1.03327   1.03833  344.980
 4910.00    1.02480   1.02724  341.613
 4911.00    1.02712   1.02290  335.579
 4912.00    1.03797   1.02717   -1.000
 4913.00    1.04770   1.03695   -1.000
 4914.00    1.05174   1.04701  323.354
 4915.00    1.05854   1.05244  324.293
 4916.00    1.06007   1.04853   -1.000
 4917.00    1.04391   1.03230   -1.000
 4918.00    1.01201   1.00636  369.114
 4919.00    0.98172   0.97986  375.243
 4920.00    0.96799   0.96361  365.161
 4921.00    0.97823   0.96212   -1.000
 4922.00    0.99606   0.97005   -1.000
 4923.00    1.00416   0.97910   -1.000
 4924.00    1.00689   0.98804   -1.000
 4925.00    1.01709   1.00108   -1.000
 4926.00    1.03611   1.01853   -1.000
 4927.00    1.04891   1.03544   -1.000
 4928.00    1.05672   1.04809   -1.000
 4929.00    1.06119   1.05578  318.504
 4930.00    1.06409   1.05766  320.952
 4931.00    1.06099   1.05166   -1.000
 4932.00    1.04503   1.03764  340.637
 4933.00    1.02338   1.02093  343.112
 4934.00    1.01650   1.01051  337.795
 4935.00    1.02105   1.00995   -1.000
 4936.00    1.02822   1.01237   -1.000
 4937.00    1.02230   1.00929   -1.000
 4938.00    1.00524   1.00221  353.715
 4939.00    1.00042   1.00057  342.733
 4940.00    1.01444   1.01035  331.577
 4941.00    1.03731   1.02823   -1.000
 4942.00    1.05157   1.04574  321.484
 4943.00    1.05833   1.05654  321.302
 4944.00    1.05938   1.05951  323.345
 4945.00    1.05124   1.05756  324.278
 4946.00    1.04863   1.05516  321.824
 4947.00    1.05364   1.05586  318.097
 4948.00    1.05965   1.05976  316.754
 4949.00    1.06486   1.06402  315.480
 4950.00    1.06521   1.06594  316.728
 4951.00    1.06480   1.06505  318.855
 4952.00    1.06144   1.06244  322.357
 4953.00    1.05810   1.05850  326.352
 4954.00    1.05583   1.05072  334.462
 4955.00    1.04446   1.03446   -1.000
 4956.00    1.01520   1.00993  365.496
 4957.00    0.98839   0.98857  361.057
 4958.00    0.98857   0.98552  341.898
 4959.00    1.01483   1.00328   -1.000
 4960.00    1.04441   1.02908   -1.000
 4961.00    1.05870   1.04892   -1.000
 4962.00    1.06156   1.05789  328.840
 4963.00    1.05753   1.05783  332.577
 4964.00    1.04793   1.05168  339.252
 4965.00    1.03879   1.04240  344.065
 4966.00    1.03270   1.03394  344.722
 4967.00    1.03072   1.02927  343.837
 4968.00    1.03041   1.02847  341.489
 4969.00    1.03471   1.03064  337.970
 4970.00    1.03929   1.03536  334.338
 4971.00    1.04265   1.04170  330.386
 4972.00    1.04958   1.04807  327.155
 4973.00    1.05556   1.05302  325.592
 4974.00    1.05804   1.05543  327.395
 4975.00    1.05705   1.05470  330.715
 4976.00    1.05619   1.05073  335.090
 4977.00    1.05050   1.04431  340.455
 4978.00    1.04162   1.03709  344.842
 4979.00    1.03346   1.02934  349.638
 4980.00    1.02237   1.01846  360.312
 4981.00    1.00342   1.00256  372.106
 4982.00    0.98352   0.98509  373.721
 4983.00    0.97572   0.97365  367.538
 4984.00    0.98058   0.97404  357.605
 4985.00    0.99517   0.98577   -1.000
 4986.00    1.01318   1.00351   -1.000
 4987.00    1.02852   1.02047   -1.000
 4988.00    1.03300   1.03038  341.030
 4989.00    1.02676   1.03061  344.776
 4990.00    1.01867   1.02442  345.368
 4991.00    1.01727   1.01840  342.679
 4992.00    1.02160   1.01679  341.005
 4993.00    1.02491   1.01941  340.689
 4994.00    1.02742   1.02431  339.138
 4995.00    1.03246   1.02998  337.433
 4996.00    1.03668   1.03400  338.999
 4997.00    1.03351   1.03259  343.245
 4998.00    1.02362   1.02307  349.913
 4999.00    1.01280   1.00782  354.673
 5000.00    1.00559   0.99486   -1.000
 5001.00    1.00547   0.99081   -1.000
 5002.00    1.01021   0.99375   -1.000
 5003.00    1.01602   0.99611   -1.000
 5004.00    1.01130   0.99245   -1.000
 5005.00    0.99540   0.98370   -1.000
 5006.00    0.98399   0.97727  358.100
 5007.00    0.98846   0.98054   -1.000
 5008.00    1.00958   0.99242   -1.000
 5009.00    1.02497   1.00375   -1.000
 5010.00    1.02332   1.00588   -1.000
 5011.00    1.00942   0.99727   -1.000
 5012.00    0.98700   0.98302  378.367
 5013.00    0.96986   0.97097  377.872
 5014.00    0.96553   0.96657  370.250
 5015.00    0.97494   0.96903  362.404
 5016.00    0.98652   0.97198   -1.000
 5017.00    0.98973   0.97049   -1.000
 5018.00    0.99145   0.96767   -1.000
 5019.00    0.99489   0.97074   -1.000
 5020.00    1.00258   0.98072   -1.000
 5021.00    1.00912   0.99146   -1.000
 5022.00    1.00715   0.99900   -1.000
 5023.00    1.00902   1.00520  350.037
 5024.00    1.01638   1.01192  347.509
 5025.00    1.02013   1.01722  348.681
 5026.00    1.01557   1.01857  350.377
 5027.00    1.01132   1.01708  347.769
 5028.00    1.01419   1.01623  341.585
 5029.00    1.02402   1.01792  336.503
 5030.00    1.02830   1.02200  331.114
 5031.00    1.03437   1.02810  327.100
 5032.00    1.04295   1.03462   -1.000
 5033.00    1.04474   1.03730   -1.000
 5034.00    1.03516   1.03244  349.563
 5035.00    1.01666   1.02176  356.392
 5036.00    1.00422   1.01122  358.176
 5037.00    0.99972   1.00365  362.205
 5038.00    0.99538   0.99497  375.296
 5039.00    0.97998   0.98031  390.625
 5040.00    0.95421   0.96307  392.719
 5041.00    0.94204   0.95464   -1.000
 5042.00    0.95722   0.96351  353.022
 5043.00    0.99178   0.98656  337.734
 5044.00    1.02350   1.01280   -1.000
 5045.00    1.01167   1.03263   -1.000
 5046.00    1.04759   1.04161  325.033
 5047.00    0.49414   1.03911   -1.000
 5048.00    0.45799   1.02748   -1.000
 5049.00    0.98767   1.01195   -1.000
 5050.00    1.00337   0.99844  351.648
 5051.00    0.99979   0.99172   -1.000
 5052.00    1.01061   0.99527   -1.000
 5053.00    1.02720   1.00875   -1.000
 5054.00    1.04124   1.02562   -1.000
 5055.00    1.05084   1.03820   -1.000
 5056.00    1.05802   1.04452   -1.000
 5057.00    1.05601   1.04735   -1.000
 5058.00    1.05135   1.04945  326.819
 5059.00    1.04774   1.05174  324.818
 5060.00    1.04508   1.05379  324.718
 5061.00    1.04797   1.05395  328.640
 5062.00    1.04869   1.04955  337.676
 5063.00    1.03698   1.03914  349.534
 5064.00    1.01888   1.02548  354.547
 5065.00    1.00545   1.01464  351.123
 5066.00    1.00659   1.01041  345.863
 5067.00    1.01725   1.01111  344.300
 5068.00    1.02172   1.01327   -1.000
 5069.00    1.02607   1.01546   -1.000
 5070.00    1.02896   1.01720   -1.000
 5071.00    1.02895   1.01717   -1.000
 5072.00    1.02233   1.01506   -1.000
 5073.00    1.02488   1.01287   -1.000
 5074.00    1.02835   1.01252   -1.000
 5075.00    1.02951   1.01343   -1.000
 5076.00    1.02865   1.01275   -1.000
 5077.00    1.02257   1.00686   -1.000
 5078.00    1.00549   0.99457   -1.000
 5079.00    0.98141   0.98081  374.218
 5080.00    0.97025   0.97365  367.535
 5081.00    0.98026   0.97600  359.624
 5082.00    0.99490   0.98375   -1.000
 5083.00    1.00173   0.99264   -1.000
 5084.00    1.00924   1.00196   -1.000
 5085.00    1.02296   1.01123   -1.000
 5086.00    1.03401   1.01849   -1.000
 5087.00    1.03637   1.02278   -1.000
 5088.00    1.03778   1.02551   -1.000
 5089.00    1.03927   1.02848   -1.000
 5090.00    1.03920   1.03217   -1.000
 5091.00    1.04051   1.03623  327.306
 5092.00    1.04951   1.04030   -1.000
 5093.00    1.05496   1.04327   -1.000
 5094.00    1.05189   1.04273   -1.000
 5095.00    1.04585   1.03645   -1.000
 5096.00    1.03235   1.02448   -1.000
 5097.00    1.01796   1.00984   -1.000
 5098.00    1.00637   0.99776   -1.000
 5099.00    1.00322   0.99364   -1.000
 5100.00    1.01261   0.99937   -1.000
 5101.00    1.02862   1.01089   -1.000
 5102.00    1.03596   1.02120   -1.000
 5103.00    1.03476   1.02584   -1.000
 5104.00    1.03392   1.02446   -1.000
 5105.00    1.02631   1.01823   -1.000
 5106.00    1.01437   1.00864  354.890
 5107.00    1.00077   0.99871  354.841
 5108.00    0.99391   0.99238  352.705
 5109.00    0.99690   0.99178  350.188
 5110.00    1.00426   0.99676   -1.000
 5111.00    1.01286   1.00611   -1.000
 5112.00    1.02522   1.01729   -1.000
 5113.00    1.03579   1.02695   -1.000
 5114.00    1.03834   1.03347  331.866
 5115.00    1.04040   1.03782  328.524
 5116.00    1.04683   1.04158  325.695
 5117.00    1.05171   1.04463   -1.000
 5118.00    1.05172   1.04517   -1.000
 5119.00    1.04743   1.04166  335.238
 5120.00    1.03955   1.03413  340.739
 5121.00    1.02969   1.02359  349.231
 5122.00    1.01349   1.01150  359.671
 5123.00    0.99740   1.00025  362.974
 5124.00    0.99165   0.99290  360.227
 5125.00    0.99412   0.99056  358.305
 5126.00    0.99722   0.99083   -1.000
 5127.00    0.99909   0.99066   -1.000
 5128.00    0.99772   0.98986   -1.000
 5129.00    0.99634   0.99074  351.976
 5130.00    1.00186   0.99489   -1.000
 5131.00    1.00955   1.00131   -1.000
 5132.00    1.01368   1.00772  339.752
 5133.00    1.01836   1.01297  336.731
 5134.00    1.02561   1.01670   -1.000
 5135.00    1.02854   1.01749   -1.000
 5136.00    1.02234   1.01326   -1.000
 5137.00    1.00835   1.00418  355.154
 5138.00    0.99080   0.99399  356.087
 5139.00    0.98435   0.98753  353.174
 5140.00    0.98844   0.98645  355.273
 5141.00    0.99036   0.98822  360.842
 5142.00    0.98788   0.99026  359.451
 5143.00    0.98527   0.99312  353.674
 5144.00    0.99415   0.99749  352.017
 5145.00    1.00097   1.00097  354.956
 5146.00    1.00326   1.00141  356.071
 5147.00    1.00688   1.00028   -1.000
 5148.00    1.01066   0.99972   -1.000
 5149.00    1.01039   0.99891   -1.000
 5150.00    1.00445   0.99556   -1.000
 5151.00    0.99124   0.99001  362.812
 5152.00    0.98796   0.98548  361.302
 5153.00    0.99281   0.98499   -1.000
 5154.00    1.00285   0.98966   -1.000
 5155.00    1.01621   0.99912   -1.000
 5156.00    1.02715   1.01109   -1.000
 5157.00    1.03789   1.02184   -1.000
 5158.00    1.04644   1.02863   -1.000
 5159.00    1.04690   1.03099   -1.000
 5160.00    1.04543   1.02965   -1.000
 5161.00    1.04028   1.02540   -1.000
 5162.00    1.03321   1.01867   -1.000
 5163.00    1.02713   1.00804   -1.000
 5164.00    1.01478   0.98865   -1.000
 5165.00    0.98094   0.95554   -1.000
 5166.00    0.92890   0.91234   -1.000
 5167.00    0.88345   0.87496   -1.000
 5168.00    0.87738   0.86019   -1.000
 5169.00    0.90468   0.86817   -1.000
 5170.00    0.92535   0.88071   -1.000
 5171.00    0.91302   0.88163   -1.000
 5172.00    0.88694   0.87639   -1.000
 5173.00    0.88660   0.88478  402.042
 5174.00    0.92926   0.91559   -1.000
 5175.00    0.98438   0.95664   -1.000
 5176.00    1.01619   0.98990   -1.000
 5177.00    1.02886   1.00829   -1.000
 5178.00    1.03245   1.01469   -1.000
 5179.00    1.03098   1.01163   -1.000
 5180.00    1.02170   0.99654   -1.000
 5181.00    0.98944   0.96600   -1.000
 5182.00    0.93780   0.92492   -1.000
 5183.00    0.89218   0.89075  449.071
 5184.00    0.88647   0.88317   -1.000
 5185.00    0.93073   0.90581   -1.000
 5186.00    0.98303   0.94142   -1.000
 5187.00    1.00554   0.96938   -1.000
 5188.00    1.00545   0.98277   -1.000
 5189.00    1.00467   0.98562   -1.000
 5190.00    1.00182   0.98182   -1.000
 5191.00    0.98827   0.97322   -1.000
 5192.00    0.97045   0.96458  369.231
 5193.00    0.96967   0.96172   -1.000
 5194.00    0.97823   0.96518   -1.000
 5195.00    0.99014   0.97106   -1.000
 5196.00    0.99911   0.97727   -1.000
 5197.00    1.00806   0.98470   -1.000
 5198.00    1.01626   0.99385   -1.000
 5199.00    1.02315   1.00287   -1.000
 5200.00    1.02840   1.00843   -1.000
 5201.00    1.02288   1.00769   -1.000
 5202.00    1.01474   0.99935   -1.000
 5203.00    1.00317   0.98417   -1.000
 5204.00    0.98295   0.96582   -1.000
 5205.00    0.96449   0.95017   -1.000
 5206.00    0.96407   0.94155   -1.000
 5207.00    0.96225   0.93961   -1.000
 5208.00    0.96105   0.94203   -1.000
 5209.00    0.96578   0.94939   -1.000
 5210.00    0.98220   0.96372   -1.000
 5211.00    1.00447   0.98296   -1.000
 5212.00    1.02817   1.00050   -1.000
 5213.00    1.03939   1.00963   -1.000
 5214.00    1.03672   1.00787   -1.000
 5215.00    1.02057   0.99915   -1.000
 5216.00    1.00646   0.99190   -1.000
 5217.00    1.01108   0.99305   -1.000
 5218.00    1.02463   1.00286   -1.000
 5219.00    1.03819   1.01594   -1.000
 5220.00    1.04702   1.02631   -1.000
 5221.00    1.05101   1.03070   -1.000
 5222.00    1.04732   1.02763   -1.000
 5223.00    1.03207   1.01567   -1.000
 5224.00    1.00877   0.99405   -1.000
 5225.00    0.97636   0.96626   -1.000
 5226.00    0.94850   0.94292  371.848
 5227.00    0.94735   0.93670   -1.000
 5228.00    0.97388   0.95091   -1.000
 5229.00    1.00787   0.97498   -1.000
 5230.00    1.02643   0.99341   -1.000
 5231.00    1.02922   0.99789   -1.000
 5232.00    1.02179   0.99097   -1.000
 5233.00    1.00658   0.98191   -1.000
 5234.00    1.00263   0.98000   -1.000
 5235.00    1.01501   0.98826   -1.000
 5236.00    1.02960   1.00241   -1.000
 5237.00    1.04226   1.01565   -1.000
 5238.00    1.04901   1.02396   -1.000
 5239.00    1.04744   1.02747   -1.000
 5240.00    1.04826   1.02828   -1.000
 5241.00    1.05057   1.02814   -1.000
 5242.00    1.05278   1.02811   -1.000
 5243.00    1.05183   1.02870   -1.000
 5244.00    1.05069   1.02889   -1.000
 5245.00    1.04363   1.02591   -1.000
 5246.00    1.02935   1.01835   -1.000
 5247.00    1.01445   1.00870  345.192
 5248.00    1.00924   1.00076   -1.000
 5249.00    1.00784   0.99590   -1.000
 5250.00    1.00233   0.99395   -1.000
 5251.00    0.99985   0.99497  341.832
 5252.00    1.00766   0.99797   -1.000
 5253.00    1.01513   1.00050   -1.000
 5254.00    1.01374   1.00193   -1.000
 5255.00    1.01745   1.00524   -1.000
 5256.00    1.02865   1.01334   -1.000
 5257.00    1.04574   1.02429   -1.000
 5258.00    1.05320   1.03200   -1.000
 5259.00    1.04785   1.03098   -1.000
 5260.00    1.03584   1.01937   -1.000
 5261.00    1.01270   0.99906   -1.000
 5262.00    0.98527   0.97481   -1.000
 5263.00    0.96477   0.95220   -1.000
 5264.00    0.95272   0.93587   -1.000
 5265.00    0.94665   0.92848   -1.000
 5266.00    0.95341   0.92852   -1.000
 5267.00    0.96478   0.92917   -1.000
 5268.00    0.95627   0.92361   -1.000
 5269.00    0.93265   0.91442   -1.000
 5270.00    0.92914   0.91342   -1.000
 5271.00    0.95670   0.92790   -1.000
 5272.00    0.98492   0.95055   -1.000
 5273.00    0.99951   0.96780   -1.000
 5274.00    1.00272   0.97506   -1.000
 5275.00    1.00406   0.97887   -1.000
 5276.00    1.01112   0.98733   -1.000
 5277.00    1.02860   1.00147   -1.000
 5278.00    1.04599   1.01467   -1.000
 5279.00    1.04757   1.01943   -1.000
 5280.00    1.03629   1.01394   -1.000
 5281.00    1.02139   1.00228   -1.000
 5282.00    1.00605   0.99073   -1.000
 5283.00    0.99705   0.98545   -1.000
 5284.00    1.00658   0.99059   -1.000
 5285.00    1.02904   1.00528   -1.000
 5286.00    1.04767   1.02277   -1.000
 5287.00    1.05406   1.03569   -1.000
 5288.00    1.05390   1.04207   -1.000
 5289.00    1.05528   1.04451   -1.000
 5290.00    1.05803   1.04523   -1.000
 5291.00    1.05351   1.04439   -1.000
 5292.00    1.05073   1.04199   -1.000
 5293.00    1.05122   1.03832   -1.000
 5294.00    1.04475   1.03232   -1.000
 5295.00    1.03451   1.02206   -1.000
 5296.00    1.01439   1.00786  350.776
 5297.00    0.99613   0.99449  349.017
 5298.00    0.99191   0.98821  340.343
 5299.00    1.00112   0.99088   -1.000
 5300.00    1.01405   0.99839   -1.000
 5301.00    1.01700   1.00605   -1.000
 5302.00    1.02189   1.01323   -1.000
 5303.00    1.03295   1.02136   -1.000
 5304.00    1.04511   1.02942   -1.000
 5305.00    1.05022   1.03417   -1.000
 5306.00    1.04286   1.03449   -1.000
 5307.00    1.03987   1.03311  315.769
 5308.00    1.04611   1.03365   -1.000
 5309.00    1.05098   1.03688   -1.000
 5310.00    1.05525   1.04046   -1.000
 5311.00    1.05786   1.04169   -1.000
 5312.00    1.05560   1.03968   -1.000
 5313.00    1.05427   1.03460   -1.000
 5314.00    1.04894   1.02665   -1.000
 5315.00    1.03725   1.01699   -1.000
 5316.00    1.02839   1.00925   -1.000
 5317.00    1.02600   1.00768   -1.000
 5318.00    1.03090   1.01289   -1.000
 5319.00    1.04045   1.02045   -1.000
 5320.00    1.04246   1.02479   -1.000
 5321.00    1.03690   1.02288   -1.000
 5322.00    1.02895   1.01498   -1.000
 5323.00    1.01750   1.00395   -1.000
 5324.00    1.00938   0.99317   -1.000
 5325.00    1.00810   0.98227   -1.000
 5326.00    0.99715   0.96719   -1.000
 5327.00    0.96393   0.94822   -1.000
 5328.00    0.93802   0.93556  363.295
 5329.00    0.94816   0.94080   -1.000
 5330.00    0.98568   0.96276   -1.000
 5331.00    1.01596   0.98778   -1.000
 5332.00    1.02382   1.00447   -1.000
 5333.00    1.02948   1.01208   -1.000
 5334.00    1.03277   1.01499   -1.000
 5335.00    1.03413   1.01563   -1.000
 5336.00    1.03136   1.01408   -1.000
 5337.00    1.03132   1.01012   -1.000
 5338.00    1.02760   1.00352   -1.000
 5339.00    1.01265   0.99501   -1.000
 5340.00    1.00153   0.98832   -1.000
 5341.00    1.00271   0.98856   -1.000
 5342.00    1.01621   0.99641   -1.000
 5343.00    1.03411   1.00623   -1.000
 5344.00    1.03535   1.01167   -1.000
 5345.00    1.02935   1.01120   -1.000
 5346.00    1.02397   1.00733   -1.000
 5347.00    1.02202   1.00306   -1.000
 5348.00    1.02054   1.00041   -1.000
 5349.00    1.01896   1.00111   -1.000
 5350.00    1.02257   1.00620   -1.000
 5351.00    1.03428   1.01418   -1.000
 5352.00    1.04184   1.02199   -1.000
 5353.00    1.04131   1.02817   -1.000
 5354.00    1.04821   1.03356   -1.000
 5355.00    1.05602   1.03890   -1.000
 5356.00    1.05802   1.04325   -1.000
 5357.00    1.06127   1.04534   -1.000
 5358.00    1.06350   1.04492   -1.000
 5359.00    1.06112   1.04205   -1.000
 5360.00    1.05196   1.03651   -1.000
 5361.00    1.04079   1.02860   -1.000
 5362.00    1.03249   1.01978   -1.000
 5363.00    1.02731   1.01199   -1.000
 5364.00    1.02289   1.00654   -1.000
 5365.00    1.02072   1.00379   -1.000
 5366.00    1.01778   1.00281   -1.000
 5367.00    1.01994   1.00097   -1.000
 5368.00    1.01817   0.99498   -1.000
 5369.00    1.00717   0.98379   -1.000
 5370.00    0.98810   0.97145   -1.000
 5371.00    0.97870   0.96621   -1.000
 5372.00    0.99061   0.97404   -1.000
 5373.00    1.02059   0.99237   -1.000
 5374.00    1.04299   1.01201   -1.000
 5375.00    1.05025   1.02526   -1.000
 5376.00    1.05266   1.03065   -1.000
 5377.00    1.05176   1.03097   -1.000
 5378.00    1.04996   1.02875   -1.000
 5379.00    1.04268   1.02465   -1.000
 5380.00    1.03763   1.01903   -1.000
 5381.00    1.02942   1.01338   -1.000
 5382.00    1.02798   1.00980   -1.000
 5383.00    1.02623   1.00977   -1.000
 5384.00    1.02889   1.01337   -1.000
 5385.00    1.03779   1.01900   -1.000
 5386.00    1.04302   1.02379   -1.000
 5387.00    1.04460   1.02509   -1.000
 5388.00    1.03993   1.02205   -1.000
 5389.00    1.03077   1.01586   -1.000
 5390.00    1.02674   1.00876   -1.000
 5391.00    1.02371   1.00257   -1.000
 5392.00    1.01772   0.99798   -1.000
 5393.00    1.01231   0.99467   -1.000
 5394.00    1.00813   0.99087   -1.000
 5395.00    1.00127   0.98427   -1.000
 5396.00    0.98991   0.97579   -1.000
 5397.00    0.98477   0.97107   -1.000
 5398.00    0.99389   0.97495   -1.000
 5399.00    1.01313   0.98554   -1.000
 5400.00    1.02665   0.99613   -1.000
 5401.00    1.02839   1.00091   -1.000
 5402.00    1.02455   0.99716   -1.000
 5403.00    1.01108   0.98508   -1.000
 5404.00    0.98535   0.96899   -1.000
 5405.00    0.97126   0.95707   -1.000
 5406.00    0.97934   0.95560   -1.000
 5407.00    0.99408   0.96274   -1.000
 5408.00    1.00171   0.97073   -1.000
 5409.00    0.99879   0.97493   -1.000
 5410.00    0.99564   0.97810   -1.000
 5411.00    1.00646   0.98470   -1.000
 5412.00    1.02288   0.99366   -1.000
 5413.00    1.03028   1.00034   -1.000
 5414.00    1.02909   1.00327   -1.000
 5415.00    1.02323   1.00533   -1.000
 5416.00    1.02870   1.00896   -1.000
 5417.00    1.03339   1.01292   -1.000
 5418.00    1.03472   1.01476   -1.000
 5419.00    1.03367   1.01411   -1.000
 5420.00    1.02942   1.01225   -1.000
 5421.00    1.02784   1.00974   -1.000
 5422.00    1.02807   1.00597   -1.000
 5423.00    1.02018   1.00135   -1.000
 5424.00    1.01256   0.99882   -1.000
 5425.00    1.01445   1.00127   -1.000
 5426.00    1.02393   1.00650   -1.000
 5427.00    1.02665   1.00751   -1.000
 5428.00    1.01326   1.00023   -1.000
 5429.00    0.99480   0.98941  339.233
 5430.00    0.98894   0.98333  333.064
 5431.00    0.99689   0.98372   -1.000
 5432.00    1.00501   0.98480   -1.000
 5433.00    0.99991   0.98191   -1.000
 5434.00    0.98905   0.97784   -1.000
 5435.00    0.98641   0.97922   -1.000
 5436.00    1.00005   0.98886   -1.000
 5437.00    1.01941   1.00346   -1.000
 5438.00    1.03161   1.01746   -1.000
 5439.00    1.04136   1.02722   -1.000
 5440.00    1.04530   1.03233   -1.000
 5441.00    1.04573   1.03384   -1.000
 5442.00    1.04423   1.03184   -1.000
 5443.00    1.03725   1.02468   -1.000
 5444.00    1.02352   1.01087   -1.000
 5445.00    1.00047   0.99264   -1.000
 5446.00    0.98087   0.97739  343.560
 5447.00    0.97970   0.97331  332.338
 5448.00    0.99919   0.98228   -1.000
 5449.00    1.02595   0.99797   -1.000
 5450.00    1.03866   1.01137   -1.000
 5451.00    1.04209   1.01705   -1.000
 5452.00    1.03852   1.01390   -1.000
 5453.00    1.02623   1.00312   -1.000
 5454.00    1.00476   0.98864   -1.000
 5455.00    0.98551   0.97812   -1.000
 5456.00    0.98958   0.97903   -1.000
 5457.00    1.01275   0.99159   -1.000
 5458.00    1.03238   1.00764   -1.000
 5459.00    1.04552   1.01789   -1.000
 5460.00    1.03938   1.01881   -1.000
 5461.00    1.02403   1.01261   -1.000
 5462.00    1.01359   1.00423   -1.000
 5463.00    1.00860   0.99887   -1.000
 5464.00    1.01278   0.99927   -1.000
 5465.00    1.02296   1.00399   -1.000
 5466.00    1.02728   1.00949   -1.000
 5467.00    1.03000   1.01359   -1.000
 5468.00    1.03194   1.01607   -1.000
 5469.00    1.03081   1.01699   -1.000
 5470.00    1.02835   1.01596   -1.000
 5471.00    1.02678   1.01290   -1.000
 5472.00    1.02197   1.00822   -1.000
 5473.00    1.01510   1.00181   -1.000
 5474.00    1.00550   0.99279   -1.000
 5475.00    0.99163   0.98158   -1.000
 5476.00    0.97771   0.97229  348.025
 5477.00    0.97741   0.97080  337.174
 5478.00    0.99491   0.97839   -1.000
 5479.00    1.01315   0.98887   -1.000
 5480.00    1.01697   0.99525   -1.000
 5481.00    1.00983   0.99689   -1.000
 5482.00    1.00643   0.99841   -1.000
 5483.00    1.01222   1.00318   -1.000
 5484.00    1.02067   1.00985   -1.000
 5485.00    1.02627   1.01432   -1.000
 5486.00    1.02448   1.01402   -1.000
 5487.00    1.01691   1.01025  331.302
 5488.00    1.01421   1.00657  331.319
 5489.00    1.01513   1.00557   -1.000
 5490.00    1.01652   1.00723   -1.000
 5491.00    1.01989   1.00983   -1.000
 5492.00    1.01952   1.01166  326.120
 5493.00    1.02121   1.01196   -1.000
 5494.00    1.02314   1.01072   -1.000
 5495.00    1.02308   1.00788   -1.000
 5496.00    1.01353   1.00385   -1.000
 5497.00    1.00815   1.00071  329.041
 5498.00    1.00827   1.00043   -1.000
 5499.00    1.01450   1.00150   -1.000
 5500.00    1.01566   1.00027   -1.000
 5501.00    1.00718   0.99624   -1.000
 5502.00    1.00367   0.99303   -1.000
 5503.00    1.01066   0.99298   -1.000
 5504.00    1.01744   0.99359   -1.000
 5505.00    1.01024   0.99143   -1.000
 5506.00    1.00119   0.98760   -1.000
 5507.00    0.99952   0.98652   -1.000
 5508.00    1.00658   0.99006   -1.000
 5509.00    1.01480   0.99485   -1.000
 5510.00    1.01517   0.99622   -1.000
 5511.00    1.00754   0.99311   -1.000
 5512.00    0.99850   0.98836   -1.000
 5513.00    0.99080   0.98575  341.355
 5514.00    0.99541   0.98730   -1.000
 5515.00    1.00263   0.99254   -1.000
 5516.00    1.01618   0.99970   -1.000
 5517.00    1.02546   1.00704   -1.000
 5518.00    1.02948   1.01316   -1.000
 5519.00    1.03448   1.01688   -1.000
 5520.00    1.03403   1.01790   -1.000
 5521.00    1.03111   1.01724   -1.000
 5522.00    1.03013   1.01614   -1.000
 5523.00    1.02893   1.01421   -1.000
 5524.00    1.02530   1.00938   -1.000
 5525.00    1.01675   0.99978   -1.000
 5526.00    1.00247   0.98648   -1.000
 5527.00    0.98586   0.97450   -1.000
 5528.00    0.97902   0.97010   -1.000
 5529.00    0.98768   0.97573   -1.000
 5530.00    1.00365   0.98741   -1.000
 5531.00    1.01737   0.99771   -1.000
 5532.00    1.01898   1.00157   -1.000
 5533.00    1.01603   0.99939   -1.000
 5534.00    1.00831   0.99545   -1.000
 5535.00    1.00713   0.99418   -1.000
 5536.00    1.01300   0.99702   -1.000
 5537.00    1.01803   1.00217   -1.000
 5538.00    1.02063   1.00728   -1.000
 5539.00    1.02624   1.01134   -1.000
 5540.00    1.02923   1.01397   -1.000
 5541.00    1.02909   1.01441   -1.000
 5542.00    1.02573   1.01228   -1.000
 5543.00    1.01907   1.00886   -1.000
 5544.00    1.01508   1.00639   -1.000
 5545.00    1.01621   1.00624   -1.000
 5546.00    1.01782   1.00832   -1.000
 5547.00    1.02195   1.01206   -1.000
 5548.00    1.02598   1.01669   -1.000
 5549.00    1.03107   1.02066   -1.000
 5550.00    1.03010   1.02235   -1.000
 5551.00    1.02974   1.02134   -1.000
 5552.00    1.02406   1.01850  323.767
 5553.00    1.01988   1.01519  325.227
 5554.00    1.01649   1.01280  324.659
 5555.00    1.01482   1.01216  323.608
 5556.00    1.01894   1.01290  323.081
 5557.00    1.02272   1.01392   -1.000
 5558.00    1.02296   1.01457   -1.000
 5559.00    1.02300   1.01474   -1.000
 5560.00    1.02340   1.01391   -1.000
 5561.00    1.02105   1.01147   -1.000
 5562.00    1.01578   1.00791  330.425
 5563.00    1.00921   1.00472  331.303
 5564.00    1.00610   1.00270  331.972
 5565.00    1.00536   1.00134  332.297
 5566.00    1.00228   0.99982  331.549
 5567.00    1.00124   0.99799  330.851
 5568.00    1.00132   0.99623  331.902
 5569.00    0.99783   0.99495  331.590
 5570.00    0.99761   0.99389  331.646
 5571.00    0.99818   0.99228  332.672
 5572.00    0.99254   0.99051  331.119
 5573.00    0.98526   0.99049  327.465
 5574.00    0.97703   0.99314   -1.000
 5575.00    0.98468   0.99719   -1.000
 5576.00    1.00757   1.00092  314.537
 5577.00    1.02335   1.00388   -1.000
 5578.00    1.03311   1.00631   -1.000
 5579.00    1.00822   1.00788  335.140
 5580.00    1.01357   1.00799  330.898
 5581.00    1.00934   1.00689  327.274
 5582.00    1.00817   1.00545  326.712
 5583.00    1.00967   1.00334  328.734
 5584.00    1.00768   0.99823   -1.000
 5585.00    0.99880   0.98821   -1.000
 5586.00    0.97903   0.97481  352.665
 5587.00    0.96224   0.96286  355.073
 5588.00    0.95748   0.95714  350.527
 5589.00    0.96177   0.95929  344.074
 5590.00    0.97510   0.96704   -1.000
 5591.00    0.98526   0.97571   -1.000
 5592.00    0.99192   0.98138   -1.000
 5593.00    0.98808   0.98376  337.751
 5594.00    0.98504   0.98575  332.709
 5595.00    0.99184   0.98922  330.073
 5596.00    0.99990   0.99211   -1.000
 5597.00    0.99739   0.99128  339.543
 5598.00    0.98883   0.98687  343.009
 5599.00    0.98574   0.98128  342.573
 5600.00    0.98472   0.97594   -1.000
 5601.00    0.97893   0.97201  346.310
 5602.00    0.97445   0.97234  340.198
 5603.00    0.97743   0.97940  330.646
 5604.00    0.99478   0.99193  323.180
 5605.00    1.01316   1.00531   -1.000
 5606.00    1.02289   1.01517   -1.000
 5607.00    1.02759   1.02030  319.559
 5608.00    1.02589   1.02221  320.224
 5609.00    1.02354   1.02299  319.840
 5610.00    1.02307   1.02355  318.792
 5611.00    1.02427   1.02276  320.473
 5612.00    1.02409   1.01771  327.437
 5613.00    1.01558   1.00636   -1.000
 5614.00    0.99556   0.99120  346.799
 5615.00    0.97642   0.97962  343.312
 5616.00    0.97533   0.97803  334.730
 5617.00    0.99133   0.98554  330.360
 5618.00    1.00671   0.99558   -1.000
 5619.00    1.00884   1.00290  328.249
 5620.00    1.01032   1.00675  326.600
 5621.00    1.01484   1.00782  328.212
 5622.00    1.01566   1.00565   -1.000
 5623.00    1.00509   1.00037  341.251
 5624.00    0.99294   0.99484  339.277
 5625.00    0.99270   0.99307  333.261
 5626.00    1.00002   0.99638  328.522
 5627.00    1.00784   1.00256  324.770
 5628.00    1.01444   1.00861  322.463
 5629.00    1.02083   1.01307  321.654
 5630.00    1.02273   1.01573  320.316
 5631.00    1.02410   1.01661  320.774
 5632.00    1.02321   1.01576  323.453
 5633.00    1.02080   1.01349  325.750
 5634.00    1.01854   1.01036   -1.000
 5635.00    1.01640   1.00679   -1.000
 5636.00    1.01241   1.00331   -1.000
 5637.00    1.00641   1.00061  332.329
 5638.00    1.00597   0.99900  331.954
 5639.00    1.00460   0.99787  333.205
 5640.00    1.00352   0.99659  333.303
 5641.00    1.00252   0.99567  331.857
 5642.00    1.00579   0.99626   -1.000
 5643.00    1.00890   0.99851   -1.000
 5644.00    1.00732   1.00138  327.398
 5645.00    1.01058   1.00387  326.601
 5646.00    1.01387   1.00552   -1.000
 5647.00    1.01301   1.00614  325.291
 5648.00    1.01404   1.00575   -1.000
 5649.00    1.01671   1.00493   -1.000
 5650.00    1.01504   1.00467   -1.000
 5651.00    1.01395   1.00527   -1.000
 5652.00    1.01845   1.00570   -1.000
 5653.00    1.01697   1.00460   -1.000
 5654.00    1.01253   1.00116   -1.000
 5655.00    1.00589   0.99472   -1.000
 5656.00    0.99366   0.98497   -1.000
 5657.00    0.97778   0.97410  352.451
 5658.00    0.96631   0.96716  346.558
 5659.00    0.96638   0.96768  338.799
 5660.00    0.97794   0.97361  338.004
 5661.00    0.98943   0.97992   -1.000
 5662.00    0.99221   0.98474  334.517
 5663.00    0.99299   0.98971  329.699
 5664.00    1.00017   0.99506  328.670
 5665.00    1.00730   0.99810   -1.000
 5666.00    1.00672   0.99710   -1.000
 5667.00    1.00301   0.99385   -1.000
 5668.00    0.99915   0.99180  331.969
 5669.00    0.99996   0.99285  329.709
 5670.00    1.00187   0.99654  326.783
 5671.00    1.00894   1.00138  323.460
 5672.00    1.01294   1.00591  320.358
 5673.00    1.01581   1.00906  320.718
 5674.00    1.01703   1.01057  321.854
 5675.00    1.01635   1.01109  320.644
 5676.00    1.01611   1.01132  320.201
 5677.00    1.01541   1.01112  322.030
 5678.00    1.01430   1.00972  323.291
 5679.00    1.01451   1.00668  325.269
 5680.00    1.01291   1.00202   -1.000
 5681.00    1.00605   0.99601   -1.000
 5682.00    0.99932   0.98982   -1.000
 5683.00    0.99902   0.98559   -1.000
 5684.00    0.99880   0.98465   -1.000
 5685.00    0.99672   0.98595   -1.000
 5686.00    0.99786   0.98719   -1.000
 5687.00    0.99306   0.98740  336.839
 5688.00    0.99117   0.98773  332.640
 5689.00    0.99737   0.98981  326.281
 5690.00    1.00550   0.99394   -1.000
 5691.00    1.00974   0.99888   -1.000
 5692.00    1.01209   1.00303   -1.000
 5693.00    1.01409   1.00551   -1.000
 5694.00    1.01535   1.00645   -1.000
 5695.00    1.01269   1.00634  322.744
 5696.00    1.01045   1.00532  326.165
 5697.00    1.00774   1.00303  329.996
 5698.00    1.00077   0.99925  332.806
 5699.00    0.99352   0.99453  336.474
 5700.00    0.99185   0.99015  337.794
 5701.00    0.98933   0.98756  334.897
 5702.00    0.98724   0.98767  331.317
 5703.00    0.99344   0.98962  330.788
 5704.00    0.99852   0.99084  333.297
 5705.00    0.99382   0.98901  338.264
 5706.00    0.98734   0.98378  344.734
 5707.00    0.97828   0.97642  349.984
 5708.00    0.96665   0.96888  351.678
 5709.00    0.96023   0.96349  350.590
 5710.00    0.95886   0.96238  346.726
 5711.00    0.96321   0.96644  339.222
 5712.00    0.97506   0.97458  330.695
 5713.00    0.98893   0.98412  325.973
 5714.00    1.00109   0.99222   -1.000
 5715.00    1.00718   0.99763   -1.000
 5716.00    1.00575   1.00093  323.408
 5717.00    1.00740   1.00322  321.759
 5718.00    1.01271   1.00534  319.623
 5719.00    1.01162   1.00768  318.199
 5720.00    1.01277   1.01009  317.506
 5721.00    1.01514   1.01215  317.037
 5722.00    1.01711   1.01354  316.664
 5723.00    1.01949   1.01404  317.547
 5724.00    1.01667   1.01308  320.435
 5725.00    1.01079   1.01034  323.889
 5726.00    1.00845   1.00662  326.365
 5727.00    1.00405   1.00367  324.144
 5728.00    1.00494   1.00256  322.228
 5729.00    1.00816   1.00279  323.423
 5730.00    1.01228   1.00320   -1.000
 5731.00    1.00706   1.00352  323.582
 5732.00    1.00246   1.00465  320.235
 5733.00    1.01075   1.00715  318.358
 5734.00    1.01403   1.00990  318.883
 5735.00    1.01220   1.01128  319.240
 5736.00    1.01058   1.01100  320.286
 5737.00    1.01195   1.01005  320.424
 5738.00    1.01390   1.00934  321.196
 5739.00    1.00814   1.00903  321.635
 5740.00    1.00947   1.00877  322.402
 5741.00    1.00854   1.00831  321.456
 5742.00    1.00571   1.00798  321.232
 5743.00    1.00667   1.00838  318.601
 5744.00    1.00781   1.00931  316.994
 5745.00    1.01026   1.00954  319.115
 5746.00    1.01247   1.00826  322.435
 5747.00    1.00976   1.00635  323.412
 5748.00    1.00421   1.00557  321.173
 5749.00    1.00570   1.00616  320.337
 5750.00    1.00703   1.00599  323.259
 5751.00    1.00412   1.00280  327.328
 5752.00    0.99449   0.99709  330.507
 5753.00    0.98905   0.99235  330.061
 5754.00    0.98914   0.99215  325.406
 5755.00    0.99338   0.99693  319.179
 5756.00    1.00513   1.00398  315.682
 5757.00    1.01264   1.00972  317.165
 5758.00    1.01494   1.01178  320.979
 5759.00    1.01437   1.00962  325.239
 5760.00    1.00859   1.00446  329.716
 5761.00    1.00146   0.99884  331.017
 5762.00    0.99540   0.99586  326.888
 5763.00    0.99665   0.99766  320.828
 5764.00    1.00585   1.00349  317.147
 5765.00    1.01306   1.00998  316.463
 5766.00    1.01639   1.01411  316.178
 5767.00    1.01533   1.01532  315.607
 5768.00    1.01420   1.01464  316.401
 5769.00    1.01360   1.01310  317.479
 5770.00    1.01135   1.01125  319.336
 5771.00    1.01035   1.00928  321.335
 5772.00    1.01085   1.00723  321.992
 5773.00    1.00953   1.00517  322.359
 5774.00    1.00338   1.00347  321.562
 5775.00    1.00534   1.00270  319.843
 5776.00    1.00773   1.00266  319.710
 5777.00    1.00863   1.00181  320.852
 5778.00    1.00738   0.99852   -1.000
 5779.00    1.00179   0.99268   -1.000
 5780.00    0.99626   0.98587   -1.000
 5781.00    0.99197   0.98035   -1.000
 5782.00    0.99189   0.97763   -1.000
 5783.00    0.99138   0.97748   -1.000
 5784.00    0.99119   0.97885   -1.000
 5785.00    0.99455   0.98132   -1.000
 5786.00    0.99663   0.98504   -1.000
 5787.00    1.00105   0.98945   -1.000
 5788.00    1.00531   0.99313   -1.000
 5789.00    1.00945   0.99494   -1.000
 5790.00    1.00603   0.99522   -1.000
 5791.00    1.00048   0.99565  320.582
 5792.00    1.00405   0.99781  318.473
 5793.00    1.00977   1.00163   -1.000
 5794.00    1.01499   1.00540   -1.000
 5795.00    1.01431   1.00717  318.661
 5796.00    1.00874   1.00641  320.693
 5797.00    1.00807   1.00476  318.759
 5798.00    1.01009   1.00467  314.445
 5799.00    1.01198   1.00701  310.108
 5800.00    1.01806   1.01038  309.790
 5801.00    1.01979   1.01265  312.730
 5802.00    1.01882   1.01251  315.100
 5803.00    1.01424   1.01016  317.707
 5804.00    1.00945   1.00716  318.981
 5805.00    1.00889   1.00540  318.022
 5806.00    1.00975   1.00563  316.795
 5807.00    1.01254   1.00727  315.884
 5808.00    1.01422   1.00924  315.971
 5809.00    1.01553   1.01095  315.618
 5810.00    1.01778   1.01229  314.324
 5811.00    1.02007   1.01305  313.446
 5812.00    1.02277   1.01272   -1.000
 5813.00    1.02269   1.01088   -1.000
 5814.00    1.02028   1.00795   -1.000
 5815.00    1.01627   1.00543   -1.000
 5816.00    1.01626   1.00510   -1.000
 5817.00    1.01873   1.00751   -1.000
 5818.00    1.02028   1.01133   -1.000
 5819.00    1.02418   1.01457   -1.000
 5820.00    1.02456   1.01620   -1.000
 5821.00    1.02636   1.01648   -1.000
 5822.00    1.02653   1.01614   -1.000
 5823.00    1.02652   1.01574   -1.000
 5824.00    1.02217   1.01555  310.080
 5825.00    1.02282   1.01570  309.825
 5826.00    1.02630   1.01618   -1.000
 5827.00    1.02549   1.01692   -1.000
 5828.00    1.02817   1.01774   -1.000
 5829.00    1.02535   1.01831  310.056
 5830.00    1.02614   1.01826   -1.000
 5831.00    1.02653   1.01751   -1.000
 5832.00    1.02377   1.01612   -1.000
 5833.00    1.02505   1.01435   -1.000
 5834.00    1.02470   1.01281   -1.000
 5835.00    1.02618   1.01224   -1.000
 5836.00    1.02240   1.01276   -1.000
 5837.00    1.02471   1.01395   -1.000
 5838.00    1.02231   1.01543  311.759
 5839.00    1.02461   1.01701  309.310
 5840.00    1.02590   1.01832  307.806
 5841.00    1.02299   1.01878  308.070
 5842.00    1.02756   1.01803   -1.000
 5843.00    1.02761   1.01611   -1.000
 5844.00    1.02288   1.01340   -1.000
 5845.00    1.02236   1.01038   -1.000
 5846.00    1.02015   1.00771   -1.000
 5847.00    1.01894   1.00600   -1.000
 5848.00    1.02042   1.00526   -1.000
 5849.00    1.02109   1.00449   -1.000
 5850.00    1.02089   1.00229   -1.000
 5851.00    1.01624   0.99797   -1.000
 5852.00    1.00697   0.99258   -1.000
 5853.00    1.00266   0.98815   -1.000
 5854.00    1.00055   0.98531   -1.000
 5855.00    1.00124   0.98238   -1.000
 5856.00    0.99732   0.97806   -1.000
 5857.00    0.99171   0.97407   -1.000
 5858.00    0.99233   0.97361   -1.000
 5859.00    0.99970   0.97750   -1.000
 5860.00    1.00727   0.98348   -1.000
 5861.00    1.00823   0.98884   -1.000
 5862.00    1.00877   0.99254   -1.000
 5863.00    1.01183   0.99473   -1.000
 5864.00    1.01404   0.99537   -1.000
 5865.00    1.01206   0.99442   -1.000
 5866.00    1.00964   0.99303   -1.000
 5867.00    1.01047   0.99308   -1.000
 5868.00    1.01526   0.99528   -1.000
 5869.00    1.02050   0.99855   -1.000
 5870.00    1.02099   1.00119   -1.000
 5871.00    1.02255   1.00216   -1.000
 5872.00    1.02169   1.00152   -1.000
 5873.00    1.02097   0.99997   -1.000
 5874.00    1.01907   0.99819   -1.000
 5875.00    1.01797   0.99649   -1.000
 5876.00    1.01751   0.99479   -1.000
 5877.00    1.01720   0.99263   -1.000
 5878.00    1.01299   0.98974   -1.000
 5879.00    1.01009   0.98655   -1.000
 5880.00    1.00721   0.98377   -1.000
 5881.00    1.00554   0.98143   -1.000
 5882.00    1.00792   0.97891   -1.000
 5883.00    1.00702   0.97592   -1.000
 5884.00    1.00609   0.97255   -1.000
 5885.00    1.00233   0.96734   -1.000
 5886.00    0.99491   0.95567   -1.000
 5887.00    0.97134   0.93291   -1.000
 5888.00    0.94025   0.90170   -1.000
 5889.00    0.91326   0.87457   -1.000
 5890.00    0.90912   0.86485   -1.000
 5891.00    0.93256   0.87396   -1.000
 5892.00    0.95194   0.88968   -1.000
 5893.00    0.95669   0.89740   -1.000
 5894.00    0.94899   0.89266   -1.000
 5895.00    0.93236   0.88403   -1.000
 5896.00    0.93266   0.88413   -1.000
 5897.00    0.95201   0.89729   -1.000
 5898.00    0.97392   0.91748   -1.000
 5899.00    0.98807   0.93671   -1.000
 5900.00    0.99651   0.95151   -1.000
 5901.00    1.00391   0.96196   -1.000
 5902.00    1.00617   0.96895   -1.000
 5903.00    1.00683   0.97325   -1.000
 5904.00    1.00832   0.97569   -1.000
 5905.00    1.00900   0.97722   -1.000
 5906.00    1.00790   0.97857   -1.000
 5907.00    1.00717   0.98004   -1.000
 5908.00    1.00752   0.98153   -1.000
 5909.00    1.00813   0.98266   -1.000
 5910.00    1.00962   0.98279   -1.000
 5911.00    1.00901   0.98119   -1.000
 5912.00    1.00226   0.97744   -1.000
 5913.00    0.99445   0.97221   -1.000
 5914.00    0.99003   0.96745   -1.000
 5915.00    0.99001   0.96507   -1.000
 5916.00    0.99155   0.96566   -1.000
 5917.00    0.99126   0.96845   -1.000
 5918.00    0.99515   0.97215   -1.000
 5919.00    1.00164   0.97537   -1.000
 5920.00    0.99986   0.97728   -1.000
 5921.00    0.99876   0.97798   -1.000
 5922.00    1.00155   0.97825   -1.000
 5923.00    1.00351   0.97900   -1.000
 5924.00    1.00637   0.98054   -1.000
 5925.00    1.00758   0.98234   -1.000
 5926.00    1.00809   0.98328   -1.000
 5927.00    1.00744   0.98237   -1.000
 5928.00    1.00367   0.97970   -1.000
 5929.00    0.99537   0.97690   -1.000
 5930.00    0.99443   0.97597   -1.000
 5931.00    1.00158   0.97711   -1.000
 5932.00    1.00696   0.97857   -1.000
 5933.00    1.00165   0.97879   -1.000
 5934.00    0.99673   0.97818   -1.000
 5935.00    1.00087   0.97830   -1.000
 5936.00    1.00333   0.97977   -1.000
 5937.00    1.00448   0.98138   -1.000
 5938.00    1.00212   0.98144   -1.000
 5939.00    0.99578   0.97943   -1.000
 5940.00    0.99407   0.97633   -1.000
 5941.00    0.98891   0.97367   -1.000
 5942.00    0.99134   0.97266   -1.000
 5943.00    0.99432   0.97359   -1.000
 5944.00    0.99919   0.97562   -1.000
 5945.00    1.00101   0.97703   -1.000
 5946.00    0.99861   0.97652   -1.000
 5947.00    0.99610   0.97448   -1.000
 5948.00    0.99225   0.97278   -1.000
 5949.00    0.98839   0.97282   -1.000
 5950.00    0.99149   0.97405   -1.000
 5951.00    0.99426   0.97501   -1.000
 5952.00    0.99317   0.97525   -1.000
 5953.00    0.99333   0.97519   -1.000
 5954.00    0.98854   0.97492   -1.000
 5955.00    0.98922   0.97407   -1.000
 5956.00    0.98623   0.97303   -1.000
 5957.00    0.98960   0.97305   -1.000
 5958.00    0.98946   0.97494   -1.000
 5959.00    0.99953   0.97825   -1.000
 5960.00    1.00327   0.98176   -1.000
 5961.00    1.00542   0.98436   -1.000
 5962.00    1.00734   0.98539   -1.000
 5963.00    1.00483   0.98467   -1.000
 5964.00    1.00044   0.98269   -1.000
 5965.00    0.99663   0.98056   -1.000
 5966.00    0.99420   0.97945   -1.000
 5967.00    0.99647   0.97979   -1.000
 5968.00    0.99976   0.98116   -1.000
 5969.00    1.00083   0.98293   -1.000
 5970.00    1.00378   0.98464   -1.000
 5971.00    1.00766   0.98579   -1.000
 5972.00    1.00784   0.98586   -1.000
 5973.00    1.00159   0.98442   -1.000
 5974.00    0.99721   0.98135   -1.000
 5975.00    0.99346   0.97728   -1.000
 5976.00    0.98853   0.97373   -1.000
 5977.00    0.98576   0.97228   -1.000
 5978.00    0.98814   0.97343   -1.000
 5979.00    0.99103   0.97617   -1.000
 5980.00    0.99258   0.97842   -1.000
 5981.00    0.99444   0.97825   -1.000
 5982.00    0.99210   0.97532   -1.000
 5983.00    0.98522   0.97126   -1.000
 5984.00    0.98019   0.96855   -1.000
 5985.00    0.98138   0.96862   -1.000
 5986.00    0.98457   0.97094   -1.000
 5987.00    0.98926   0.97389   -1.000
 5988.00    0.99224   0.97609   -1.000
 5989.00    0.99028   0.97698   -1.000
 5990.00    0.99116   0.97702   -1.000
 5991.00    0.99000   0.97752   -1.000
 5992.00    0.98942   0.97945   -1.000
 5993.00    0.99443   0.98221   -1.000
 5994.00    0.99460   0.98393   -1.000
 5995.00    0.99329   0.98336   -1.000
 5996.00    0.99229   0.98107   -1.000
 5997.00    0.99002   0.97879   -1.000
 5998.00    0.98951   0.97784   -1.000
 5999.00    0.98930   0.97803   -1.000
 6000.00    0.99135   0.97811   -1.000
 6001.00    0.98958   0.97723   -1.000
 6002.00    0.98678   0.97575   -1.000
 6003.00    0.98312   0.97453   -1.000
 6004.00    0.98191   0.97357   -1.000
 6005.00    0.98288   0.97182   -1.000
 6006.00    0.97920   0.96881   -1.000
 6007.00    0.97495   0.96602   -1.000
 6008.00    0.97300   0.96575  330.921
 6009.00    0.97660   0.96850   -1.000
 6010.00    0.98409   0.97204   -1.000
 6011.00    0.98519   0.97376   -1.000
 6012.00    0.98268   0.97334   -1.000
 6013.00    0.98225   0.97237   -1.000
 6014.00    0.97895   0.97202  330.979
 6015.00    0.98101   0.97199   -1.000
 6016.00    0.98120   0.97154   -1.000
 6017.00    0.97900   0.97039   -1.000
 6018.00    0.97914   0.96863   -1.000
 6019.00    0.97854   0.96663   -1.000
 6020.00    0.97438   0.96513   -1.000
 6021.00    0.97112   0.96477  331.390
 6022.00    0.97146   0.96559  330.955
 6023.00    0.97243   0.96740  330.499
 6024.00    0.97380   0.97004  328.264
 6025.00    0.97684   0.97312  327.487
 6026.00    0.97897   0.97604  325.191
 6027.00    0.98433   0.97851  323.950
 6028.00    0.98535   0.98053  323.648
 6029.00    0.98749   0.98210  323.816
 6030.00    0.98726   0.98327  324.652
 6031.00    0.98612   0.98418  323.796
 6032.00    0.98829   0.98502  322.258
 6033.00    0.98952   0.98590  321.581
 6034.00    0.99004   0.98681  321.522
 6035.00    0.98787   0.98740  320.844
 6036.00    0.99237   0.98708  321.410
 6037.00    0.99239   0.98568  323.453
 6038.00    0.98931   0.98351  323.871
 6039.00    0.98860   0.98103   -1.000
 6040.00    0.98442   0.97829  323.967
 6041.00    0.98270   0.97515   -1.000
 6042.00    0.98321   0.97255   -1.000
 6043.00    0.98557   0.97279   -1.000
 6044.00    0.98772   0.97664   -1.000
 6045.00    0.98906   0.98174   -1.000
 6046.00    0.98921   0.98539  319.101
 6047.00    0.98961   0.98691  319.592
 6048.00    0.98856   0.98692  320.819
 6049.00    0.98765   0.98617  321.437
 6050.00    0.98717   0.98521  321.679
 6051.00    0.98654   0.98419  322.378
 6052.00    0.98876   0.98286  323.802
 6053.00    0.98742   0.98099  324.735
 6054.00    0.98314   0.97876  326.679
 6055.00    0.97921   0.97679  327.460
 6056.00    0.97825   0.97580  326.648
 6057.00    0.98070   0.97612  324.754
 6058.00    0.98212   0.97742  323.179
 6059.00    0.98686   0.97882   -1.000
 6060.00    0.97035   0.97920  324.743
 6061.00    0.96063   0.97753   -1.000
 6062.00    0.98667   0.97348   -1.000
 6063.00    1.00859   0.96805   -1.000
 6064.00    0.68365   0.96360   -1.000
 6065.00    0.59858   0.96279   -1.000
 6066.00    1.09867   0.96647   -1.000
 6067.00    0.97216   0.97278  323.951
 6068.00    0.99282   0.97870   -1.000
 6069.00    0.98958   0.98259  314.472
 6070.00    0.99876   0.98460   -1.000
 6071.00    0.98573   0.98552  319.633
 6072.00    0.98578   0.98587  320.808
 6073.00    0.98478   0.98578  321.011
 6074.00    0.98346   0.98502  322.256
 6075.00    0.98200   0.98316  324.011
 6076.00    0.98045   0.98023  325.902
 6077.00    0.97759   0.97702  328.533
 6078.00    0.97185   0.97449  330.380
 6079.00    0.96879   0.97292  330.298
 6080.00    0.96899   0.97175  330.680
 6081.00    0.96791   0.97040  331.697
 6082.00    0.96599   0.96908  331.500
 6083.00    0.96240   0.96839  331.246
 6084.00    0.96414   0.96861  330.859
 6085.00    0.96462   0.96957  329.793
 6086.00    0.96699   0.97091  328.479
 6087.00    0.96750   0.97204  329.479
 6088.00    0.96713   0.97224  331.628
 6089.00    0.96701   0.97119  332.864
 6090.00    0.96558   0.96951  332.410
 6091.00    0.96317   0.96845  330.022
 6092.00    0.96389   0.96890  328.483
 6093.00    0.96674   0.97078  326.581
 6094.00    0.96814   0.97330  325.292
 6095.00    0.97208   0.97566  325.651
 6096.00    0.97493   0.97754  326.521
 6097.00    0.97186   0.97871  326.620
 6098.00    0.97069   0.97834  326.764
 6099.00    0.97144   0.97486  331.407
 6100.00    0.96375   0.96736  340.027
 6101.00    0.95095   0.95761  344.698
 6102.00    0.93972   0.95019   -1.000
 6103.00    0.93899   0.94912  334.072
 6104.00    0.94907   0.95426  329.430
 6105.00    0.95902   0.96187  328.893
 6106.00    0.96366   0.96835  330.413
 6107.00    0.96437   0.97270  331.084
 6108.00    0.95987   0.97549   -1.000
 6109.00    0.96195   0.97706   -1.000
 6110.00    0.96573   0.97737   -1.000
 6111.00    0.96721   0.97683  328.578
 6112.00    0.96628   0.97638  326.581
 6113.00    0.96829   0.97647  326.050
 6114.00    0.96913   0.97674  327.622
 6115.00    0.96749   0.97673  329.830
 6116.00    0.96566   0.97612   -1.000
 6117.00    0.96321   0.97418   -1.000
 6118.00    0.96140   0.96960  337.254
 6119.00    0.95690   0.96180  341.446
 6120.00    0.94661   0.95229  344.439
 6121.00    0.93412   0.94475   -1.000
 6122.00    0.93104   0.94307   -1.000
 6123.00    0.93846   0.94785  333.852
 6124.00    0.94947   0.95553  334.388
 6125.00    0.95309   0.96170  336.471
 6126.00    0.95295   0.96433   -1.000
 6127.00    0.94990   0.96421   -1.000
 6128.00    0.95194   0.96397   -1.000
 6129.00    0.95808   0.96602  328.743
 6130.00    0.96015   0.97026  328.465
 6131.00    0.96362   0.97422   -1.000
 6132.00    0.96265   0.97497   -1.000
 6133.00    0.95632   0.97018   -1.000
 6134.00    0.94558   0.95906   -1.000
 6135.00    0.92860   0.94427   -1.000
 6136.00    0.90856   0.93218   -1.000
 6137.00    0.90150   0.92838   -1.000
 6138.00    0.91611   0.93242   -1.000
 6139.00    0.93375   0.93869  336.683
 6140.00    0.94188   0.94283  337.774
 6141.00    0.93748   0.94576  338.078
 6142.00    0.93479   0.95046   -1.000
 6143.00    0.94243   0.95705   -1.000
 6144.00    0.95216   0.96278   -1.000
 6145.00    0.95822   0.96524  332.063
 6146.00    0.95648   0.96427  334.245
 6147.00    0.95592   0.96141  336.685
 6148.00    0.95228   0.95857  338.491
 6149.00    0.94899   0.95719  338.191
 6150.00    0.94710   0.95771   -1.000
 6151.00    0.94749   0.95942   -1.000
 6152.00    0.95035   0.96086   -1.000
 6153.00    0.95325   0.96075  337.610
 6154.00    0.95215   0.95905  339.044
 6155.00    0.95050   0.95674  339.155
 6156.00    0.95071   0.95462  340.871
 6157.00    0.94841   0.95221  344.928
 6158.00    0.94662   0.94755  352.097
 6159.00    0.94055   0.93848  363.333
 6160.00    0.92799   0.92538  373.406
 6161.00    0.91337   0.91282  375.551
 6162.00    0.89961   0.90674  368.589
 6163.00    0.90264   0.90931  358.076
 6164.00    0.91598   0.91741  353.503
 6165.00    0.92739   0.92576  352.558
 6166.00    0.93156   0.93060  353.947
 6167.00    0.92891   0.93088  359.046
 6168.00    0.92274   0.92822  362.137
 6169.00    0.91589   0.92621   -1.000
 6170.00    0.91538   0.92789   -1.000
 6171.00    0.92763   0.93322  346.704
 6172.00    0.93320   0.93966  347.753
 6173.00    0.93910   0.94497  347.849
 6174.00    0.94184   0.94852  346.849
 6175.00    0.94182   0.95061  346.230
 6176.00    0.94485   0.95179  345.199
 6177.00    0.94778   0.95264  343.400
 6178.00    0.94832   0.95341  342.254
 6179.00    0.94643   0.95426  341.144
 6180.00    0.94728   0.95541  339.509
 6181.00    0.94941   0.95680  338.854
 6182.00    0.95273   0.95791  339.781
 6183.00    0.95345   0.95809  341.102
 6184.00    0.95200   0.95702  344.119
 6185.00    0.95005   0.95471  348.012
 6186.00    0.94751   0.95141  351.537
 6187.00    0.94332   0.94719  354.805
 6188.00    0.93998   0.94168  357.354
 6189.00    0.93334   0.93494  362.299
 6190.00    0.92043   0.92899  363.821
 6191.00    0.91410   0.92715   -1.000
 6192.00    0.91777   0.93105   -1.000
 6193.00    0.93033   0.93882  344.259
 6194.00    0.94138   0.94678  342.673
 6195.00    0.94710   0.95230  342.492
 6196.00    0.94759   0.95449  345.237
 6197.00    0.94246   0.95350   -1.000
 6198.00    0.93957   0.95058   -1.000
 6199.00    0.93406   0.94815   -1.000
 6200.00    0.92990   0.94835   -1.000
 6201.00    0.93389   0.95136   -1.000
 6202.00    0.93930   0.95549   -1.000
 6203.00    0.94733   0.95893   -1.000
 6204.00    0.94841   0.96096   -1.000
 6205.00    0.94629   0.96187   -1.000
 6206.00    0.94704   0.96220   -1.000
 6207.00    0.94784   0.96212   -1.000
 6208.00    0.94584   0.96130   -1.000
 6209.00    0.94601   0.95930   -1.000
 6210.00    0.94343   0.95566   -1.000
 6211.00    0.93689   0.95024   -1.000
 6212.00    0.92844   0.94372   -1.000
 6213.00    0.91954   0.93774   -1.000
 6214.00    0.91802   0.93401   -1.000
 6215.00    0.92027   0.93292   -1.000
 6216.00    0.92263   0.93326   -1.000
 6217.00    0.92142   0.93332   -1.000
 6218.00    0.92184   0.93252   -1.000
 6219.00    0.92127   0.93188   -1.000
 6220.00    0.91965   0.93279   -1.000
 6221.00    0.92765   0.93538  388.937
 6222.00    0.93303   0.93842  368.856
 6223.00    0.93510   0.94072  352.887
 6224.00    0.93295   0.94204   -1.000
 6225.00    0.93248   0.94240   -1.000
 6226.00    0.93489   0.94117  357.077
 6227.00    0.93101   0.93722  362.428
 6228.00    0.92275   0.93025  368.487
 6229.00    0.91547   0.92215  372.566
 6230.00    0.90627   0.91649   -1.000
 6231.00    0.90227   0.91619   -1.000
 6232.00    0.90698   0.92133   -1.000
 6233.00    0.91601   0.92919   -1.000
 6234.00    0.92688   0.93608  350.779
 6235.00    0.93275   0.93935  353.727
 6236.00    0.93246   0.93845  357.422
 6237.00    0.92837   0.93481  361.048
 6238.00    0.92253   0.93065  364.795
 6239.00    0.91828   0.92763   -1.000
 6240.00    0.91422   0.92594   -1.000
 6241.00    0.91036   0.92440   -1.000
 6242.00    0.90933   0.92181   -1.000
 6243.00    0.90865   0.91812   -1.000
 6244.00    0.90782   0.91468  367.504
 6245.00    0.90475   0.91352  363.633
 6246.00    0.90469   0.91599   -1.000
 6247.00    0.91059   0.92151   -1.000
 6248.00    0.91961   0.92746  355.878
 6249.00    0.92422   0.93054  359.869
 6250.00    0.91647   0.92890   -1.000
 6251.00    0.90700   0.92346   -1.000
 6252.00    0.89741   0.91721   -1.000
 6253.00    0.89002   0.91287   -1.000
 6254.00    0.88955   0.91109   -1.000
 6255.00    0.89046   0.91079   -1.000
 6256.00    0.88955   0.91091   -1.000
 6257.00    0.88707   0.91160   -1.000
 6258.00    0.88481   0.91381   -1.000
 6259.00    0.89213   0.91801   -1.000
 6260.00    0.90278   0.92360   -1.000
 6261.00    0.91051   0.92923   -1.000
 6262.00    0.91383   0.93347   -1.000
 6263.00    0.91828   0.93553   -1.000
 6264.00    0.91542   0.93590   -1.000
 6265.00    0.91406   0.93601   -1.000
 6266.00    0.91402   0.93659   -1.000
 6267.00    0.91625   0.93699   -1.000
 6268.00    0.91869   0.93628   -1.000
 6269.00    0.91721   0.93466   -1.000
 6270.00    0.91672   0.93318   -1.000
 6271.00    0.91679   0.93229   -1.000
 6272.00    0.91482   0.93110   -1.000
 6273.00    0.91257   0.92811   -1.000
 6274.00    0.90068   0.92267   -1.000
 6275.00    0.88662   0.91544   -1.000
 6276.00    0.87179   0.90799   -1.000
 6277.00    0.86780   0.90185   -1.000
 6278.00    0.86783   0.89807   -1.000
 6279.00    0.87093   0.89736   -1.000
 6280.00    0.87544   0.90005   -1.000
 6281.00    0.88387   0.90580   -1.000
 6282.00    0.89123   0.91336   -1.000
 6283.00    0.90157   0.92098   -1.000
 6284.00    0.91014   0.92732   -1.000
 6285.00    0.91329   0.93190   -1.000
 6286.00    0.91514   0.93480   -1.000
 6287.00    0.91470   0.93592   -1.000
 6288.00    0.91369   0.93499   -1.000
 6289.00    0.91311   0.93238   -1.000
 6290.00    0.91041   0.92924   -1.000
 6291.00    0.90655   0.92680   -1.000
 6292.00    0.90362   0.92541   -1.000
 6293.00    0.90059   0.92434   -1.000
 6294.00    0.90469   0.92251   -1.000
 6295.00    0.90652   0.91957   -1.000
 6296.00    0.90840   0.91632  368.777
 6297.00    0.91597   0.91388  368.040
 6298.00    0.93247   0.91248   -1.000
 6299.00    0.94581   0.91144   -1.000
 6300.00    0.94263   0.91057   -1.000
 6301.00    0.92000   0.91093   -1.000
 6302.00    0.90189   0.91367   -1.000
 6303.00    0.89973   0.91848   -1.000
 6304.00    0.90363   0.92374   -1.000
 6305.00    0.90820   0.92812   -1.000
 6306.00    0.91212   0.93127   -1.000
 6307.00    0.91601   0.93329   -1.000
 6308.00    0.91592   0.93420   -1.000
 6309.00    0.91503   0.93400   -1.000
 6310.00    0.91327   0.93290   -1.000
 6311.00    0.91045   0.93110   -1.000
 6312.00    0.90741   0.92871   -1.000
 6313.00    0.90541   0.92578   -1.000
 6314.00    0.90323   0.92266   -1.000
 6315.00    0.90117   0.91973   -1.000
 6316.00    0.89957   0.91738   -1.000
 6317.00    0.90016   0.91639   -1.000
 6318.00    0.89906   0.91773   -1.000
 6319.00    0.90325   0.92137   -1.000
 6320.00    0.90784   0.92604   -1.000
 6321.00    0.91021   0.93048   -1.000
 6322.00    0.90981   0.93438   -1.000
 6323.00    0.91404   0.93780   -1.000
 6324.00    0.91952   0.94030   -1.000
 6325.00    0.92332   0.94147   -1.000
 6326.00    0.92448   0.94146   -1.000
 6327.00    0.92247   0.94090   -1.000
 6328.00    0.92335   0.94036   -1.000
 6329.00    0.92530   0.94017   -1.000
 6330.00    0.92813   0.94039   -1.000
 6331.00    0.92628   0.94037   -1.000
 6332.00    0.92395   0.93871   -1.000
 6333.00    0.90392   0.93440   -1.000
 6334.00    0.91506   0.92840   -1.000
 6335.00    0.91125   0.92353   -1.000
 6336.00    0.90772   0.92227   -1.000
 6337.00    0.91220   0.92477   -1.000
 6338.00    0.91997   0.92923  345.782
 6339.00    0.92537   0.93353  344.349
 6340.00    0.93025   0.93630  342.780
 6341.00    0.93198   0.93701  343.504
 6342.00    0.93136   0.93593  346.729
 6343.00    0.93079   0.93396  346.762
 6344.00    0.92764   0.93227  345.603
 6345.00    0.92852   0.93180  343.591
 6346.00    0.93292   0.93307  341.210
 6347.00    0.93619   0.93606  340.158
 6348.00    0.93851   0.94001  340.308
 6349.00    0.93977   0.94365  339.535
 6350.00    0.94123   0.94575  340.079
 6351.00    0.93912   0.94566  341.673
 6352.00    0.93674   0.94358  343.432
 6353.00    0.93624   0.94048  347.599
 6354.00    0.93108   0.93750  350.224
 6355.00    0.92781   0.93515  350.148
 6356.00    0.92619   0.93300  351.544
 6357.00    0.92490   0.93054  355.696
 6358.00    0.92034   0.92784  356.647
 6359.00    0.92514   0.92535  354.948
 6360.00    0.92900   0.92332  353.938
 6361.00    0.93583   0.92200   -1.000
 6362.00    0.94329   0.92193   -1.000
 6363.00    0.94539   0.92354   -1.000
 6364.00    0.94124   0.92653   -1.000
 6365.00    0.93799   0.93003  345.716
 6366.00    0.93333   0.93308  343.459
 6367.00    0.93278   0.93494  341.277
 6368.00    0.93167   0.93534  340.643
 6369.00    0.93306   0.93482  340.877
 6370.00    0.93237   0.93451  339.544
 6371.00    0.93287   0.93535  338.382
 6372.00    0.93229   0.93729  339.468
 6373.00    0.93428   0.93935  339.681
 6374.00    0.93256   0.94044  340.520
 6375.00    0.93194   0.94014  341.878
 6376.00    0.92906   0.93876  343.717
 6377.00    0.92641   0.93688   -1.000
 6378.00    0.92388   0.93497   -1.000
 6379.00    0.92089   0.93338   -1.000
 6380.00    0.91725   0.93235   -1.000
 6381.00    0.91561   0.93196   -1.000
 6382.00    0.91431   0.93212   -1.000
 6383.00    0.91140   0.93276   -1.000
 6384.00    0.90969   0.93386   -1.000
 6385.00    0.90939   0.93537   -1.000
 6386.00    0.90564   0.93693   -1.000
 6387.00    0.90404   0.93792   -1.000
 6388.00    0.90135   0.93776   -1.000
 6389.00    0.89796   0.93586   -1.000
 6390.00    0.89170   0.93180   -1.000
 6391.00    0.88424   0.92618   -1.000
 6392.00    0.87274   0.92121   -1.000
 6393.00    0.86596   0.91960   -1.000
 6394.00    0.86495   0.92209   -1.000
 6395.00    0.86575   0.92645   -1.000
 6396.00    0.86891   0.92900   -1.000
 6397.00    0.86525   0.92751   -1.000
 6398.00    0.85521   0.92309   -1.000
 6399.00    0.83974   0.91947   -1.000
 6400.00    0.83216   0.91991   -1.000
 6401.00    0.83474   0.92464   -1.000
 6402.00    0.84354   0.93093   -1.000
 6403.00    0.84866   0.93548   -1.000
 6404.00    0.84599   0.93636   -1.000
 6405.00    0.84115   0.93358   -1.000
 6406.00    0.83384   0.92858   -1.000
 6407.00    0.82348   0.92375   -1.000
 6408.00    0.81752   0.92129   -1.000
 6409.00    0.81438   0.92145   -1.000
 6410.00    0.80915   0.92285   -1.000
 6411.00    0.80288   0.92428   -1.000
 6412.00    0.79860   0.92557   -1.000
 6413.00    0.79384   0.92675   -1.000
 6414.00    0.79146   0.92779   -1.000
 6415.00    0.78841   0.92872   -1.000
 6416.00    0.78240   0.92920   -1.000
 6417.00    0.77659   0.92837   -1.000
 6418.00    0.76980   0.92575   -1.000
 6419.00    0.75925   0.92245   -1.000
 6420.00    0.74687   0.92084   -1.000
 6421.00    0.73739   0.92268   -1.000
 6422.00    0.73359   0.92749   -1.000
 6423.00    0.73557   0.93319   -1.000
 6424.00    0.73333   0.93795   -1.000
 6425.00    0.73017   0.94097   -1.000
 6426.00    0.72258   0.94177   -1.000
 6427.00    0.71284   0.93957   -1.000
 6428.00    0.70708   0.93426   -1.000
