###################################################################
## OUTPUT of StarlightChains_v04.for    [Cid@UFSC - 01/Apr/2007] ##
###################################################################

## Some input info
NGC5286_a_1.cxt                          [arq_obs]
Base.BC03.S                              [arq_base]
NGC5286_a_1.msk                          [arq_masks]
StCv04.C99.config                        [arq_config]
  150                                    [N_base]
    0                                    [N_YAV_components = # of components with extra extinction!]
    0                                    [i_FitPowerLaw (1/0 = Yes/No)]
-9.99                                    [alpha_PowerLaw]
CCM                                      [red_law_option]
 1.458241                                [q_norm = A(l_norm)/A(V)]

## (Re)Sampling Parameters
 3359.00                                 [l_ini (A)]
 6428.00                                 [l_fin (A)]
    1.00                                 [dl    (A)]     (OBS: dl_cushion =    50.00 A)

## Normalization info
 4020.00                                 [l_norm (A) - for base]
 4010.00                                 [llow_norm (A) - window for f_obs]
 4060.00                                 [lupp_norm (A) - window for f_obs]
3.810619E-14                             [fobs_norm (in input units)]

## S/N
 4730.00                                 [llow_SN (A) - window for S/N]
 4780.00                                 [lupp_SN (A) - window for S/N]
 122.361                                 [S/N in S/N window]
 104.972                                 [S/N in norm. window]
 167.801                                 [S/N_err in S/N window]
 143.955                                 [S/N_err in norm. window]
  1.0000                                 [fscale_chi2]

## etc...
  2147483638                             [idum_orig]
  3066                                   [NOl_eff]
  1534                                   [Nl_eff]
  1532    NSIGMA                         [Ntot_cliped & clip_method]
  2992500                                [Nglobal_steps]
   7                                     [N_chains]
  15                                     [NEX0s_base = N_base in EX0s-fits]
 0   0   1      194   2.0   3.183E+02    [Clip-Bug, RC-Crash & Burn-In warning-flags, n_censored_weights, wei_nsig_threshold & wei_limit]
   153    152.276    152.264      0.012  [idt_all, wdt_TotTime, wdt_UsrTime & wdt_SysTime (sec)]

## Synthesis Results - Best model ##

 2.55198E+00                             [chi2/Nl_eff]
     1.09315                             [adev (%)]

    99.87675                             [sum-of-x (%)]
 1.24062E-13                             [Flux_tot (units of input spectrum!)]
 1.43464E-09                             [Mini_tot (???)]
 7.37399E-10                             [Mcor_tot (???)]

 -24.65                                  [v0_min  (km/s)]
  51.53                                  [vd_min  (km/s)]
 0.8798                                  [AV_min  (mag)]
 0.0000                                  [YAV_min (mag)]

# j     x_j(%)      Mini_j(%)     Mcor_j(%)     age_j(yr)     Z_j      (L/M)_j    YAV?  Mstars   component_j        a/Fe...       SSP_chi2r SSP_adev(%)   SSP_AV   SSP_x(%)
  1      0.0000     0.0000E+00    0.0000E+00    1.000000E+06  0.00010  8.160E-03    0   1.0000   age020_m22            0.0000     4.5227E+02    11.7780   4.0000    77.3896
  2     15.9458     2.9011E-02    5.6442E-02    3.160000E+06  0.00010  4.759E-02    0   1.0000   age045_m22            0.0000     4.5191E+01     3.9898   2.0879    95.5063
  3      0.0874     3.9167E-04    7.3016E-04    5.010000E+06  0.00010  1.932E-02    0   0.9582   age055_m22            0.0000     4.1072E+02    11.7944   2.4035    81.8993
  4      0.0000     0.0000E+00    0.0000E+00    6.610000E+06  0.00010  9.973E-03    0   0.9297   age061_m22            0.0000     4.4930E+02    12.1394   4.0000    79.5487
  5      0.0000     0.0000E+00    0.0000E+00    8.710000E+06  0.00010  7.690E-03    0   0.9030   age067_m22            0.0000     4.2223E+02    11.7951   4.0000    79.8223
  6      0.0000     0.0000E+00    0.0000E+00    1.000000E+07  0.00010  6.375E-03    0   0.8902   age070_m22            0.0000     4.0356E+02    11.4754   4.0000    80.2919
  7      0.0000     0.0000E+00    0.0000E+00    1.445000E+07  0.00010  4.874E-03    0   0.8589   age078_m22            0.0000     2.8734E+02     9.9173   3.8794    81.8817
  8      0.0000     0.0000E+00    0.0000E+00    2.512000E+07  0.00010  4.103E-03    0   0.8174   age090_m22            0.0000     1.1166E+02     6.5492   3.4596    88.7619
  9      0.0000     0.0000E+00    0.0000E+00    4.000000E+07  0.00010  3.654E-03    0   0.7830   age104_m22            0.0000     4.8250E+01     4.1282   3.1486    94.1478
 10      0.0000     0.0000E+00    0.0000E+00    5.500000E+07  0.00010  3.093E-03    0   0.7597   age110_m22            0.0000     4.2188E+01     3.5632   3.0422    95.9283
 11      1.3793     4.9127E-02    6.8224E-02    1.015200E+08  0.00010  2.431E-03    0   0.7138   age116_m22            0.0000     5.6657E+01     3.5242   2.6844    99.3573
 12      0.0000     0.0000E+00    0.0000E+00    1.609000E+08  0.00010  1.319E-03    0   0.6775   age120_m22            0.0000     5.6703E+01     3.3681   2.2048   101.7227
 13      0.0000     0.0000E+00    0.0000E+00    2.861200E+08  0.00010  1.075E-03    0   0.6412   age125_m22            0.0000     2.3900E+02     7.2188   2.2578   106.0201
 14      0.0000     0.0000E+00    0.0000E+00    5.088000E+08  0.00010  7.183E-04    0   0.6083   age130_m22            0.0000     3.2185E+02     8.5834   2.0281   107.7852
 15      0.0197     3.7644E-03    4.2368E-03    9.047900E+08  0.00010  4.524E-04    0   0.5785   age135_m22            0.0000     3.3088E+02     8.7746   1.8271   108.9934
 16      0.0000     0.0000E+00    0.0000E+00    1.278050E+09  0.00010  3.018E-04    0   0.5588   age138_m22            0.0000     1.3259E+02     5.5400   1.3068   106.5479
 17      0.0000     0.0000E+00    0.0000E+00    1.434000E+09  0.00010  2.691E-04    0   0.5532   age139_m22            0.0000     1.0299E+02     4.8998   1.1546   105.7688
 18      0.0000     0.0000E+00    0.0000E+00    2.500000E+09  0.00010  1.582E-04    0   0.5296   age150_m22            0.0000     7.7040E+01     4.0996   1.0397   106.5201
 19      0.0000     0.0000E+00    0.0000E+00    4.250000E+09  0.00010  1.007E-04    0   0.5110   age158_m22            0.0000     3.0067E+01     2.6856   0.8974   104.2911
 20      0.0000     0.0000E+00    0.0000E+00    6.250000E+09  0.00010  6.869E-05    0   0.4985   age166_m22            0.0000     6.8296E+00     1.4448   0.8486   101.0122
 21      0.0000     0.0000E+00    0.0000E+00    7.500000E+09  0.00010  5.873E-05    0   0.4931   age171_m22            0.0000     5.0444E+00     1.2769   0.8364   100.4627
 22      0.0107     2.0701E-02    1.9549E-02    1.000000E+10  0.00010  4.481E-05    0   0.4854   age181_m22            0.0000     4.7768E+00     1.2723   0.7992   100.0585
 23      0.0000     0.0000E+00    0.0000E+00    1.300000E+10  0.00010  3.489E-05    0   0.4791   age193_m22            0.0000     4.4051E+00     1.2620   0.7450    99.4005
 24      0.0221     6.3177E-02    5.8581E-02    1.500000E+10  0.00010  3.035E-05    0   0.4766   age201_m22            0.0000     4.2290E+00     1.2606   0.7069    99.1629
 25      0.0078     2.7015E-02    2.4887E-02    1.800000E+10  0.00010  2.510E-05    0   0.4735   age213_m22            0.0000     4.4700E+00     1.3108   0.6411    98.4308
 26      0.0000     0.0000E+00    0.0000E+00    1.000000E+06  0.00040  8.458E-03    0   1.0000   age020_m32            0.0000     4.5328E+02    11.7944   4.0000    78.3843
 27      0.0000     0.0000E+00    0.0000E+00    3.160000E+06  0.00040  3.973E-02    0   1.0000   age045_m32            0.0000     1.3039E+02     6.9911   3.3637    88.5754
 28      0.0000     0.0000E+00    0.0000E+00    5.010000E+06  0.00040  1.935E-02    0   0.9532   age055_m32            0.0000     3.3389E+02    10.8216   3.5980    82.4169
 29      0.0000     0.0000E+00    0.0000E+00    6.610000E+06  0.00040  1.204E-02    0   0.9243   age061_m32            0.0000     3.6667E+02    11.1598   3.9164    80.3310
 30      0.0000     0.0000E+00    0.0000E+00    8.710000E+06  0.00040  9.433E-03    0   0.9001   age067_m32            0.0000     3.2602E+02    10.5631   3.8871    81.2576
 31      0.0000     0.0000E+00    0.0000E+00    1.000000E+07  0.00040  8.053E-03    0   0.8877   age070_m32            0.0000     3.1032E+02    10.3236   3.8493    81.7606
 32      0.0000     0.0000E+00    0.0000E+00    1.445000E+07  0.00040  7.027E-03    0   0.8578   age078_m32            0.0000     1.7781E+02     8.1480   3.3134    87.3994
 33      0.0000     0.0000E+00    0.0000E+00    2.512000E+07  0.00040  4.707E-03    0   0.8166   age090_m32            0.0000     9.1294E+01     6.0826   3.0088    91.7045
 34      0.0000     0.0000E+00    0.0000E+00    4.000000E+07  0.00040  3.714E-03    0   0.7827   age104_m32            0.0000     4.4121E+01     4.0931   2.7968    95.5367
 35      0.0000     0.0000E+00    0.0000E+00    5.500000E+07  0.00040  2.982E-03    0   0.7593   age110_m32            0.0000     3.8340E+01     3.5412   2.7310    96.9276
 36      0.0000     0.0000E+00    0.0000E+00    1.015200E+08  0.00040  2.188E-03    0   0.7143   age116_m32            0.0000     9.4365E+01     4.3167   2.4538   101.9340
 37      0.0000     0.0000E+00    0.0000E+00    1.609000E+08  0.00040  1.690E-03    0   0.6856   age120_m32            0.0000     1.7116E+02     5.8027   2.2364   105.2022
 38      0.0000     0.0000E+00    0.0000E+00    2.861200E+08  0.00040  1.152E-03    0   0.6509   age125_m32            0.0000     2.6135E+02     7.6188   2.0139   107.1171
 39      0.0000     0.0000E+00    0.0000E+00    5.088000E+08  0.00040  7.331E-04    0   0.6182   age130_m32            0.0000     3.0059E+02     8.3426   1.8513   107.7914
 40      0.0000     0.0000E+00    0.0000E+00    9.047900E+08  0.00040  3.960E-04    0   0.5890   age135_m32            0.0000     1.4982E+02     6.1368   1.4036   105.5864
 41      0.0115     3.4812E-03    3.8516E-03    1.278050E+09  0.00040  2.854E-04    0   0.5687   age138_m32            0.0000     9.8950E+01     4.8058   1.1080   107.4585
 42      0.0000     0.0000E+00    0.0000E+00    1.434000E+09  0.00040  2.531E-04    0   0.5632   age139_m32            0.0000     9.4470E+01     4.6550   1.0465   107.4594
 43      4.7971     2.7913E+00    2.9249E+00    2.500000E+09  0.00040  1.488E-04    0   0.5386   age150_m32            0.0000     5.8667E+01     3.7426   0.7978   105.3307
 44     61.9764     5.9085E+01    5.9764E+01    4.250000E+09  0.00040  9.082E-05    0   0.5199   age158_m32            0.0000     9.0879E+00     1.7429   0.7144   101.1520
 45     14.6918     1.9995E+01    1.9746E+01    6.250000E+09  0.00040  6.362E-05    0   0.5076   age166_m32            0.0000     1.0471E+01     1.8173   0.6834    97.1624
 46      0.0000     0.0000E+00    0.0000E+00    7.500000E+09  0.00040  5.289E-05    0   0.5027   age171_m32            0.0000     1.5722E+01     2.0777   0.6504    95.7579
 47      0.0019     4.0793E-03    3.9270E-03    1.000000E+10  0.00040  3.972E-05    0   0.4948   age181_m32            0.0000     2.0723E+01     2.2741   0.5909    94.2960
 48      0.0000     0.0000E+00    0.0000E+00    1.300000E+10  0.00040  3.283E-05    0   0.4870   age193_m32            0.0000     9.2391E+00     1.7933   0.5422    97.2846
 49      0.0000     0.0000E+00    0.0000E+00    1.500000E+10  0.00040  2.925E-05    0   0.4854   age201_m32            0.0000     8.0260E+00     1.7492   0.5208    99.0520
 50      0.0014     4.8736E-03    4.5693E-03    1.800000E+10  0.00040  2.469E-05    0   0.4819   age213_m32            0.0000     9.5019E+00     1.8760   0.4801    99.6217
 51      0.0000     0.0000E+00    0.0000E+00    1.000000E+06  0.00400  1.114E-02    0   1.0000   age020_m42            0.0000     4.1758E+02    11.4985   4.0000    77.3905
 52      0.0000     0.0000E+00    0.0000E+00    3.160000E+06  0.00400  4.073E-02    0   0.9999   age045_m42            0.0000     7.6732E+01     5.4018   3.0682    91.2913
 53      0.0000     0.0000E+00    0.0000E+00    5.010000E+06  0.00400  2.534E-02    0   0.9488   age055_m42            0.0000     2.0889E+02     8.5308   3.4774    84.6265
 54      0.0000     0.0000E+00    0.0000E+00    6.610000E+06  0.00400  2.583E-02    0   0.9220   age061_m42            0.0000     5.4601E+01     4.5893   2.8736    92.4866
 55      0.0000     0.0000E+00    0.0000E+00    8.710000E+06  0.00400  1.706E-02    0   0.8983   age067_m42            0.0000     1.1571E+02     6.7038   2.6986    90.4856
 56      0.0000     0.0000E+00    0.0000E+00    1.000000E+07  0.00400  1.271E-02    0   0.8862   age070_m42            0.0000     1.8824E+02     8.5878   2.6858    88.9341
 57      0.0000     0.0000E+00    0.0000E+00    1.445000E+07  0.00400  7.666E-03    0   0.8571   age078_m42            0.0000     2.5050E+02     9.4596   3.0930    85.3674
 58      0.0000     0.0000E+00    0.0000E+00    2.512000E+07  0.00400  5.070E-03    0   0.8174   age090_m42            0.0000     1.5820E+02     7.9070   2.5529    90.6171
 59      0.0000     0.0000E+00    0.0000E+00    4.000000E+07  0.00400  3.505E-03    0   0.7851   age104_m42            0.0000     8.8971E+01     5.9303   2.2373    93.5780
 60      0.0000     0.0000E+00    0.0000E+00    5.500000E+07  0.00400  3.059E-03    0   0.7629   age110_m42            0.0000     2.6314E+01     2.8460   2.2765    99.0446
 61      0.0000     0.0000E+00    0.0000E+00    1.015200E+08  0.00400  2.268E-03    0   0.7207   age116_m42            0.0000     1.4672E+02     5.6101   2.1633   105.4260
 62      0.0000     0.0000E+00    0.0000E+00    1.609000E+08  0.00400  1.720E-03    0   0.6930   age120_m42            0.0000     1.7962E+02     6.3943   2.0244   106.9969
 63      0.0000     0.0000E+00    0.0000E+00    2.861200E+08  0.00400  1.079E-03    0   0.6613   age125_m42            0.0000     1.8601E+02     6.5310   1.6709   107.4336
 64      0.0000     0.0000E+00    0.0000E+00    5.088000E+08  0.00400  6.261E-04    0   0.6313   age130_m42            0.0000     2.2470E+02     7.1643   1.4694   110.6379
 65      0.0000     0.0000E+00    0.0000E+00    9.047900E+08  0.00400  3.535E-04    0   0.6024   age135_m42            0.0000     1.2462E+02     5.5805   1.0848   110.0086
 66      0.0000     0.0000E+00    0.0000E+00    1.278050E+09  0.00400  2.677E-04    0   0.5837   age138_m42            0.0000     1.0089E+02     5.6122   0.4417   105.4070
 67      0.0000     0.0000E+00    0.0000E+00    1.434000E+09  0.00400  1.910E-04    0   0.5716   age139_m42            0.0000     9.4521E+01     5.3973   0.6005   106.7704
 68      0.0000     0.0000E+00    0.0000E+00    2.500000E+09  0.00400  9.818E-05    0   0.5463   age150_m42            0.0000     8.7816E+01     5.1671   0.3624   100.4887
 69      0.0000     0.0000E+00    0.0000E+00    4.250000E+09  0.00400  5.491E-05    0   0.5269   age158_m42            0.0000     1.0504E+02     5.3646   0.2497    97.2396
 70      0.0000     0.0000E+00    0.0000E+00    6.250000E+09  0.00400  3.857E-05    0   0.5151   age166_m42            0.0000     1.3971E+02     6.0420   0.1356    95.4492
 71      0.0000     0.0000E+00    0.0000E+00    7.500000E+09  0.00400  3.243E-05    0   0.5110   age171_m42            0.0000     1.6412E+02     6.4737   0.0649    94.6435
 72      0.0000     0.0000E+00    0.0000E+00    1.000000E+10  0.00400  2.424E-05    0   0.5028   age181_m42            0.0000     1.9790E+02     7.0234  -0.0060    93.7312
 73      0.0000     0.0000E+00    0.0000E+00    1.300000E+10  0.00400  1.883E-05    0   0.4927   age193_m42            0.0000     2.2457E+02     7.4240  -0.0395    93.2212
 74      0.0000     0.0000E+00    0.0000E+00    1.500000E+10  0.00400  1.685E-05    0   0.4919   age201_m42            0.0000     2.1743E+02     7.3189  -0.0360    93.2971
 75      0.0000     0.0000E+00    0.0000E+00    1.800000E+10  0.00400  1.452E-05    0   0.4874   age213_m42            0.0000     2.0470E+02     7.1340  -0.0239    93.6815
 76      0.0000     0.0000E+00    0.0000E+00    1.000000E+06  0.00800  1.286E-02    0   1.0000   age020_m52            0.0000     3.6747E+02    10.8963   4.0000    78.7188
 77      0.0000     0.0000E+00    0.0000E+00    3.160000E+06  0.00800  3.147E-02    0   0.9966   age045_m52            0.0000     3.5307E+02    10.8255   3.9342    79.7888
 78      0.0000     0.0000E+00    0.0000E+00    5.010000E+06  0.00800  2.664E-02    0   0.9443   age055_m52            0.0000     2.5005E+02     9.1743   3.5994    83.4082
 79      0.0000     0.0000E+00    0.0000E+00    6.610000E+06  0.00800  2.151E-02    0   0.9177   age061_m52            0.0000     1.6026E+02     7.3983   2.2920    90.0774
 80      0.0000     0.0000E+00    0.0000E+00    8.710000E+06  0.00800  1.628E-02    0   0.8948   age067_m52            0.0000     1.4175E+02     7.3891   2.6570    90.7982
 81      0.0000     0.0000E+00    0.0000E+00    1.000000E+07  0.00800  1.215E-02    0   0.8827   age070_m52            0.0000     1.7788E+02     8.2102   3.0001    88.8236
 82      0.0000     0.0000E+00    0.0000E+00    1.445000E+07  0.00800  8.739E-03    0   0.8552   age078_m52            0.0000     1.3269E+02     7.1583   3.0356    90.3061
 83      0.0000     0.0000E+00    0.0000E+00    2.512000E+07  0.00800  5.676E-03    0   0.8162   age090_m52            0.0000     6.8473E+01     5.2949   2.6223    95.8360
 84      0.0000     0.0000E+00    0.0000E+00    4.000000E+07  0.00800  3.939E-03    0   0.7841   age104_m52            0.0000     4.1029E+01     3.7357   2.4552    98.6852
 85      0.0000     0.0000E+00    0.0000E+00    5.500000E+07  0.00800  3.155E-03    0   0.7627   age110_m52            0.0000     4.2499E+01     3.1336   2.4177   100.6921
 86      0.0000     0.0000E+00    0.0000E+00    1.015200E+08  0.00800  2.206E-03    0   0.7226   age116_m52            0.0000     9.7248E+01     4.5563   2.2240   104.9624
 87      0.0000     0.0000E+00    0.0000E+00    1.609000E+08  0.00800  1.596E-03    0   0.6963   age120_m52            0.0000     1.3518E+02     5.5383   2.0066   106.8085
 88      0.0000     0.0000E+00    0.0000E+00    2.861200E+08  0.00800  1.002E-03    0   0.6665   age125_m52            0.0000     2.6041E+02     8.0395   1.7147   109.7181
 89      0.0000     0.0000E+00    0.0000E+00    5.088000E+08  0.00800  5.759E-04    0   0.6377   age130_m52            0.0000     3.1318E+02     9.0612   1.3785   113.2370
 90      0.0000     0.0000E+00    0.0000E+00    9.047900E+08  0.00800  2.972E-04    0   0.6086   age135_m52            0.0000     2.0886E+02     7.6714   0.8728   110.4478
 91      0.0000     0.0000E+00    0.0000E+00    1.278050E+09  0.00800  2.242E-04    0   0.5907   age138_m52            0.0000     1.5988E+02     6.8855   0.2819   107.8023
 92      0.0000     0.0000E+00    0.0000E+00    1.434000E+09  0.00800  1.645E-04    0   0.5787   age139_m52            0.0000     1.3167E+02     6.3104   0.4295   107.2426
 93      0.0000     0.0000E+00    0.0000E+00    2.500000E+09  0.00800  7.723E-05    0   0.5519   age150_m52            0.0000     1.6445E+02     6.7667   0.1149   102.3861
 94      0.0000     0.0000E+00    0.0000E+00    4.250000E+09  0.00800  4.151E-05    0   0.5320   age158_m52            0.0000     1.7144E+02     6.7999   0.0560    99.4237
 95      0.0000     0.0000E+00    0.0000E+00    6.250000E+09  0.00800  3.010E-05    0   0.5197   age166_m52            0.0000     2.3367E+02     7.7257  -0.1231    97.5132
 96      0.0000     0.0000E+00    0.0000E+00    7.500000E+09  0.00800  2.467E-05    0   0.5139   age171_m52            0.0000     2.5123E+02     7.9708  -0.1614    97.0017
 97      0.0000     0.0000E+00    0.0000E+00    1.000000E+10  0.00800  1.862E-05    0   0.5054   age181_m52            0.0000     3.0938E+02     8.7647  -0.2824    96.3122
 98      0.0000     0.0000E+00    0.0000E+00    1.300000E+10  0.00800  1.433E-05    0   0.4988   age193_m52            0.0000     3.7773E+02     9.5905  -0.3700    96.6173
 99      0.0000     0.0000E+00    0.0000E+00    1.500000E+10  0.00800  1.244E-05    0   0.4936   age201_m52            0.0000     4.0561E+02     9.8920  -0.3963    96.9594
100      0.0000     0.0000E+00    0.0000E+00    1.800000E+10  0.00800  1.070E-05    0   0.4888   age213_m52            0.0000     4.2502E+02    10.1191  -0.4269    96.6890
101      0.0000     0.0000E+00    0.0000E+00    1.000000E+06  0.02000  1.989E-02    0   1.0000   age020_m62            0.0000     4.2038E+02    11.5200   4.0000    77.3361
102      0.0000     0.0000E+00    0.0000E+00    3.160000E+06  0.02000  3.772E-02    0   0.9858   age045_m62            0.0000     3.7595E+02    11.0627   3.8622    79.5060
103      0.0000     0.0000E+00    0.0000E+00    5.010000E+06  0.02000  3.227E-02    0   0.9342   age055_m62            0.0000     1.3119E+02     6.9207   3.3194    87.9616
104      0.0000     0.0000E+00    0.0000E+00    6.610000E+06  0.02000  2.387E-02    0   0.9090   age061_m62            0.0000     2.2815E+02     9.2160   3.0700    87.3593
105      0.0000     0.0000E+00    0.0000E+00    8.710000E+06  0.02000  1.102E-02    0   0.8861   age067_m62            0.0000     7.2034E+02    16.2724   2.7050    82.4335
106      0.0000     0.0000E+00    0.0000E+00    1.000000E+07  0.02000  1.011E-02    0   0.8751   age070_m62            0.0000     4.8787E+02    13.3965   2.7228    85.0234
107      0.0000     0.0000E+00    0.0000E+00    1.445000E+07  0.02000  7.331E-03    0   0.8472   age078_m62            0.0000     3.2982E+02    10.9698   2.7384    86.5500
108      0.0000     0.0000E+00    0.0000E+00    2.512000E+07  0.02000  4.206E-03    0   0.8099   age090_m62            0.0000     3.4412E+02    11.1372   2.6525    85.8780
109      0.0000     0.0000E+00    0.0000E+00    4.000000E+07  0.02000  3.373E-03    0   0.7799   age104_m62            0.0000     7.3280E+01     5.3963   2.4295    95.8472
110      0.0000     0.0000E+00    0.0000E+00    5.500000E+07  0.02000  2.747E-03    0   0.7595   age110_m62            0.0000     4.4108E+01     3.6231   2.3488   100.0648
111      0.0000     0.0000E+00    0.0000E+00    1.015200E+08  0.02000  1.878E-03    0   0.7221   age116_m62            0.0000     1.1405E+02     4.7342   2.1893   106.0334
112      0.0000     0.0000E+00    0.0000E+00    1.609000E+08  0.02000  1.378E-03    0   0.6978   age120_m62            0.0000     2.0070E+02     6.4865   2.0289   109.0445
113      0.0000     0.0000E+00    0.0000E+00    2.861200E+08  0.02000  8.869E-04    0   0.6700   age125_m62            0.0000     3.6709E+02     9.1431   1.6576   113.6945
114      0.0000     0.0000E+00    0.0000E+00    5.088000E+08  0.02000  4.834E-04    0   0.6430   age130_m62            0.0000     3.5404E+02     9.5216   1.2433   114.9510
115      0.0000     0.0000E+00    0.0000E+00    9.047900E+08  0.02000  2.312E-04    0   0.6152   age135_m62            0.0000     1.8932E+02     7.5261   0.6713   112.5436
116      0.0000     0.0000E+00    0.0000E+00    1.278050E+09  0.02000  1.387E-04    0   0.5927   age138_m62            0.0000     1.3578E+02     6.4862   0.3192   106.7730
117      0.0000     0.0000E+00    0.0000E+00    1.434000E+09  0.02000  1.168E-04    0   0.5865   age139_m62            0.0000     1.3542E+02     6.4089   0.3000   104.8445
118      0.0000     0.0000E+00    0.0000E+00    2.500000E+09  0.02000  5.505E-05    0   0.5610   age150_m62            0.0000     2.1422E+02     7.6606  -0.0443   100.7685
119      0.0000     0.0000E+00    0.0000E+00    4.250000E+09  0.02000  3.070E-05    0   0.5407   age158_m62            0.0000     3.4881E+02     9.4626  -0.3202   100.0116
120      0.0000     0.0000E+00    0.0000E+00    6.250000E+09  0.02000  2.104E-05    0   0.5277   age166_m62            0.0000     4.2932E+02    10.3164  -0.4427   100.0826
121      0.0000     0.0000E+00    0.0000E+00    7.500000E+09  0.02000  1.770E-05    0   0.5223   age171_m62            0.0000     4.7330E+02    10.7865  -0.5262   100.2913
122      0.0000     0.0000E+00    0.0000E+00    1.000000E+10  0.02000  1.297E-05    0   0.5121   age181_m62            0.0000     5.6857E+02    11.7232  -0.6749   100.4340
123      0.0000     0.0000E+00    0.0000E+00    1.300000E+10  0.02000  9.691E-06    0   0.5047   age193_m62            0.0000     6.3457E+02    12.3142  -0.7515   100.5638
124      0.0000     0.0000E+00    0.0000E+00    1.500000E+10  0.02000  8.360E-06    0   0.4999   age201_m62            0.0000     6.9197E+02    12.8332  -0.8166   100.6104
125      0.0000     0.0000E+00    0.0000E+00    1.800000E+10  0.02000  6.911E-06    0   0.4946   age213_m62            0.0000     7.6471E+02    13.4909  -0.8850   100.6671
126      0.0000     0.0000E+00    0.0000E+00    1.000000E+06  0.05000  2.651E-02    0   0.9998   age020_m72            0.0000     3.9462E+02    11.0162   4.0000    78.1860
127      0.0000     0.0000E+00    0.0000E+00    3.160000E+06  0.05000  4.817E-02    0   0.9577   age045_m72            0.0000     2.6576E+02     9.2736   3.7095    82.9138
128      0.0000     0.0000E+00    0.0000E+00    5.010000E+06  0.05000  3.101E-02    0   0.9147   age055_m72            0.0000     2.4533E+02     9.0367   3.3496    85.8040
129      0.0000     0.0000E+00    0.0000E+00    6.610000E+06  0.05000  1.472E-02    0   0.8877   age061_m72            0.0000     5.6542E+02    13.7380   2.9142    83.7706
130      0.0000     0.0000E+00    0.0000E+00    8.710000E+06  0.05000  1.050E-02    0   0.8638   age067_m72            0.0000     3.7223E+02    10.9197   3.3038    84.3194
131      0.0000     0.0000E+00    0.0000E+00    1.000000E+07  0.05000  8.954E-03    0   0.8524   age070_m72            0.0000     2.6428E+02     9.0277   3.5825    84.3099
132      0.0000     0.0000E+00    0.0000E+00    1.445000E+07  0.05000  6.392E-03    0   0.8262   age078_m72            0.0000     2.2084E+02     8.2867   3.5277    85.4398
133      0.0000     0.0000E+00    0.0000E+00    2.512000E+07  0.05000  4.207E-03    0   0.7902   age090_m72            0.0000     1.1447E+02     6.2136   3.1343    90.5875
134      0.0000     0.0000E+00    0.0000E+00    4.000000E+07  0.05000  3.198E-03    0   0.7618   age104_m72            0.0000     6.1296E+01     3.7845   2.5899   100.4114
135      0.0000     0.0000E+00    0.0000E+00    5.500000E+07  0.05000  2.593E-03    0   0.7432   age110_m72            0.0000     8.7880E+01     4.3324   2.4857   102.9229
136      0.0000     0.0000E+00    0.0000E+00    1.015200E+08  0.05000  1.716E-03    0   0.7092   age116_m72            0.0000     1.5798E+02     5.5817   2.2765   106.3462
137      0.0000     0.0000E+00    0.0000E+00    1.609000E+08  0.05000  1.218E-03    0   0.6876   age120_m72            0.0000     2.5854E+02     7.5046   2.0029   109.4555
138      0.0000     0.0000E+00    0.0000E+00    2.861200E+08  0.05000  7.047E-04    0   0.6618   age125_m72            0.0000     3.8320E+02     9.6901   1.4708   113.2651
139      0.0000     0.0000E+00    0.0000E+00    5.088000E+08  0.05000  3.590E-04    0   0.6356   age130_m72            0.0000     3.3667E+02     9.5107   0.9186   114.7620
140      0.0000     0.0000E+00    0.0000E+00    9.047900E+08  0.05000  1.484E-04    0   0.6088   age135_m72            0.0000     2.0575E+02     7.8859   0.2321   105.9062
141      0.0000     0.0000E+00    0.0000E+00    1.278050E+09  0.05000  9.435E-05    0   0.5924   age138_m72            0.0000     2.9886E+02     9.1277  -0.1404   101.6117
142      0.0000     0.0000E+00    0.0000E+00    1.434000E+09  0.05000  7.827E-05    0   0.5847   age139_m72            0.0000     2.9471E+02     8.9615  -0.1246   100.8697
143      0.0000     0.0000E+00    0.0000E+00    2.500000E+09  0.05000  3.759E-05    0   0.5583   age150_m72            0.0000     4.2291E+02    10.3300  -0.4315    99.3648
144      0.0000     0.0000E+00    0.0000E+00    4.250000E+09  0.05000  1.842E-05    0   0.5374   age158_m72            0.0000     5.6428E+02    11.6202  -0.7310    98.5110
145      0.0000     0.0000E+00    0.0000E+00    6.250000E+09  0.05000  1.207E-05    0   0.5242   age166_m72            0.0000     7.1006E+02    12.9680  -0.9579    97.8112
146      0.0000     0.0000E+00    0.0000E+00    7.500000E+09  0.05000  9.993E-06    0   0.5183   age171_m72            0.0000     7.3273E+02    13.1657  -0.9988    97.6801
147      0.0000     0.0000E+00    0.0000E+00    1.000000E+10  0.05000  7.291E-06    0   0.5081   age181_m72            0.0000     8.4800E+02    14.0255  -1.0000    94.2924
148      0.5052     8.2278E+00    8.0326E+00    1.300000E+10  0.05000  5.316E-06    0   0.5018   age193_m72            0.0000     1.0671E+03    15.6301  -1.0000    89.2213
149      0.0000     0.0000E+00    0.0000E+00    1.500000E+10  0.05000  4.497E-06    0   0.4972   age201_m72            0.0000     1.1817E+03    16.4410  -1.0000    87.4659
150      0.4187     9.6955E+00    9.2881E+00    1.800000E+10  0.05000  3.739E-06    0   0.4924   age213_m72            0.0000     1.3439E+03    17.4515  -1.0000    84.7460


## Synthesis Results - Average & Chains ##

# j      x_j: min, <> & last-chain-values for 1 ...  7 chains
  1      0.0000      0.0085      0.0000      0.0000      0.0000      0.0000      0.0000      0.0000      0.0000
  2     15.9458     11.8554     12.9085     12.6517     12.1448     12.6975     12.5382     12.5166     12.8452
  3      0.0874      0.0392      0.2172      0.0000      0.0000      0.1076      0.0020      0.1031      0.1509
  4      0.0000      0.0058      0.0000      0.0000      0.0000      0.0000      0.0000      0.0000      0.0000
  5      0.0000      0.0056      0.0000      0.0032      0.0000      0.0000      0.0000      0.0000      0.0000
  6      0.0000      0.0074      0.0000      0.0000      0.0000      0.0121      0.0000      0.0000      0.0622
  7      0.0000      0.0103      0.0000      0.0000      0.0000      0.0000      0.0000      0.0000      0.0000
  8      0.0000      0.0127      0.0000      0.0000      0.0278      0.0751      0.0000      0.0000      0.0811
  9      0.0000      0.0556      0.0000      0.0580      0.1079      0.0000      0.1303      0.0000      0.0181
 10      0.0000      0.0349      0.0000      0.0000      0.0000      0.0000      0.0000      0.0000      0.0000
 11      1.3793      1.8507      1.8773      1.8601      1.9653      1.9579      1.9192      1.9095      1.3832
 12      0.0000      0.0241      0.0580      0.0000      0.0000      0.0000      0.0000      0.0000      0.0706
 13      0.0000      0.0169      0.0000      0.0000      0.0000      0.0000      0.0000      0.0000      0.0000
 14      0.0000      0.0206      0.0678      0.0000      0.0000      0.0000      0.0370      0.0000      0.0776
 15      0.0197      0.0187      0.1635      0.0000      0.0028      0.0000      0.0000      0.0000      0.0000
 16      0.0000      0.0249      0.0000      0.0064      0.0185      0.0182      0.0000      0.0000      0.0000
 17      0.0000      0.0299      0.0597      0.0000      0.0000      0.0000      0.0000      0.0336      0.0000
 18      0.0000      0.0486      0.0000      0.0000      0.0000      0.0554      0.0477      0.0000      0.0000
 19      0.0000      0.0888      0.0000      0.0178      0.0000      0.0000      0.0000      0.0000      0.0191
 20      0.0000      0.1254      0.0000      0.0062      0.0000      0.0731      0.0422      0.1250      0.4609
 21      0.0000      0.2546      0.0880      0.0116      0.1369      0.3709      0.4180      0.0327      0.1417
 22      0.0107      0.4721      0.3137      0.6575      0.0980      0.1403      0.3748      0.1116      0.2502
 23      0.0000      0.3778      0.0586      0.0538      0.3961      0.4204      0.0000      0.5374      0.4275
 24      0.0221      0.4566      0.4439      0.2480      0.7951      0.0000      0.1685      0.7512      0.3899
 25      0.0078      0.4701      0.3629      0.3944      0.7903      0.0000      0.1676      0.4056      0.6704
 26      0.0000      0.0076      0.0000      0.0404      0.0000      0.0000      0.0000      0.0000      0.0000
 27      0.0000      0.0239      0.0278      0.0000      0.0000      0.0000      0.0000      0.0279      0.0000
 28      0.0000      0.0129      0.0000      0.0000      0.0000      0.0000      0.0000      0.0000      0.0000
 29      0.0000      0.0067      0.0000      0.0000      0.0000      0.0000      0.0000      0.0424      0.0000
 30      0.0000      0.0076      0.0000      0.0000      0.0000      0.0000      0.0000      0.0000      0.0000
 31      0.0000      0.0102      0.0000      0.0000      0.0000      0.0000      0.0000      0.0000      0.0000
 32      0.0000      0.0165      0.0000      0.0157      0.0959      0.0457      0.0901      0.0000      0.0184
 33      0.0000      0.0246      0.0848      0.0646      0.0000      0.0000      0.0346      0.0000      0.0000
 34      0.0000      0.0278      0.0000      0.0119      0.0000      0.0139      0.0000      0.0085      0.0000
 35      0.0000      0.0319      0.0509      0.0582      0.0000      0.0000      0.0743      0.0000      0.0000
 36      0.0000      0.0289      0.0074      0.0000      0.0000      0.0819      0.0000      0.2740      0.0882
 37      0.0000      0.0411      0.0000      0.0052      0.0000      0.0820      0.0000      0.0000      0.0432
 38      0.0000      0.0214      0.0261      0.0000      0.0000      0.0000      0.0000      0.0000      0.0178
 39      0.0000      0.0218      0.0000      0.0235      0.0147      0.0000      0.0000      0.0000      0.0000
 40      0.0000      0.0161      0.0000      0.0000      0.0000      0.0000      0.0231      0.0000      0.0205
 41      0.0115      0.0385      0.3241      0.0000      0.0939      0.0594      0.0000      0.0000      0.0000
 42      0.0000      0.0558      0.0000      0.0000      0.0000      0.0000      0.0336      0.0726      0.0325
 43      4.7971      3.1570      2.9997      3.1356      4.0667      3.4117      3.7362      3.2071      3.7401
 44     61.9764     59.0766     60.7590     60.3109     59.4528     60.4223     59.8339     59.4017     58.2826
 45     14.6918     17.1642     16.8929     17.2899     17.2081     17.0564     17.6015     17.0878     17.2946
 46      0.0000      0.1181      0.0000      0.3448      0.0000      0.0368      0.0603      0.1308      0.0000
 47      0.0019      0.0869      0.2897      0.0000      0.1279      0.0000      0.0000      0.0515      0.0000
 48      0.0000      0.1078      0.0000      0.0787      0.0000      0.0779      0.1062      0.1097      0.0000
 49      0.0000      0.1908      0.0148      0.1211      0.0934      0.0000      0.1185      0.0000      0.3521
 50      0.0014      1.3938      0.5667      1.3109      0.5869      1.3219      0.9729      1.5052      1.3042
 51      0.0000      0.0067      0.0000      0.0000      0.0000      0.0000      0.0000      0.0000      0.0000
 52      0.0000      0.0437      0.0000      0.0000      0.3606      0.0331      0.2431      0.0000      0.0410
 53      0.0000      0.0132      0.0000      0.0000      0.1315      0.0000      0.0000      0.0000      0.0000
 54      0.0000      0.0505      0.0000      0.0505      0.0008      0.0602      0.0012      0.0507      0.1108
 55      0.0000      0.0426      0.0021      0.0719      0.0000      0.0000      0.0000      0.0000      0.0000
 56      0.0000      0.0207      0.0000      0.0000      0.0000      0.0000      0.0000      0.0000      0.0237
 57      0.0000      0.0082      0.0000      0.0000      0.0027      0.0000      0.0000      0.0000      0.0000
 58      0.0000      0.0149      0.0000      0.0000      0.0000      0.0000      0.0000      0.0000      0.0113
 59      0.0000      0.0092      0.0000      0.0000      0.0000      0.0840      0.0000      0.0000      0.0000
 60      0.0000      0.0121      0.0000      0.0000      0.0058      0.0000      0.0137      0.0000      0.0320
 61      0.0000      0.0220      0.0000      0.0000      0.0000      0.0000      0.0000      0.0067      0.0000
 62      0.0000      0.0222      0.0058      0.0000      0.0000      0.0000      0.0000      0.0000      0.2292
 63      0.0000      0.0204      0.0000      0.0000      0.0000      0.0000      0.0000      0.0000      0.0000
 64      0.0000      0.0299      0.0000      0.1317      0.0000      0.0000      0.0000      0.0000      0.0000
 65      0.0000      0.0265      0.0000      0.0000      0.0016      0.0000      0.0000      0.0000      0.0083
 66      0.0000      0.0148      0.0000      0.0000      0.0000      0.0050      0.0000      0.0009      0.0000
 67      0.0000      0.0198      0.0000      0.0000      0.0000      0.0050      0.0000      0.0000      0.0000
 68      0.0000      0.0126      0.0000      0.0000      0.0000      0.0542      0.0000      0.0036      0.0000
 69      0.0000      0.0149      0.0000      0.0000      0.0000      0.0000      0.0000      0.0000      0.0000
 70      0.0000      0.0131      0.0000      0.0000      0.0066      0.0000      0.0000      0.0166      0.0000
 71      0.0000      0.0102      0.0000      0.0000      0.0000      0.0000      0.0000      0.0000      0.0000
 72      0.0000      0.0142      0.0000      0.0000      0.0661      0.0000      0.0000      0.0000      0.0000
 73      0.0000      0.0099      0.0000      0.0026      0.0000      0.0713      0.0000      0.0000      0.0000
 74      0.0000      0.0120      0.0000      0.0000      0.0000      0.0000      0.0000      0.0000      0.0000
 75      0.0000      0.0086      0.0000      0.0000      0.0000      0.0000      0.0358      0.0000      0.0000
 76      0.0000      0.0038      0.0000      0.0120      0.0000      0.0000      0.0000      0.0000      0.0000
 77      0.0000      0.0056      0.0000      0.0000      0.0000      0.0068      0.0000      0.0000      0.0000
 78      0.0000      0.0047      0.0000      0.0000      0.0000      0.0000      0.0000      0.0000      0.0000
 79      0.0000      0.0073      0.0000      0.0000      0.0000      0.0000      0.0000      0.0000      0.0000
 80      0.0000      0.0093      0.0193      0.0000      0.0000      0.0000      0.0000      0.0000      0.0000
 81      0.0000      0.0098      0.0000      0.0000      0.0000      0.0000      0.0000      0.0000      0.0000
 82      0.0000      0.0097      0.0000      0.0000      0.0000      0.0000      0.0000      0.0000      0.0000
 83      0.0000      0.0280      0.0000      0.0302      0.0453      0.0000      0.0000      0.0590      0.0911
 84      0.0000      0.0287      0.0000      0.0000      0.0000      0.0000      0.0291      0.1026      0.0000
 85      0.0000      0.0206      0.0000      0.0000      0.0000      0.0000      0.0000      0.0000      0.0000
 86      0.0000      0.0158      0.0000      0.0000      0.0000      0.0000      0.0242      0.0173      0.0576
 87      0.0000      0.0125      0.0000      0.0000      0.0000      0.0000      0.0000      0.0000      0.0000
 88      0.0000      0.0089      0.0483      0.0000      0.0000      0.0094      0.0000      0.0000      0.0000
 89      0.0000      0.0067      0.0000      0.0000      0.0000      0.0000      0.0500      0.0000      0.0000
 90      0.0000      0.0059      0.0000      0.0000      0.0000      0.0000      0.0000      0.0000      0.0000
 91      0.0000      0.0046      0.0000      0.0000      0.0000      0.0000      0.0000      0.0000      0.0000
 92      0.0000      0.0053      0.0000      0.0000      0.0000      0.0000      0.0000      0.0000      0.0000
 93      0.0000      0.0071      0.0000      0.0000      0.0000      0.0000      0.0000      0.0000      0.0000
 94      0.0000      0.0071      0.0000      0.0000      0.0267      0.0000      0.0000      0.0000      0.0000
 95      0.0000      0.0104      0.0000      0.0000      0.0000      0.0000      0.0549      0.0050      0.0000
 96      0.0000      0.0060      0.0000      0.0000      0.0000      0.0000      0.0000      0.0000      0.0000
 97      0.0000      0.0061      0.0000      0.0027      0.0000      0.0000      0.0000      0.0000      0.0188
 98      0.0000      0.0040      0.0013      0.0000      0.0000      0.0000      0.0000      0.0000      0.0000
 99      0.0000      0.0033      0.0000      0.0000      0.0033      0.0000      0.0000      0.0000      0.0000
100      0.0000      0.0030      0.0000      0.0000      0.0000      0.0000      0.0000      0.0000      0.0000
101      0.0000      0.0050      0.0000      0.0027      0.0000      0.0000      0.0000      0.0000      0.0000
102      0.0000      0.0044      0.0000      0.0000      0.0000      0.0000      0.0000      0.0000      0.0000
103      0.0000      0.0107      0.0383      0.0000      0.0967      0.0000      0.0031      0.0168      0.0000
104      0.0000      0.0126      0.1217      0.0000      0.0000      0.0000      0.0696      0.0000      0.0013
105      0.0000      0.0066      0.0000      0.0000      0.0000      0.0475      0.0000      0.0000      0.0000
106      0.0000      0.0084      0.0000      0.0000      0.0000      0.0000      0.0000      0.0774      0.0000
107      0.0000      0.0120      0.0058      0.0000      0.0000      0.0000      0.0000      0.0000      0.0000
108      0.0000      0.0059      0.0000      0.0000      0.0000      0.0000      0.0000      0.0000      0.0000
109      0.0000      0.0093      0.0000      0.0056      0.0000      0.0000      0.0000      0.0000      0.0000
110      0.0000      0.0097      0.0000      0.0161      0.0000      0.0039      0.0000      0.0000      0.0000
111      0.0000      0.0101      0.0000      0.0000      0.0000      0.0047      0.0078      0.0000      0.0000
112      0.0000      0.0138      0.0038      0.0000      0.0000      0.0000      0.0000      0.0000      0.0000
113      0.0000      0.0095      0.0000      0.0000      0.0000      0.0000      0.0000      0.1932      0.0000
114      0.0000      0.0069      0.0000      0.0000      0.0000      0.0064      0.0000      0.0000      0.0000
115      0.0000      0.0056      0.0000      0.0000      0.0000      0.0000      0.0000      0.0000      0.0000
116      0.0000      0.0060      0.0000      0.0295      0.0000      0.0000      0.0000      0.0000      0.0046
117      0.0000      0.0056      0.0000      0.0000      0.0000      0.0000      0.0000      0.0000      0.0000
118      0.0000      0.0049      0.0000      0.0000      0.0000      0.0000      0.0000      0.0000      0.0000
119      0.0000      0.0050      0.0000      0.0000      0.0000      0.0000      0.0000      0.0000      0.0000
120      0.0000      0.0048      0.0000      0.0000      0.0000      0.0000      0.0000      0.0000      0.0000
121      0.0000      0.0043      0.0000      0.0000      0.0000      0.0000      0.0000      0.0000      0.0000
122      0.0000      0.0037      0.0000      0.0492      0.0000      0.0000      0.0000      0.0000      0.0000
123      0.0000      0.0051      0.0000      0.0000      0.0000      0.0015      0.0000      0.0000      0.0000
124      0.0000      0.0043      0.0000      0.0000      0.0000      0.0000      0.0000      0.0000      0.0000
125      0.0000      0.1100      0.0000      0.0000      0.0176      0.0000      0.0000      0.0000      0.0000
126      0.0000      0.0042      0.0000      0.0000      0.0000      0.0000      0.0000      0.0000      0.0000
127      0.0000      0.0046      0.0000      0.0000      0.0000      0.0343      0.0000      0.0000      0.0000
128      0.0000      0.0091      0.0000      0.0000      0.0000      0.0000      0.0000      0.0000      0.0257
129      0.0000      0.0071      0.0000      0.0000      0.0000      0.0000      0.0000      0.0000      0.0000
130      0.0000      0.0038      0.0000      0.0000      0.0000      0.0000      0.0000      0.0000      0.0000
131      0.0000      0.0029      0.0000      0.0000      0.0000      0.0000      0.0000      0.0000      0.0000
132      0.0000      0.0038      0.0000      0.0000      0.0000      0.0000      0.0000      0.0000      0.0000
133      0.0000      0.0046      0.0000      0.0000      0.0000      0.0000      0.0000      0.0000      0.0000
134      0.0000      0.0065      0.0000      0.0000      0.0050      0.0000      0.0195      0.0000      0.0000
135      0.0000      0.0107      0.0000      0.0000      0.0000      0.0000      0.0000      0.0000      0.0289
136      0.0000      0.0095      0.0000      0.0000      0.0000      0.0000      0.0000      0.0112      0.0000
137      0.0000      0.0094      0.0000      0.0000      0.0136      0.0000      0.0000      0.0000      0.0000
138      0.0000      0.0085      0.0129      0.0000      0.0000      0.0000      0.0000      0.0000      0.0000
139      0.0000      0.0051      0.0000      0.0000      0.0000      0.0000      0.0000      0.0000      0.0029
140      0.0000      0.0063      0.0000      0.0000      0.0057      0.0000      0.0000      0.0000      0.0000
141      0.0000      0.0072      0.0000      0.0000      0.0000      0.0247      0.0000      0.0000      0.0000
142      0.0000      0.0048      0.0000      0.0000      0.0000      0.0000      0.0000      0.0000      0.0000
143      0.0000      0.0051      0.0000      0.0000      0.0000      0.0000      0.0000      0.0000      0.0000
144      0.0000      0.0174      0.0442      0.0000      0.0140      0.0103      0.0000      0.0423      0.0000
145      0.0000      0.0206      0.0000      0.0000      0.0000      0.0633      0.0000      0.0240      0.0373
146      0.0000      0.1769      0.1282      0.1046      0.1621      0.1568      0.2233      0.1596      0.1707
147      0.0000      0.1182      0.0695      0.1253      0.1911      0.1218      0.1298      0.0835      0.1495
148      0.5052      0.1084      0.2671      0.1098      0.1774      0.1523      0.1195      0.1286      0.1011
149      0.0000      0.1328      0.1319      0.1321      0.0550      0.1924      0.1865      0.1281      0.1314
150      0.4187      0.1589      0.2521      0.1626      0.1932      0.1674      0.1269      0.2568      0.2817

# j      m_j: min, <> & last-chain-values for 1 ...  7 chains
  1  0.0000E+00  1.6596E-04  0.0000E+00  0.0000E+00  0.0000E+00  0.0000E+00  0.0000E+00  0.0000E+00  0.0000E+00
  2  5.6442E-02  3.9605E-02  4.4108E-02  4.3596E-02  4.1377E-02  4.3478E-02  4.3481E-02  4.1862E-02  4.2696E-02
  3  7.3016E-04  3.0901E-04  1.7521E-03  0.0000E+00  0.0000E+00  8.6927E-04  1.6716E-05  8.1390E-04  1.1835E-03
  4  0.0000E+00  8.5954E-05  0.0000E+00  0.0000E+00  0.0000E+00  0.0000E+00  0.0000E+00  0.0000E+00  0.0000E+00
  5  0.0000E+00  1.0492E-04  0.0000E+00  6.1898E-05  0.0000E+00  0.0000E+00  0.0000E+00  0.0000E+00  0.0000E+00
  6  0.0000E+00  1.6535E-04  0.0000E+00  0.0000E+00  0.0000E+00  2.7444E-04  0.0000E+00  0.0000E+00  1.3735E-03
  7  0.0000E+00  2.8826E-04  0.0000E+00  0.0000E+00  0.0000E+00  0.0000E+00  0.0000E+00  0.0000E+00  0.0000E+00
  8  0.0000E+00  4.0375E-04  0.0000E+00  0.0000E+00  8.9776E-04  2.4371E-03  0.0000E+00  0.0000E+00  2.5550E-03
  9  0.0000E+00  1.8938E-03  0.0000E+00  2.0375E-03  3.7478E-03  0.0000E+00  4.6087E-03  0.0000E+00  6.1282E-04
 10  0.0000E+00  1.3631E-03  0.0000E+00  0.0000E+00  0.0000E+00  0.0000E+00  0.0000E+00  0.0000E+00  0.0000E+00
 11  6.8224E-02  8.6393E-02  8.9635E-02  8.9567E-02  9.3562E-02  9.3678E-02  9.3000E-02  8.9240E-02  6.4245E-02
 12  0.0000E+00  1.9712E-03  4.8414E-03  0.0000E+00  0.0000E+00  0.0000E+00  0.0000E+00  0.0000E+00  5.7358E-03
 13  0.0000E+00  1.5982E-03  0.0000E+00  0.0000E+00  0.0000E+00  0.0000E+00  0.0000E+00  0.0000E+00  0.0000E+00
 14  0.0000E+00  2.7738E-03  9.3422E-03  0.0000E+00  0.0000E+00  0.0000E+00  5.1753E-03  0.0000E+00  1.0401E-02
 15  4.2368E-03  3.8060E-03  3.3998E-02  0.0000E+00  5.8073E-04  0.0000E+00  0.0000E+00  0.0000E+00  0.0000E+00
 16  0.0000E+00  7.3395E-03  0.0000E+00  1.9480E-03  5.5485E-03  5.4918E-03  0.0000E+00  0.0000E+00  0.0000E+00
 17  0.0000E+00  9.7870E-03  1.9960E-02  0.0000E+00  0.0000E+00  0.0000E+00  0.0000E+00  1.0995E-02  0.0000E+00
 18  0.0000E+00  2.5855E-02  0.0000E+00  0.0000E+00  0.0000E+00  3.0229E-02  2.6347E-02  0.0000E+00  0.0000E+00
 19  0.0000E+00  7.1608E-02  0.0000E+00  1.4787E-02  0.0000E+00  0.0000E+00  0.0000E+00  0.0000E+00  1.5322E-02
 20  0.0000E+00  1.4464E-01  0.0000E+00  7.3855E-03  0.0000E+00  8.6479E-02  5.0560E-02  1.4438E-01  5.2912E-01
 21  0.0000E+00  3.3983E-01  1.2009E-01  1.5946E-02  1.8639E-01  5.0748E-01  5.7918E-01  4.3762E-02  1.8822E-01
 22  1.9549E-02  8.1299E-01  5.5258E-01  1.1679E+00  1.7213E-01  2.4769E-01  6.7003E-01  1.9236E-01  4.2868E-01
 23  0.0000E+00  8.2479E-01  1.3075E-01  1.2111E-01  8.8192E-01  9.4065E-01  0.0000E+00  1.1746E+00  9.2865E-01
 24  5.8581E-02  1.1399E+00  1.1335E+00  6.3853E-01  2.0245E+00  0.0000E+00  4.3668E-01  1.8776E+00  9.6865E-01
 25  2.4887E-02  1.4098E+00  1.1134E+00  1.2201E+00  2.4174E+00  0.0000E+00  5.2193E-01  1.2179E+00  2.0006E+00
 26  0.0000E+00  1.4231E-04  0.0000E+00  7.8345E-04  0.0000E+00  0.0000E+00  0.0000E+00  0.0000E+00  0.0000E+00
 27  0.0000E+00  9.5710E-05  1.1368E-04  0.0000E+00  0.0000E+00  0.0000E+00  0.0000E+00  1.1194E-04  0.0000E+00
 28  0.0000E+00  1.0085E-04  0.0000E+00  0.0000E+00  0.0000E+00  0.0000E+00  0.0000E+00  0.0000E+00  0.0000E+00
 29  0.0000E+00  8.1510E-05  0.0000E+00  0.0000E+00  0.0000E+00  0.0000E+00  0.0000E+00  5.1815E-04  0.0000E+00
 30  0.0000E+00  1.1561E-04  0.0000E+00  0.0000E+00  0.0000E+00  0.0000E+00  0.0000E+00  0.0000E+00  0.0000E+00
 31  0.0000E+00  1.7958E-04  0.0000E+00  0.0000E+00  0.0000E+00  0.0000E+00  0.0000E+00  0.0000E+00  0.0000E+00
 32  0.0000E+00  3.1935E-04  0.0000E+00  3.1493E-04  1.8984E-03  9.0871E-04  1.8161E-03  0.0000E+00  3.5613E-04
 33  0.0000E+00  6.7870E-04  2.3916E-03  1.8383E-03  0.0000E+00  0.0000E+00  9.9184E-04  0.0000E+00  0.0000E+00
 34  0.0000E+00  9.3152E-04  0.0000E+00  4.1290E-04  0.0000E+00  4.7805E-04  0.0000E+00  2.8404E-04  0.0000E+00
 35  0.0000E+00  1.2906E-03  2.1094E-03  2.4292E-03  0.0000E+00  0.0000E+00  3.1232E-03  0.0000E+00  0.0000E+00
 36  0.0000E+00  1.4998E-03  3.9191E-04  0.0000E+00  0.0000E+00  4.3595E-03  0.0000E+00  1.4239E-02  4.5532E-03
 37  0.0000E+00  2.6511E-03  0.0000E+00  3.4343E-04  0.0000E+00  5.4184E-03  0.0000E+00  0.0000E+00  2.7707E-03
 38  0.0000E+00  1.9216E-03  2.3970E-03  0.0000E+00  0.0000E+00  0.0000E+00  0.0000E+00  0.0000E+00  1.5865E-03
 39  0.0000E+00  2.9216E-03  0.0000E+00  3.2516E-03  2.0040E-03  0.0000E+00  0.0000E+00  0.0000E+00  0.0000E+00
 40  0.0000E+00  3.8170E-03  0.0000E+00  0.0000E+00  0.0000E+00  0.0000E+00  5.6823E-03  0.0000E+00  4.8243E-03
 41  3.8516E-03  1.2191E-02  1.0501E-01  0.0000E+00  3.0348E-02  1.9273E-02  0.0000E+00  0.0000E+00  0.0000E+00
 42  0.0000E+00  1.9730E-02  0.0000E+00  0.0000E+00  0.0000E+00  0.0000E+00  1.2323E-02  2.5707E-02  1.1444E-02
 43  2.9249E+00  1.8167E+00  1.7656E+00  1.8612E+00  2.3867E+00  2.0123E+00  2.2319E+00  1.8477E+00  2.1415E+00
 44  5.9764E+01  5.3766E+01  5.6560E+01  5.6617E+01  5.5182E+01  5.6364E+01  5.6528E+01  5.4124E+01  5.2777E+01
 45  1.9746E+01  2.1772E+01  2.1917E+01  2.2622E+01  2.2261E+01  2.2176E+01  2.3177E+01  2.1700E+01  2.1827E+01
 46  0.0000E+00  1.7842E-01  0.0000E+00  5.3738E-01  0.0000E+00  5.7052E-02  9.4648E-02  1.9780E-01  0.0000E+00
 47  3.9270E-03  1.7206E-01  5.8686E-01  0.0000E+00  2.5835E-01  0.0000E+00  0.0000E+00  1.0209E-01  0.0000E+00
 48  0.0000E+00  2.5418E-01  0.0000E+00  1.9135E-01  0.0000E+00  1.8818E-01  2.5995E-01  2.5905E-01  0.0000E+00
 49  0.0000E+00  5.0338E-01  4.0048E-02  3.2967E-01  2.5119E-01  0.0000E+00  3.2462E-01  0.0000E+00  9.2424E-01
 50  4.5693E-03  4.3250E+00  1.7988E+00  4.1959E+00  1.8573E+00  4.2045E+00  3.1338E+00  4.6762E+00  4.0266E+00
 51  0.0000E+00  9.5503E-05  0.0000E+00  0.0000E+00  0.0000E+00  0.0000E+00  0.0000E+00  0.0000E+00  0.0000E+00
 52  0.0000E+00  1.7048E-04  0.0000E+00  0.0000E+00  1.4351E-03  1.3251E-04  9.8510E-04  0.0000E+00  1.5914E-04
 53  0.0000E+00  7.8510E-05  0.0000E+00  0.0000E+00  7.9816E-04  0.0000E+00  0.0000E+00  0.0000E+00  0.0000E+00
 54  0.0000E+00  2.8667E-04  0.0000E+00  2.9589E-04  4.4712E-06  3.5041E-04  6.8590E-06  2.8827E-04  6.2553E-04
 55  0.0000E+00  3.5640E-04  1.7663E-05  6.2094E-04  0.0000E+00  0.0000E+00  0.0000E+00  0.0000E+00  0.0000E+00
 56  0.0000E+00  2.2898E-04  0.0000E+00  0.0000E+00  0.0000E+00  0.0000E+00  0.0000E+00  0.0000E+00  2.6186E-04
 57  0.0000E+00  1.4579E-04  0.0000E+00  0.0000E+00  4.8846E-05  0.0000E+00  0.0000E+00  0.0000E+00  0.0000E+00
 58  0.0000E+00  3.8219E-04  0.0000E+00  0.0000E+00  0.0000E+00  0.0000E+00  0.0000E+00  0.0000E+00  2.8722E-04
 59  0.0000E+00  3.2605E-04  0.0000E+00  0.0000E+00  0.0000E+00  3.0659E-03  0.0000E+00  0.0000E+00  0.0000E+00
 60  0.0000E+00  4.8063E-04  0.0000E+00  0.0000E+00  2.3343E-04  0.0000E+00  5.6218E-04  0.0000E+00  1.2638E-03
 61  0.0000E+00  1.1120E-03  0.0000E+00  0.0000E+00  0.0000E+00  0.0000E+00  0.0000E+00  3.3657E-04  0.0000E+00
 62  0.0000E+00  1.4205E-03  3.8049E-04  0.0000E+00  0.0000E+00  0.0000E+00  0.0000E+00  0.0000E+00  1.4607E-02
 63  0.0000E+00  1.9874E-03  0.0000E+00  0.0000E+00  0.0000E+00  0.0000E+00  0.0000E+00  0.0000E+00  0.0000E+00
 64  0.0000E+00  4.7946E-03  0.0000E+00  2.1781E-02  0.0000E+00  0.0000E+00  0.0000E+00  0.0000E+00  0.0000E+00
 65  0.0000E+00  7.1685E-03  0.0000E+00  0.0000E+00  4.4544E-04  0.0000E+00  0.0000E+00  0.0000E+00  2.2282E-03
 66  0.0000E+00  5.1324E-03  0.0000E+00  0.0000E+00  0.0000E+00  1.7764E-03  0.0000E+00  3.0844E-04  0.0000E+00
 67  0.0000E+00  9.4061E-03  0.0000E+00  0.0000E+00  0.0000E+00  2.4193E-03  0.0000E+00  0.0000E+00  0.0000E+00
 68  0.0000E+00  1.1127E-02  0.0000E+00  0.0000E+00  0.0000E+00  4.9106E-02  0.0000E+00  3.1880E-03  0.0000E+00
 69  0.0000E+00  2.2793E-02  0.0000E+00  0.0000E+00  0.0000E+00  0.0000E+00  0.0000E+00  0.0000E+00  0.0000E+00
 70  0.0000E+00  2.7837E-02  0.0000E+00  0.0000E+00  1.4275E-02  0.0000E+00  0.0000E+00  3.5191E-02  0.0000E+00
 71  0.0000E+00  2.5472E-02  0.0000E+00  0.0000E+00  0.0000E+00  0.0000E+00  0.0000E+00  0.0000E+00  0.0000E+00
 72  0.0000E+00  4.6922E-02  0.0000E+00  0.0000E+00  2.2234E-01  0.0000E+00  0.0000E+00  0.0000E+00  0.0000E+00
 73  0.0000E+00  4.1262E-02  0.0000E+00  1.1044E-02  0.0000E+00  3.0404E-01  0.0000E+00  0.0000E+00  0.0000E+00
 74  0.0000E+00  5.5820E-02  0.0000E+00  0.0000E+00  0.0000E+00  0.0000E+00  0.0000E+00  0.0000E+00  0.0000E+00
 75  0.0000E+00  4.5877E-02  0.0000E+00  0.0000E+00  0.0000E+00  0.0000E+00  1.9817E-01  0.0000E+00  0.0000E+00
 76  0.0000E+00  4.7191E-05  0.0000E+00  1.5351E-04  0.0000E+00  0.0000E+00  0.0000E+00  0.0000E+00  0.0000E+00
 77  0.0000E+00  2.8326E-05  0.0000E+00  0.0000E+00  0.0000E+00  3.5204E-05  0.0000E+00  0.0000E+00  0.0000E+00
 78  0.0000E+00  2.6635E-05  0.0000E+00  0.0000E+00  0.0000E+00  0.0000E+00  0.0000E+00  0.0000E+00  0.0000E+00
 79  0.0000E+00  4.9555E-05  0.0000E+00  0.0000E+00  0.0000E+00  0.0000E+00  0.0000E+00  0.0000E+00  0.0000E+00
 80  0.0000E+00  8.0906E-05  1.7277E-04  0.0000E+00  0.0000E+00  0.0000E+00  0.0000E+00  0.0000E+00  0.0000E+00
 81  0.0000E+00  1.1356E-04  0.0000E+00  0.0000E+00  0.0000E+00  0.0000E+00  0.0000E+00  0.0000E+00  0.0000E+00
 82  0.0000E+00  1.5117E-04  0.0000E+00  0.0000E+00  0.0000E+00  0.0000E+00  0.0000E+00  0.0000E+00  0.0000E+00
 83  0.0000E+00  6.4079E-04  0.0000E+00  7.1216E-04  1.0565E-03  0.0000E+00  0.0000E+00  1.3502E-03  2.0715E-03
 84  0.0000E+00  9.0760E-04  0.0000E+00  0.0000E+00  0.0000E+00  0.0000E+00  9.5664E-04  3.2512E-03  0.0000E+00
 85  0.0000E+00  7.9096E-04  0.0000E+00  0.0000E+00  0.0000E+00  0.0000E+00  0.0000E+00  0.0000E+00  0.0000E+00
 86  0.0000E+00  8.2391E-04  0.0000E+00  0.0000E+00  0.0000E+00  0.0000E+00  1.3077E-03  8.9937E-04  2.9824E-03
 87  0.0000E+00  8.6932E-04  0.0000E+00  0.0000E+00  0.0000E+00  0.0000E+00  0.0000E+00  0.0000E+00  0.0000E+00
 88  0.0000E+00  9.4152E-04  5.2280E-03  0.0000E+00  0.0000E+00  1.0167E-03  0.0000E+00  0.0000E+00  0.0000E+00
 89  0.0000E+00  1.1759E-03  0.0000E+00  0.0000E+00  0.0000E+00  0.0000E+00  9.1462E-03  0.0000E+00  0.0000E+00
 90  0.0000E+00  1.9075E-03  0.0000E+00  0.0000E+00  0.0000E+00  0.0000E+00  0.0000E+00  0.0000E+00  0.0000E+00
 91  0.0000E+00  1.9324E-03  0.0000E+00  0.0000E+00  0.0000E+00  0.0000E+00  0.0000E+00  0.0000E+00  0.0000E+00
 92  0.0000E+00  2.9737E-03  0.0000E+00  0.0000E+00  0.0000E+00  0.0000E+00  0.0000E+00  0.0000E+00  0.0000E+00
 93  0.0000E+00  8.0593E-03  0.0000E+00  0.0000E+00  0.0000E+00  0.0000E+00  0.0000E+00  0.0000E+00  0.0000E+00
 94  0.0000E+00  1.4465E-02  0.0000E+00  0.0000E+00  5.5444E-02  0.0000E+00  0.0000E+00  0.0000E+00  0.0000E+00
 95  0.0000E+00  2.8625E-02  0.0000E+00  0.0000E+00  0.0000E+00  0.0000E+00  1.5638E-01  1.3651E-02  0.0000E+00
 96  0.0000E+00  1.9769E-02  0.0000E+00  0.0000E+00  0.0000E+00  0.0000E+00  0.0000E+00  0.0000E+00  0.0000E+00
 97  0.0000E+00  2.6402E-02  0.0000E+00  1.2218E-02  0.0000E+00  0.0000E+00  0.0000E+00  0.0000E+00  8.0681E-02
 98  0.0000E+00  2.2241E-02  7.0909E-03  0.0000E+00  0.0000E+00  0.0000E+00  0.0000E+00  0.0000E+00  0.0000E+00
 99  0.0000E+00  2.0951E-02  0.0000E+00  0.0000E+00  2.1492E-02  0.0000E+00  0.0000E+00  0.0000E+00  0.0000E+00
100  0.0000E+00  2.1681E-02  0.0000E+00  0.0000E+00  0.0000E+00  0.0000E+00  0.0000E+00  0.0000E+00  0.0000E+00
101  0.0000E+00  3.9752E-05  0.0000E+00  2.2166E-05  0.0000E+00  0.0000E+00  0.0000E+00  0.0000E+00  0.0000E+00
102  0.0000E+00  1.8190E-05  0.0000E+00  0.0000E+00  0.0000E+00  0.0000E+00  0.0000E+00  0.0000E+00  0.0000E+00
103  0.0000E+00  4.9181E-05  1.8011E-04  0.0000E+00  4.5389E-04  0.0000E+00  1.4784E-05  7.7372E-05  0.0000E+00
104  0.0000E+00  7.6239E-05  7.5363E-04  0.0000E+00  0.0000E+00  0.0000E+00  4.3725E-04  0.0000E+00  7.6820E-06
105  0.0000E+00  8.4363E-05  0.0000E+00  0.0000E+00  0.0000E+00  6.2255E-04  0.0000E+00  0.0000E+00  0.0000E+00
106  0.0000E+00  1.1535E-04  0.0000E+00  0.0000E+00  0.0000E+00  0.0000E+00  0.0000E+00  1.0657E-03  0.0000E+00
107  0.0000E+00  2.2085E-04  1.0904E-04  0.0000E+00  0.0000E+00  0.0000E+00  0.0000E+00  0.0000E+00  0.0000E+00
108  0.0000E+00  1.8041E-04  0.0000E+00  0.0000E+00  0.0000E+00  0.0000E+00  0.0000E+00  0.0000E+00  0.0000E+00
109  0.0000E+00  3.4268E-04  0.0000E+00  2.1373E-04  0.0000E+00  0.0000E+00  0.0000E+00  0.0000E+00  0.0000E+00
110  0.0000E+00  4.2432E-04  0.0000E+00  7.2895E-04  0.0000E+00  1.7354E-04  0.0000E+00  0.0000E+00  0.0000E+00
111  0.0000E+00  6.1511E-04  0.0000E+00  0.0000E+00  0.0000E+00  2.9713E-04  4.9528E-04  0.0000E+00  0.0000E+00
112  0.0000E+00  1.1105E-03  3.1146E-04  0.0000E+00  0.0000E+00  0.0000E+00  0.0000E+00  0.0000E+00  0.0000E+00
113  0.0000E+00  1.1357E-03  0.0000E+00  0.0000E+00  0.0000E+00  0.0000E+00  0.0000E+00  2.3226E-02  0.0000E+00
114  0.0000E+00  1.4641E-03  0.0000E+00  0.0000E+00  0.0000E+00  1.3766E-03  0.0000E+00  0.0000E+00  0.0000E+00
115  0.0000E+00  2.3563E-03  0.0000E+00  0.0000E+00  0.0000E+00  0.0000E+00  0.0000E+00  0.0000E+00  0.0000E+00
116  0.0000E+00  4.0742E-03  0.0000E+00  2.0662E-02  0.0000E+00  0.0000E+00  0.0000E+00  0.0000E+00  3.0897E-03
117  0.0000E+00  4.4977E-03  0.0000E+00  0.0000E+00  0.0000E+00  0.0000E+00  0.0000E+00  0.0000E+00  0.0000E+00
118  0.0000E+00  7.9318E-03  0.0000E+00  0.0000E+00  0.0000E+00  0.0000E+00  0.0000E+00  0.0000E+00  0.0000E+00
119  0.0000E+00  1.3978E-02  0.0000E+00  0.0000E+00  0.0000E+00  0.0000E+00  0.0000E+00  0.0000E+00  0.0000E+00
120  0.0000E+00  1.9063E-02  0.0000E+00  0.0000E+00  0.0000E+00  0.0000E+00  0.0000E+00  0.0000E+00  0.0000E+00
121  0.0000E+00  2.0022E-02  0.0000E+00  0.0000E+00  0.0000E+00  0.0000E+00  0.0000E+00  0.0000E+00  0.0000E+00
122  0.0000E+00  2.3496E-02  0.0000E+00  3.1869E-01  0.0000E+00  0.0000E+00  0.0000E+00  0.0000E+00  0.0000E+00
123  0.0000E+00  4.2233E-02  0.0000E+00  0.0000E+00  0.0000E+00  1.3034E-02  0.0000E+00  0.0000E+00  0.0000E+00
124  0.0000E+00  4.0858E-02  0.0000E+00  0.0000E+00  0.0000E+00  0.0000E+00  0.0000E+00  0.0000E+00  0.0000E+00
125  0.0000E+00  1.2513E+00  0.0000E+00  0.0000E+00  2.0426E-01  0.0000E+00  0.0000E+00  0.0000E+00  0.0000E+00
126  0.0000E+00  2.4912E-05  0.0000E+00  0.0000E+00  0.0000E+00  0.0000E+00  0.0000E+00  0.0000E+00  0.0000E+00
127  0.0000E+00  1.4565E-05  0.0000E+00  0.0000E+00  0.0000E+00  1.1105E-04  0.0000E+00  0.0000E+00  0.0000E+00
128  0.0000E+00  4.2804E-05  0.0000E+00  0.0000E+00  0.0000E+00  0.0000E+00  0.0000E+00  0.0000E+00  1.2009E-04
129  0.0000E+00  6.8434E-05  0.0000E+00  0.0000E+00  0.0000E+00  0.0000E+00  0.0000E+00  0.0000E+00  0.0000E+00
130  0.0000E+00  4.9055E-05  0.0000E+00  0.0000E+00  0.0000E+00  0.0000E+00  0.0000E+00  0.0000E+00  0.0000E+00
131  0.0000E+00  4.4067E-05  0.0000E+00  0.0000E+00  0.0000E+00  0.0000E+00  0.0000E+00  0.0000E+00  0.0000E+00
132  0.0000E+00  7.7989E-05  0.0000E+00  0.0000E+00  0.0000E+00  0.0000E+00  0.0000E+00  0.0000E+00  0.0000E+00
133  0.0000E+00  1.3604E-04  0.0000E+00  0.0000E+00  0.0000E+00  0.0000E+00  0.0000E+00  0.0000E+00  0.0000E+00
134  0.0000E+00  2.4741E-04  0.0000E+00  0.0000E+00  1.9220E-04  0.0000E+00  7.6483E-04  0.0000E+00  0.0000E+00
135  0.0000E+00  4.8614E-04  0.0000E+00  0.0000E+00  0.0000E+00  0.0000E+00  0.0000E+00  0.0000E+00  1.3095E-03
136  0.0000E+00  6.2518E-04  0.0000E+00  0.0000E+00  0.0000E+00  0.0000E+00  0.0000E+00  7.3610E-04  0.0000E+00
137  0.0000E+00  8.4073E-04  0.0000E+00  0.0000E+00  1.2443E-03  0.0000E+00  0.0000E+00  0.0000E+00  0.0000E+00
138  0.0000E+00  1.2665E-03  1.9749E-03  0.0000E+00  0.0000E+00  0.0000E+00  0.0000E+00  0.0000E+00  0.0000E+00
139  0.0000E+00  1.4251E-03  0.0000E+00  0.0000E+00  0.0000E+00  0.0000E+00  0.0000E+00  0.0000E+00  8.0944E-04
140  0.0000E+00  4.0967E-03  0.0000E+00  0.0000E+00  3.7721E-03  0.0000E+00  0.0000E+00  0.0000E+00  0.0000E+00
141  0.0000E+00  7.1707E-03  0.0000E+00  0.0000E+00  0.0000E+00  2.5244E-02  0.0000E+00  0.0000E+00  0.0000E+00
142  0.0000E+00  5.6613E-03  0.0000E+00  0.0000E+00  0.0000E+00  0.0000E+00  0.0000E+00  0.0000E+00  0.0000E+00
143  0.0000E+00  1.2112E-02  0.0000E+00  0.0000E+00  0.0000E+00  0.0000E+00  0.0000E+00  0.0000E+00  0.0000E+00
144  0.0000E+00  8.0551E-02  2.0981E-01  0.0000E+00  6.6281E-02  4.8867E-02  0.0000E+00  1.9639E-01  0.0000E+00
145  0.0000E+00  1.4230E-01  0.0000E+00  0.0000E+00  0.0000E+00  4.4792E-01  0.0000E+00  1.6563E-01  2.5614E-01
146  0.0000E+00  1.4591E+00  1.0813E+00  8.8999E-01  1.3632E+00  1.3252E+00  1.9113E+00  1.3179E+00  1.4005E+00
147  0.0000E+00  1.3094E+00  7.8717E-01  1.4316E+00  2.1590E+00  1.3831E+00  1.4926E+00  9.2590E-01  1.6477E+00
148  8.0326E+00  1.6267E+00  4.1003E+00  1.6990E+00  2.7155E+00  2.3424E+00  1.8621E+00  1.9322E+00  1.5092E+00
149  0.0000E+00  2.3349E+00  2.3718E+00  2.3947E+00  9.8510E-01  3.4661E+00  3.4025E+00  2.2541E+00  2.2973E+00
150  9.2881E+00  3.3266E+00  5.3984E+00  3.5106E+00  4.1253E+00  3.5925E+00  2.7578E+00  5.3823E+00  5.8687E+00

# AV, chi2 & Mass for <> & i_chain = 1 ...  7 solutions
AV       0.8798      0.8543      0.8628      0.8597      0.8611      0.8584      0.8610      0.8582      0.8594
chi2 2.5520E+00  2.6656E+00  2.6203E+00  2.6332E+00  2.6300E+00  2.6327E+00  2.6284E+00  2.6345E+00  2.6311E+00
Mass 7.3740E-10  7.5497E-10  7.4663E-10  7.3725E-10  7.4710E-10  7.4072E-10  7.3395E-10  7.5814E-10  7.6401E-10
 -24.18                                  [v0_min (km/s) before EX0s...]
  49.32                                  [vd_min (km/s) before EX0s...]


## Synthetic spectrum (Best Model) ##l_obs f_obs f_syn wei
 3070    [Nl_obs]
 3359.00    0.14978   0.40190   -1.000
 3360.00    0.24543   0.39496   -1.000
 3361.00    0.24451   0.40893   -1.000
 3362.00    0.25410   0.43342   -1.000
 3363.00    0.26910   0.45850   -1.000
 3364.00    0.28112   0.47035   -1.000
 3365.00    0.29092   0.46667   -1.000
 3366.00    0.29331   0.45967   -1.000
 3367.00    0.28996   0.45324   -1.000
 3368.00    0.29114   0.44583   -1.000
 3369.00    0.29045   0.43452   -1.000
 3370.00    0.28063   0.41807   -1.000
 3371.00    0.27046   0.40904   -1.000
 3372.00    0.27204   0.41515   -1.000
 3373.00    0.28746   0.43351   -1.000
 3374.00    0.30033   0.45526   -1.000
 3375.00    0.31032   0.47313   -1.000
 3376.00    0.32121   0.47994   -1.000
 3377.00    0.32815   0.47544   -1.000
 3378.00    0.32877   0.46516   -1.000
 3379.00    0.32735   0.45895   -1.000
 3380.00    0.32621   0.46078   -1.000
 3381.00    0.32601   0.46630   -1.000
 3382.00    0.32577   0.47154   -1.000
 3383.00    0.32878   0.47616   -1.000
 3384.00    0.33506   0.48086   -1.000
 3385.00    0.34943   0.48281   -1.000
 3386.00    0.35984   0.47611   -1.000
 3387.00    0.36073   0.46624   -1.000
 3388.00    0.36153   0.46442   -1.000
 3389.00    0.36574   0.47233   -1.000
 3390.00    0.36916   0.48183   -1.000
 3391.00    0.37911   0.48488   -1.000
 3392.00    0.38329   0.47876   -1.000
 3393.00    0.38167   0.47509   -1.000
 3394.00    0.38157   0.48053   -1.000
 3395.00    0.39528   0.49220   -1.000
 3396.00    0.40339   0.50553   -1.000
 3397.00    0.40785   0.51571   -1.000
 3398.00    0.41655   0.52180   -1.000
 3399.00    0.42517   0.52129   -1.000
 3400.00    0.42926   0.51468   -1.000
 3401.00    0.42971   0.50150   41.295
 3402.00    0.42352   0.48629   42.257
 3403.00    0.41758   0.47854   42.875
 3404.00    0.41589   0.47774   43.650
 3405.00    0.41193   0.48180   -1.000
 3406.00    0.41027   0.48129   -1.000
 3407.00    0.41660   0.47504   45.314
 3408.00    0.41381   0.46955   45.744
 3409.00    0.41274   0.47294   45.653
 3410.00    0.41947   0.48002   44.661
 3411.00    0.41973   0.47979   43.932
 3412.00    0.41937   0.47469   44.997
 3413.00    0.42060   0.46995   46.267
 3414.00    0.41826   0.47389   46.505
 3415.00    0.42401   0.48536   45.721
 3416.00    0.43056   0.49624   44.042
 3417.00    0.43153   0.50420   42.019
 3418.00    0.44043   0.51023   39.941
 3419.00    0.44744   0.51536   39.092
 3420.00    0.45809   0.51859   38.875
 3421.00    0.45944   0.51467   38.925
 3422.00    0.45153   0.50204   39.735
 3423.00    0.45491   0.48974   40.743
 3424.00    0.45693   0.48644   40.329
 3425.00    0.46078   0.49104   39.218
 3426.00    0.46365   0.49865   38.705
 3427.00    0.46441   0.50988   -1.000
 3428.00    0.46970   0.52440   -1.000
 3429.00    0.47988   0.53629   -1.000
 3430.00    0.48799   0.53539   -1.000
 3431.00    0.48903   0.52022   -1.000
 3432.00    0.48121   0.50548   58.822
 3433.00    0.47437   0.50352   38.625
 3434.00    0.47672   0.51591   -1.000
 3435.00    0.48152   0.52877   -1.000
 3436.00    0.48300   0.52907   58.347
 3437.00    0.48356   0.51838   39.629
 3438.00    0.47856   0.50418   41.823
 3439.00    0.46879   0.48979   44.849
 3440.00    0.45835   0.47556   47.334
 3441.00    0.45230   0.46328   48.082
 3442.00    0.44867   0.45812   47.974
 3443.00    0.44908   0.46105   46.678
 3444.00    0.45519   0.47021   44.363
 3445.00    0.46446   0.48432   41.912
 3446.00    0.47601   0.50352   40.143
 3447.00    0.48897   0.52308   89.427
 3448.00    0.49501   0.53643   -1.000
 3449.00    0.49685   0.53675   -1.000
 3450.00    0.50140   0.52138   -1.000
 3451.00    0.50410   0.50170  318.298
 3452.00    0.50112   0.49027   -1.000
 3453.00    0.49546   0.49048  318.298
 3454.00    0.49474   0.49790  318.298
 3455.00    0.49632   0.50565  318.298
 3456.00    0.50533   0.50883  318.298
 3457.00    0.51057   0.50677  318.298
 3458.00    0.50858   0.50065   58.144
 3459.00    0.50097   0.49203   38.957
 3460.00    0.49956   0.48344   38.987
 3461.00    0.50046   0.48265   88.602
 3462.00    0.50162   0.49162   -1.000
 3463.00    0.50428   0.50103  318.298
 3464.00    0.50553   0.50312  318.298
 3465.00    0.51036   0.50019   -1.000
 3466.00    0.51139   0.50251   -1.000
 3467.00    0.51410   0.51303  318.298
 3468.00    0.52123   0.52711  318.298
 3469.00    0.53129   0.53762  318.298
 3470.00    0.54334   0.53941  318.298
 3471.00    0.54129   0.53317  318.298
 3472.00    0.53194   0.52103   -1.000
 3473.00    0.51432   0.50390   -1.000
 3474.00    0.49739   0.48960   58.385
 3475.00    0.49167   0.48355   39.867
 3476.00    0.48952   0.48801   39.850
 3477.00    0.49361   0.50104   89.977
 3478.00    0.50649   0.51425  318.298
 3479.00    0.51978   0.52529  318.298
 3480.00    0.52724   0.53311  318.298
 3481.00    0.52877   0.53393  318.298
 3482.00    0.53257   0.52960  318.298
 3483.00    0.53523   0.52511   -1.000
 3484.00    0.52910   0.52582  318.298
 3485.00    0.52746   0.53382  318.298
 3486.00    0.53207   0.54123   -1.000
 3487.00    0.53794   0.54059  317.863
 3488.00    0.53354   0.53174  318.298
 3489.00    0.51871   0.51830  318.298
 3490.00    0.50625   0.51001  318.298
 3491.00    0.50223   0.51344   -1.000
 3492.00    0.51301   0.52104  318.298
 3493.00    0.51686   0.52243  318.298
 3494.00    0.51194   0.51678  318.298
 3495.00    0.50790   0.50681  318.298
 3496.00    0.51126   0.50067   -1.000
 3497.00    0.51175   0.50295  318.298
 3498.00    0.51663   0.50904  318.298
 3499.00    0.53280   0.51545   -1.000
 3500.00    0.54041   0.51690   -1.000
 3501.00    0.54347   0.51723   -1.000
 3502.00    0.54439   0.52060   -1.000
 3503.00    0.54207   0.52319   -1.000
 3504.00    0.54271   0.52193   -1.000
 3505.00    0.53621   0.51615   -1.000
 3506.00    0.53206   0.51041   -1.000
 3507.00    0.54069   0.50725   -1.000
 3508.00    0.54267   0.50712   -1.000
 3509.00    0.52956   0.50891   -1.000
 3510.00    0.52025   0.50860   -1.000
 3511.00    0.51683   0.50567   -1.000
 3512.00    0.52044   0.50063   -1.000
 3513.00    0.52161   0.49756   -1.000
 3514.00    0.52102   0.50094   -1.000
 3515.00    0.53152   0.51329   -1.000
 3516.00    0.54402   0.53161   -1.000
 3517.00    0.54743   0.54396  307.211
 3518.00    0.54482   0.54208  311.661
 3519.00    0.54371   0.52863   -1.000
 3520.00    0.53299   0.51532   -1.000
 3521.00    0.52191   0.50728   -1.000
 3522.00    0.52225   0.50249   -1.000
 3523.00    0.51714   0.49634   57.226
 3524.00    0.50447   0.48773   39.494
 3525.00    0.49739   0.48425   39.835
 3526.00    0.49613   0.49089   92.321
 3527.00    0.50306   0.50368  318.298
 3528.00    0.51659   0.51921  318.298
 3529.00    0.53163   0.53273  318.298
 3530.00    0.54211   0.54140  318.298
 3531.00    0.54411   0.54391  318.298
 3532.00    0.54108   0.53710  318.298
 3533.00    0.53820   0.52467   -1.000
 3534.00    0.54381   0.51687   -1.000
 3535.00    0.54831   0.52024   -1.000
 3536.00    0.54577   0.53436   -1.000
 3537.00    0.55002   0.54939  308.427
 3538.00    0.55808   0.55873  304.638
 3539.00    0.55969   0.56233  304.970
 3540.00    0.56389   0.56133  309.711
 3541.00    0.56373   0.55902  313.539
 3542.00    0.55836   0.55973  313.155
 3543.00    0.56212   0.56456  309.325
 3544.00    0.56013   0.56787   -1.000
 3545.00    0.55727   0.56648   -1.000
 3546.00    0.56209   0.56266  317.153
 3547.00    0.56252   0.55897  318.298
 3548.00    0.56165   0.55809  318.298
 3549.00    0.55822   0.56105  318.298
 3550.00    0.55747   0.56662   -1.000
 3551.00    0.55171   0.56930   -1.000
 3552.00    0.53646   0.56375   -1.000
 3553.00    0.53291   0.55381   -1.000
 3554.00    0.53478   0.54813   -1.000
 3555.00    0.53840   0.55031   -1.000
 3556.00    0.53875   0.55828   -1.000
 3557.00    0.54234   0.56748   -1.000
 3558.00    0.54649   0.57180   -1.000
 3559.00    0.54700   0.57139   -1.000
 3560.00    0.54701   0.57032   -1.000
 3561.00    0.54865   0.56956   -1.000
 3562.00    0.54946   0.56545   -1.000
 3563.00    0.55122   0.55481  318.298
 3564.00    0.53938   0.53921   57.089
 3565.00    0.52163   0.52444   40.027
 3566.00    0.51408   0.51671   40.294
 3567.00    0.50920   0.51610   39.978
 3568.00    0.50743   0.51705   40.784
 3569.00    0.50339   0.51322   41.770
 3570.00    0.49581   0.50416   41.162
 3571.00    0.49646   0.49706   39.496
 3572.00    0.50816   0.49609   92.304
 3573.00    0.51735   0.49909   -1.000
 3574.00    0.51790   0.50495   -1.000
 3575.00    0.51424   0.51302  318.298
 3576.00    0.51756   0.52109  318.298
 3577.00    0.52345   0.52805  318.298
 3578.00    0.52118   0.53028   58.907
 3579.00    0.51622   0.52448   42.350
 3580.00    0.50692   0.51402   45.060
 3581.00    0.49580   0.50395   46.102
 3582.00    0.49047   0.49958   46.321
 3583.00    0.49163   0.49981   47.151
 3584.00    0.49138   0.49434   48.587
 3585.00    0.47595   0.47965   49.595
 3586.00    0.47013   0.46511   48.146
 3587.00    0.47320   0.46260   45.609
 3588.00    0.48079   0.47503   43.327
 3589.00    0.49604   0.49553   40.021
 3590.00    0.51024   0.51358   91.977
 3591.00    0.52603   0.52383  318.298
 3592.00    0.53850   0.52746   -1.000
 3593.00    0.54494   0.52981   -1.000
 3594.00    0.53966   0.53574  318.298
 3595.00    0.53992   0.54537  316.728
 3596.00    0.55427   0.55398  305.378
 3597.00    0.56106   0.55899  297.091
 3598.00    0.56000   0.56105  291.241
 3599.00    0.56594   0.56115  291.930
 3600.00    0.56956   0.55635   -1.000
 3601.00    0.56330   0.54569   -1.000
 3602.00    0.54829   0.53541   -1.000
 3603.00    0.53804   0.53108  318.298
 3604.00    0.54023   0.53419  318.298
 3605.00    0.54186   0.53747  318.298
 3606.00    0.54059   0.53592  318.298
 3607.00    0.53605   0.53134  318.298
 3608.00    0.52824   0.52689  318.298
 3609.00    0.52373   0.52460  318.298
 3610.00    0.52655   0.52441  318.298
 3611.00    0.52879   0.52761  318.298
 3612.00    0.53551   0.53337  318.298
 3613.00    0.53743   0.53995  318.298
 3614.00    0.54347   0.55033   -1.000
 3615.00    0.55235   0.56128   -1.000
 3616.00    0.55138   0.56254   -1.000
 3617.00    0.54191   0.55283   -1.000
 3618.00    0.52689   0.53791   55.716
 3619.00    0.52305   0.53033   92.497
 3620.00    0.53026   0.53666  318.298
 3621.00    0.54800   0.54917  316.431
 3622.00    0.55869   0.55978  305.440
 3623.00    0.56095   0.56666  300.544
 3624.00    0.56456   0.57456   -1.000
 3625.00    0.57081   0.58791   -1.000
 3626.00    0.58132   0.60402   -1.000
 3627.00    0.58860   0.61281   -1.000
 3628.00    0.58590   0.60423   -1.000
 3629.00    0.57444   0.58042  316.922
 3630.00    0.55047   0.55325  318.298
 3631.00    0.53036   0.53829  318.298
 3632.00    0.52604   0.54101   -1.000
 3633.00    0.53697   0.55389   -1.000
 3634.00    0.55008   0.56352   -1.000
 3635.00    0.55365   0.56571   -1.000
 3636.00    0.55787   0.56824   -1.000
 3637.00    0.56430   0.57660   -1.000
 3638.00    0.57461   0.58672   -1.000
 3639.00    0.58524   0.59242   -1.000
 3640.00    0.58313   0.59134   -1.000
 3641.00    0.57454   0.58378   -1.000
 3642.00    0.56112   0.57284   -1.000
 3643.00    0.55194   0.56333   -1.000
 3644.00    0.54958   0.55711   -1.000
 3645.00    0.54997   0.55354  318.298
 3646.00    0.54722   0.55181  318.298
 3647.00    0.54309   0.55182   -1.000
 3648.00    0.54493   0.55234  318.298
 3649.00    0.54485   0.55300  318.298
 3650.00    0.55110   0.55570  304.690
 3651.00    0.56181   0.56253  291.241
 3652.00    0.56646   0.57347  282.455
 3653.00    0.58351   0.58523  277.572
 3654.00    0.59416   0.59676  275.702
 3655.00    0.59295   0.60688   -1.000
 3656.00    0.59402   0.61339   -1.000
 3657.00    0.59860   0.61546   -1.000
 3658.00    0.59954   0.61440   -1.000
 3659.00    0.59633   0.61186   -1.000
 3660.00    0.59783   0.60715   -1.000
 3661.00    0.58998   0.60041   -1.000
 3662.00    0.58678   0.59430   -1.000
 3663.00    0.59253   0.59184  277.003
 3664.00    0.59226   0.59399  275.368
 3665.00    0.58942   0.59746   -1.000
 3666.00    0.59143   0.59892   -1.000
 3667.00    0.59153   0.59690  282.389
 3668.00    0.58974   0.59188  288.111
 3669.00    0.57884   0.58752   -1.000
 3670.00    0.57494   0.58720   -1.000
 3671.00    0.58271   0.59239   -1.000
 3672.00    0.58961   0.60007   -1.000
 3673.00    0.59034   0.60417   -1.000
 3674.00    0.59060   0.60222   -1.000
 3675.00    0.59398   0.59495  277.366
 3676.00    0.58998   0.58349  286.070
 3677.00    0.58061   0.57168  294.830
 3678.00    0.57057   0.56512  302.809
 3679.00    0.57023   0.56655  304.706
 3680.00    0.57821   0.57184  298.902
 3681.00    0.57890   0.57656  290.452
 3682.00    0.57928   0.57897  285.930
 3683.00    0.57913   0.57799  289.825
 3684.00    0.57733   0.57386  300.253
 3685.00    0.56881   0.56771  312.667
 3686.00    0.56629   0.56488  318.298
 3687.00    0.56853   0.57163  316.189
 3688.00    0.57404   0.58801   -1.000
 3689.00    0.58621   0.60397   -1.000
 3690.00    0.59559   0.61073   -1.000
 3691.00    0.59682   0.61057   -1.000
 3692.00    0.60035   0.61003   -1.000
 3693.00    0.60321   0.61248   -1.000
 3694.00    0.61347   0.61587  277.249
 3695.00    0.61557   0.61538  275.135
 3696.00    0.60167   0.60946  272.042
 3697.00    0.60078   0.60759  264.817
 3698.00    0.61128   0.61932  257.436
 3699.00    0.62867   0.64035   -1.000
 3700.00    0.64289   0.65467   -1.000
 3701.00    0.64119   0.64486  264.884
 3702.00    0.61735   0.61248  285.856
 3703.00    0.58616   0.57421   -1.000
 3704.00    0.56137   0.54859   -1.000
 3705.00    0.55442   0.54454   -1.000
 3706.00    0.56457   0.55745  318.298
 3707.00    0.58145   0.57585  318.298
 3708.00    0.59244   0.58698  317.165
 3709.00    0.58966   0.58299  304.070
 3710.00    0.58215   0.56900   -1.000
 3711.00    0.57860   0.55910   -1.000
 3712.00    0.58667   0.56569   -1.000
 3713.00    0.61070   0.59205   -1.000
 3714.00    0.64512   0.62775   -1.000
 3715.00    0.67085   0.65738  254.300
 3716.00    0.67140   0.67289  264.326
 3717.00    0.66195   0.67079  285.231
 3718.00    0.64095   0.64580  318.298
 3719.00    0.59673   0.59759  318.298
 3720.00    0.54612   0.54228   55.488
 3721.00    0.51541   0.50839   98.162
 3722.00    0.52184   0.51062   -1.000
 3723.00    0.56121   0.54664   -1.000
 3724.00    0.60640   0.59877  282.282
 3725.00    0.64329   0.63970  280.165
 3726.00    0.65841   0.65938  287.249
 3727.00    0.65634   0.66698  291.918
 3728.00    0.65449   0.67186   -1.000
 3729.00    0.65934   0.67391   -1.000
 3730.00    0.65395   0.66322  299.817
 3731.00    0.63045   0.62729  318.298
 3732.00    0.58417   0.56993   54.059
 3733.00    0.53480   0.51349   41.521
 3734.00    0.50093   0.47768   44.222
 3735.00    0.49331   0.47637   43.185
 3736.00    0.51662   0.50966   39.668
 3737.00    0.56054   0.56158   95.948
 3738.00    0.60898   0.61619  315.840
 3739.00    0.64802   0.66381   -1.000
 3740.00    0.67461   0.69196   -1.000
 3741.00    0.68512   0.69696   -1.000
 3742.00    0.68494   0.68523  310.951
 3743.00    0.67289   0.66735  318.298
 3744.00    0.64918   0.64649  318.298
 3745.00    0.62713   0.62275  318.298
 3746.00    0.59654   0.59358   54.890
 3747.00    0.56228   0.55777   40.718
 3748.00    0.52586   0.52012   41.863
 3749.00    0.50066   0.49220  105.712
 3750.00    0.50721   0.49275   -1.000
 3751.00    0.54961   0.52920   -1.000
 3752.00    0.60417   0.58669   -1.000
 3753.00    0.65349   0.64338  265.516
 3754.00    0.69448   0.68432  257.664
 3755.00    0.71786   0.70502   -1.000
 3756.00    0.71605   0.70369   -1.000
 3757.00    0.70039   0.68543   -1.000
 3758.00    0.68177   0.66562   -1.000
 3759.00    0.67428   0.65586   -1.000
 3760.00    0.68435   0.65908   -1.000
 3761.00    0.70148   0.67192   -1.000
 3762.00    0.71383   0.68444   -1.000
 3763.00    0.71651   0.68923   -1.000
 3764.00    0.70839   0.68462   -1.000
 3765.00    0.69426   0.67203   -1.000
 3766.00    0.67454   0.65170   -1.000
 3767.00    0.64828   0.62044   -1.000
 3768.00    0.61816   0.58050   -1.000
 3769.00    0.59349   0.54314   -1.000
 3770.00    0.57399   0.52493   -1.000
 3771.00    0.57676   0.53882   -1.000
 3772.00    0.60621   0.57880   -1.000
 3773.00    0.65036   0.62543   -1.000
 3774.00    0.68220   0.66023   -1.000
 3775.00    0.69822   0.68115   -1.000
 3776.00    0.72192   0.69793   -1.000
 3777.00    0.74105   0.71989   -1.000
 3778.00    0.75991   0.74579   -1.000
 3779.00    0.77988   0.76999  248.391
 3780.00    0.79012   0.78799  245.499
 3781.00    0.80053   0.79590  243.985
 3782.00    0.80548   0.79467  243.638
 3783.00    0.80988   0.78857   -1.000
 3784.00    0.80375   0.77997   -1.000
 3785.00    0.78991   0.76709   -1.000
 3786.00    0.77357   0.75006   -1.000
 3787.00    0.75285   0.73318   -1.000
 3788.00    0.74144   0.72351   -1.000
 3789.00    0.73805   0.72172   -1.000
 3790.00    0.73576   0.72172   -1.000
 3791.00    0.72755   0.71681   -1.000
 3792.00    0.70981   0.70246  306.002
 3793.00    0.69001   0.67564   -1.000
 3794.00    0.66277   0.63668   -1.000
 3795.00    0.62972   0.59083   -1.000
 3796.00    0.58759   0.54509   -1.000
 3797.00    0.54786   0.51042   -1.000
 3798.00    0.53608   0.50366   -1.000
 3799.00    0.56036   0.53587   -1.000
 3800.00    0.60934   0.59717   -1.000
 3801.00    0.66197   0.66095  282.266
 3802.00    0.70479   0.70934  274.289
 3803.00    0.73431   0.73759  271.435
 3804.00    0.75326   0.75115  273.946
 3805.00    0.76519   0.75470   -1.000
 3806.00    0.76491   0.75710  289.754
 3807.00    0.76721   0.76612  285.956
 3808.00    0.78332   0.78306  275.744
 3809.00    0.80099   0.80222  270.387
 3810.00    0.81027   0.81337  273.276
 3811.00    0.80773   0.80663  285.312
 3812.00    0.79674   0.78294   -1.000
 3813.00    0.78341   0.75615   -1.000
 3814.00    0.77006   0.74046   -1.000
 3815.00    0.76503   0.74291   -1.000
 3816.00    0.77546   0.75763   -1.000
 3817.00    0.78733   0.77175   -1.000
 3818.00    0.78410   0.77193   -1.000
 3819.00    0.76126   0.75745  318.298
 3820.00    0.74483   0.74211  318.298
 3821.00    0.74645   0.73823   -1.000
 3822.00    0.75464   0.74328   -1.000
 3823.00    0.75011   0.73878   -1.000
 3824.00    0.72966   0.71876   55.715
 3825.00    0.70633   0.69682   40.938
 3826.00    0.69601   0.68202   40.940
 3827.00    0.68618   0.67257   40.358
 3828.00    0.67789   0.66368   39.694
 3829.00    0.67635   0.65255   39.853
 3830.00    0.66144   0.63510   41.291
 3831.00    0.62841   0.60596   44.194
 3832.00    0.58556   0.56230   46.216
 3833.00    0.54187   0.51171   45.952
 3834.00    0.51128   0.47393   44.338
 3835.00    0.50256   0.46195   43.124
 3836.00    0.51935   0.47657   43.506
 3837.00    0.54595   0.51080   44.542
 3838.00    0.57225   0.55214   44.283
 3839.00    0.60105   0.59142   42.214
 3840.00    0.63598   0.62913  108.464
 3841.00    0.67746   0.66735   -1.000
 3842.00    0.71842   0.70511   -1.000
 3843.00    0.75044   0.73908   -1.000
 3844.00    0.76874   0.76358  312.820
 3845.00    0.78167   0.77978  312.727
 3846.00    0.78937   0.79226  313.099
 3847.00    0.79456   0.80145  318.298
 3848.00    0.79450   0.80381  318.298
 3849.00    0.78882   0.80044   -1.000
 3850.00    0.78659   0.80122   -1.000
 3851.00    0.79529   0.81304   -1.000
 3852.00    0.80766   0.82982   -1.000
 3853.00    0.81897   0.84006   -1.000
 3854.00    0.82095   0.83772   -1.000
 3855.00    0.81356   0.82642   -1.000
 3856.00    0.80346   0.81375  318.298
 3857.00    0.79428   0.80373   52.376
 3858.00    0.78395   0.79652   39.881
 3859.00    0.76486   0.79588   39.962
 3860.00    0.76535   0.80490   -1.000
 3861.00    0.79491   0.82036   -1.000
 3862.00    0.82971   0.83363  309.016
 3863.00    0.84386   0.83952  306.629
 3864.00    0.84068   0.83886  311.729
 3865.00    0.84225   0.83675  316.899
 3866.00    0.84025   0.83838  318.298
 3867.00    0.83594   0.84408  318.298
 3868.00    0.83330   0.84846   -1.000
 3869.00    0.81753   0.84397   -1.000
 3870.00    0.79373   0.82865   52.989
 3871.00    0.77148   0.80654   -1.000
 3872.00    0.75574   0.78640   -1.000
 3873.00    0.76328   0.77901   -1.000
 3874.00    0.78523   0.78458  300.766
 3875.00    0.79522   0.79155  304.354
 3876.00    0.78826   0.78572  318.298
 3877.00    0.76649   0.76781  318.298
 3878.00    0.74501   0.75179  318.298
 3879.00    0.73752   0.74809  318.298
 3880.00    0.73605   0.75202   -1.000
 3881.00    0.71976   0.74937   -1.000
 3882.00    0.71356   0.73623   -1.000
 3883.00    0.71700   0.71627  311.674
 3884.00    0.70711   0.68766   -1.000
 3885.00    0.67941   0.64592   -1.000
 3886.00    0.63841   0.59252   -1.000
 3887.00    0.60003   0.54057   -1.000
 3888.00    0.56463   0.51007   -1.000
 3889.00    0.55750   0.51390   -1.000
 3890.00    0.59618   0.55213   -1.000
 3891.00    0.65426   0.60805   -1.000
 3892.00    0.69724   0.65786   -1.000
 3893.00    0.71780   0.68882   -1.000
 3894.00    0.72874   0.70622   -1.000
 3895.00    0.74438   0.72045   -1.000
 3896.00    0.76261   0.73704   -1.000
 3897.00    0.77819   0.75371   -1.000
 3898.00    0.78950   0.76394   -1.000
 3899.00    0.79319   0.76838   -1.000
 3900.00    0.80434   0.77625   -1.000
 3901.00    0.81799   0.78791   -1.000
 3902.00    0.82962   0.79632   -1.000
 3903.00    0.83551   0.79779   -1.000
 3904.00    0.83019   0.79435   -1.000
 3905.00    0.82097   0.79375   -1.000
 3906.00    0.82357   0.80246   -1.000
 3907.00    0.83898   0.82371   -1.000
 3908.00    0.86308   0.85114   -1.000
 3909.00    0.88364   0.87327   -1.000
 3910.00    0.89075   0.88344  234.976
 3911.00    0.89528   0.88323   -1.000
 3912.00    0.90211   0.87571   -1.000
 3913.00    0.89237   0.86338   -1.000
 3914.00    0.87830   0.85284   -1.000
 3915.00    0.87132   0.85018   -1.000
 3916.00    0.87017   0.85160   -1.000
 3917.00    0.87317   0.85022   -1.000
 3918.00    0.87095   0.84441   -1.000
 3919.00    0.85886   0.83789   -1.000
 3920.00    0.84535   0.83433   -1.000
 3921.00    0.84380   0.83351   -1.000
 3922.00    0.84588   0.83519   -1.000
 3923.00    0.85302   0.83725   -1.000
 3924.00    0.85299   0.83562   -1.000
 3925.00    0.84037   0.82418   -1.000
 3926.00    0.81560   0.79902   -1.000
 3927.00    0.77483   0.76258   57.456
 3928.00    0.72852   0.71582   47.708
 3929.00    0.67637   0.65946   55.856
 3930.00    0.60308   0.58792   65.872
 3931.00    0.51106   0.49895   77.350
 3932.00    0.41507   0.41274   86.265
 3933.00    0.36381   0.36302   85.748
 3934.00    0.38864   0.37553   76.298
 3935.00    0.46507   0.44395   63.812
 3936.00    0.55794   0.53581   52.471
 3937.00    0.63955   0.62408   43.852
 3938.00    0.70593   0.69821  113.516
 3939.00    0.76160   0.75171   -1.000
 3940.00    0.79317   0.78649   -1.000
 3941.00    0.80422   0.80534  318.298
 3942.00    0.81061   0.81272  318.298
 3943.00    0.81537   0.81637  315.308
 3944.00    0.82130   0.82206  289.547
 3945.00    0.84028   0.83138   -1.000
 3946.00    0.86331   0.84165   -1.000
 3947.00    0.87138   0.84608   -1.000
 3948.00    0.86668   0.84292   -1.000
 3949.00    0.86796   0.83667   -1.000
 3950.00    0.87784   0.83217   -1.000
 3951.00    0.87665   0.83044   -1.000
 3952.00    0.86887   0.83289   -1.000
 3953.00    0.86651   0.83896   -1.000
 3954.00    0.87464   0.84135   -1.000
 3955.00    0.87151   0.83563   -1.000
 3956.00    0.84814   0.82400   -1.000
 3957.00    0.83825   0.81462   -1.000
 3958.00    0.84153   0.81129   -1.000
 3959.00    0.83295   0.80368   -1.000
 3960.00    0.80251   0.78305   -1.000
 3961.00    0.76839   0.75114   -1.000
 3962.00    0.72749   0.71335   -1.000
 3963.00    0.69325   0.67397   53.776
 3964.00    0.64709   0.62381   44.983
 3965.00    0.57468   0.55232   54.673
 3966.00    0.47651   0.46142   67.100
 3967.00    0.37456   0.36836   76.449
 3968.00    0.31300   0.30662   74.413
 3969.00    0.31236   0.30001   63.108
 3970.00    0.37073   0.34876   51.862
 3971.00    0.45289   0.43148   43.197
 3972.00    0.53645   0.52103  112.913
 3973.00    0.61947   0.59771   -1.000
 3974.00    0.68608   0.66016   -1.000
 3975.00    0.73341   0.70952   -1.000
 3976.00    0.77447   0.74884   -1.000
 3977.00    0.80640   0.78029   -1.000
 3978.00    0.84230   0.80604   -1.000
 3979.00    0.86575   0.82497   -1.000
 3980.00    0.87400   0.83389   -1.000
 3981.00    0.87447   0.83622   -1.000
 3982.00    0.87175   0.83934   -1.000
 3983.00    0.88170   0.84910   -1.000
 3984.00    0.90189   0.86478   -1.000
 3985.00    0.91190   0.87951   -1.000
 3986.00    0.91868   0.88908   -1.000
 3987.00    0.92998   0.89694   -1.000
 3988.00    0.93715   0.90463   -1.000
 3989.00    0.94233   0.90994   -1.000
 3990.00    0.94775   0.91566   -1.000
 3991.00    0.95388   0.92406   -1.000
 3992.00    0.96343   0.93431   -1.000
 3993.00    0.96692   0.94146   -1.000
 3994.00    0.95442   0.93896  204.208
 3995.00    0.94498   0.92597   -1.000
 3996.00    0.94260   0.90990   -1.000
 3997.00    0.93547   0.90249   -1.000
 3998.00    0.93153   0.90816   -1.000
 3999.00    0.94701   0.92159   -1.000
 4000.00    0.97172   0.93391   -1.000
 4001.00    0.98217   0.94057   -1.000
 4002.00    0.98833   0.94040   -1.000
 4003.00    0.98518   0.93413   -1.000
 4004.00    0.96112   0.92326   -1.000
 4005.00    0.94201   0.91576   -1.000
 4006.00    0.94162   0.92032   -1.000
 4007.00    0.96009   0.93574   -1.000
 4008.00    0.97903   0.95289   -1.000
 4009.00    0.98774   0.96304   -1.000
 4010.00    0.98945   0.96603   -1.000
 4011.00    0.98563   0.96476   -1.000
 4012.00    0.98268   0.96204   -1.000
 4013.00    0.98743   0.96174   -1.000
 4014.00    0.99025   0.96596   -1.000
 4015.00    0.99956   0.97278   -1.000
 4016.00    1.00233   0.97911   -1.000
 4017.00    0.99899   0.98436  186.105
 4018.00    1.00077   0.98986  183.670
 4019.00    1.00278   0.99486  183.266
 4020.00    1.00405   0.99574  185.434
 4021.00    0.99481   0.99029  186.956
 4022.00    0.99186   0.98099  188.135
 4023.00    0.99330   0.97177   -1.000
 4024.00    0.98838   0.96697   -1.000
 4025.00    0.99402   0.97114   -1.000
 4026.00    1.00347   0.98278  175.768
 4027.00    1.01289   0.99138   -1.000
 4028.00    1.02076   0.98867   -1.000
 4029.00    1.00024   0.97548   -1.000
 4030.00    0.97187   0.95804  202.844
 4031.00    0.95622   0.94590  206.773
 4032.00    0.95490   0.94336  205.348
 4033.00    0.96219   0.94907  199.567
 4034.00    0.97429   0.96142  190.424
 4035.00    0.98957   0.97915  180.982
 4036.00    1.00728   0.99933  173.990
 4037.00    1.02524   1.01588  172.002
 4038.00    1.03130   1.02203  174.643
 4039.00    1.02624   1.01879  178.761
 4040.00    1.01968   1.01170  181.294
 4041.00    1.01532   1.00527  182.419
 4042.00    1.01211   0.99701  189.237
 4043.00    0.99760   0.98038   -1.000
 4044.00    0.96684   0.95739  222.663
 4045.00    0.94339   0.94019  219.786
 4046.00    0.94461   0.94267  200.955
 4047.00    0.97119   0.96466  186.917
 4048.00    1.00115   0.98942  180.179
 4049.00    1.01816   1.00433  177.395
 4050.00    1.01653   1.00869  177.841
 4051.00    1.01853   1.00639  181.873
 4052.00    1.01552   0.99919  186.707
 4053.00    1.00434   0.99114  190.088
 4054.00    1.00432   0.98622   -1.000
 4055.00    1.00176   0.98517  193.281
 4056.00    0.99818   0.98636  195.138
 4057.00    0.99938   0.98960  193.886
 4058.00    1.00000   0.99743  187.898
 4059.00    1.00584   1.00587  183.384
 4060.00    1.01508   1.00479  184.904
 4061.00    1.01030   0.99093   -1.000
 4062.00    0.98677   0.97001   -1.000
 4063.00    0.95976   0.95159  210.933
 4064.00    0.96138   0.94234   -1.000
 4065.00    0.97953   0.94443   -1.000
 4066.00    0.98376   0.95264   -1.000
 4067.00    0.98751   0.95910   -1.000
 4068.00    1.00300   0.96186   -1.000
 4069.00    1.01054   0.95969   -1.000
 4070.00    0.99764   0.94980   -1.000
 4071.00    0.97957   0.93717   -1.000
 4072.00    0.97145   0.93266   -1.000
 4073.00    0.98285   0.93770   -1.000
 4074.00    0.98366   0.94169   -1.000
 4075.00    0.96726   0.93255   -1.000
 4076.00    0.94299   0.91225   -1.000
 4077.00    0.93111   0.89571   -1.000
 4078.00    0.93777   0.89722   -1.000
 4079.00    0.95906   0.91791   -1.000
 4080.00    0.98454   0.94234   -1.000
 4081.00    0.99577   0.95641   -1.000
 4082.00    0.99237   0.95609   -1.000
 4083.00    0.97995   0.94676   -1.000
 4084.00    0.96503   0.93666   -1.000
 4085.00    0.96516   0.93259   -1.000
 4086.00    0.97657   0.93685   -1.000
 4087.00    0.98355   0.94578   -1.000
 4088.00    0.99253   0.95346   -1.000
 4089.00    0.99526   0.95498   -1.000
 4090.00    0.98777   0.95055   -1.000
 4091.00    0.97275   0.94267   -1.000
 4092.00    0.96464   0.93085   -1.000
 4093.00    0.95470   0.91499   -1.000
 4094.00    0.93513   0.89680   -1.000
 4095.00    0.91023   0.87501   -1.000
 4096.00    0.89418   0.84856   -1.000
 4097.00    0.87573   0.81565   -1.000
 4098.00    0.84239   0.77333   -1.000
 4099.00    0.79528   0.71790   -1.000
 4100.00    0.72574   0.65715   -1.000
 4101.00    0.66627   0.61663   -1.000
 4102.00    0.66362   0.62110   -1.000
 4103.00    0.71674   0.67186   -1.000
 4104.00    0.78300   0.74159   -1.000
 4105.00    0.83858   0.80197   -1.000
 4106.00    0.87380   0.84019   -1.000
 4107.00    0.88872   0.86159   -1.000
 4108.00    0.89766   0.87390   -1.000
 4109.00    0.90778   0.88341   -1.000
 4110.00    0.91777   0.89386   -1.000
 4111.00    0.93171   0.90727   -1.000
 4112.00    0.95044   0.92347   -1.000
 4113.00    0.96244   0.94028   -1.000
 4114.00    0.97699   0.95583   -1.000
 4115.00    0.98609   0.96603   -1.000
 4116.00    0.98317   0.96751  185.147
 4117.00    0.97867   0.96149  190.934
 4118.00    0.97365   0.95278   -1.000
 4119.00    0.97052   0.94774   -1.000
 4120.00    0.97192   0.94943   -1.000
 4121.00    0.97382   0.95433   -1.000
 4122.00    0.97876   0.95927   -1.000
 4123.00    0.98546   0.96548   -1.000
 4124.00    0.99193   0.97360  184.479
 4125.00    1.00043   0.97949   -1.000
 4126.00    0.99952   0.97900   -1.000
 4127.00    0.99211   0.97355   -1.000
 4128.00    0.99124   0.96884   -1.000
 4129.00    0.99516   0.96678   -1.000
 4130.00    0.98713   0.96357   -1.000
 4131.00    0.97227   0.95733  207.134
 4132.00    0.96371   0.95358  209.047
 4133.00    0.96169   0.95963  203.734
 4134.00    0.97027   0.97422  194.108
 4135.00    0.98722   0.99111  186.979
 4136.00    1.00452   1.00636  183.305
 4137.00    1.02039   1.01925  180.443
 4138.00    1.02641   1.02982  179.257
 4139.00    1.03289   1.03493  181.964
 4140.00    1.02902   1.02974  190.279
 4141.00    1.01314   1.01394  205.092
 4142.00    0.98846   0.99317  217.568
 4143.00    0.95951   0.97862   -1.000
 4144.00    0.95915   0.97931   -1.000
 4145.00    0.98575   0.99300  193.189
 4146.00    1.00596   1.00765  190.065
 4147.00    1.01067   1.01352  192.480
 4148.00    1.00410   1.01277  197.565
 4149.00    0.99724   1.01158   -1.000
 4150.00    0.99868   1.01244   -1.000
 4151.00    1.00187   1.01268  198.863
 4152.00    0.99989   1.00891  200.065
 4153.00    0.99334   1.00246  203.092
 4154.00    0.98837   0.99734  199.830
 4155.00    0.98132   0.99738   -1.000
 4156.00    1.08641   1.00300   -1.000
 4157.00    1.14733   1.01198   -1.000
 4158.00    0.98105   1.02098   -1.000
 4159.00    0.89004   1.02631   -1.000
 4160.00    0.98456   1.02741   -1.000
 4161.00    1.03871   1.02668  183.951
 4162.00    1.02941   1.02832  184.397
 4163.00    1.02664   1.03376  187.058
 4164.00    1.02815   1.04044   -1.000
 4165.00    1.02063   1.04323   -1.000
 4166.00    1.01343   1.03994   -1.000
 4167.00    1.01448   1.03510   -1.000
 4168.00    1.01422   1.03101   -1.000
 4169.00    1.01024   1.02485   -1.000
 4170.00    1.00070   1.01000  203.995
 4171.00    0.98479   0.98629  216.539
 4172.00    0.96496   0.96627  219.924
 4173.00    0.95243   0.96106  213.669
 4174.00    0.95714   0.97246   -1.000
 4175.00    0.97402   0.98930   -1.000
 4176.00    0.97757   0.99688   -1.000
 4177.00    0.97691   0.99561   -1.000
 4178.00    0.98503   0.99499   -1.000
 4179.00    0.99346   1.00231  199.687
 4180.00    1.00497   1.01222  199.415
 4181.00    1.00438   1.01509  197.776
 4182.00    1.00008   1.01460   -1.000
 4183.00    1.00071   1.01673   -1.000
 4184.00    1.00128   1.01954   -1.000
 4185.00    1.00046   1.01860   -1.000
 4186.00    0.98944   1.01236   -1.000
 4187.00    0.97985   1.00647   -1.000
 4188.00    0.98486   1.00709   -1.000
 4189.00    0.99400   1.01181   -1.000
 4190.00    0.99421   1.01535   -1.000
 4191.00    0.99840   1.01710   -1.000
 4192.00    1.00683   1.02047  185.970
 4193.00    1.01636   1.02585  189.740
 4194.00    1.01267   1.02617   -1.000
 4195.00    1.00277   1.01607   -1.000
 4196.00    0.99573   0.99972  210.683
 4197.00    0.98241   0.98351  211.787
 4198.00    0.96721   0.97230  210.003
 4199.00    0.96663   0.96937  206.807
 4200.00    0.97309   0.97262  205.666
 4201.00    0.97871   0.97577  204.524
 4202.00    0.97942   0.97870  201.666
 4203.00    0.97593   0.98514  199.849
 4204.00    0.98040   0.99370   -1.000
 4205.00    0.98434   1.00157   -1.000
 4206.00    0.99132   1.00930   -1.000
 4207.00    1.00204   1.01622   -1.000
 4208.00    1.00832   1.01974  186.746
 4209.00    1.00721   1.02109   -1.000
 4210.00    1.00729   1.02340   -1.000
 4211.00    1.00863   1.02823   -1.000
 4212.00    1.00833   1.03193   -1.000
 4213.00    1.00527   1.02627   -1.000
 4214.00    0.98804   1.01169   -1.000
 4215.00    0.97049   0.99735   -1.000
 4216.00    0.97210   0.99363   -1.000
 4217.00    0.98406   1.00376   -1.000
 4218.00    0.99690   1.01851   -1.000
 4219.00    1.01129   1.02986   -1.000
 4220.00    1.02281   1.03604  173.144
 4221.00    1.02090   1.03566   -1.000
 4222.00    1.00848   1.02564   -1.000
 4223.00    0.98949   1.00234   -1.000
 4224.00    0.96098   0.96916  235.257
 4225.00    0.92660   0.93842  257.273
 4226.00    0.89760   0.92414   -1.000
 4227.00    0.90622   0.93812   -1.000
 4228.00    0.94806   0.97632   -1.000
 4229.00    0.98928   1.01700   -1.000
 4230.00    1.01417   1.03652   -1.000
 4231.00    1.01124   1.03315   -1.000
 4232.00    0.99698   1.01878   -1.000
 4233.00    0.98753   1.00428   -1.000
 4234.00    0.98403   0.99773   -1.000
 4235.00    0.98475   0.99968   -1.000
 4236.00    0.97929   1.00370   -1.000
 4237.00    0.97268   1.00849   -1.000
 4238.00    0.97657   1.01560   -1.000
 4239.00    0.98543   1.02462   -1.000
 4240.00    1.00081   1.03525   -1.000
 4241.00    1.00819   1.04423   -1.000
 4242.00    1.00505   1.04867   -1.000
 4243.00    1.01002   1.04776   -1.000
 4244.00    1.01344   1.04196   -1.000
 4245.00    1.00697   1.03080   -1.000
 4246.00    0.99021   1.01525   -1.000
 4247.00    0.96731   1.00233   -1.000
 4248.00    0.95913   0.99651   -1.000
 4249.00    0.96066   0.99585   -1.000
 4250.00    0.96334   0.99953   -1.000
 4251.00    0.98232   1.00865   -1.000
 4252.00    0.99426   1.01811   -1.000
 4253.00    0.99009   1.02297   -1.000
 4254.00    0.98228   1.02435   -1.000
 4255.00    0.98491   1.02677   -1.000
 4256.00    0.99407   1.03099   -1.000
 4257.00    1.00579   1.03013   -1.000
 4258.00    1.00115   1.02065   -1.000
 4259.00    0.98111   1.00942   -1.000
 4260.00    0.96614   1.00577   -1.000
 4261.00    0.97087   1.01431   -1.000
 4262.00    0.99412   1.03172   -1.000
 4263.00    1.01498   1.04893   -1.000
 4264.00    1.02126   1.05746   -1.000
 4265.00    1.02668   1.05723   -1.000
 4266.00    1.02139   1.05300   -1.000
 4267.00    1.00563   1.04523   -1.000
 4268.00    0.99440   1.03295   -1.000
 4269.00    0.98285   1.01545   -1.000
 4270.00    0.96327   0.99469   -1.000
 4271.00    0.94384   0.97810   -1.000
 4272.00    0.93667   0.97248   -1.000
 4273.00    0.94024   0.97887   -1.000
 4274.00    0.94581   0.99258   -1.000
 4275.00    0.95940   1.01005   -1.000
 4276.00    0.98518   1.02976   -1.000
 4277.00    1.00645   1.04590   -1.000
 4278.00    1.00642   1.05124   -1.000
 4279.00    0.99476   1.04528   -1.000
 4280.00    0.98033   1.03336   -1.000
 4281.00    0.97576   1.02369   -1.000
 4282.00    0.97639   1.01965   -1.000
 4283.00    0.97922   1.02022   -1.000
 4284.00    0.97776   1.02156   -1.000
 4285.00    0.96536   1.01737   -1.000
 4286.00    0.95322   1.00441   -1.000
 4287.00    0.94876   0.98474   -1.000
 4288.00    0.93420   0.96313   -1.000
 4289.00    0.91603   0.94713   -1.000
 4290.00    0.90580   0.94595   -1.000
 4291.00    0.91836   0.95926   -1.000
 4292.00    0.94161   0.97431   -1.000
 4293.00    0.95460   0.97841   -1.000
 4294.00    0.95561   0.97478   -1.000
 4295.00    0.94878   0.97225   -1.000
 4296.00    0.93366   0.96753   -1.000
 4297.00    0.91357   0.95387   -1.000
 4298.00    0.88035   0.93060   -1.000
 4299.00    0.85657   0.90364   -1.000
 4300.00    0.84623   0.88433   -1.000
 4301.00    0.84463   0.87913   -1.000
 4302.00    0.84728   0.88614   -1.000
 4303.00    0.85977   0.90004   -1.000
 4304.00    0.87848   0.91349   -1.000
 4305.00    0.87939   0.91672   -1.000
 4306.00    0.86536   0.90884   -1.000
 4307.00    0.84227   0.89839   -1.000
 4308.00    0.83001   0.89559   -1.000
 4309.00    0.83853   0.90423   -1.000
 4310.00    0.85128   0.91855   -1.000
 4311.00    0.86665   0.92928   -1.000
 4312.00    0.87561   0.93142   -1.000
 4313.00    0.88972   0.93352   -1.000
 4314.00    0.92209   0.94689   -1.000
 4315.00    0.96164   0.97510  169.523
 4316.00    0.99923   1.00958  162.406
 4317.00    1.02405   1.03352  161.459
 4318.00    1.02530   1.04104   -1.000
 4319.00    1.01998   1.03619   -1.000
 4320.00    1.01269   1.02641  172.530
 4321.00    0.99787   1.01556   -1.000
 4322.00    0.98379   1.00188   -1.000
 4323.00    0.94966   0.98168   -1.000
 4324.00    0.91497   0.95803   -1.000
 4325.00    0.90029   0.94628   -1.000
 4326.00    0.91631   0.95638   -1.000
 4327.00    0.95175   0.97874   -1.000
 4328.00    0.97965   0.99661   -1.000
 4329.00    0.98216   1.00022   -1.000
 4330.00    0.97716   0.99523   -1.000
 4331.00    0.97363   0.99052   -1.000
 4332.00    0.96803   0.98609   -1.000
 4333.00    0.96254   0.97665  163.740
 4334.00    0.95777   0.95750  166.039
 4335.00    0.93466   0.92526  175.431
 4336.00    0.89845   0.87640   -1.000
 4337.00    0.84326   0.81031   -1.000
 4338.00    0.77240   0.73942   -1.000
 4339.00    0.70583   0.68513   -1.000
 4340.00    0.67189   0.66656  221.388
 4341.00    0.69536   0.69603  200.095
 4342.00    0.76167   0.76247  186.552
 4343.00    0.83271   0.83423  179.838
 4344.00    0.87901   0.88847  174.873
 4345.00    0.90882   0.92674   -1.000
 4346.00    0.93257   0.95656   -1.000
 4347.00    0.94828   0.97902   -1.000
 4348.00    0.96128   0.98966   -1.000
 4349.00    0.97010   0.98511   -1.000
 4350.00    0.95862   0.96999  187.547
 4351.00    0.93375   0.95774   -1.000
 4352.00    0.92668   0.95988   -1.000
 4353.00    0.94880   0.97919   -1.000
 4354.00    0.97477   1.00588   -1.000
 4355.00    0.99313   1.02727   -1.000
 4356.00    1.00567   1.03794   -1.000
 4357.00    1.00768   1.03992   -1.000
 4358.00    1.00893   1.03834   -1.000
 4359.00    1.00666   1.03925   -1.000
 4360.00    1.01154   1.04573   -1.000
 4361.00    1.02622   1.05569   -1.000
 4362.00    1.03888   1.06535   -1.000
 4363.00    1.03596   1.07164   -1.000
 4364.00    1.02930   1.07297   -1.000
 4365.00    1.03553   1.06873   -1.000
 4366.00    1.03080   1.05894   -1.000
 4367.00    1.01860   1.04693   -1.000
 4368.00    1.01017   1.03880   -1.000
 4369.00    1.01291   1.03598   -1.000
 4370.00    1.02151   1.03590  170.060
 4371.00    1.02371   1.03347  171.484
 4372.00    1.01981   1.02419  177.703
 4373.00    1.00436   1.00812  184.899
 4374.00    0.98098   0.99356  186.145
 4375.00    0.97557   0.99382   -1.000
 4376.00    0.99852   1.01226  170.638
 4377.00    1.01903   1.03773   -1.000
 4378.00    1.02937   1.05472   -1.000
 4379.00    1.03989   1.05780   -1.000
 4380.00    1.03954   1.04832  177.218
 4381.00    1.02723   1.02547  195.131
 4382.00    0.99754   0.99266  217.445
 4383.00    0.95403   0.96416  223.254
 4384.00    0.93639   0.95434   -1.000
 4385.00    0.95904   0.96743  186.057
 4386.00    0.99127   0.99268  178.271
 4387.00    1.01366   1.01430  177.600
 4388.00    1.02248   1.02623  179.333
 4389.00    1.01395   1.02951   -1.000
 4390.00    1.00849   1.02934   -1.000
 4391.00    1.02183   1.03017  173.255
 4392.00    1.03331   1.02910  173.658
 4393.00    1.02587   1.02044  177.196
 4394.00    1.01297   1.00850  177.259
 4395.00    1.00667   1.00683  170.122
 4396.00    1.01759   1.01781  164.679
 4397.00    1.03269   1.02845  165.958
 4398.00    1.03060   1.02848  171.640
 4399.00    1.01692   1.02067  176.994
 4400.00    1.00480   1.01657  175.979
 4401.00    1.01142   1.02112  172.865
 4402.00    1.03300   1.02759  177.552
 4403.00    1.03257   1.02877  187.499
 4404.00    1.01310   1.02557  190.504
 4405.00    1.00392   1.02444   -1.000
 4406.00    1.01196   1.02778   -1.000
 4407.00    1.02034   1.03165  180.093
 4408.00    1.01658   1.03488   -1.000
 4409.00    1.02312   1.04247   -1.000
 4410.00    1.04693   1.05498  160.645
 4411.00    1.06028   1.06498  158.252
 4412.00    1.07053   1.06496  161.675
 4413.00    1.06335   1.05262  170.387
 4414.00    1.04007   1.03128  177.171
 4415.00    1.01728   1.01130  177.182
 4416.00    1.00809   1.00386  171.612
 4417.00    1.01477   1.01332  164.565
 4418.00    1.03083   1.03512  159.601
 4419.00    1.04664   1.05739  159.773
 4420.00    1.05958   1.06982  163.608
 4421.00    1.05467   1.07038   -1.000
 4422.00    1.04500   1.06726   -1.000
 4423.00    1.04546   1.06622   -1.000
 4424.00    1.04418   1.06517   -1.000
 4425.00    1.04107   1.06217   -1.000
 4426.00    1.03121   1.05963   -1.000
 4427.00    1.03033   1.06104   -1.000
 4428.00    1.03854   1.06628   -1.000
 4429.00    1.04061   1.07166   -1.000
 4430.00    1.03912   1.07455   -1.000
 4431.00    1.04353   1.07466   -1.000
 4432.00    1.04899   1.07132   -1.000
 4433.00    1.04116   1.06295   -1.000
 4434.00    1.02674   1.05257   -1.000
 4435.00    1.01782   1.04965   -1.000
 4436.00    1.03001   1.06171   -1.000
 4437.00    1.06041   1.08312   -1.000
 4438.00    1.08139   1.09995   -1.000
 4439.00    1.08229   1.10119   -1.000
 4440.00    1.06964   1.08533   -1.000
 4441.00    1.04672   1.06007  173.476
 4442.00    1.02499   1.03761  175.003
 4443.00    1.01246   1.03092   -1.000
 4444.00    1.02008   1.04353   -1.000
 4445.00    1.04371   1.06621   -1.000
 4446.00    1.05739   1.08394   -1.000
 4447.00    1.06322   1.09100   -1.000
 4448.00    1.07132   1.09116   -1.000
 4449.00    1.06862   1.08858   -1.000
 4450.00    1.06418   1.08679   -1.000
 4451.00    1.06700   1.08698   -1.000
 4452.00    1.06823   1.08583   -1.000
 4453.00    1.06209   1.07770   -1.000
 4454.00    1.04207   1.06496   -1.000
 4455.00    1.02792   1.05833   -1.000
 4456.00    1.03577   1.06276   -1.000
 4457.00    1.04941   1.07166   -1.000
 4458.00    1.05743   1.07641   -1.000
 4459.00    1.05541   1.07591   -1.000
 4460.00    1.04808   1.07347   -1.000
 4461.00    1.04638   1.07337   -1.000
 4462.00    1.05154   1.07704   -1.000
 4463.00    1.06148   1.08193   -1.000
 4464.00    1.06625   1.08500   -1.000
 4465.00    1.06476   1.08367   -1.000
 4466.00    1.06218   1.07604  164.601
 4467.00    1.05281   1.06372  167.642
 4468.00    1.04026   1.05431   -1.000
 4469.00    1.03952   1.05541   -1.000
 4470.00    1.05446   1.06837   -1.000
 4471.00    1.07138   1.08714   -1.000
 4472.00    1.08337   1.10390   -1.000
 4473.00    1.09756   1.11457   -1.000
 4474.00    1.10642   1.11863  150.560
 4475.00    1.10276   1.11897   -1.000
 4476.00    1.09819   1.11872   -1.000
 4477.00    1.10173   1.11790  149.567
 4478.00    1.10694   1.11077  154.585
 4479.00    1.09917   1.09379  161.514
 4480.00    1.07999   1.07441  166.482
 4481.00    1.06479   1.06500  165.451
 4482.00    1.05968   1.07299  159.021
 4483.00    1.07311   1.09392   -1.000
 4484.00    1.09203   1.11553   -1.000
 4485.00    1.10386   1.12823   -1.000
 4486.00    1.10944   1.12860   -1.000
 4487.00    1.10478   1.11810  157.692
 4488.00    1.09103   1.10390  161.684
 4489.00    1.07514   1.09612   -1.000
 4490.00    1.07279   1.09908   -1.000
 4491.00    1.08660   1.10853   -1.000
 4492.00    1.09089   1.11432   -1.000
 4493.00    1.08812   1.11220   -1.000
 4494.00    1.08131   1.10772   -1.000
 4495.00    1.07343   1.10645   -1.000
 4496.00    1.07836   1.10898   -1.000
 4497.00    1.09494   1.11262   -1.000
 4498.00    1.09785   1.11321  150.923
 4499.00    1.09463   1.10680  152.312
 4500.00    1.08859   1.09743  153.303
 4501.00    1.08497   1.09580  149.928
 4502.00    1.10341   1.10644  144.862
 4503.00    1.11450   1.12334  141.982
 4504.00    1.12677   1.13549  142.523
 4505.00    1.13255   1.13774  145.242
 4506.00    1.12523   1.13226  146.891
 4507.00    1.11737   1.12517  147.161
 4508.00    1.11664   1.12287  146.173
 4509.00    1.12020   1.12669  145.127
 4510.00    1.12513   1.13167  146.077
 4511.00    1.12580   1.13275  148.795
 4512.00    1.12025   1.13012  151.513
 4513.00    1.11536   1.12524  152.679
 4514.00    1.11073   1.11957  152.118
 4515.00    1.10757   1.11564  151.909
 4516.00    1.10817   1.11403  153.528
 4517.00    1.10497   1.11205  154.573
 4518.00    1.10143   1.10770  152.373
 4519.00    1.09995   1.10395  149.372
 4520.00    1.10487   1.10306  149.393
 4521.00    1.10257   1.10175  152.589
 4522.00    1.09415   1.09750  155.790
 4523.00    1.09025   1.09390  157.350
 4524.00    1.09090   1.09423  159.814
 4525.00    1.08965   1.09500  164.461
 4526.00    1.08300   1.09136  169.188
 4527.00    1.07231   1.08274  171.563
 4528.00    1.06092   1.07426  170.699
 4529.00    1.06014   1.07192  167.876
 4530.00    1.07010   1.07556  164.802
 4531.00    1.07761   1.07763  163.718
 4532.00    1.07449   1.07033  167.656
 4533.00    1.06354   1.05704  173.306
 4534.00    1.04757   1.05094  172.063
 4535.00    1.04971   1.06064  163.059
 4536.00    1.06978   1.08241  153.395
 4537.00    1.10042   1.10621  148.660
 4538.00    1.12016   1.12268  149.460
 4539.00    1.12435   1.12753  152.867
 4540.00    1.11874   1.12403  153.211
 4541.00    1.11067   1.11918  152.169
 4542.00    1.11187   1.11771  151.525
 4543.00    1.10106   1.11809   -1.000
 4544.00    1.15233   1.11666   -2.000
 4545.00    0.64324   1.11417   -2.000
 4546.00    0.05596   1.11084   -2.000
 4547.00   -0.05015   1.10106    0.000
 4548.00    0.47562   1.08289   -1.000
 4549.00    0.57904   1.06740   -1.000
 4550.00    0.44816   1.06865   -1.000
 4551.00    1.02205   1.08270   -1.000
 4552.00    1.09343   1.09065  160.980
 4553.00    1.07348   1.08442  162.613
 4554.00    1.06591   1.07438  160.636
 4555.00    1.06632   1.07437  155.135
 4556.00    1.08581   1.08791  148.912
 4557.00    1.10718   1.10656  145.878
 4558.00    1.11827   1.12083  146.302
 4559.00    1.12443   1.13000  146.353
 4560.00    1.12898   1.13589  146.384
 4561.00    1.12634   1.13480  149.383
 4562.00    1.11122   1.12424  153.123
 4563.00    1.09846   1.11137  155.899
 4564.00    1.09772   1.10699  154.706
 4565.00    1.10544   1.11394  150.998
 4566.00    1.11681   1.12593  146.996
 4567.00    1.12911   1.13501  145.226
 4568.00    1.13420   1.13676  146.472
 4569.00    1.12609   1.13017  149.971
 4570.00    1.11188   1.11694  153.930
 4571.00    1.09485   1.10370  153.443
 4572.00    1.08878   1.10196  149.163
 4573.00    1.10898   1.11381  146.718
 4574.00    1.12642   1.12641  146.559
 4575.00    1.13273   1.13014  147.183
 4576.00    1.13327   1.12788  148.022
 4577.00    1.12498   1.12462  150.359
 4578.00    1.11620   1.11971  154.661
 4579.00    1.11449   1.11142  158.057
 4580.00    1.10428   1.10205  158.053
 4581.00    1.09842   1.09422  155.998
 4582.00    1.10395   1.08733  154.705
 4583.00    1.09381   1.08385  154.982
 4584.00    1.09786   1.08856  155.915
 4585.00    1.10326   1.09885  154.133
 4586.00    1.11571   1.10799  150.274
 4587.00    1.11928   1.11300  146.974
 4588.00    1.12210   1.11396  146.412
 4589.00    1.12224   1.11313  148.301
 4590.00    1.11509   1.11329  151.025
 4591.00    1.11540   1.11401  153.704
 4592.00    1.10772   1.11491  154.154
 4593.00    1.10806   1.11793  152.989
 4594.00    1.11317   1.12336  151.762
 4595.00    1.12402   1.12985  151.265
 4596.00    1.13377   1.13548  150.943
 4597.00    1.13401   1.13756  150.606
 4598.00    1.13238   1.13538  151.738
 4599.00    1.13476   1.13037  153.117
 4600.00    1.12785   1.12423  153.658
 4601.00    1.11373   1.11959  152.258
 4602.00    1.10860   1.11856  150.538
 4603.00    1.11215   1.12118  150.561
 4604.00    1.11688   1.12543  150.384
 4605.00    1.12340   1.12887  148.901
 4606.00    1.13477   1.13189  146.090
 4607.00    1.14199   1.13562  142.973
 4608.00    1.14352   1.13968  141.127
 4609.00    1.14529   1.14292  141.501
 4610.00    1.14426   1.14315  143.324
 4611.00    1.13644   1.14069  144.974
 4612.00    1.13328   1.13821  145.988
 4613.00    1.13467   1.13717  145.451
 4614.00    1.13870   1.13649  144.204
 4615.00    1.13658   1.13408  143.540
 4616.00    1.12856   1.13024  144.334
 4617.00    1.13384   1.12674  145.410
 4618.00    1.13641   1.12451  145.411
 4619.00    1.13429   1.12521  144.149
 4620.00    1.14093   1.13061  141.942
 4621.00    1.14534   1.13895  141.641
 4622.00    1.14902   1.14543  141.973
 4623.00    1.14876   1.14667  142.264
 4624.00    1.14199   1.14380  143.461
 4625.00    1.14144   1.14020  143.929
 4626.00    1.14053   1.13745  143.893
 4627.00    1.13535   1.13452  144.712
 4628.00    1.13555   1.13079  145.100
 4629.00    1.12915   1.12958  144.480
 4630.00    1.12975   1.13396  142.900
 4631.00    1.13524   1.14055  143.277
 4632.00    1.14088   1.14338  145.238
 4633.00    1.13873   1.14126  146.914
 4634.00    1.13315   1.13849  146.968
 4635.00    1.14009   1.13889  148.002
 4636.00    1.14138   1.14087  149.900
 4637.00    1.13538   1.14205  150.673
 4638.00    1.13726   1.14328  150.539
 4639.00    1.14869   1.14674  148.224
 4640.00    1.15140   1.15263  144.682
 4641.00    1.15359   1.15825  142.520
 4642.00    1.15460   1.16141  142.838
 4643.00    1.15111   1.16126  145.302
 4644.00    1.14473   1.15757  149.279
 4645.00    1.14131   1.15060  153.440
 4646.00    1.12822   1.14183  154.484
 4647.00    1.12477   1.13662  152.072
 4648.00    1.13267   1.13881  148.571
 4649.00    1.13686   1.14547  146.375
 4650.00    1.14428   1.15160  145.945
 4651.00    1.14053   1.15453  145.661
 4652.00    1.13991   1.15356  147.180
 4653.00    1.13548   1.14916  150.450
 4654.00    1.12637   1.14327  152.386
 4655.00    1.12273   1.13866  151.384
 4656.00    1.12384   1.13713  146.890
 4657.00    1.13318   1.14186  141.315
 4658.00    1.14770   1.15413  137.901
 4659.00    1.16300   1.16784  137.469
 4660.00    1.16750   1.17496  139.013
 4661.00    1.16507   1.17343  142.277
 4662.00    1.15803   1.16719  145.174
 4663.00    1.15455   1.16049  145.767
 4664.00    1.15302   1.15363  147.933
 4665.00    1.14225   1.14412  153.922
 4666.00    1.13588   1.13083  160.404
 4667.00    1.12210   1.11863  161.242
 4668.00    1.10945   1.11488  156.746
 4669.00    1.11804   1.12049  150.297
 4670.00    1.13110   1.13115  145.995
 4671.00    1.13746   1.14225  144.833
 4672.00    1.14705   1.14989  144.870
 4673.00    1.15445   1.15411  144.752
 4674.00    1.15705   1.15785  143.033
 4675.00    1.16133   1.16181  140.889
 4676.00    1.16115   1.16370  141.312
 4677.00    1.15784   1.16036  144.178
 4678.00    1.15406   1.15298  147.082
 4679.00    1.14883   1.14535  149.560
 4680.00    1.14406   1.13913  151.108
 4681.00    1.14199   1.13637  149.545
 4682.00    1.14384   1.13840  145.916
 4683.00    1.14400   1.14357  143.814
 4684.00    1.15339   1.14857  144.085
 4685.00    1.16249   1.15117  144.202
 4686.00    1.15836   1.15192  144.950
 4687.00    1.15871   1.15217  145.044
 4688.00    1.15918   1.15270  145.051
 4689.00    1.16550   1.15274  146.001
 4690.00    1.16343   1.15099  146.385
 4691.00    1.15700   1.14904  144.835
 4692.00    1.15914   1.14952  142.700
 4693.00    1.16552   1.15174  139.608
 4694.00    1.17214   1.15383  137.691
 4695.00    1.17489   1.15561  138.147
 4696.00    1.17707   1.15513  141.842
 4697.00    1.17146   1.14994  146.148
 4698.00    1.16127   1.14224  148.118
 4699.00    1.15671   1.13609  147.180
 4700.00    1.16019   1.13176   -1.000
 4701.00    1.16043   1.12703   -1.000
 4702.00    1.14785   1.12182   -1.000
 4703.00    1.13803   1.12003  148.972
 4704.00    1.14350   1.12445  146.687
 4705.00    1.15154   1.13030  148.340
 4706.00    1.14871   1.13085  151.277
 4707.00    1.13672   1.12544  152.897
 4708.00    1.13277   1.12023  152.295
 4709.00    1.13616   1.12166  148.118
 4710.00    1.14351   1.12956  143.999
 4711.00    1.15606   1.13818  142.342
 4712.00    1.16295   1.14169  143.466
 4713.00    1.16164   1.13931  146.089
 4714.00    1.15729   1.13597  146.361
 4715.00    1.15513   1.13714  143.692
 4716.00    1.15668   1.14335  140.898
 4717.00    1.16089   1.14996  139.860
 4718.00    1.16681   1.15392  139.343
 4719.00    1.16927   1.15606  138.866
 4720.00    1.17051   1.15693  139.902
 4721.00    1.17140   1.15649  140.929
 4722.00    1.17032   1.15619  140.266
 4723.00    1.17238   1.15837  138.789
 4724.00    1.17260   1.16222  138.843
 4725.00    1.17566   1.16412  141.948
 4726.00    1.16869   1.16208  147.214
 4727.00    1.15993   1.15613  150.746
 4728.00    1.15354   1.14886  150.527
 4729.00    1.15006   1.14282  149.045
 4730.00    1.15380   1.13792  147.835
 4731.00    1.15839   1.13643  146.106
 4732.00    1.16215   1.14048  144.790
 4733.00    1.16318   1.14644  143.933
 4734.00    1.16227   1.14952  143.132
 4735.00    1.16181   1.14847  144.467
 4736.00    1.15723   1.14562  144.792
 4737.00    1.15384   1.14447  143.080
 4738.00    1.16075   1.14570  142.960
 4739.00    1.16685   1.14750  143.742
 4740.00    1.16740   1.14896  143.994
 4741.00    1.16340   1.15085  142.948
 4742.00    1.16765   1.15431  141.410
 4743.00    1.17272   1.15877  141.534
 4744.00    1.17298   1.16229  141.687
 4745.00    1.16799   1.16463  140.726
 4746.00    1.16990   1.16741  139.321
 4747.00    1.17749   1.17189  138.929
 4748.00    1.17987   1.17640  139.107
 4749.00    1.18053   1.17909  139.213
 4750.00    1.17757   1.18106  140.148
 4751.00    1.17980   1.18237  141.702
 4752.00    1.17218   1.18139  142.933
 4753.00    1.16897   1.17826  143.928
 4754.00    1.16722   1.17508  143.778
 4755.00    1.16402   1.17362  144.262
 4756.00    1.16695   1.17457  145.299
 4757.00    1.16573   1.17680  145.540
 4758.00    1.16396   1.17823  144.437
 4759.00    1.16843   1.17757  144.086
 4760.00    1.16739   1.17360  146.134
 4761.00    1.15713   1.16506  149.708
 4762.00    1.14741   1.15416  151.804
 4763.00    1.14070   1.14608  152.164
 4764.00    1.14028   1.14463  151.882
 4765.00    1.14400   1.14996  150.872
 4766.00    1.15514   1.15902  148.860
 4767.00    1.15868   1.16857  145.571
 4768.00    1.16570   1.17726  143.435
 4769.00    1.17824   1.18355  143.498
 4770.00    1.17220   1.18502  144.652
 4771.00    1.17052   1.18197  145.938
 4772.00    1.16926   1.17866  144.493
 4773.00    1.16705   1.17936  141.486
 4774.00    1.16827   1.18374  140.341
 4775.00    1.17367   1.18760  140.377
 4776.00    1.17836   1.18872  140.773
 4777.00    1.17655   1.18714  141.655
 4778.00    1.17276   1.18222  143.202
 4779.00    1.16591   1.17570  144.116
 4780.00    1.16403   1.17298  144.512
 4781.00    1.16865   1.17597  145.189
 4782.00    1.17175   1.17945  146.330
 4783.00    1.16931   1.17933  146.373
 4784.00    1.16671   1.17698  146.814
 4785.00    1.16552   1.17365  148.207
 4786.00    1.16355   1.16988  149.119
 4787.00    1.15856   1.16788  149.047
 4788.00    1.15223   1.16869  148.353
 4789.00    1.15501   1.17104  147.448
 4790.00    1.16106   1.17492  145.956
 4791.00    1.17016   1.18118  143.623
 4792.00    1.17696   1.18849  140.475
 4793.00    1.17655   1.19550   -1.000
 4794.00    1.18374   1.20073  137.350
 4795.00    1.18913   1.20163  138.596
 4796.00    1.18709   1.19799  141.302
 4797.00    1.18637   1.19153  143.978
 4798.00    1.17226   1.18546  145.769
 4799.00    1.16529   1.18381   -1.000
 4800.00    1.16971   1.18793   -1.000
 4801.00    1.17950   1.19476  139.782
 4802.00    1.18784   1.19884  139.820
 4803.00    1.17879   1.19474  141.578
 4804.00    1.16972   1.18421  143.410
 4805.00    1.16818   1.17636  144.757
 4806.00    1.16932   1.17605  144.823
 4807.00    1.17596   1.18143  144.476
 4808.00    1.17633   1.18802  143.846
 4809.00    1.17593   1.19179  142.587
 4810.00    1.17753   1.19190  141.541
 4811.00    1.18040   1.19130  140.795
 4812.00    1.18453   1.19315  140.613
 4813.00    1.18543   1.19796  140.289
 4814.00    1.18253   1.20302   -1.000
 4815.00    1.19367   1.20563  138.940
 4816.00    1.19225   1.20655  138.075
 4817.00    1.19029   1.20694  137.491
 4818.00    1.19049   1.20606  137.404
 4819.00    1.18813   1.20404  137.409
 4820.00    1.19033   1.20141  138.530
 4821.00    1.18627   1.19637  142.021
 4822.00    1.18007   1.18679  144.831
 4823.00    1.16932   1.17528  144.784
 4824.00    1.16296   1.16890  142.372
 4825.00    1.16921   1.17106  140.133
 4826.00    1.18271   1.17761  140.507
 4827.00    1.18612   1.18211  142.110
 4828.00    1.18204   1.18238  143.062
 4829.00    1.17619   1.18061  143.090
 4830.00    1.17563   1.17925  144.311
 4831.00    1.17728   1.17816  144.648
 4832.00    1.17581   1.17724  142.510
 4833.00    1.17886   1.17717  140.572
 4834.00    1.18315   1.17734  139.954
 4835.00    1.18050   1.17671  140.135
 4836.00    1.18275   1.17557  140.778
 4837.00    1.18172   1.17521  142.616
 4838.00    1.17414   1.17466  145.142
 4839.00    1.16574   1.17251  145.421
 4840.00    1.15801   1.17047  145.128
 4841.00    1.15892   1.16995  144.428
 4842.00    1.15832   1.16935  143.371
 4843.00    1.16163   1.16759  141.962
 4844.00    1.16489   1.16556  139.784
 4845.00    1.16767   1.16425  138.949
 4846.00    1.16486   1.16193  141.518
 4847.00    1.15545   1.15570  143.714
 4848.00    1.14756   1.14793  143.859
 4849.00    1.13932   1.14358  141.971
 4850.00    1.13595   1.14225  141.505
 4851.00    1.14212   1.14006  142.238
 4852.00    1.13681   1.13385  143.427
 4853.00    1.12655   1.12069  147.497
 4854.00    1.11099   1.09998  151.728
 4855.00    1.09327   1.07736  151.736
 4856.00    1.07773   1.05841  150.254
 4857.00    1.05943   1.03658  153.935
 4858.00    1.02821   0.99529   -1.000
 4859.00    0.95392   0.92142   -1.000
 4860.00    0.85398   0.83158   -1.000
 4861.00    0.79330   0.77486  185.486
 4862.00    0.82091   0.79021   -1.000
 4863.00    0.91365   0.86522   -1.000
 4864.00    0.99562   0.94930   -1.000
 4865.00    1.03906   1.01072  149.566
 4866.00    1.07062   1.05027  148.075
 4867.00    1.09341   1.07793  147.393
 4868.00    1.10872   1.09719  148.531
 4869.00    1.11162   1.10513  152.527
 4870.00    1.10279   1.10115  156.333
 4871.00    1.09246   1.09367  155.390
 4872.00    1.09175   1.09434  151.147
 4873.00    1.10907   1.10668  148.383
 4874.00    1.12808   1.12280  147.132
 4875.00    1.14275   1.13387  146.309
 4876.00    1.14483   1.13871  145.799
 4877.00    1.13745   1.14168  143.789
 4878.00    1.14092   1.14807  142.206
 4879.00    1.15145   1.15936  143.262
 4880.00    1.15792   1.17056  145.573
 4881.00    1.15198   1.17372   -1.000
 4882.00    1.15023   1.16846   -1.000
 4883.00    1.15530   1.16249  146.849
 4884.00    1.15953   1.16118  149.024
 4885.00    1.15969   1.16408  149.946
 4886.00    1.15596   1.16771  149.256
 4887.00    1.15874   1.16924  148.999
 4888.00    1.15682   1.16623  151.028
 4889.00    1.14369   1.15773  154.325
 4890.00    1.12571   1.14710   -1.000
 4891.00    1.12219   1.14376   -1.000
 4892.00    1.14036   1.15564  140.975
 4893.00    1.16882   1.17688  136.630
 4894.00    1.19214   1.19600  133.962
 4895.00    1.20098   1.20843  133.179
 4896.00    1.20547   1.21467  133.402
 4897.00    1.20838   1.21582  136.108
 4898.00    1.19730   1.21182  139.336
 4899.00    1.18750   1.20397  141.017
 4900.00    1.17995   1.19721   -1.000
 4901.00    1.17327   1.19496   -1.000
 4902.00    1.17779   1.19442  142.245
 4903.00    1.17608   1.19352  140.954
 4904.00    1.17894   1.19624  138.015
 4905.00    1.19159   1.20480  136.791
 4906.00    1.20039   1.21281  137.886
 4907.00    1.20482   1.21352  141.081
 4908.00    1.19555   1.20789  145.144
 4909.00    1.18045   1.19919   -1.000
 4910.00    1.18053   1.19071  145.518
 4911.00    1.18223   1.18716  142.913
 4912.00    1.18862   1.19064  140.902
 4913.00    1.19531   1.19818  139.060
 4914.00    1.19990   1.20586  137.785
 4915.00    1.19945   1.21035  138.298
 4916.00    1.20196   1.20741  142.832
 4917.00    1.19230   1.19363  150.500
 4918.00    1.16413   1.17086  157.804
 4919.00    1.13044   1.14736   -1.000
 4920.00    1.12024   1.13300  155.364
 4921.00    1.12925   1.13259  149.724
 4922.00    1.14192   1.13940  147.255
 4923.00    1.15125   1.14425  146.969
 4924.00    1.15984   1.14951  145.233
 4925.00    1.17272   1.16268  141.555
 4926.00    1.18753   1.18154  138.929
 4927.00    1.19754   1.19773  137.538
 4928.00    1.20817   1.20827  136.572
 4929.00    1.21149   1.21445  135.739
 4930.00    1.20993   1.21567  136.916
 4931.00    1.20595   1.20933  140.488
 4932.00    1.19042   1.19439  145.540
 4933.00    1.16944   1.17603  146.290
 4934.00    1.15835   1.16626  143.852
 4935.00    1.16460   1.17041  143.557
 4936.00    1.17726   1.17808  147.487
 4937.00    1.18217   1.17765  151.613
 4938.00    1.17012   1.17079  150.711
 4939.00    1.15884   1.16840  145.813
 4940.00    1.17007   1.17700  141.092
 4941.00    1.19473   1.19357  138.342
 4942.00    1.20617   1.20975  136.986
 4943.00    1.20662   1.21938  136.989
 4944.00    1.20825   1.22199  137.912
 4945.00    1.20632   1.21996  138.265
 4946.00    1.20422   1.21757  137.126
 4947.00    1.20761   1.21812  135.517
 4948.00    1.21163   1.22163  135.020
 4949.00    1.21090   1.22504  134.464
 4950.00    1.21061   1.22599  135.075
 4951.00    1.21446   1.22497  135.993
 4952.00    1.21073   1.22331  137.527
 4953.00    1.21675   1.22134  139.237
 4954.00    1.21183   1.21591  142.820
 4955.00    1.19512   1.20096  149.972
 4956.00    1.17014   1.17564  156.189
 4957.00    1.14422   1.15356  153.726
 4958.00    1.14509   1.15334  145.248
 4959.00    1.16903   1.17469  139.986
 4960.00    1.19624   1.20043  138.641
 4961.00    1.21015   1.21783  139.176
 4962.00    1.21175   1.22524  140.262
 4963.00    1.20848   1.22577  141.889
 4964.00    1.20802   1.22119  144.819
 4965.00    1.19992   1.21312  146.796
 4966.00    1.19295   1.20586  146.964
 4967.00    1.19755   1.20300  146.561
 4968.00    1.20083   1.20344  145.521
 4969.00    1.19838   1.20610  143.993
 4970.00    1.19836   1.21107  142.447
 4971.00    1.20052   1.21663  140.753
 4972.00    1.20543   1.22096  139.398
 4973.00    1.20927   1.22359  138.777
 4974.00    1.21037   1.22393  139.639
 4975.00    1.21357   1.22238  141.083
 4976.00    1.21252   1.21945  142.975
 4977.00    1.20893   1.21518  145.288
 4978.00    1.20603   1.21127  147.123
 4979.00    1.19777   1.20703  149.187
 4980.00    1.18461   1.19740  153.919
 4981.00    1.16636   1.18156  158.946
 4982.00    1.14843   1.16521  159.319
 4983.00    1.14776   1.15663  156.511
 4984.00    1.15598   1.15980  152.196
 4985.00    1.16304   1.17142  147.389
 4986.00    1.17881   1.18688  143.659
 4987.00    1.19177   1.20191  143.528
 4988.00    1.19581   1.21018  145.524
 4989.00    1.19289   1.20783  147.078
 4990.00    1.18444   1.19903  147.242
 4991.00    1.17893   1.19184  146.013
 4992.00    1.18446   1.19115  145.345
 4993.00    1.18929   1.19528  145.243
 4994.00    1.18900   1.20145  144.539
 4995.00    1.19497   1.20869  143.814
 4996.00    1.20128   1.21381  144.581
 4997.00    1.19849   1.21200  146.455
 4998.00    1.18948   1.20042  149.360
 4999.00    1.18231   1.18204  151.319
 5000.00    1.17593   1.16965  151.545
 5001.00    1.17178   1.17165  150.202
 5002.00    1.18513   1.18041  149.175
 5003.00    1.18713   1.18569  151.108
 5004.00    1.18135   1.18191  154.878
 5005.00    1.16779   1.17067  155.964
 5006.00    1.16000   1.16160  152.435
 5007.00    1.16323   1.16451  147.819
 5008.00    1.18284   1.17727  146.045
 5009.00    1.19456   1.18821  147.737
 5010.00    1.19439   1.18960  152.032
 5011.00    1.17846   1.18123  157.693
 5012.00    1.16171   1.16853  161.530
 5013.00    1.15341   1.15868  161.043
 5014.00    1.14821   1.15681  157.634
 5015.00    1.15198   1.16147  154.309
 5016.00    1.15931   1.16405  153.492
 5017.00    1.16420   1.15856  153.490
 5018.00    1.16050   1.15133  151.853
 5019.00    1.16549   1.15517  150.574
 5020.00    1.18136   1.16987  151.124
 5021.00    1.18939   1.18350  151.486
 5022.00    1.18778   1.19127  150.692
 5023.00    1.18825   1.19734  149.134
 5024.00    1.19372   1.20463  148.094
 5025.00    1.19590   1.21053  148.699
 5026.00    1.19275   1.21182  149.419
 5027.00    1.18887   1.20976   -1.000
 5028.00    1.19004   1.20808  145.458
 5029.00    1.19567   1.20772  143.339
 5030.00    1.20736   1.20834  141.025
 5031.00    1.21460   1.21171  139.357
 5032.00    1.21358   1.21740  139.476
 5033.00    1.20924   1.21985  143.710
 5034.00    1.20144   1.21502  149.390
 5035.00    1.18943   1.20572  152.085
 5036.00    1.18230   1.19883  152.730
 5037.00    1.18176   1.19622  154.536
 5038.00    1.17647   1.19093  160.390
 5039.00    1.16103   1.17715  166.946
 5040.00    1.13866   1.15906   -1.000
 5041.00    1.13075   1.14997  159.743
 5042.00    1.14436   1.15906  149.932
 5043.00    1.17467   1.18072  143.635
 5044.00    1.19621   1.20361  140.465
 5045.00    1.22943   1.22081  135.201
 5046.00    1.17699   1.22960   -1.000
 5047.00    0.54988   1.22850   -1.000
 5048.00    0.13718   1.21810   -1.000
 5049.00    0.05428   1.20282   -1.000
 5050.00    0.89857   1.18852   -1.000
 5051.00    1.20218   1.18027  147.160
 5052.00    1.19060   1.18396  143.451
 5053.00    1.20406   1.20011  140.781
 5054.00    1.22179   1.21878  139.378
 5055.00    1.22674   1.23034  138.886
 5056.00    1.23296   1.23487  139.107
 5057.00    1.23219   1.23657  139.368
 5058.00    1.22240   1.23781  139.328
 5059.00    1.21993   1.23899  138.420
 5060.00    1.21749   1.24000   -1.000
 5061.00    1.22330   1.24010  140.228
 5062.00    1.22829   1.23694  144.221
 5063.00    1.21520   1.22857  149.344
 5064.00    1.20014   1.21722  151.251
 5065.00    1.19383   1.20906  149.575
 5066.00    1.19677   1.20733  147.315
 5067.00    1.20199   1.20872  146.761
 5068.00    1.20509   1.20976  146.079
 5069.00    1.20693   1.21097  145.124
 5070.00    1.21115   1.21291  146.202
 5071.00    1.21828   1.21336  147.370
 5072.00    1.21687   1.21111  145.686
 5073.00    1.21099   1.20832  144.508
 5074.00    1.21115   1.20719  144.274
 5075.00    1.21484   1.20764  144.158
 5076.00    1.21325   1.20719  145.497
 5077.00    1.20567   1.20165  150.426
 5078.00    1.18964   1.18984  157.549
 5079.00    1.16962   1.17823  159.638
 5080.00    1.16768   1.17558  156.476
 5081.00    1.17464   1.18155  153.118
 5082.00    1.18975   1.18865  151.010
 5083.00    1.19034   1.19475  148.188
 5084.00    1.19995   1.20298  145.634
 5085.00    1.21235   1.21241  144.533
 5086.00    1.22140   1.21879  144.304
 5087.00    1.22265   1.22133  143.598
 5088.00    1.22304   1.22287  142.569
 5089.00    1.22601   1.22572  141.772
 5090.00    1.22579   1.22930  141.036
 5091.00    1.22677   1.23251  139.439
 5092.00    1.22992   1.23585  138.168
 5093.00    1.23723   1.23901  139.336
 5094.00    1.24846   1.23987  142.198
 5095.00    1.23421   1.23605  145.276
 5096.00    1.22554   1.22700  148.791
 5097.00    1.21206   1.21515  151.935
 5098.00    1.20323   1.20467  152.520
 5099.00    1.20622   1.20130  148.916
 5100.00    1.21178   1.20744  144.602
 5101.00    1.22114   1.21810  143.225
 5102.00    1.22938   1.22675  144.000
 5103.00    1.22873   1.23055  145.873
 5104.00    1.22851   1.22960  147.726
 5105.00    1.22242   1.22360  149.537
 5106.00    1.20609   1.21241  151.415
 5107.00    1.19101   1.20076  151.259
 5108.00    1.18467   1.19509  150.307
 5109.00    1.18513   1.19612  149.229
 5110.00    1.19258   1.20196  147.114
 5111.00    1.20321   1.21206  145.298
 5112.00    1.22056   1.22419  143.526
 5113.00    1.23074   1.23385  142.217
 5114.00    1.23476   1.23900  141.439
 5115.00    1.23789   1.24158  139.966
 5116.00    1.23438   1.24435  138.783
 5117.00    1.23982   1.24715  139.147
 5118.00    1.24158   1.24777  140.933
 5119.00    1.24376   1.24510  143.055
 5120.00    1.23825   1.23932  145.415
 5121.00    1.23038   1.23086  149.128
 5122.00    1.21815   1.22052  153.623
 5123.00    1.20115   1.21077  154.802
 5124.00    1.19436   1.20565  153.484
 5125.00    1.20339   1.20585  152.712
 5126.00    1.20619   1.20687  151.805
 5127.00    1.19960   1.20524  151.993
 5128.00    1.19545   1.20281  151.869
 5129.00    1.20048   1.20328  149.933
 5130.00    1.21148   1.20805  147.379
 5131.00    1.21346   1.21477  146.147
 5132.00    1.22096   1.22032  144.761
 5133.00    1.22566   1.22444  143.481
 5134.00    1.23045   1.22745  143.088
 5135.00    1.22700   1.22772  145.600
 5136.00    1.22176   1.22323  149.141
 5137.00    1.20864   1.21407  151.557
 5138.00    1.19319   1.20385  151.816
 5139.00    1.18479   1.19822  150.480
 5140.00    1.19254   1.19939  151.541
 5141.00    1.19398   1.20342  153.997
 5142.00    1.18863   1.20628  153.179
 5143.00    1.19308   1.20994  150.620
 5144.00    1.20654   1.21649  150.049
 5145.00    1.21779   1.22214  151.422
 5146.00    1.21911   1.22367  151.823
 5147.00    1.21705   1.22311  149.997
 5148.00    1.21944   1.22212  149.128
 5149.00    1.21400   1.21906  150.926
 5150.00    1.20486   1.21248  153.683
 5151.00    1.19576   1.20467  154.735
 5152.00    1.19135   1.20056  153.979
 5153.00    1.19819   1.20210  151.067
 5154.00    1.20833   1.20795  147.235
 5155.00    1.22059   1.21758  143.486
 5156.00    1.23712   1.22925  140.782
 5157.00    1.24616   1.23894  139.716
 5158.00    1.24680   1.24424  139.680
 5159.00    1.24761   1.24568  140.142
 5160.00    1.24543   1.24412  140.944
 5161.00    1.23874   1.24046  142.526
 5162.00    1.23795   1.23595  144.734
 5163.00    1.23746   1.22928  150.219
 5164.00    1.21852   1.21323  162.559
 5165.00    1.18745   1.17920  179.575
 5166.00    1.13819   1.12987  191.816
 5167.00    1.09245   1.08712  188.184
 5168.00    1.08235   1.07414  177.369
 5169.00    1.11277   1.08981   -1.000
 5170.00    1.14051   1.10876   -1.000
 5171.00    1.12738   1.10895   -1.000
 5172.00    1.10242   1.10066  190.858
 5173.00    1.10938   1.11154  170.194
 5174.00    1.15546   1.14903  156.074
 5175.00    1.21030   1.19312  150.139
 5176.00    1.23533   1.22282  148.386
 5177.00    1.25394   1.23620  148.072
 5178.00    1.25324   1.24061  149.528
 5179.00    1.24938   1.23875  154.735
 5180.00    1.24259   1.22657  165.907
 5181.00    1.21322   1.19723  185.203
 5182.00    1.16992   1.15390   -1.000
 5183.00    1.12344   1.11710  190.820
 5184.00    1.11823   1.11142  169.424
 5185.00    1.16467   1.13967   -1.000
 5186.00    1.20825   1.17598   -1.000
 5187.00    1.22546   1.19724   -1.000
 5188.00    1.22083   1.20313  147.875
 5189.00    1.21460   1.20268  149.458
 5190.00    1.20760   1.19886  154.212
 5191.00    1.19251   1.19071  158.493
 5192.00    1.18129   1.18311  157.320
 5193.00    1.18178   1.18286  154.601
 5194.00    1.19335   1.18860  152.313
 5195.00    1.20822   1.19468  150.088
 5196.00    1.21937   1.19994  147.064
 5197.00    1.22631   1.20596  144.563
 5198.00    1.23111   1.21357  143.375
 5199.00    1.23608   1.22155  143.233
 5200.00    1.23616   1.22655  144.391
 5201.00    1.23313   1.22535  147.017
 5202.00    1.22989   1.21640  150.389
 5203.00    1.21940   1.20038  155.136
 5204.00    1.19576   1.18181  159.921
 5205.00    1.17688   1.16859  160.505
 5206.00    1.18223   1.16498  161.357
 5207.00    1.18678   1.16731   -1.000
 5208.00    1.19049   1.17042   -1.000
 5209.00    1.19699   1.17656   -1.000
 5210.00    1.21186   1.19088  148.484
 5211.00    1.23316   1.21024   -1.000
 5212.00    1.24736   1.22626  139.717
 5213.00    1.25356   1.23285  141.285
 5214.00    1.24624   1.22818  144.652
 5215.00    1.22824   1.21741  146.415
 5216.00    1.21845   1.21007  145.185
 5217.00    1.22280   1.21322  142.027
 5218.00    1.23688   1.22542  139.875
 5219.00    1.25127   1.23926  138.807
 5220.00    1.26145   1.24917  138.252
 5221.00    1.26699   1.25377  140.059
 5222.00    1.26015   1.25250  144.368
 5223.00    1.25694   1.24286  150.358
 5224.00    1.23576   1.22201  157.429
 5225.00    1.20175   1.19186  161.782
 5226.00    1.16849   1.16507  158.288
 5227.00    1.16570   1.15919  149.397
 5228.00    1.19312   1.17754  143.300
 5229.00    1.22674   1.20435   -1.000
 5230.00    1.24409   1.22141   -1.000
 5231.00    1.24490   1.22209   -1.000
 5232.00    1.23570   1.21189   -1.000
 5233.00    1.22210   1.20169  145.679
 5234.00    1.22207   1.20142  142.299
 5235.00    1.23762   1.21244   -1.000
 5236.00    1.25124   1.22779  137.349
 5237.00    1.26157   1.23996  137.242
 5238.00    1.26492   1.24614  137.688
 5239.00    1.26560   1.24833  137.434
 5240.00    1.26883   1.24915  136.611
 5241.00    1.27057   1.24944  136.835
 5242.00    1.26886   1.24951  136.546
 5243.00    1.26394   1.25015  136.329
 5244.00    1.26766   1.25107  139.118
 5245.00    1.26502   1.24930  143.520
 5246.00    1.24952   1.24260  146.846
 5247.00    1.23827   1.23408  147.176
 5248.00    1.23163   1.22810  147.448
 5249.00    1.23149   1.22468  148.410
 5250.00    1.22293   1.22296  147.678
 5251.00    1.22886   1.22430  145.601
 5252.00    1.23890   1.22794  144.168
 5253.00    1.24217   1.23038  144.217
 5254.00    1.24007   1.23100  143.160
 5255.00    1.24349   1.23339  139.766
 5256.00    1.25716   1.24073  135.974
 5257.00    1.27156   1.25052  134.818
 5258.00    1.27720   1.25655  136.128
 5259.00    1.26743   1.25475  139.920
 5260.00    1.25603   1.24380  145.913
 5261.00    1.23546   1.22531  152.889
 5262.00    1.21396   1.20438  158.149
 5263.00    1.20055   1.18604  161.372
 5264.00    1.18865   1.17344  161.758
 5265.00    1.18373   1.16876  158.869
 5266.00    1.18917   1.17059  156.034
 5267.00    1.19826   1.17130   -1.000
 5268.00    1.19108   1.16178   -1.000
 5269.00    1.17088   1.14668   -1.000
 5270.00    1.15908   1.14404  153.207
 5271.00    1.18665   1.16273   -1.000
 5272.00    1.21898   1.18974   -1.000
 5273.00    1.22399   1.20654  145.412
 5274.00    1.22958   1.21051  145.062
 5275.00    1.23530   1.21138   -1.000
 5276.00    1.24407   1.21813   -1.000
 5277.00    1.26394   1.23182   -1.000
 5278.00    1.27141   1.24496   -1.000
 5279.00    1.27320   1.24944   -1.000
 5280.00    1.26837   1.24375   -1.000
 5281.00    1.25385   1.23223   -1.000
 5282.00    1.24062   1.22071  145.906
 5283.00    1.23256   1.21529  142.859
 5284.00    1.24113   1.22071  138.444
 5285.00    1.25501   1.23600  134.076
 5286.00    1.26775   1.25338  133.148
 5287.00    1.28412   1.26466  133.900
 5288.00    1.28531   1.26931  133.859
 5289.00    1.28538   1.27082  133.052
 5290.00    1.28567   1.27075  132.784
 5291.00    1.28062   1.26928  133.596
 5292.00    1.27801   1.26745  134.877
 5293.00    1.27482   1.26570  136.686
 5294.00    1.27483   1.26221  140.461
 5295.00    1.26864   1.25440  145.922
 5296.00    1.25476   1.24255  149.792
 5297.00    1.23986   1.23131  148.714
 5298.00    1.23647   1.22666  144.852
 5299.00    1.24305   1.23029  142.187
 5300.00    1.25345   1.23731  141.332
 5301.00    1.25823   1.24294  139.563
 5302.00    1.25269   1.24778  135.729
 5303.00    1.26189   1.25379  133.272
 5304.00    1.27565   1.25961  132.993
 5305.00    1.28009   1.26204  134.345
 5306.00    1.28026   1.26069  135.508
 5307.00    1.27135   1.25888  134.556
 5308.00    1.27768   1.25977  133.123
 5309.00    1.28771   1.26339   -1.000
 5310.00    1.29270   1.26699   -1.000
 5311.00    1.28750   1.26810  133.224
 5312.00    1.28705   1.26659  133.793
 5313.00    1.28711   1.26231   -1.000
 5314.00    1.28849   1.25419   -1.000
 5315.00    1.27618   1.24329   -1.000
 5316.00    1.26124   1.23483   -1.000
 5317.00    1.25941   1.23488   -1.000
 5318.00    1.27159   1.24354   -1.000
 5319.00    1.27830   1.25408   -1.000
 5320.00    1.27737   1.25993  137.232
 5321.00    1.27219   1.25823  138.875
 5322.00    1.26449   1.24951  141.345
 5323.00    1.25603   1.23760  142.611
 5324.00    1.24626   1.22798  142.503
 5325.00    1.24834   1.21992   -1.000
 5326.00    1.23649   1.20553   -1.000
 5327.00    1.20350   1.18419   -1.000
 5328.00    1.18743   1.17053  154.448
 5329.00    1.19830   1.18001  145.079
 5330.00    1.23729   1.20781   -1.000
 5331.00    1.26463   1.23350   -1.000
 5332.00    1.25891   1.24621  137.868
 5333.00    1.26239   1.24954  136.250
 5334.00    1.27327   1.24911   -1.000
 5335.00    1.27509   1.24686   -1.000
 5336.00    1.26714   1.24375   -1.000
 5337.00    1.26655   1.24055   -1.000
 5338.00    1.26112   1.23615   -1.000
 5339.00    1.25008   1.22957   -1.000
 5340.00    1.23748   1.22424  143.773
 5341.00    1.23995   1.22645  139.765
 5342.00    1.26312   1.23656   -1.000
 5343.00    1.27099   1.24675   -1.000
 5344.00    1.27608   1.25075   -1.000
 5345.00    1.27076   1.24890   -1.000
 5346.00    1.26621   1.24478   -1.000
 5347.00    1.26647   1.24125   -1.000
 5348.00    1.25742   1.23924  141.502
 5349.00    1.25833   1.23997  139.197
 5350.00    1.27846   1.24517   -1.000
 5351.00    1.28010   1.25284   -1.000
 5352.00    1.28135   1.25918   -1.000
 5353.00    1.28177   1.26331  132.824
 5354.00    1.29002   1.26699   -1.000
 5355.00    1.30102   1.27140   -1.000
 5356.00    1.30331   1.27527   -1.000
 5357.00    1.30245   1.27711   -1.000
 5358.00    1.29800   1.27700  131.005
 5359.00    1.29961   1.27493   -1.000
 5360.00    1.29852   1.27043   -1.000
 5361.00    1.28248   1.26360  136.823
 5362.00    1.27344   1.25583  137.733
 5363.00    1.27476   1.24904   -1.000
 5364.00    1.27276   1.24467   -1.000
 5365.00    1.26652   1.24354   -1.000
 5366.00    1.27312   1.24462   -1.000
 5367.00    1.27529   1.24450   -1.000
 5368.00    1.26163   1.23934   -1.000
 5369.00    1.25222   1.22768   -1.000
 5370.00    1.23937   1.21358   -1.000
 5371.00    1.22870   1.20708   -1.000
 5372.00    1.23857   1.21612   -1.000
 5373.00    1.26713   1.23628   -1.000
 5374.00    1.28812   1.25545   -1.000
 5375.00    1.29141   1.26640   -1.000
 5376.00    1.30119   1.27007   -1.000
 5377.00    1.30187   1.27073   -1.000
 5378.00    1.29599   1.26959   -1.000
 5379.00    1.29472   1.26557   -1.000
 5380.00    1.28697   1.25934   -1.000
 5381.00    1.27558   1.25350   -1.000
 5382.00    1.27377   1.25045   -1.000
 5383.00    1.26780   1.25113  136.287
 5384.00    1.27024   1.25532  134.770
 5385.00    1.28749   1.26198   -1.000
 5386.00    1.29854   1.26838   -1.000
 5387.00    1.29249   1.27134   -1.000
 5388.00    1.29360   1.26965   -1.000
 5389.00    1.28686   1.26436   -1.000
 5390.00    1.28638   1.25785   -1.000
 5391.00    1.28154   1.25192   -1.000
 5392.00    1.27484   1.24716   -1.000
 5393.00    1.26958   1.24389   -1.000
 5394.00    1.26657   1.24042   -1.000
 5395.00    1.26022   1.23291   -1.000
 5396.00    1.24388   1.22180   -1.000
 5397.00    1.24014   1.21610   -1.000
 5398.00    1.25383   1.22264   -1.000
 5399.00    1.26720   1.23649   -1.000
 5400.00    1.28277   1.24808   -1.000
 5401.00    1.28924   1.25197   -1.000
 5402.00    1.28114   1.24703   -1.000
 5403.00    1.26378   1.23367   -1.000
 5404.00    1.24199   1.21645   -1.000
 5405.00    1.22809   1.20510   -1.000
 5406.00    1.23390   1.20702   -1.000
 5407.00    1.25684   1.21803   -1.000
 5408.00    1.26689   1.22675   -1.000
 5409.00    1.26133   1.22858   -1.000
 5410.00    1.25759   1.22952   -1.000
 5411.00    1.26651   1.23607   -1.000
 5412.00    1.27822   1.24495   -1.000
 5413.00    1.28608   1.24930   -1.000
 5414.00    1.28327   1.24920   -1.000
 5415.00    1.27198   1.24940   -1.000
 5416.00    1.28140   1.25264   -1.000
 5417.00    1.28502   1.25704   -1.000
 5418.00    1.28281   1.25982   -1.000
 5419.00    1.28241   1.26099   -1.000
 5420.00    1.28313   1.26112   -1.000
 5421.00    1.28666   1.25936   -1.000
 5422.00    1.28130   1.25509   -1.000
 5423.00    1.26906   1.24942  139.567
 5424.00    1.27119   1.24601   -1.000
 5425.00    1.27676   1.24865   -1.000
 5426.00    1.28299   1.25484   -1.000
 5427.00    1.29028   1.25615   -1.000
 5428.00    1.27123   1.24781   -1.000
 5429.00    1.25272   1.23694  144.614
 5430.00    1.24591   1.23403  141.815
 5431.00    1.26040   1.23809   -1.000
 5432.00    1.26895   1.23969   -1.000
 5433.00    1.26250   1.23433   -1.000
 5434.00    1.24824   1.22828   -1.000
 5435.00    1.24584   1.23119  142.000
 5436.00    1.26438   1.24369   -1.000
 5437.00    1.28227   1.25871   -1.000
 5438.00    1.29891   1.27000   -1.000
 5439.00    1.30050   1.27597   -1.000
 5440.00    1.30124   1.27876   -1.000
 5441.00    1.30491   1.28000   -1.000
 5442.00    1.29724   1.27897  133.688
 5443.00    1.28828   1.27297  137.442
 5444.00    1.28069   1.25942   -1.000
 5445.00    1.25868   1.24002   -1.000
 5446.00    1.24268   1.22373   -1.000
 5447.00    1.24452   1.22111   -1.000
 5448.00    1.25574   1.23322   -1.000
 5449.00    1.28459   1.25110   -1.000
 5450.00    1.30026   1.26475   -1.000
 5451.00    1.30046   1.26980   -1.000
 5452.00    1.30353   1.26624   -1.000
 5453.00    1.29110   1.25480   -1.000
 5454.00    1.26454   1.23873   -1.000
 5455.00    1.24536   1.22722  145.754
 5456.00    1.25061   1.22987   -1.000
 5457.00    1.27455   1.24580   -1.000
 5458.00    1.29194   1.26399   -1.000
 5459.00    1.29716   1.27446   -1.000
 5460.00    1.29608   1.27584  140.702
 5461.00    1.29149   1.27087   -1.000
 5462.00    1.28464   1.26322   -1.000
 5463.00    1.28256   1.25791   -1.000
 5464.00    1.28773   1.25846   -1.000
 5465.00    1.29340   1.26307   -1.000
 5466.00    1.29299   1.26770   -1.000
 5467.00    1.29819   1.27086   -1.000
 5468.00    1.29673   1.27339   -1.000
 5469.00    1.30065   1.27568   -1.000
 5470.00    1.30215   1.27620   -1.000
 5471.00    1.29993   1.27375   -1.000
 5472.00    1.29770   1.26936   -1.000
 5473.00    1.29464   1.26354   -1.000
 5474.00    1.28570   1.25478   -1.000
 5475.00    1.27293   1.24275   -1.000
 5476.00    1.25657   1.23243   -1.000
 5477.00    1.24965   1.23195  143.439
 5478.00    1.26853   1.24259   -1.000
 5479.00    1.28786   1.25519   -1.000
 5480.00    1.28930   1.26186   -1.000
 5481.00    1.28876   1.26323   -1.000
 5482.00    1.28299   1.26405  140.935
 5483.00    1.28752   1.26742  138.019
 5484.00    1.29912   1.27251   -1.000
 5485.00    1.29584   1.27593  138.551
 5486.00    1.29134   1.27568  140.597
 5487.00    1.28586   1.27282  141.289
 5488.00    1.28544   1.26981  141.248
 5489.00    1.29103   1.26842   -1.000
 5490.00    1.28866   1.26932  139.135
 5491.00    1.29036   1.27189  138.673
 5492.00    1.29263   1.27441  139.061
 5493.00    1.29567   1.27509   -1.000
 5494.00    1.29899   1.27320   -1.000
 5495.00    1.29523   1.26836   -1.000
 5496.00    1.28259   1.26138   -1.000
 5497.00    1.27755   1.25616   -1.000
 5498.00    1.28305   1.25624   -1.000
 5499.00    1.28332   1.25855   -1.000
 5500.00    1.28366   1.25744   -1.000
 5501.00    1.28003   1.25357   -1.000
 5502.00    1.27435   1.25266   -1.000
 5503.00    1.28419   1.25652   -1.000
 5504.00    1.29181   1.25900   -1.000
 5505.00    1.28030   1.25499   -1.000
 5506.00    1.26787   1.24859  142.722
 5507.00    1.26911   1.24737   -1.000
 5508.00    1.27570   1.25336   -1.000
 5509.00    1.29037   1.26094   -1.000
 5510.00    1.29990   1.26357   -1.000
 5511.00    1.29145   1.26120   -1.000
 5512.00    1.27966   1.25753   -1.000
 5513.00    1.28504   1.25573   -1.000
 5514.00    1.28327   1.25726   -1.000
 5515.00    1.29273   1.26185   -1.000
 5516.00    1.30198   1.26819   -1.000
 5517.00    1.30785   1.27451   -1.000
 5518.00    1.30649   1.27910   -1.000
 5519.00    1.31059   1.28090   -1.000
 5520.00    1.31463   1.28046   -1.000
 5521.00    1.31205   1.27962   -1.000
 5522.00    1.30589   1.27962   -1.000
 5523.00    1.30558   1.27894   -1.000
 5524.00    1.29840   1.27437   -1.000
 5525.00    1.29580   1.26341   -1.000
 5526.00    1.28240   1.24765   -1.000
 5527.00    1.26261   1.23430   -1.000
 5528.00    1.25860   1.23124   -1.000
 5529.00    1.27080   1.24050   -1.000
 5530.00    1.28362   1.25542   -1.000
 5531.00    1.29312   1.26645   -1.000
 5532.00    1.29652   1.26867   -1.000
 5533.00    1.29629   1.26412   -1.000
 5534.00    1.29708   1.25922   -1.000
 5535.00    1.28909   1.25969   -1.000
 5536.00    1.29027   1.26575   -1.000
 5537.00    1.29515   1.27288   -1.000
 5538.00    1.30108   1.27798   -1.000
 5539.00    1.30559   1.28083   -1.000
 5540.00    1.30733   1.28205   -1.000
 5541.00    1.30797   1.28164   -1.000
 5542.00    1.30495   1.27946   -1.000
 5543.00    1.30057   1.27664   -1.000
 5544.00    1.29889   1.27514   -1.000
 5545.00    1.30316   1.27568   -1.000
 5546.00    1.30175   1.27755   -1.000
 5547.00    1.30208   1.28055   -1.000
 5548.00    1.30809   1.28463   -1.000
 5549.00    1.31115   1.28813   -1.000
 5550.00    1.31074   1.28906   -1.000
 5551.00    1.30854   1.28763   -1.000
 5552.00    1.31384   1.28568   -1.000
 5553.00    1.30890   1.28423   -1.000
 5554.00    1.30503   1.28329   -1.000
 5555.00    1.30316   1.28318  137.934
 5556.00    1.31092   1.28391   -1.000
 5557.00    1.31244   1.28494   -1.000
 5558.00    1.31231   1.28579   -1.000
 5559.00    1.30909   1.28647   -1.000
 5560.00    1.30949   1.28634   -1.000
 5561.00    1.31029   1.28439   -1.000
 5562.00    1.30509   1.28146   -1.000
 5563.00    1.30296   1.27951   -1.000
 5564.00    1.29665   1.27890  141.547
 5565.00    1.29604   1.27813  141.674
 5566.00    1.30021   1.27615   -1.000
 5567.00    1.29429   1.27332   -1.000
 5568.00    1.29111   1.27038   -1.000
 5569.00    1.28737   1.26831  141.356
 5570.00    1.28800   1.26683   -1.000
 5571.00    1.28833   1.26396   -1.000
 5572.00    1.27825   1.26099  141.110
 5573.00    1.25785   1.26129  139.505
 5574.00    1.22672   1.26467   -1.000
 5575.00    1.16957   1.26895   -1.000
 5576.00    1.22069   1.27280   -1.000
 5577.00    1.30200   1.27604   -1.000
 5578.00    1.36824   1.27876   -1.000
 5579.00    1.35133   1.28032   -1.000
 5580.00    1.30984   1.27985   -1.000
 5581.00    1.29844   1.27838   -1.000
 5582.00    1.30337   1.27805   -1.000
 5583.00    1.30432   1.27795   -1.000
 5584.00    1.29758   1.27394   -1.000
 5585.00    1.28811   1.26347   -1.000
 5586.00    1.27040   1.24955   -1.000
 5587.00    1.25623   1.23846   -1.000
 5588.00    1.25033   1.23468  149.292
 5589.00    1.25645   1.23898  146.512
 5590.00    1.27454   1.24853   -1.000
 5591.00    1.28548   1.25800   -1.000
 5592.00    1.28722   1.26260   -1.000
 5593.00    1.28979   1.26272   -1.000
 5594.00    1.28306   1.26288   -1.000
 5595.00    1.28769   1.26581   -1.000
 5596.00    1.29674   1.26795   -1.000
 5597.00    1.29396   1.26561   -1.000
 5598.00    1.28443   1.26144   -1.000
 5599.00    1.27818   1.25814   -1.000
 5600.00    1.28011   1.25422   -1.000
 5601.00    1.27847   1.25023   -1.000
 5602.00    1.27148   1.25110   -1.000
 5603.00    1.27450   1.25940  140.703
 5604.00    1.29323   1.27210   -1.000
 5605.00    1.30589   1.28373   -1.000
 5606.00    1.31303   1.29099   -1.000
 5607.00    1.31767   1.29430   -1.000
 5608.00    1.31087   1.29573  136.533
 5609.00    1.31710   1.29695  136.341
 5610.00    1.32114   1.29824   -1.000
 5611.00    1.32327   1.29784   -1.000
 5612.00    1.31556   1.29271   -1.000
 5613.00    1.30570   1.28091   -1.000
 5614.00    1.29306   1.26591   -1.000
 5615.00    1.27108   1.25709  146.215
 5616.00    1.27263   1.26074  142.487
 5617.00    1.29555   1.27219   -1.000
 5618.00    1.30895   1.28271   -1.000
 5619.00    1.30478   1.28808  139.895
 5620.00    1.30932   1.28990  139.216
 5621.00    1.31233   1.28997   -1.000
 5622.00    1.30921   1.28793   -1.000
 5623.00    1.29959   1.28376  145.603
 5624.00    1.29250   1.28012  144.546
 5625.00    1.29271   1.28008  141.914
 5626.00    1.30473   1.28361   -1.000
 5627.00    1.31501   1.28798   -1.000
 5628.00    1.31536   1.29146   -1.000
 5629.00    1.31773   1.29409   -1.000
 5630.00    1.31904   1.29572   -1.000
 5631.00    1.32172   1.29609   -1.000
 5632.00    1.32067   1.29525   -1.000
 5633.00    1.31745   1.29401   -1.000
 5634.00    1.31512   1.29302   -1.000
 5635.00    1.31252   1.29154   -1.000
 5636.00    1.31317   1.28920   -1.000
 5637.00    1.31376   1.28693   -1.000
 5638.00    1.31288   1.28530   -1.000
 5639.00    1.30570   1.28379   -1.000
 5640.00    1.30539   1.28213   -1.000
 5641.00    1.30594   1.28138   -1.000
 5642.00    1.30783   1.28263   -1.000
 5643.00    1.31497   1.28524   -1.000
 5644.00    1.31390   1.28758   -1.000
 5645.00    1.31540   1.28899   -1.000
 5646.00    1.31850   1.28968   -1.000
 5647.00    1.31792   1.29013   -1.000
 5648.00    1.32620   1.29048   -1.000
 5649.00    1.32203   1.29043   -1.000
 5650.00    1.31672   1.29031   -1.000
 5651.00    1.31329   1.29063   -1.000
 5652.00    1.31583   1.29102   -1.000
 5653.00    1.31545   1.29080   -1.000
 5654.00    1.31488   1.28881   -1.000
 5655.00    1.31243   1.28257   -1.000
 5656.00    1.30559   1.27062   -1.000
 5657.00    1.28944   1.25758   -1.000
 5658.00    1.26703   1.25205  147.547
 5659.00    1.27520   1.25668   -1.000
 5660.00    1.29443   1.26537   -1.000
 5661.00    1.29917   1.27130   -1.000
 5662.00    1.29988   1.27493   -1.000
 5663.00    1.30500   1.28053   -1.000
 5664.00    1.30967   1.28663   -1.000
 5665.00    1.31142   1.28809   -1.000
 5666.00    1.31295   1.28418   -1.000
 5667.00    1.30610   1.27906   -1.000
 5668.00    1.30251   1.27716   -1.000
 5669.00    1.30528   1.27943   -1.000
 5670.00    1.31326   1.28378   -1.000
 5671.00    1.31700   1.28810   -1.000
 5672.00    1.31896   1.29135   -1.000
 5673.00    1.31993   1.29327   -1.000
 5674.00    1.32828   1.29422   -1.000
 5675.00    1.32491   1.29500   -1.000
 5676.00    1.32343   1.29600   -1.000
 5677.00    1.32570   1.29650   -1.000
 5678.00    1.32204   1.29569   -1.000
 5679.00    1.31982   1.29338   -1.000
 5680.00    1.31912   1.28946   -1.000
 5681.00    1.31764   1.28382   -1.000
 5682.00    1.30580   1.27766   -1.000
 5683.00    1.29796   1.27359   -1.000
 5684.00    1.30104   1.27357   -1.000
 5685.00    1.30182   1.27640   -1.000
 5686.00    1.30289   1.27898   -1.000
 5687.00    1.30686   1.27955   -1.000
 5688.00    1.30836   1.27910   -1.000
 5689.00    1.30901   1.27974   -1.000
 5690.00    1.31366   1.28264   -1.000
 5691.00    1.31896   1.28706   -1.000
 5692.00    1.32307   1.29108   -1.000
 5693.00    1.32461   1.29368   -1.000
 5694.00    1.32319   1.29502   -1.000
 5695.00    1.32449   1.29566   -1.000
 5696.00    1.32001   1.29570   -1.000
 5697.00    1.31343   1.29447  140.785
 5698.00    1.31897   1.29130   -1.000
 5699.00    1.31019   1.28682   -1.000
 5700.00    1.31213   1.28274   -1.000
 5701.00    1.30199   1.28081   -1.000
 5702.00    1.29875   1.28196  141.188
 5703.00    1.30580   1.28495   -1.000
 5704.00    1.30417   1.28681  142.202
 5705.00    1.30323   1.28558  144.380
 5706.00    1.30422   1.28109   -1.000
 5707.00    1.29753   1.27392   -1.000
 5708.00    1.28657   1.26585   -1.000
 5709.00    1.28067   1.25986   -1.000
 5710.00    1.27555   1.25889  147.652
 5711.00    1.28250   1.26382   -1.000
 5712.00    1.29597   1.27229   -1.000
 5713.00    1.30546   1.28031   -1.000
 5714.00    1.32016   1.28565   -1.000
 5715.00    1.31988   1.28890   -1.000
 5716.00    1.31799   1.29145   -1.000
 5717.00    1.31867   1.29352   -1.000
 5718.00    1.31941   1.29518   -1.000
 5719.00    1.32021   1.29692   -1.000
 5720.00    1.32600   1.29854   -1.000
 5721.00    1.32677   1.29951   -1.000
 5722.00    1.32759   1.30001   -1.000
 5723.00    1.32659   1.30036   -1.000
 5724.00    1.32812   1.29981   -1.000
 5725.00    1.32646   1.29740   -1.000
 5726.00    1.32458   1.29380   -1.000
 5727.00    1.32129   1.29102   -1.000
 5728.00    1.31604   1.29019   -1.000
 5729.00    1.32282   1.29107   -1.000
 5730.00    1.32495   1.29277   -1.000
 5731.00    1.32231   1.29433   -1.000
 5732.00    1.32414   1.29579   -1.000
 5733.00    1.32308   1.29789   -1.000
 5734.00    1.32552   1.29994   -1.000
 5735.00    1.33112   1.30064   -1.000
 5736.00    1.33298   1.30056   -1.000
 5737.00    1.32666   1.30056   -1.000
 5738.00    1.31987   1.30056  136.953
 5739.00    1.32657   1.30077   -1.000
 5740.00    1.32992   1.30109   -1.000
 5741.00    1.32230   1.30097   -1.000
 5742.00    1.32129   1.30053   -1.000
 5743.00    1.31880   1.30064  135.769
 5744.00    1.31655   1.30119  135.160
 5745.00    1.31893   1.30109  136.132
 5746.00    1.32320   1.29995   -1.000
 5747.00    1.32069   1.29883   -1.000
 5748.00    1.32036   1.29908   -1.000
 5749.00    1.32157   1.30023   -1.000
 5750.00    1.32723   1.30008   -1.000
 5751.00    1.31848   1.29729   -1.000
 5752.00    1.31807   1.29282   -1.000
 5753.00    1.31626   1.28972   -1.000
 5754.00    1.31027   1.29070   -1.000
 5755.00    1.31811   1.29522   -1.000
 5756.00    1.32590   1.30076   -1.000
 5757.00    1.33235   1.30536   -1.000
 5758.00    1.33000   1.30758   -1.000
 5759.00    1.32965   1.30641   -1.000
 5760.00    1.33151   1.30244   -1.000
 5761.00    1.31744   1.29764   -1.000
 5762.00    1.31600   1.29496   -1.000
 5763.00    1.31311   1.29685  136.643
 5764.00    1.31654   1.30216  135.157
 5765.00    1.32232   1.30676  134.906
 5766.00    1.32261   1.30845  134.782
 5767.00    1.32152   1.30818  134.561
 5768.00    1.32513   1.30729  134.920
 5769.00    1.32778   1.30636   -1.000
 5770.00    1.32695   1.30541   -1.000
 5771.00    1.32538   1.30455   -1.000
 5772.00    1.32156   1.30353  137.288
 5773.00    1.32340   1.30172   -1.000
 5774.00    1.31943   1.29917   -1.000
 5775.00    1.31381   1.29728  136.339
 5776.00    1.31635   1.29674  136.323
 5777.00    1.30834   1.29590  136.899
 5778.00    1.29057   1.29361  139.166
 5779.00    1.27714   1.29045  142.388
 5780.00    1.28106   1.28730  143.926
 5781.00    1.29484   1.28503  143.396
 5782.00    1.30446   1.28434   -1.000
 5783.00    1.31632   1.28517   -1.000
 5784.00    1.32144   1.28676   -1.000
 5785.00    1.31884   1.28845   -1.000
 5786.00    1.32030   1.28997   -1.000
 5787.00    1.32427   1.29148   -1.000
 5788.00    1.32875   1.29319   -1.000
 5789.00    1.32756   1.29468   -1.000
 5790.00    1.32491   1.29535   -1.000
 5791.00    1.31961   1.29597   -1.000
 5792.00    1.32330   1.29793   -1.000
 5793.00    1.32507   1.30136   -1.000
 5794.00    1.31990   1.30491  134.994
 5795.00    1.31865   1.30660  135.916
 5796.00    1.32599   1.30573   -1.000
 5797.00    1.32586   1.30413   -1.000
 5798.00    1.32934   1.30420   -1.000
 5799.00    1.33858   1.30604   -1.000
 5800.00    1.34101   1.30817   -1.000
 5801.00    1.34627   1.30970   -1.000
 5802.00    1.34084   1.31011   -1.000
 5803.00    1.33801   1.30925   -1.000
 5804.00    1.33310   1.30832   -1.000
 5805.00    1.32942   1.30852   -1.000
 5806.00    1.33463   1.30990   -1.000
 5807.00    1.33616   1.31170   -1.000
 5808.00    1.34003   1.31287   -1.000
 5809.00    1.33920   1.31326   -1.000
 5810.00    1.34589   1.31365   -1.000
 5811.00    1.34542   1.31430   -1.000
 5812.00    1.34756   1.31450   -1.000
 5813.00    1.34636   1.31337   -1.000
 5814.00    1.34719   1.31124   -1.000
 5815.00    1.34425   1.30969   -1.000
 5816.00    1.34495   1.31006   -1.000
 5817.00    1.34261   1.31217   -1.000
 5818.00    1.34708   1.31442   -1.000
 5819.00    1.34527   1.31578   -1.000
 5820.00    1.34845   1.31653   -1.000
 5821.00    1.35217   1.31726   -1.000
 5822.00    1.35192   1.31791   -1.000
 5823.00    1.35303   1.31811   -1.000
 5824.00    1.35242   1.31796   -1.000
 5825.00    1.35143   1.31806   -1.000
 5826.00    1.35443   1.31879   -1.000
 5827.00    1.35292   1.31995   -1.000
 5828.00    1.35090   1.32128   -1.000
 5829.00    1.35170   1.32207   -1.000
 5830.00    1.35141   1.32182   -1.000
 5831.00    1.35447   1.32096   -1.000
 5832.00    1.35678   1.31971   -1.000
 5833.00    1.35316   1.31818   -1.000
 5834.00    1.35254   1.31704   -1.000
 5835.00    1.35582   1.31692   -1.000
 5836.00    1.35452   1.31790   -1.000
 5837.00    1.35198   1.31966   -1.000
 5838.00    1.35284   1.32184   -1.000
 5839.00    1.35516   1.32358   -1.000
 5840.00    1.35199   1.32400   -1.000
 5841.00    1.34825   1.32296   -1.000
 5842.00    1.35058   1.32087   -1.000
 5843.00    1.34394   1.31834   -1.000
 5844.00    1.34761   1.31607   -1.000
 5845.00    1.34880   1.31445   -1.000
 5846.00    1.34517   1.31357   -1.000
 5847.00    1.35325   1.31324   -1.000
 5848.00    1.34779   1.31290   -1.000
 5849.00    1.34614   1.31169   -1.000
 5850.00    1.34774   1.30886   -1.000
 5851.00    1.34544   1.30395   -1.000
 5852.00    1.33888   1.29809   -1.000
 5853.00    1.33069   1.29412   -1.000
 5854.00    1.32753   1.29268   -1.000
 5855.00    1.33581   1.29061   -1.000
 5856.00    1.33087   1.28607   -1.000
 5857.00    1.32755   1.28220   -1.000
 5858.00    1.32769   1.28293   -1.000
 5859.00    1.33242   1.28809   -1.000
 5860.00    1.33861   1.29432   -1.000
 5861.00    1.34821   1.29910   -1.000
 5862.00    1.34468   1.30231   -1.000
 5863.00    1.34379   1.30413   -1.000
 5864.00    1.35185   1.30405   -1.000
 5865.00    1.35118   1.30208   -1.000
 5866.00    1.34621   1.30022   -1.000
 5867.00    1.34163   1.30071   -1.000
 5868.00    1.34979   1.30344   -1.000
 5869.00    1.35067   1.30664   -1.000
 5870.00    1.35024   1.30889   -1.000
 5871.00    1.35544   1.30936   -1.000
 5872.00    1.35717   1.30815   -1.000
 5873.00    1.35269   1.30588   -1.000
 5874.00    1.34753   1.30316   -1.000
 5875.00    1.34770   1.30092   -1.000
 5876.00    1.34732   1.29979   -1.000
 5877.00    1.34470   1.29874   -1.000
 5878.00    1.34536   1.29662   -1.000
 5879.00    1.33887   1.29404   -1.000
 5880.00    1.33467   1.29184   -1.000
 5881.00    1.33267   1.28957   -1.000
 5882.00    1.33087   1.28634   -1.000
 5883.00    1.32706   1.28224   -1.000
 5884.00    1.31186   1.27800   -1.000
 5885.00    1.27955   1.27264  140.918
 5886.00    1.20925   1.26090   -1.000
 5887.00    1.09644   1.23608   -1.000
 5888.00    0.99635   1.20123   -1.000
 5889.00    0.98802   1.17452   -1.000
 5890.00    1.07468   1.17230   -1.000
 5891.00    1.16784   1.19066   -1.000
 5892.00    1.18351   1.21049   -1.000
 5893.00    1.12278   1.21485   -1.000
 5894.00    1.06325   1.20293   -1.000
 5895.00    1.06536   1.18974   -1.000
 5896.00    1.13867   1.19177   -1.000
 5897.00    1.22962   1.20944   -1.000
 5898.00    1.27673   1.23086   -1.000
 5899.00    1.30074   1.24856   -1.000
 5900.00    1.31401   1.26167   -1.000
 5901.00    1.32239   1.27129   -1.000
 5902.00    1.33266   1.27813   -1.000
 5903.00    1.33740   1.28265   -1.000
 5904.00    1.33848   1.28550   -1.000
 5905.00    1.33664   1.28745   -1.000
 5906.00    1.33098   1.28871   -1.000
 5907.00    1.33179   1.28947   -1.000
 5908.00    1.33257   1.29041   -1.000
 5909.00    1.33037   1.29141   -1.000
 5910.00    1.33199   1.29147   -1.000
 5911.00    1.33063   1.28979   -1.000
 5912.00    1.32991   1.28618   -1.000
 5913.00    1.32143   1.28134   -1.000
 5914.00    1.32407   1.27710   -1.000
 5915.00    1.31703   1.27501   -1.000
 5916.00    1.31309   1.27521   -1.000
 5917.00    1.31493   1.27722   -1.000
 5918.00    1.31924   1.28039   -1.000
 5919.00    1.32379   1.28335   -1.000
 5920.00    1.32390   1.28523   -1.000
 5921.00    1.32081   1.28627   -1.000
 5922.00    1.32047   1.28690   -1.000
 5923.00    1.32066   1.28795   -1.000
 5924.00    1.33089   1.29006   -1.000
 5925.00    1.34227   1.29259   -1.000
 5926.00    1.34468   1.29439   -1.000
 5927.00    1.34146   1.29439   -1.000
 5928.00    1.33646   1.29216   -1.000
 5929.00    1.32784   1.28954   -1.000
 5930.00    1.32801   1.28899   -1.000
 5931.00    1.32976   1.29037   -1.000
 5932.00    1.33555   1.29188   -1.000
 5933.00    1.33579   1.29225   -1.000
 5934.00    1.33114   1.29154   -1.000
 5935.00    1.33325   1.29114   -1.000
 5936.00    1.33203   1.29192   -1.000
 5937.00    1.33828   1.29265   -1.000
 5938.00    1.33265   1.29146   -1.000
 5939.00    1.32129   1.28855   -1.000
 5940.00    1.31485   1.28584   -1.000
 5941.00    1.31361   1.28429   -1.000
 5942.00    1.31701   1.28371   -1.000
 5943.00    1.31910   1.28452   -1.000
 5944.00    1.31664   1.28660   -1.000
 5945.00    1.31957   1.28817   -1.000
 5946.00    1.32474   1.28784   -1.000
 5947.00    1.31752   1.28638   -1.000
 5948.00    1.31402   1.28627   -1.000
 5949.00    1.32044   1.28837   -1.000
 5950.00    1.32525   1.29070   -1.000
 5951.00    1.33064   1.29194   -1.000
 5952.00    1.33539   1.29253   -1.000
 5953.00    1.33246   1.29245   -1.000
 5954.00    1.32735   1.29107   -1.000
 5955.00    1.32591   1.28874   -1.000
 5956.00    1.32230   1.28724   -1.000
 5957.00    1.32013   1.28794   -1.000
 5958.00    1.32430   1.29070   -1.000
 5959.00    1.33388   1.29416   -1.000
 5960.00    1.33645   1.29712   -1.000
 5961.00    1.33940   1.29917   -1.000
 5962.00    1.33926   1.29983   -1.000
 5963.00    1.33328   1.29878   -1.000
 5964.00    1.32640   1.29649   -1.000
 5965.00    1.32491   1.29411   -1.000
 5966.00    1.31587   1.29292   -1.000
 5967.00    1.31677   1.29325   -1.000
 5968.00    1.32646   1.29448   -1.000
 5969.00    1.32698   1.29615   -1.000
 5970.00    1.33433   1.29785   -1.000
 5971.00    1.33396   1.29894   -1.000
 5972.00    1.33399   1.29916   -1.000
 5973.00    1.33455   1.29878   -1.000
 5974.00    1.32941   1.29747   -1.000
 5975.00    1.31873   1.29497   -1.000
 5976.00    1.31861   1.29251   -1.000
 5977.00    1.32364   1.29151   -1.000
 5978.00    1.32323   1.29266   -1.000
 5979.00    1.32875   1.29522   -1.000
 5980.00    1.33957   1.29720   -1.000
 5981.00    1.33634   1.29710   -1.000
 5982.00    1.33100   1.29490   -1.000
 5983.00    1.32433   1.29209   -1.000
 5984.00    1.32054   1.29056   -1.000
 5985.00    1.31860   1.29100   -1.000
 5986.00    1.32384   1.29264   -1.000
 5987.00    1.32680   1.29449   -1.000
 5988.00    1.32791   1.29578   -1.000
 5989.00    1.33010   1.29591   -1.000
 5990.00    1.32791   1.29540   -1.000
 5991.00    1.32863   1.29598   -1.000
 5992.00    1.32657   1.29866   -1.000
 5993.00    1.33107   1.30232   -1.000
 5994.00    1.33375   1.30473   -1.000
 5995.00    1.33288   1.30473   -1.000
 5996.00    1.33218   1.30318   -1.000
 5997.00    1.33382   1.30183   -1.000
 5998.00    1.33143   1.30163   -1.000
 5999.00    1.33008   1.30177   -1.000
 6000.00    1.33384   1.30097   -1.000
 6001.00    1.33144   1.29939   -1.000
 6002.00    1.33217   1.29792   -1.000
 6003.00    1.32916   1.29709   -1.000
 6004.00    1.32171   1.29636   -1.000
 6005.00    1.32250   1.29462   -1.000
 6006.00    1.32369   1.29183   -1.000
 6007.00    1.31590   1.28963   -1.000
 6008.00    1.31089   1.29008   -1.000
 6009.00    1.31712   1.29323   -1.000
 6010.00    1.32134   1.29651   -1.000
 6011.00    1.32551   1.29788   -1.000
 6012.00    1.32961   1.29793   -1.000
 6013.00    1.32517   1.29829   -1.000
 6014.00    1.32864   1.29932   -1.000
 6015.00    1.33303   1.29978   -1.000
 6016.00    1.33271   1.29897   -1.000
 6017.00    1.33286   1.29738   -1.000
 6018.00    1.32703   1.29543   -1.000
 6019.00    1.32643   1.29379   -1.000
 6020.00    1.32137   1.29291   -1.000
 6021.00    1.31966   1.29246   -1.000
 6022.00    1.32260   1.29228   -1.000
 6023.00    1.32295   1.29313   -1.000
 6024.00    1.32259   1.29551   -1.000
 6025.00    1.32881   1.29854   -1.000
 6026.00    1.32487   1.30111   -1.000
 6027.00    1.32930   1.30299   -1.000
 6028.00    1.33931   1.30428   -1.000
 6029.00    1.33802   1.30503   -1.000
 6030.00    1.33474   1.30568   -1.000
 6031.00    1.33662   1.30636   -1.000
 6032.00    1.33801   1.30687   -1.000
 6033.00    1.33310   1.30764   -1.000
 6034.00    1.33416   1.30911   -1.000
 6035.00    1.33308   1.31029   -1.000
 6036.00    1.33414   1.30961   -1.000
 6037.00    1.33760   1.30712   -1.000
 6038.00    1.33029   1.30412   -1.000
 6039.00    1.32749   1.30144   -1.000
 6040.00    1.32798   1.29892   -1.000
 6041.00    1.32716   1.29472   -1.000
 6042.00    1.32849   1.28917   -1.000
 6043.00    1.32878   1.28879   -1.000
 6044.00    1.33276   1.29606   -1.000
 6045.00    1.33111   1.30438   -1.000
 6046.00    1.33392   1.30874   -1.000
 6047.00    1.33600   1.30966   -1.000
 6048.00    1.33446   1.30877   -1.000
 6049.00    1.33274   1.30704   -1.000
 6050.00    1.33882   1.30568   -1.000
 6051.00    1.33670   1.30504   -1.000
 6052.00    1.33082   1.30479   -1.000
 6053.00    1.33118   1.30431   -1.000
 6054.00    1.33721   1.30313   -1.000
 6055.00    1.33364   1.30170   -1.000
 6056.00    1.33146   1.30073   -1.000
 6057.00    1.33247   1.30035   -1.000
 6058.00    1.33730   1.30053   -1.000
 6059.00    1.33625   1.30135   -1.000
 6060.00    1.33615   1.30195   -1.000
 6061.00    1.32995   1.30066   -1.000
 6062.00    1.29971   1.29643  142.913
 6063.00    1.29982   1.29032  143.502
 6064.00    1.29816   1.28550  163.916
 6065.00    1.06039   1.28504   -1.000
 6066.00    0.64239   1.28954   -1.000
 6067.00    1.04818   1.29627   -1.000
 6068.00    1.34828   1.30170   -1.000
 6069.00    1.32360   1.30484   -1.000
 6070.00    1.33368   1.30663   -1.000
 6071.00    1.31846   1.30798  136.306
 6072.00    1.32530   1.30919  136.775
 6073.00    1.33096   1.30969   -1.000
 6074.00    1.32736   1.30891   -1.000
 6075.00    1.32969   1.30695   -1.000
 6076.00    1.32631   1.30465   -1.000
 6077.00    1.32422   1.30301   -1.000
 6078.00    1.33078   1.30231   -1.000
 6079.00    1.32797   1.30200   -1.000
 6080.00    1.31772   1.30135  141.011
 6081.00    1.32084   1.30001   -1.000
 6082.00    1.32475   1.29852   -1.000
 6083.00    1.31834   1.29792   -1.000
 6084.00    1.31747   1.29846   -1.000
 6085.00    1.31737   1.29963   -1.000
 6086.00    1.31986   1.30105   -1.000
 6087.00    1.32618   1.30250   -1.000
 6088.00    1.32484   1.30332   -1.000
 6089.00    1.32207   1.30279   -1.000
 6090.00    1.31800   1.30108  141.640
 6091.00    1.31801   1.29972   -1.000
 6092.00    1.32210   1.30008   -1.000
 6093.00    1.32573   1.30196   -1.000
 6094.00    1.32357   1.30447   -1.000
 6095.00    1.32044   1.30696  138.862
 6096.00    1.32715   1.30918   -1.000
 6097.00    1.32792   1.31056  139.248
 6098.00    1.31895   1.30979  139.448
 6099.00    1.31597   1.30555  141.555
 6100.00    1.31336   1.29750  145.115
 6101.00    1.30431   1.28758   -1.000
 6102.00    1.29196   1.28082  145.150
 6103.00    1.29075   1.28106  142.274
 6104.00    1.29970   1.28713  140.427
 6105.00    1.30908   1.29465  140.265
 6106.00    1.31493   1.30067  140.886
 6107.00    1.31014   1.30509  141.143
 6108.00    1.30999   1.30834  141.007
 6109.00    1.31377   1.31004  140.636
 6110.00    1.32232   1.30979  140.048
 6111.00    1.31831   1.30829  140.019
 6112.00    1.31504   1.30699  139.212
 6113.00    1.31339   1.30668  139.053
 6114.00    1.31643   1.30715  139.745
 6115.00    1.32061   1.30787  140.622
 6116.00    1.31254   1.30815  140.773
 6117.00    1.31233   1.30634  141.703
 6118.00    1.30865   1.29997  143.912
 6119.00    1.30261   1.28964  145.665
 6120.00    1.29586   1.27837   -1.000
 6121.00    1.28651   1.27006  146.487
 6122.00    1.27853   1.27036  143.870
 6123.00    1.28825   1.27957  142.346
 6124.00    1.30225   1.29069  142.627
 6125.00    1.30590   1.29823  143.422
 6126.00    1.30649   1.30106  143.076
 6127.00    1.30178   1.30012  142.661
 6128.00    1.30583   1.29881  141.357
 6129.00    1.30766   1.30094  140.143
 6130.00    1.30871   1.30584  140.058
 6131.00    1.31413   1.30979  140.513
 6132.00    1.31375   1.31032  142.210
 6133.00    1.30681   1.30543  145.794
 6134.00    1.29083   1.29340  150.154
 6135.00    1.27827   1.27671  153.408
 6136.00    1.25632   1.26389  152.882
 6137.00    1.25413   1.26193  148.498
 6138.00    1.25684   1.26808  144.619
 6139.00    1.26880   1.27344  143.573
 6140.00    1.28292   1.27401  144.018
 6141.00    1.27688   1.27495  144.007
 6142.00    1.28009   1.28099  142.299
 6143.00    1.29159   1.28976  140.776
 6144.00    1.29809   1.29634  140.868
 6145.00    1.30416   1.29851  141.636
 6146.00    1.30392   1.29717  142.576
 6147.00    1.30209   1.29423  143.598
 6148.00    1.30103   1.29166  144.301
 6149.00    1.30407   1.29105  144.137
 6150.00    1.30463   1.29262  143.487
 6151.00    1.30212   1.29523  142.534
 6152.00    1.30296   1.29738  142.657
 6153.00    1.30420   1.29782  143.980
 6154.00    1.30465   1.29630  144.546
 6155.00    1.30320   1.29383  144.643
 6156.00    1.30101   1.29132  145.446
 6157.00    1.29785   1.28886  147.270
 6158.00    1.29197   1.28490  150.452
 6159.00    1.28542   1.27612  155.218
 6160.00    1.27372   1.26181  159.273
 6161.00    1.25828   1.24810  159.890
 6162.00    1.24384   1.24318  156.793
 6163.00    1.24850   1.24828  152.508
 6164.00    1.26487   1.25760  150.676
 6165.00    1.27669   1.26511  150.345
 6166.00    1.27936   1.26868  151.060
 6167.00    1.27590   1.26865  153.178
 6168.00    1.26982   1.26634  154.275
 6169.00    1.26249   1.26468  152.543
 6170.00    1.26202   1.26663  149.492
 6171.00    1.27048   1.27193  147.844
 6172.00    1.28093   1.27784  148.262
 6173.00    1.28383   1.28276  148.266
 6174.00    1.28187   1.28686  147.853
 6175.00    1.28317   1.28977  147.577
 6176.00    1.28533   1.29105  147.111
 6177.00    1.28618   1.29124  146.365
 6178.00    1.28586   1.29095  145.879
 6179.00    1.28468   1.29072  145.387
 6180.00    1.28645   1.29122  144.720
 6181.00    1.28562   1.29229  144.492
 6182.00    1.28836   1.29313  144.898
 6183.00    1.29482   1.29357  145.515
 6184.00    1.29067   1.29369  146.831
 6185.00    1.28868   1.29291  148.478
 6186.00    1.28753   1.29072  149.974
 6187.00    1.28634   1.28690  151.340
 6188.00    1.28159   1.28057  152.510
 6189.00    1.26971   1.27192  154.517
 6190.00    1.26396   1.26444  154.947
 6191.00    1.25620   1.26306  152.564
 6192.00    1.25909   1.26903  148.706
 6193.00    1.27187   1.27846  146.716
 6194.00    1.28473   1.28649  146.082
 6195.00    1.28869   1.29133  146.098
 6196.00    1.28832   1.29324  147.318
 6197.00    1.28845   1.29232  149.051
 6198.00    1.28197   1.28932  149.981
 6199.00    1.27391   1.28717  149.464
 6200.00    1.27012   1.28835  147.725
 6201.00    1.27315   1.29209  146.047
 6202.00    1.27637   1.29614  145.911
 6203.00    1.28391   1.29896  145.911
 6204.00    1.28995   1.30037  145.654
 6205.00    1.29264   1.30099  145.775
 6206.00    1.29445   1.30130  146.337
 6207.00    1.29719   1.30131  146.317
 6208.00    1.29559   1.30080  147.181
 6209.00    1.29467   1.29943  148.592
 6210.00    1.28838   1.29696  149.747
 6211.00    1.28494   1.29293  151.389
 6212.00    1.28051   1.28760  153.708
 6213.00    1.27607   1.28275  154.951
 6214.00    1.27336   1.28002  154.858
 6215.00    1.27726   1.27922  152.683
 6216.00    1.27998   1.27866  152.467
 6217.00    1.28082   1.27714  153.617
 6218.00    1.27123   1.27520  152.667
 6219.00    1.26820   1.27459  151.806
 6220.00    1.27013   1.27641  154.498
 6221.00    1.28560   1.27979  165.142
 6222.00    1.23039   1.28262   -1.000
 6223.00    1.08163   1.28413   -1.000
 6224.00    1.26296   1.28513   -1.000
 6225.00    1.29491   1.28580  151.240
 6226.00    1.28641   1.28502  152.400
 6227.00    1.27998   1.28108  154.707
 6228.00    1.27810   1.27338  157.236
 6229.00    1.26913   1.26434  158.753
 6230.00    1.26260   1.25861  157.477
 6231.00    1.25487   1.25945  154.937
 6232.00    1.26243   1.26606  151.989
 6233.00    1.27240   1.27451  149.849
 6234.00    1.28150   1.28083  149.639
 6235.00    1.28785   1.28287  150.921
 6236.00    1.28723   1.28101  152.494
 6237.00    1.28099   1.27725  154.048
 6238.00    1.27835   1.27389  155.558
 6239.00    1.27941   1.27241  155.954
 6240.00    1.27468   1.27251  156.002
 6241.00    1.27283   1.27231  157.312
 6242.00    1.26976   1.26991  158.131
 6243.00    1.27000   1.26517  157.746
 6244.00    1.25887   1.25979  156.555
 6245.00    1.25910   1.25692  154.874
 6246.00    1.26426   1.25902  152.902
 6247.00    1.26301   1.26539  151.580
 6248.00    1.27219   1.27241  151.842
 6249.00    1.27858   1.27598  153.646
 6250.00    1.27622   1.27387  156.524
 6251.00    1.26170   1.26753  158.166
 6252.00    1.25050   1.26125  159.062
 6253.00    1.24758   1.25824  159.356
 6254.00    1.24750   1.25857  159.463
 6255.00    1.24856   1.26031  161.124
 6256.00    1.25204   1.26184  162.200
 6257.00    1.25021   1.26342  160.969
 6258.00    1.25538   1.26622  158.357
 6259.00    1.26159   1.27034  156.043
 6260.00    1.26382   1.27458  153.905
 6261.00    1.26935   1.27819  151.720
 6262.00    1.27179   1.28091  151.474
 6263.00    1.27019   1.28222  152.871
 6264.00    1.26870   1.28233  153.567
 6265.00    1.26611   1.28267  152.607
 6266.00    1.26373   1.28393  151.721
 6267.00    1.26459   1.28453  152.507
 6268.00    1.27030   1.28304  153.129
 6269.00    1.27157   1.28018  152.756
 6270.00    1.27485   1.27757  152.230
 6271.00    1.27337   1.27557  152.013
 6272.00    1.27218   1.27269  152.615
 6273.00    1.26015   1.26697  153.822
 6274.00    1.24590   1.25790  155.257
 6275.00    1.22533   1.24746   -1.000
 6276.00    1.20625   1.23852   -1.000
 6277.00    1.19688   1.23321   -1.000
 6278.00    1.19222   1.23199   -1.000
 6279.00    1.19754   1.23430   -1.000
 6280.00    1.20014   1.23979   -1.000
 6281.00    1.19906   1.24794   -1.000
 6282.00    1.20392   1.25733   -1.000
 6283.00    1.21775   1.26603   -1.000
 6284.00    1.23725   1.27248   -1.000
 6285.00    1.24722   1.27637   -1.000
 6286.00    1.25124   1.27836   -1.000
 6287.00    1.25573   1.27855  150.876
 6288.00    1.25982   1.27661  151.878
 6289.00    1.25665   1.27345  153.190
 6290.00    1.25284   1.27079  154.173
 6291.00    1.25495   1.26947  154.355
 6292.00    1.25764   1.26889  154.536
 6293.00    1.25890   1.26787  154.970
 6294.00    1.26228   1.26558  156.258
 6295.00    1.26900   1.26218  157.125
 6296.00    1.28139   1.25891   -1.000
 6297.00    1.29223   1.25703   -1.000
 6298.00    1.31726   1.25669   -1.000
 6299.00    1.35657   1.25661   -1.000
 6300.00    1.36337   1.25627   -1.000
 6301.00    1.33706   1.25745   -1.000
 6302.00    1.29858   1.26148   -1.000
 6303.00    1.27248   1.26708  154.360
 6304.00    1.26919   1.27169  152.634
 6305.00    1.26921   1.27426  151.371
 6306.00    1.26835   1.27580  150.155
 6307.00    1.26564   1.27733  150.189
 6308.00    1.26286   1.27903  150.996
 6309.00    1.26614   1.28045  151.986
 6310.00    1.26602   1.28078  152.521
 6311.00    1.26357   1.27970  153.084
 6312.00    1.26292   1.27766  153.372
 6313.00    1.25912   1.27539  154.812
 6314.00    1.25298   1.27336  155.139
 6315.00    1.24726   1.27154   -1.000
 6316.00    1.24810   1.26951  154.881
 6317.00    1.24680   1.26808  155.012
 6318.00    1.25123   1.26937  154.136
 6319.00    1.25334   1.27349  152.193
 6320.00    1.25560   1.27809  150.907
 6321.00    1.26254   1.28174  150.431
 6322.00    1.26362   1.28502  149.872
 6323.00    1.26186   1.28836   -1.000
 6324.00    1.26957   1.29073  148.717
 6325.00    1.27612   1.29129  148.565
 6326.00    1.27643   1.29069  147.882
 6327.00    1.27555   1.28980  148.127
 6328.00    1.27961   1.28906  148.213
 6329.00    1.28193   1.28893  148.213
 6330.00    1.27732   1.28949  147.649
 6331.00    1.26872   1.28978  147.552
 6332.00    1.26736   1.28803  148.014
 6333.00    1.26416   1.28321  148.874
 6334.00    1.27345   1.27659  152.200
 6335.00    1.27400   1.27221  151.893
 6336.00    1.24255   1.27297   -1.000
 6337.00    1.25242   1.27757   -1.000
 6338.00    1.26351   1.28275  147.371
 6339.00    1.26939   1.28645  146.750
 6340.00    1.27294   1.28844  146.154
 6341.00    1.27463   1.28912  146.557
 6342.00    1.27357   1.28841  147.825
 6343.00    1.26687   1.28629  147.799
 6344.00    1.26748   1.28350  147.276
 6345.00    1.26901   1.28140  146.402
 6346.00    1.26713   1.28147  145.430
 6347.00    1.26938   1.28432  145.027
 6348.00    1.27629   1.28909  145.055
 6349.00    1.27320   1.29377  144.769
 6350.00    1.26889   1.29651   -1.000
 6351.00    1.26956   1.29666   -1.000
 6352.00    1.27086   1.29482  146.552
 6353.00    1.26836   1.29235  148.283
 6354.00    1.26408   1.29046   -1.000
 6355.00    1.26552   1.28930  149.316
 6356.00    1.26245   1.28824   -1.000
 6357.00    1.25943   1.28667   -1.000
 6358.00    1.25813   1.28492   -1.000
 6359.00    1.26402   1.28365  151.290
 6360.00    1.26870   1.28259  150.886
 6361.00    1.28044   1.28136  150.713
 6362.00    1.28912   1.28080  150.068
 6363.00    1.29449   1.28210  149.039
 6364.00    1.28906   1.28471  148.121
 6365.00    1.28327   1.28710  147.315
 6366.00    1.27220   1.28862  146.351
 6367.00    1.26645   1.28900  145.473
 6368.00    1.26632   1.28778  145.238
 6369.00    1.26405   1.28544  145.283
 6370.00    1.26053   1.28352  144.714
 6371.00    1.25992   1.28345  144.300
 6372.00    1.26367   1.28562  144.731
 6373.00    1.26231   1.28855   -1.000
 6374.00    1.26014   1.29022   -1.000
 6375.00    1.25296   1.29015   -1.000
 6376.00    1.25206   1.28911   -1.000
 6377.00    1.24936   1.28778   -1.000
 6378.00    1.24671   1.28630   -1.000
 6379.00    1.24158   1.28470   -1.000
 6380.00    1.24191   1.28337   -1.000
 6381.00    1.24355   1.28275   -1.000
 6382.00    1.23605   1.28306   -1.000
 6383.00    1.24110   1.28412   -1.000
 6384.00    1.23759   1.28549   -1.000
 6385.00    1.23173   1.28705   -1.000
 6386.00    1.22650   1.28864   -1.000
 6387.00    1.22563   1.28957   -1.000
 6388.00    1.22455   1.28926   -1.000
 6389.00    1.21836   1.28735   -1.000
 6390.00    1.20712   1.28311   -1.000
 6391.00    1.19311   1.27691   -1.000
 6392.00    1.18521   1.27152   -1.000
 6393.00    1.18467   1.27055   -1.000
 6394.00    1.18400   1.27454   -1.000
 6395.00    1.17777   1.27999   -1.000
 6396.00    1.17993   1.28249   -1.000
 6397.00    1.17529   1.28002   -1.000
 6398.00    1.16433   1.27464   -1.000
 6399.00    1.14941   1.27097   -1.000
 6400.00    1.14091   1.27246   -1.000
 6401.00    1.14175   1.27838   -1.000
 6402.00    1.15283   1.28510   -1.000
 6403.00    1.15495   1.28935   -1.000
 6404.00    1.15165   1.28973   -1.000
 6405.00    1.14369   1.28626   -1.000
 6406.00    1.13405   1.28011   -1.000
 6407.00    1.12294   1.27359   -1.000
 6408.00    1.12000   1.27078   -1.000
 6409.00    1.10775   1.27319   -1.000
 6410.00    1.09540   1.27681   -1.000
 6411.00    1.09282   1.27880   -1.000
 6412.00    1.09020   1.27998   -1.000
 6413.00    1.08446   1.28109   -1.000
 6414.00    1.07625   1.28186   -1.000
 6415.00    1.07410   1.28294   -1.000
 6416.00    1.06786   1.28434   -1.000
 6417.00    1.06224   1.28438   -1.000
 6418.00    1.04829   1.28180   -1.000
 6419.00    1.03323   1.27780   -1.000
 6420.00    1.01879   1.27561   -1.000
 6421.00    1.01098   1.27756   -1.000
 6422.00    1.00607   1.28294   -1.000
 6423.00    1.00278   1.28907   -1.000
 6424.00    0.99795   1.29389   -1.000
 6425.00    0.99371   1.29682   -1.000
 6426.00    0.98827   1.29752   -1.000
 6427.00    0.97522   1.29485   -1.000
 6428.00    0.96707   1.28844   -1.000
