###################################################################
## OUTPUT of StarlightChains_v04.for    [Cid@UFSC - 01/Apr/2007] ##
###################################################################

## Some input info
NGC5986_a_1.cxt                          [arq_obs]
Base.BC03.S                              [arq_base]
NGC5986_a_1.msk                          [arq_masks]
StCv04.C99.config                        [arq_config]
  150                                    [N_base]
    0                                    [N_YAV_components = # of components with extra extinction!]
    0                                    [i_FitPowerLaw (1/0 = Yes/No)]
-9.99                                    [alpha_PowerLaw]
CCM                                      [red_law_option]
 1.458241                                [q_norm = A(l_norm)/A(V)]

## (Re)Sampling Parameters
 3359.00                                 [l_ini (A)]
 6428.00                                 [l_fin (A)]
    1.00                                 [dl    (A)]     (OBS: dl_cushion =    50.00 A)

## Normalization info
 4020.00                                 [l_norm (A) - for base]
 4010.00                                 [llow_norm (A) - window for f_obs]
 4060.00                                 [lupp_norm (A) - window for f_obs]
1.970425E-14                             [fobs_norm (in input units)]

## S/N
 4730.00                                 [llow_SN (A) - window for S/N]
 4780.00                                 [lupp_SN (A) - window for S/N]
 120.453                                 [S/N in S/N window]
 104.720                                 [S/N in norm. window]
  85.601                                 [S/N_err in S/N window]
  74.420                                 [S/N_err in norm. window]
  1.0000                                 [fscale_chi2]

## etc...
  2147483629                             [idum_orig]
  3066                                   [NOl_eff]
  1940                                   [Nl_eff]
  1126    NSIGMA                         [Ntot_cliped & clip_method]
  3430980                                [Nglobal_steps]
   7                                     [N_chains]
  24                                     [NEX0s_base = N_base in EX0s-fits]
 0   0   1       80   2.0   6.653E+02    [Clip-Bug, RC-Crash & Burn-In warning-flags, n_censored_weights, wei_nsig_threshold & wei_limit]
   128    127.780    127.756      0.024  [idt_all, wdt_TotTime, wdt_UsrTime & wdt_SysTime (sec)]

## Synthesis Results - Best model ##

 2.34751E+00                             [chi2/Nl_eff]
     1.52201                             [adev (%)]

    99.76394                             [sum-of-x (%)]
 6.53877E-14                             [Flux_tot (units of input spectrum!)]
 7.48880E-10                             [Mini_tot (???)]
 3.86396E-10                             [Mcor_tot (???)]

 -20.10                                  [v0_min  (km/s)]
  64.45                                  [vd_min  (km/s)]
 0.8948                                  [AV_min  (mag)]
 0.0000                                  [YAV_min (mag)]

# j     x_j(%)      Mini_j(%)     Mcor_j(%)     age_j(yr)     Z_j      (L/M)_j    YAV?  Mstars   component_j        a/Fe...       SSP_chi2r SSP_adev(%)   SSP_AV   SSP_x(%)
  1      0.0000     0.0000E+00    0.0000E+00    1.000000E+06  0.00010  8.160E-03    0   1.0000   age020_m22            0.0000     1.9259E+02     9.8810   4.0000    74.8381
  2      7.8033     1.4351E-02    2.7813E-02    3.160000E+06  0.00010  4.759E-02    0   1.0000   age045_m22            0.0000     2.0553E+01     3.2389   2.1418    92.9827
  3      0.0000     0.0000E+00    0.0000E+00    5.010000E+06  0.00010  1.932E-02    0   0.9582   age055_m22            0.0000     1.5218E+02    10.3872   2.5447    76.2168
  4      0.0000     0.0000E+00    0.0000E+00    6.610000E+06  0.00010  9.973E-03    0   0.9297   age061_m22            0.0000     1.8573E+02    10.0377   4.0000    76.8853
  5      0.0000     0.0000E+00    0.0000E+00    8.710000E+06  0.00010  7.690E-03    0   0.9030   age067_m22            0.0000     1.7477E+02     9.7290   4.0000    77.2226
  6      0.0000     0.0000E+00    0.0000E+00    1.000000E+07  0.00010  6.375E-03    0   0.8902   age070_m22            0.0000     1.6921E+02     9.4898   4.0000    77.7220
  7      0.0000     0.0000E+00    0.0000E+00    1.445000E+07  0.00010  4.874E-03    0   0.8589   age078_m22            0.0000     1.1213E+02     8.4207   4.0000    77.0149
  8      0.0000     0.0000E+00    0.0000E+00    2.512000E+07  0.00010  4.103E-03    0   0.8174   age090_m22            0.0000     4.8241E+01     5.4458   3.5492    85.1152
  9      1.7929     4.2944E-02    6.5169E-02    4.000000E+07  0.00010  3.654E-03    0   0.7830   age104_m22            0.0000     1.5900E+01     3.4113   3.1876    92.4592
 10      1.1534     3.2636E-02    4.8053E-02    5.500000E+07  0.00010  3.093E-03    0   0.7597   age110_m22            0.0000     1.1600E+01     2.9704   3.0711    94.7429
 11      1.4658     5.2771E-02    7.3005E-02    1.015200E+08  0.00010  2.431E-03    0   0.7138   age116_m22            0.0000     1.1853E+01     2.9696   2.6977    98.9638
 12      0.0000     0.0000E+00    0.0000E+00    1.609000E+08  0.00010  1.319E-03    0   0.6775   age120_m22            0.0000     1.2822E+01     2.9883   2.2423   100.5149
 13      0.0000     0.0000E+00    0.0000E+00    2.861200E+08  0.00010  1.075E-03    0   0.6412   age125_m22            0.0000     5.9534E+01     6.4341   2.2528   106.8934
 14      0.0000     0.0000E+00    0.0000E+00    5.088000E+08  0.00010  7.183E-04    0   0.6083   age130_m22            0.0000     8.3521E+01     7.5195   2.0199   108.9677
 15      0.0000     0.0000E+00    0.0000E+00    9.047900E+08  0.00010  4.524E-04    0   0.5785   age135_m22            0.0000     8.7684E+01     7.6686   1.8225   110.1452
 16      0.0000     0.0000E+00    0.0000E+00    1.278050E+09  0.00010  3.018E-04    0   0.5588   age138_m22            0.0000     3.2110E+01     4.8764   1.3228   106.6196
 17      0.0000     0.0000E+00    0.0000E+00    1.434000E+09  0.00010  2.691E-04    0   0.5532   age139_m22            0.0000     2.4231E+01     4.3177   1.1752   105.6175
 18      0.0000     0.0000E+00    0.0000E+00    2.500000E+09  0.00010  1.582E-04    0   0.5296   age150_m22            0.0000     1.8124E+01     3.7216   1.0637   106.1339
 19      0.0000     0.0000E+00    0.0000E+00    4.250000E+09  0.00010  1.007E-04    0   0.5110   age158_m22            0.0000     6.7217E+00     2.4923   0.9322   103.3111
 20      0.0000     0.0000E+00    0.0000E+00    6.250000E+09  0.00010  6.869E-05    0   0.4985   age166_m22            0.0000     2.9123E+00     1.6727   0.8957    99.3969
 21      0.0277     4.1345E-02    3.9513E-02    7.500000E+09  0.00010  5.873E-05    0   0.4931   age171_m22            0.0000     3.0652E+00     1.6323   0.8852    98.7248
 22      0.1265     2.4701E-01    2.3238E-01    1.000000E+10  0.00010  4.481E-05    0   0.4854   age181_m22            0.0000     3.0786E+00     1.6452   0.8477    98.3408
 23      0.0047     1.1720E-02    1.0883E-02    1.300000E+10  0.00010  3.489E-05    0   0.4791   age193_m22            0.0000     3.2795E+00     1.7006   0.7947    97.6507
 24      0.0054     1.5549E-02    1.4363E-02    1.500000E+10  0.00010  3.035E-05    0   0.4766   age201_m22            0.0000     3.4667E+00     1.7395   0.7577    97.3685
 25      0.0040     1.3977E-02    1.2827E-02    1.800000E+10  0.00010  2.510E-05    0   0.4735   age213_m22            0.0000     4.1836E+00     1.8632   0.6947    96.5163
 26      0.0000     0.0000E+00    0.0000E+00    1.000000E+06  0.00040  8.458E-03    0   1.0000   age020_m32            0.0000     1.9457E+02     9.9522   4.0000    75.7785
 27      0.0000     0.0000E+00    0.0000E+00    3.160000E+06  0.00040  3.973E-02    0   1.0000   age045_m32            0.0000     5.5633E+01     5.7076   3.4509    84.8781
 28      0.0000     0.0000E+00    0.0000E+00    5.010000E+06  0.00040  1.935E-02    0   0.9532   age055_m32            0.0000     1.2728E+02     9.2067   3.7296    77.1924
 29      0.0000     0.0000E+00    0.0000E+00    6.610000E+06  0.00040  1.204E-02    0   0.9243   age061_m32            0.0000     1.4077E+02     9.2625   4.0000    76.1387
 30      0.0002     2.1500E-06    3.7506E-06    8.710000E+06  0.00040  9.433E-03    0   0.9001   age067_m32            0.0000     1.2572E+02     8.8691   4.0000    76.5036
 31      0.0000     0.0000E+00    0.0000E+00    1.000000E+07  0.00040  8.053E-03    0   0.8877   age070_m32            0.0000     1.2029E+02     8.7642   3.9828    76.5756
 32      0.0000     0.0000E+00    0.0000E+00    1.445000E+07  0.00040  7.027E-03    0   0.8578   age078_m32            0.0000     7.2112E+01     6.8155   3.4176    83.1947
 33      0.0000     0.0000E+00    0.0000E+00    2.512000E+07  0.00040  4.707E-03    0   0.8166   age090_m32            0.0000     3.9288E+01     5.1130   3.0901    88.3924
 34      0.1294     3.0500E-03    4.6267E-03    4.000000E+07  0.00040  3.714E-03    0   0.7827   age104_m32            0.0000     1.6359E+01     3.4471   2.8462    93.5185
 35      0.2718     7.9774E-03    1.1740E-02    5.500000E+07  0.00040  2.982E-03    0   0.7593   age110_m32            0.0000     1.2004E+01     3.0096   2.7708    95.3667
 36      0.0200     7.9863E-04    1.1056E-03    1.015200E+08  0.00040  2.188E-03    0   0.7143   age116_m32            0.0000     2.0954E+01     3.8794   2.4597   102.0337
 37      0.2839     1.4704E-02    1.9539E-02    1.609000E+08  0.00040  1.690E-03    0   0.6856   age120_m32            0.0000     4.1698E+01     5.2846   2.2254   106.1236
 38      0.0041     3.1212E-04    3.9374E-04    2.861200E+08  0.00040  1.152E-03    0   0.6509   age125_m32            0.0000     6.6254E+01     6.6851   2.0066   108.0980
 39      0.0000     0.0000E+00    0.0000E+00    5.088000E+08  0.00040  7.331E-04    0   0.6182   age130_m32            0.0000     7.8245E+01     7.2900   1.8440   108.9291
 40      0.0000     0.0000E+00    0.0000E+00    9.047900E+08  0.00040  3.960E-04    0   0.5890   age135_m32            0.0000     3.5697E+01     5.3496   1.4205   105.7198
 41      0.0000     0.0000E+00    0.0000E+00    1.278050E+09  0.00040  2.854E-04    0   0.5687   age138_m32            0.0000     2.4096E+01     4.2756   1.1286   107.2832
 42      0.0000     0.0000E+00    0.0000E+00    1.434000E+09  0.00040  2.531E-04    0   0.5632   age139_m32            0.0000     2.2971E+01     4.1288   1.0656   107.3014
 43     21.7551     1.2796E+01    1.3357E+01    2.500000E+09  0.00040  1.488E-04    0   0.5386   age150_m32            0.0000     1.3740E+01     3.2377   0.8175   104.9927
 44     56.3820     5.4334E+01    5.4748E+01    4.250000E+09  0.00040  9.082E-05    0   0.5199   age158_m32            0.0000     2.9495E+00     1.8028   0.7540    99.8310
 45      7.4389     1.0233E+01    1.0068E+01    6.250000E+09  0.00040  6.362E-05    0   0.5076   age166_m32            0.0000     8.0086E+00     2.3153   0.7427    94.9237
 46      0.0000     0.0000E+00    0.0000E+00    7.500000E+09  0.00040  5.289E-05    0   0.5027   age171_m32            0.0000     1.0466E+01     2.5259   0.7139    93.3802
 47      0.0000     0.0000E+00    0.0000E+00    1.000000E+10  0.00040  3.972E-05    0   0.4948   age181_m32            0.0000     1.2494E+01     2.6873   0.6580    91.8545
 48      0.0000     0.0000E+00    0.0000E+00    1.300000E+10  0.00040  3.283E-05    0   0.4870   age193_m32            0.0000     6.1386E+00     2.2317   0.5987    95.2760
 49      0.0000     0.0000E+00    0.0000E+00    1.500000E+10  0.00040  2.925E-05    0   0.4854   age201_m32            0.0000     4.1996E+00     2.0703   0.5708    97.3134
 50      0.0009     3.1868E-03    2.9764E-03    1.800000E+10  0.00040  2.469E-05    0   0.4819   age213_m32            0.0000     3.9799E+00     2.0761   0.5272    98.0028
 51      0.0000     0.0000E+00    0.0000E+00    1.000000E+06  0.00400  1.114E-02    0   1.0000   age020_m42            0.0000     1.7344E+02     9.4485   4.0000    74.9004
 52      0.0068     1.4630E-05    2.8352E-05    3.160000E+06  0.00400  4.073E-02    0   0.9999   age045_m42            0.0000     3.5173E+01     4.3527   3.1391    88.1073
 53      0.0000     0.0000E+00    0.0000E+00    5.010000E+06  0.00400  2.534E-02    0   0.9488   age055_m42            0.0000     8.5392E+01     7.1488   3.5898    80.1279
 54      0.0000     0.0000E+00    0.0000E+00    6.610000E+06  0.00400  2.583E-02    0   0.9220   age061_m42            0.0000     2.3025E+01     3.6062   2.9275    90.1372
 55      0.0000     0.0000E+00    0.0000E+00    8.710000E+06  0.00400  1.706E-02    0   0.8983   age067_m42            0.0000     4.8231E+01     5.6327   2.7804    87.0482
 56      0.0000     0.0000E+00    0.0000E+00    1.000000E+07  0.00400  1.271E-02    0   0.8862   age070_m42            0.0000     7.4319E+01     7.3740   2.7841    84.8230
 57      0.0000     0.0000E+00    0.0000E+00    1.445000E+07  0.00400  7.666E-03    0   0.8571   age078_m42            0.0000     9.8738E+01     8.2328   3.2143    80.6024
 58      0.0000     0.0000E+00    0.0000E+00    2.512000E+07  0.00400  5.070E-03    0   0.8174   age090_m42            0.0000     6.6891E+01     6.9280   2.6570    86.3020
 59      0.0000     0.0000E+00    0.0000E+00    4.000000E+07  0.00400  3.505E-03    0   0.7851   age104_m42            0.0000     4.4955E+01     5.3275   2.3364    89.5111
 60      0.0000     0.0000E+00    0.0000E+00    5.500000E+07  0.00400  3.059E-03    0   0.7629   age110_m42            0.0000     1.1101E+01     2.5736   2.3290    97.0075
 61      0.0000     0.0000E+00    0.0000E+00    1.015200E+08  0.00400  2.268E-03    0   0.7207   age116_m42            0.0000     3.4952E+01     5.0365   2.1605   106.0303
 62      0.0000     0.0000E+00    0.0000E+00    1.609000E+08  0.00400  1.720E-03    0   0.6930   age120_m42            0.0000     4.4666E+01     5.6799   2.0171   107.8117
 63      0.0000     0.0000E+00    0.0000E+00    2.861200E+08  0.00400  1.079E-03    0   0.6613   age125_m42            0.0000     4.4986E+01     5.6706   1.6791   107.6786
 64      0.0000     0.0000E+00    0.0000E+00    5.088000E+08  0.00400  6.261E-04    0   0.6313   age130_m42            0.0000     6.0224E+01     6.2765   1.4699   111.3288
 65      0.0000     0.0000E+00    0.0000E+00    9.047900E+08  0.00400  3.535E-04    0   0.6024   age135_m42            0.0000     3.3338E+01     4.9010   1.0967   110.1563
 66      0.0000     0.0000E+00    0.0000E+00    1.278050E+09  0.00400  2.677E-04    0   0.5837   age138_m42            0.0000     2.4285E+01     4.5971   0.4768   104.5812
 67      0.0000     0.0000E+00    0.0000E+00    1.434000E+09  0.00400  1.910E-04    0   0.5716   age139_m42            0.0000     2.3033E+01     4.4939   0.6289   106.2002
 68      0.0000     0.0000E+00    0.0000E+00    2.500000E+09  0.00400  9.818E-05    0   0.5463   age150_m42            0.0000     2.2026E+01     4.3673   0.4103    99.0231
 69      0.0000     0.0000E+00    0.0000E+00    4.250000E+09  0.00400  5.491E-05    0   0.5269   age158_m42            0.0000     2.8090E+01     4.6528   0.3052    95.3772
 70      0.0000     0.0000E+00    0.0000E+00    6.250000E+09  0.00400  3.857E-05    0   0.5151   age166_m42            0.0000     3.7014E+01     5.2323   0.1920    93.6077
 71      0.0000     0.0000E+00    0.0000E+00    7.500000E+09  0.00400  3.243E-05    0   0.5110   age171_m42            0.0000     4.2923E+01     5.5938   0.1203    92.8596
 72      0.0000     0.0000E+00    0.0000E+00    1.000000E+10  0.00400  2.424E-05    0   0.5028   age181_m42            0.0000     5.1115E+01     6.0475   0.0492    91.9725
 73      0.0000     0.0000E+00    0.0000E+00    1.300000E+10  0.00400  1.883E-05    0   0.4927   age193_m42            0.0000     5.7571E+01     6.3677   0.0174    91.3899
 74      0.0000     0.0000E+00    0.0000E+00    1.500000E+10  0.00400  1.685E-05    0   0.4919   age201_m42            0.0000     5.5934E+01     6.2882   0.0200    91.4672
 75      0.0000     0.0000E+00    0.0000E+00    1.800000E+10  0.00400  1.452E-05    0   0.4874   age213_m42            0.0000     5.2918E+01     6.1474   0.0321    91.8113
 76      0.0000     0.0000E+00    0.0000E+00    1.000000E+06  0.00800  1.286E-02    0   1.0000   age020_m52            0.0000     1.5490E+02     8.8123   4.0000    76.2339
 77      0.0000     0.0000E+00    0.0000E+00    3.160000E+06  0.00800  3.147E-02    0   0.9966   age045_m52            0.0000     1.3965E+02     8.8594   4.0000    75.9967
 78      0.0000     0.0000E+00    0.0000E+00    5.010000E+06  0.00800  2.664E-02    0   0.9443   age055_m52            0.0000     1.0256E+02     7.7209   3.7287    78.4367
 79      0.0000     0.0000E+00    0.0000E+00    6.610000E+06  0.00800  2.151E-02    0   0.9177   age061_m52            0.0000     7.2004E+01     6.6204   2.4095    85.3550
 80      0.0000     0.0000E+00    0.0000E+00    8.710000E+06  0.00800  1.628E-02    0   0.8948   age067_m52            0.0000     6.3300E+01     6.3922   2.7612    86.4951
 81      0.0000     0.0000E+00    0.0000E+00    1.000000E+07  0.00800  1.215E-02    0   0.8827   age070_m52            0.0000     7.6884E+01     7.0571   3.1113    84.2603
 82      0.0000     0.0000E+00    0.0000E+00    1.445000E+07  0.00800  8.739E-03    0   0.8552   age078_m52            0.0000     5.8798E+01     6.0348   3.1332    86.2880
 83      0.0012     1.9037E-05    3.0114E-05    2.512000E+07  0.00800  5.676E-03    0   0.8162   age090_m52            0.0000     2.8695E+01     4.4302   2.6822    93.1609
 84      0.0028     6.2391E-05    9.4814E-05    4.000000E+07  0.00800  3.939E-03    0   0.7841   age104_m52            0.0000     1.5769E+01     3.1171   2.5040    96.5660
 85      0.0000     0.0000E+00    0.0000E+00    5.500000E+07  0.00800  3.155E-03    0   0.7627   age110_m52            0.0000     1.1974E+01     2.6997   2.4552    99.2362
 86      0.0000     0.0000E+00    0.0000E+00    1.015200E+08  0.00800  2.206E-03    0   0.7226   age116_m52            0.0000     2.2697E+01     4.1221   2.2373   104.8522
 87      0.0000     0.0000E+00    0.0000E+00    1.609000E+08  0.00800  1.596E-03    0   0.6963   age120_m52            0.0000     3.3026E+01     4.9704   2.0171   106.9067
 88      0.0000     0.0000E+00    0.0000E+00    2.861200E+08  0.00800  1.002E-03    0   0.6665   age125_m52            0.0000     6.6948E+01     6.9628   1.7198   110.3521
 89      0.0000     0.0000E+00    0.0000E+00    5.088000E+08  0.00800  5.759E-04    0   0.6377   age130_m52            0.0000     8.3162E+01     7.7352   1.3853   114.0044
 90      0.0000     0.0000E+00    0.0000E+00    9.047900E+08  0.00800  2.972E-04    0   0.6086   age135_m52            0.0000     5.0173E+01     6.4743   0.8985   110.4737
 91      0.0000     0.0000E+00    0.0000E+00    1.278050E+09  0.00800  2.242E-04    0   0.5907   age138_m52            0.0000     3.7359E+01     5.6459   0.3267   106.7500
 92      0.0000     0.0000E+00    0.0000E+00    1.434000E+09  0.00800  1.645E-04    0   0.5787   age139_m52            0.0000     3.0706E+01     5.1848   0.4731   106.1264
 93      0.0000     0.0000E+00    0.0000E+00    2.500000E+09  0.00800  7.723E-05    0   0.5519   age150_m52            0.0000     4.0097E+01     5.7024   0.1675   100.8015
 94      0.0000     0.0000E+00    0.0000E+00    4.250000E+09  0.00800  4.151E-05    0   0.5320   age158_m52            0.0000     4.3434E+01     5.8078   0.1066    97.8752
 95      0.0000     0.0000E+00    0.0000E+00    6.250000E+09  0.00800  3.010E-05    0   0.5197   age166_m52            0.0000     5.8195E+01     6.5862  -0.0700    95.9062
 96      0.0000     0.0000E+00    0.0000E+00    7.500000E+09  0.00800  2.467E-05    0   0.5139   age171_m52            0.0000     6.2375E+01     6.7936  -0.1079    95.4117
 97      0.0000     0.0000E+00    0.0000E+00    1.000000E+10  0.00800  1.862E-05    0   0.5054   age181_m52            0.0000     7.5837E+01     7.4406  -0.2279    94.7710
 98      0.0000     0.0000E+00    0.0000E+00    1.300000E+10  0.00800  1.433E-05    0   0.4988   age193_m52            0.0000     9.1345E+01     8.0922  -0.3143    95.0603
 99      0.0000     0.0000E+00    0.0000E+00    1.500000E+10  0.00800  1.244E-05    0   0.4936   age201_m52            0.0000     9.7532E+01     8.3171  -0.3393    95.3609
100      0.0000     0.0000E+00    0.0000E+00    1.800000E+10  0.00800  1.070E-05    0   0.4888   age213_m52            0.0000     1.0228E+02     8.5052  -0.3719    95.1694
101      0.0000     0.0000E+00    0.0000E+00    1.000000E+06  0.02000  1.989E-02    0   1.0000   age020_m62            0.0000     1.6918E+02     9.4867   4.0000    74.8550
102      0.0000     0.0000E+00    0.0000E+00    3.160000E+06  0.02000  3.772E-02    0   0.9858   age045_m62            0.0000     1.4400E+02     9.3844   4.0000    74.2450
103      0.0000     0.0000E+00    0.0000E+00    5.010000E+06  0.02000  3.227E-02    0   0.9342   age055_m62            0.0000     5.5213E+01     5.6933   3.4103    84.2931
104      0.0000     0.0000E+00    0.0000E+00    6.610000E+06  0.02000  2.387E-02    0   0.9090   age061_m62            0.0000     8.9593E+01     7.8735   3.1793    82.8795
105      0.0000     0.0000E+00    0.0000E+00    8.710000E+06  0.02000  1.102E-02    0   0.8861   age067_m62            0.0000     2.4761E+02    14.4443   2.8617    76.0022
106      0.0000     0.0000E+00    0.0000E+00    1.000000E+07  0.02000  1.011E-02    0   0.8751   age070_m62            0.0000     1.7689E+02    11.9275   2.8648    79.0957
107      0.0000     0.0000E+00    0.0000E+00    1.445000E+07  0.02000  7.331E-03    0   0.8472   age078_m62            0.0000     1.2749E+02     9.7677   2.8713    81.0427
108      0.0000     0.0000E+00    0.0000E+00    2.512000E+07  0.02000  4.206E-03    0   0.8099   age090_m62            0.0000     1.3674E+02     9.9445   2.7991    80.0154
109      0.0000     0.0000E+00    0.0000E+00    4.000000E+07  0.02000  3.373E-03    0   0.7799   age104_m62            0.0000     3.5858E+01     4.8304   2.5210    92.0592
110      0.0000     0.0000E+00    0.0000E+00    5.500000E+07  0.02000  2.747E-03    0   0.7595   age110_m62            0.0000     1.6534E+01     3.2012   2.4131    97.5177
111      0.0000     0.0000E+00    0.0000E+00    1.015200E+08  0.02000  1.878E-03    0   0.7221   age116_m62            0.0000     2.5693E+01     4.2364   2.2135   105.4330
112      0.0000     0.0000E+00    0.0000E+00    1.609000E+08  0.02000  1.378E-03    0   0.6978   age120_m62            0.0000     4.8833E+01     5.7708   2.0385   109.2467
113      0.0000     0.0000E+00    0.0000E+00    2.861200E+08  0.02000  8.869E-04    0   0.6700   age125_m62            0.0000     9.8771E+01     7.8727   1.6534   114.7265
114      0.0000     0.0000E+00    0.0000E+00    5.088000E+08  0.02000  4.834E-04    0   0.6430   age130_m62            0.0000     9.4581E+01     8.1039   1.2497   115.8261
115      0.0000     0.0000E+00    0.0000E+00    9.047900E+08  0.02000  2.312E-04    0   0.6152   age135_m62            0.0000     4.9019E+01     6.3926   0.6930   112.6445
116      0.0000     0.0000E+00    0.0000E+00    1.278050E+09  0.02000  1.387E-04    0   0.5927   age138_m62            0.0000     3.2299E+01     5.3624   0.3569   105.8470
117      0.0000     0.0000E+00    0.0000E+00    1.434000E+09  0.02000  1.168E-04    0   0.5865   age139_m62            0.0000     3.2089E+01     5.3170   0.3426   103.7003
118      0.0000     0.0000E+00    0.0000E+00    2.500000E+09  0.02000  5.505E-05    0   0.5610   age150_m62            0.0000     5.2442E+01     6.5075   0.0049    99.3192
119      0.0000     0.0000E+00    0.0000E+00    4.250000E+09  0.02000  3.070E-05    0   0.5407   age158_m62            0.0000     8.3792E+01     7.9964  -0.2684    98.5743
120      0.0000     0.0000E+00    0.0000E+00    6.250000E+09  0.02000  2.104E-05    0   0.5277   age166_m62            0.0000     1.0203E+02     8.6903  -0.3901    98.6318
121      0.0000     0.0000E+00    0.0000E+00    7.500000E+09  0.02000  1.770E-05    0   0.5223   age171_m62            0.0000     1.1199E+02     9.0789  -0.4741    98.8773
122      0.0000     0.0000E+00    0.0000E+00    1.000000E+10  0.02000  1.297E-05    0   0.5121   age181_m62            0.0000     1.3349E+02     9.8387  -0.6235    99.0853
123      0.0000     0.0000E+00    0.0000E+00    1.300000E+10  0.02000  9.691E-06    0   0.5047   age193_m62            0.0000     1.4817E+02    10.3029  -0.7008    99.2504
124      0.0000     0.0000E+00    0.0000E+00    1.500000E+10  0.02000  8.360E-06    0   0.4999   age201_m62            0.0000     1.6115E+02    10.7199  -0.7678    99.3912
125      0.0000     0.0000E+00    0.0000E+00    1.800000E+10  0.02000  6.911E-06    0   0.4946   age213_m62            0.0000     1.7787E+02    11.2457  -0.8378    99.5680
126      0.0000     0.0000E+00    0.0000E+00    1.000000E+06  0.05000  2.651E-02    0   0.9998   age020_m72            0.0000     1.6163E+02     9.0586   4.0000    75.7298
127      0.0000     0.0000E+00    0.0000E+00    3.160000E+06  0.05000  4.817E-02    0   0.9577   age045_m72            0.0000     1.0508E+02     7.7431   3.8374    78.0715
128      0.0000     0.0000E+00    0.0000E+00    5.010000E+06  0.05000  3.101E-02    0   0.9147   age055_m72            0.0000     9.8646E+01     7.6781   3.4701    80.9200
129      0.0000     0.0000E+00    0.0000E+00    6.610000E+06  0.05000  1.472E-02    0   0.8877   age061_m72            0.0000     2.0317E+02    12.2586   3.0634    77.3680
130      0.0000     0.0000E+00    0.0000E+00    8.710000E+06  0.05000  1.050E-02    0   0.8638   age067_m72            0.0000     1.4299E+02     9.7950   3.4487    78.4672
131      0.0000     0.0000E+00    0.0000E+00    1.000000E+07  0.05000  8.954E-03    0   0.8524   age070_m72            0.0000     1.0677E+02     7.9476   3.7236    78.9327
132      0.0000     0.0000E+00    0.0000E+00    1.445000E+07  0.05000  6.392E-03    0   0.8262   age078_m72            0.0000     9.2005E+01     7.2906   3.6642    80.2579
133      0.0000     0.0000E+00    0.0000E+00    2.512000E+07  0.05000  4.207E-03    0   0.7902   age090_m72            0.0000     5.3536E+01     5.4959   3.2454    86.1757
134      0.0000     0.0000E+00    0.0000E+00    4.000000E+07  0.05000  3.198E-03    0   0.7618   age104_m72            0.0000     1.6473E+01     3.3202   2.6305    98.8444
135      0.0000     0.0000E+00    0.0000E+00    5.500000E+07  0.05000  2.593E-03    0   0.7432   age110_m72            0.0000     2.0489E+01     3.7909   2.5077   102.1063
136      0.0000     0.0000E+00    0.0000E+00    1.015200E+08  0.05000  1.716E-03    0   0.7092   age116_m72            0.0000     3.6701E+01     4.9458   2.2816   106.3573
137      0.0000     0.0000E+00    0.0000E+00    1.609000E+08  0.05000  1.218E-03    0   0.6876   age120_m72            0.0000     6.5463E+01     6.5801   1.9979   110.2411
138      0.0000     0.0000E+00    0.0000E+00    2.861200E+08  0.05000  7.047E-04    0   0.6618   age125_m72            0.0000     1.0516E+02     8.2706   1.4552   114.8051
139      0.0000     0.0000E+00    0.0000E+00    5.088000E+08  0.05000  3.590E-04    0   0.6356   age130_m72            0.0000     9.2849E+01     7.9964   0.9126   116.0958
140      0.0000     0.0000E+00    0.0000E+00    9.047900E+08  0.05000  1.484E-04    0   0.6088   age135_m72            0.0000     5.0342E+01     6.4629   0.2576   105.5839
141      0.0000     0.0000E+00    0.0000E+00    1.278050E+09  0.05000  9.435E-05    0   0.5924   age138_m72            0.0000     7.2993E+01     7.6377  -0.1044   100.8838
142      0.0000     0.0000E+00    0.0000E+00    1.434000E+09  0.05000  7.827E-05    0   0.5847   age139_m72            0.0000     7.2161E+01     7.5324  -0.0879   100.0218
143      0.0000     0.0000E+00    0.0000E+00    2.500000E+09  0.05000  3.759E-05    0   0.5583   age150_m72            0.0000     1.0187E+02     8.6948  -0.3867    98.1725
144      0.0000     0.0000E+00    0.0000E+00    4.250000E+09  0.05000  1.842E-05    0   0.5374   age158_m72            0.0000     1.3422E+02     9.7731  -0.6970    97.4553
145      0.0000     0.0000E+00    0.0000E+00    6.250000E+09  0.05000  1.207E-05    0   0.5242   age166_m72            0.0000     1.6646E+02    10.8463  -0.9261    96.9408
146      0.0000     0.0000E+00    0.0000E+00    7.500000E+09  0.05000  9.993E-06    0   0.5183   age171_m72            0.0000     1.7128E+02    11.0178  -0.9699    96.8991
147      0.0000     0.0000E+00    0.0000E+00    1.000000E+10  0.05000  7.291E-06    0   0.5081   age181_m72            0.0000     1.9686E+02    11.5572  -1.0000    94.2799
148      0.4634     7.6289E+00    7.4195E+00    1.300000E+10  0.05000  5.316E-06    0   0.5018   age193_m72            0.0000     2.5153E+02    12.6805  -1.0000    89.0663
149      0.0000     0.0000E+00    0.0000E+00    1.500000E+10  0.05000  4.497E-06    0   0.4972   age201_m72            0.0000     2.8164E+02    13.2990  -1.0000    87.2754
150      0.6197     1.4506E+01    1.3843E+01    1.800000E+10  0.05000  3.739E-06    0   0.4924   age213_m72            0.0000     3.2545E+02    14.1172  -1.0000    84.4899


## Synthesis Results - Average & Chains ##

# j      x_j: min, <> & last-chain-values for 1 ...  7 chains
  1      0.0000      0.0133      0.0000      0.0000      0.0000      0.0000      0.0331      0.0000      0.0000
  2      7.8033      0.7362      0.6289      2.7207      1.2222      1.3589      1.5267      1.9569      2.5938
  3      0.0000      0.0941      0.2500      0.0000      0.0000      0.4630      0.1843      0.4170      0.1876
  4      0.0000      0.0149      0.0000      0.0000      0.0000      0.0000      0.0000      0.0000      0.0000
  5      0.0000      0.0172      0.0000      0.0000      0.0000      0.0000      0.0000      0.0000      0.0000
  6      0.0000      0.0172      0.0000      0.0000      0.0000      0.0000      0.0109      0.0000      0.0562
  7      0.0000      0.0225      0.0000      0.0000      0.0000      0.0000      0.0000      0.0000      0.0000
  8      0.0000      0.0763      0.1297      0.0000      0.0000      0.1314      0.0000      0.4307      0.0000
  9      1.7929      0.6555      1.4760      0.8448      1.1109      0.7474      0.7745      0.5390      0.6589
 10      1.1534      0.3955      0.6513      0.2839      0.3708      0.4851      0.3449      0.6244      0.5115
 11      1.4658      0.4980      1.0906      0.9072      0.5703      0.8204      0.7935      0.5843      0.7914
 12      0.0000      0.0735      0.0565      0.0000      0.0000      0.0000      0.1097      0.2280      0.0000
 13      0.0000      0.0844      0.0000      0.1101      0.2431      0.0000      0.3441      0.2387      0.0000
 14      0.0000      0.0522      0.0000      0.0000      0.0000      0.0339      0.0080      0.0000      0.0000
 15      0.0000      0.0326      0.1840      0.0000      0.0000      0.0000      0.0000      0.0000      0.0000
 16      0.0000      0.0267      0.0000      0.0000      0.0194      0.0000      0.0000      0.0000      0.0000
 17      0.0000      0.0298      0.0000      0.0077      0.0151      0.0000      0.0000      0.0000      0.0000
 18      0.0000      0.1096      0.0000      0.0706      0.0521      0.0455      0.4811      0.0207      0.3653
 19      0.0000      0.2050      0.2632      0.0000      0.0000      0.1920      0.1426      0.0000      0.0000
 20      0.0000      0.2754      0.0000      0.2022      0.1065      0.0850      0.0000      0.0000      0.1528
 21      0.0277      0.9971      0.0000      0.8216      1.3640      0.7382      0.5073      0.4642      0.9581
 22      0.1265      1.0130      1.1799      0.8495      0.7981      0.9340      0.6830      1.1589      1.1069
 23      0.0047      0.6218      0.1733      0.2493      1.4457      0.1126      0.0000      0.9895      0.8561
 24      0.0054      1.1173      0.0000      0.8760      0.4225      0.9469      0.7738      0.6269      0.5863
 25      0.0040      0.6200      0.6940      0.8012      0.1208      0.0104      0.0000      0.8636      0.2111
 26      0.0000      0.0098      0.0491      0.0000      0.0998      0.0000      0.0000      0.0224      0.0405
 27      0.0000      0.0859      0.1727      0.0641      0.2964      0.1334      0.3103      0.0704      0.1326
 28      0.0000      0.0348      0.0000      0.0000      0.0000      0.0000      0.0000      0.0000      0.2867
 29      0.0000      0.0208      0.0000      0.0000      0.0003      0.0000      0.0000      0.0000      0.0000
 30      0.0002      0.0240      0.0000      0.2886      0.0000      0.0000      0.0000      0.0000      0.0864
 31      0.0000      0.0194      0.1873      0.0000      0.0000      0.0209      0.0808      0.0454      0.0000
 32      0.0000      0.0726      0.0000      0.0835      0.1831      0.0071      0.1831      0.0663      0.0000
 33      0.0000      0.0776      0.0000      0.0352      0.1123      0.0000      0.1923      0.0757      0.0000
 34      0.1294      0.2088      0.3038      0.3844      0.1685      0.2316      0.5065      0.3255      0.0000
 35      0.2718      0.3456      0.2925      0.3943      0.6764      0.7787      0.4846      0.2148      0.3015
 36      0.0200      0.2448      0.2981      0.3502      0.1448      0.0000      0.1741      0.0000      0.2744
 37      0.2839      0.2195      0.3270      0.3762      0.3274      0.2283      0.1933      0.1636      0.2802
 38      0.0041      0.0847      0.0395      0.2595      0.0000      0.0453      0.0924      0.0000      0.1459
 39      0.0000      0.0464      0.0506      0.0000      0.0000      0.0000      0.0000      0.0000      0.0000
 40      0.0000      0.0185      0.0000      0.0000      0.0000      0.0149      0.0445      0.0000      0.0000
 41      0.0000      0.0788      0.0000      0.0000      0.0124      0.0000      0.0000      0.0000      0.0570
 42      0.0000      0.1270      0.0115      0.0000      0.0000      0.1260      0.0000      0.0000      0.2044
 43     21.7551     15.4747     16.9802     18.4857     17.7561     19.9069     16.0118     18.3053     16.0513
 44     56.3820     59.5861     60.9010     56.5000     58.4499     56.7978     61.2942     57.0693     61.6450
 45      7.4389     10.7852     10.0453      9.8606      9.8285     10.4554     10.1900     11.1056      8.2643
 46      0.0000      0.1947      0.0000      0.0000      0.1927      0.0000      0.0000      0.1984      0.0000
 47      0.0000      0.0447      0.0000      0.0000      0.0000      0.0440      0.0000      0.0000      0.0000
 48      0.0000      0.0795      0.0000      0.0000      0.0187      0.0409      0.0000      0.1142      0.0000
 49      0.0000      0.1379      0.1021      0.0000      0.0494      0.3608      0.0343      0.0000      0.0000
 50      0.0009      0.2106      0.2055      0.6529      0.0000      0.0000      0.0000      0.0416      0.0000
 51      0.0000      0.0130      0.0000      0.0000      0.0000      0.0000      0.0000      0.0007      0.0000
 52      0.0068      0.1374      0.3139      0.2022      0.2876      0.1152      0.2401      0.2959      0.1157
 53      0.0000      0.0242      0.0000      0.0000      0.0183      0.0000      0.0000      0.1150      0.0000
 54      0.0000      0.1697      0.2851      0.0000      0.2629      0.3235      0.1831      0.1125      0.0000
 55      0.0000      0.0621      0.0468      0.0030      0.0000      0.0000      0.0000      0.0000      0.1492
 56      0.0000      0.0550      0.0000      0.1966      0.0000      0.0000      0.0000      0.0000      0.0000
 57      0.0000      0.0157      0.0000      0.0000      0.0000      0.0000      0.0000      0.0000      0.0000
 58      0.0000      0.0305      0.0000      0.0000      0.0879      0.0000      0.0118      0.0000      0.0000
 59      0.0000      0.0106      0.0000      0.0000      0.0000      0.0000      0.0000      0.0000      0.0000
 60      0.0000      0.0152      0.0000      0.0000      0.0088      0.0000      0.1193      0.0144      0.0000
 61      0.0000      0.0403      0.0118      0.0000      0.0120      0.0000      0.0632      0.0000      0.0000
 62      0.0000      0.0549      0.0609      0.0000      0.0740      0.0000      0.0000      0.0000      0.2025
 63      0.0000      0.0340      0.0000      0.0000      0.1459      0.1059      0.0969      0.1162      0.0000
 64      0.0000      0.0586      0.0000      0.1577      0.0000      0.0000      0.1571      0.0213      0.0000
 65      0.0000      0.0537      0.0520      0.1565      0.0000      0.0000      0.0000      0.0203      0.0000
 66      0.0000      0.0045      0.0000      0.0000      0.0000      0.0000      0.0000      0.0365      0.0000
 67      0.0000      0.0074      0.1154      0.0000      0.0000      0.0000      0.0002      0.0000      0.0000
 68      0.0000      0.0042      0.0028      0.0000      0.0846      0.0000      0.0000      0.0000      0.0000
 69      0.0000      0.0042      0.0000      0.1117      0.0000      0.0000      0.0000      0.0000      0.0000
 70      0.0000      0.0029      0.0000      0.0000      0.0357      0.0080      0.0000      0.0000      0.0000
 71      0.0000      0.0028      0.0000      0.0000      0.0000      0.0000      0.0000      0.0000      0.0000
 72      0.0000      0.0025      0.0000      0.0000      0.0000      0.0000      0.0000      0.0000      0.0000
 73      0.0000      0.0026      0.0000      0.0000      0.0000      0.0000      0.0000      0.0000      0.0000
 74      0.0000      0.0020      0.0000      0.0000      0.0000      0.0138      0.0000      0.0000      0.0000
 75      0.0000      0.0026      0.0000      0.0019      0.0000      0.0000      0.0000      0.0000      0.0000
 76      0.0000      0.0107      0.0000      0.0000      0.0000      0.0880      0.0675      0.0000      0.0000
 77      0.0000      0.0122      0.0000      0.0000      0.0000      0.0000      0.0000      0.0000      0.0000
 78      0.0000      0.0091      0.0000      0.0522      0.0000      0.0000      0.0000      0.0000      0.0000
 79      0.0000      0.0093      0.0000      0.0329      0.0000      0.0000      0.0015      0.0000      0.0006
 80      0.0000      0.0193      0.0000      0.0000      0.0000      0.1491      0.0000      0.1042      0.0000
 81      0.0000      0.0219      0.0000      0.0000      0.0000      0.0000      0.0000      0.0000      0.0000
 82      0.0000      0.0383      0.0000      0.0000      0.0000      0.0000      0.0000      0.0000      0.2468
 83      0.0012      0.4142      0.4991      0.6111      0.3271      0.2861      0.4906      0.0539      0.5399
 84      0.0028      0.2289      0.2468      0.2835      0.2700      0.5578      0.2427      0.2761      0.0518
 85      0.0000      0.0907      0.0000      0.0000      0.2103      0.0354      0.1450      0.0000      0.0787
 86      0.0000      0.0411      0.0000      0.0176      0.0000      0.0000      0.0000      0.0000      0.0000
 87      0.0000      0.0299      0.0000      0.0000      0.0000      0.0000      0.0000      0.0000      0.0000
 88      0.0000      0.0107      0.0000      0.0000      0.0000      0.0000      0.1648      0.0041      0.0000
 89      0.0000      0.0073      0.0000      0.0000      0.0000      0.0000      0.0000      0.0000      0.0000
 90      0.0000      0.0028      0.0000      0.0000      0.0000      0.0000      0.0000      0.0000      0.0399
 91      0.0000      0.0022      0.0000      0.0000      0.0000      0.0000      0.0000      0.0000      0.0000
 92      0.0000      0.0025      0.0000      0.0000      0.0000      0.0000      0.0000      0.0000      0.0000
 93      0.0000      0.0023      0.0000      0.0000      0.0000      0.0000      0.0000      0.0000      0.0000
 94      0.0000      0.0021      0.0000      0.0000      0.0000      0.0000      0.0000      0.0000      0.0000
 95      0.0000      0.0020      0.0000      0.0000      0.0000      0.0000      0.0000      0.0000      0.0000
 96      0.0000      0.0023      0.0000      0.0000      0.0000      0.0000      0.0000      0.0000      0.0000
 97      0.0000      0.0016      0.0000      0.0000      0.0000      0.0000      0.0000      0.0000      0.0000
 98      0.0000      0.0017      0.0000      0.0000      0.0000      0.0000      0.0000      0.0000      0.0000
 99      0.0000      0.0020      0.0000      0.0000      0.0000      0.0000      0.0000      0.0000      0.0000
100      0.0000      0.0013      0.0000      0.0000      0.0000      0.0000      0.0000      0.0000      0.0000
101      0.0000      0.0089      0.0024      0.0000      0.0000      0.0833      0.0000      0.0000      0.0000
102      0.0000      0.0108      0.0000      0.0000      0.0000      0.0000      0.0000      0.0000      0.0000
103      0.0000      0.0316      0.0000      0.0668      0.3266      0.0000      0.0000      0.0000      0.0000
104      0.0000      0.0336      0.0797      0.0000      0.0000      0.0000      0.0000      0.0000      0.0303
105      0.0000      0.0195      0.0000      0.1717      0.0000      0.1338      0.0000      0.0000      0.0000
106      0.0000      0.0161      0.0000      0.0000      0.0000      0.0000      0.0000      0.0000      0.0000
107      0.0000      0.0171      0.0034      0.0000      0.0752      0.0000      0.0000      0.0000      0.0000
108      0.0000      0.0073      0.0000      0.0000      0.0000      0.0000      0.0000      0.0000      0.0000
109      0.0000      0.0222      0.0000      0.0000      0.0000      0.0000      0.0000      0.0000      0.0000
110      0.0000      0.0156      0.0000      0.0000      0.0000      0.0000      0.0443      0.0000      0.0000
111      0.0000      0.0242      0.0000      0.0000      0.0000      0.0044      0.0000      0.0000      0.0000
112      0.0000      0.0275      0.0000      0.0000      0.0000      0.0360      0.0775      0.0000      0.0136
113      0.0000      0.0264      0.0000      0.0000      0.0000      0.0000      0.0000      0.0000      0.0632
114      0.0000      0.0063      0.0000      0.0000      0.0000      0.0000      0.0000      0.0000      0.0000
115      0.0000      0.0024      0.0000      0.0075      0.0000      0.0000      0.0000      0.0000      0.0000
116      0.0000      0.0023      0.0168      0.0000      0.0000      0.0000      0.0000      0.0000      0.0000
117      0.0000      0.0023      0.0000      0.0000      0.0000      0.0000      0.0000      0.0000      0.0000
118      0.0000      0.0027      0.0000      0.0000      0.0000      0.0000      0.0000      0.0000      0.0000
119      0.0000      0.0024      0.0000      0.0000      0.0000      0.0000      0.0000      0.0000      0.0160
120      0.0000      0.0018      0.0000      0.0000      0.0000      0.0000      0.0000      0.0304      0.0000
121      0.0000      0.0020      0.0000      0.0000      0.0000      0.0000      0.0000      0.0000      0.0000
122      0.0000      0.0026      0.0000      0.0000      0.0000      0.0000      0.0000      0.0000      0.0000
123      0.0000      0.0029      0.0000      0.0000      0.0000      0.0000      0.0000      0.0000      0.0000
124      0.0000      0.0022      0.0000      0.0000      0.0000      0.0000      0.0000      0.0000      0.0000
125      0.0000      0.0029      0.0104      0.0000      0.0000      0.0000      0.0000      0.0000      0.0000
126      0.0000      0.0044      0.0000      0.0000      0.0000      0.0000      0.0000      0.0000      0.0000
127      0.0000      0.0116      0.0046      0.0000      0.0000      0.0353      0.0000      0.0000      0.0000
128      0.0000      0.0199      0.0000      0.0000      0.0000      0.0000      0.0000      0.0000      0.0689
129      0.0000      0.0270      0.0000      0.0000      0.0000      0.0000      0.0000      0.0000      0.0000
130      0.0000      0.0102      0.0000      0.0000      0.0000      0.0000      0.0000      0.0000      0.0003
131      0.0000      0.0049      0.0000      0.0000      0.0000      0.0000      0.0000      0.0000      0.0000
132      0.0000      0.0076      0.0000      0.0000      0.0000      0.0000      0.0000      0.0000      0.0000
133      0.0000      0.0083      0.0000      0.0000      0.0000      0.0000      0.0000      0.0023      0.0000
134      0.0000      0.0177      0.0000      0.0000      0.0000      0.0000      0.0000      0.0000      0.0000
135      0.0000      0.0303      0.0000      0.0000      0.0000      0.0103      0.0000      0.0575      0.0000
136      0.0000      0.0680      0.0000      0.0000      0.0000      0.2464      0.0000      0.5156      0.0143
137      0.0000      0.0343      0.0000      0.0000      0.2255      0.0000      0.0000      0.0000      0.0000
138      0.0000      0.0108      0.0000      0.0000      0.0000      0.0000      0.0000      0.0200      0.0000
139      0.0000      0.0041      0.0000      0.0000      0.0000      0.0099      0.0000      0.0000      0.0000
140      0.0000      0.0033      0.0000      0.0000      0.0179      0.0000      0.0000      0.0000      0.0000
141      0.0000      0.0019      0.0000      0.0000      0.0000      0.0000      0.0000      0.0000      0.0000
142      0.0000      0.0026      0.0000      0.0000      0.0000      0.0000      0.0000      0.0000      0.0000
143      0.0000      0.0026      0.0000      0.0000      0.0022      0.0000      0.0442      0.0000      0.0000
144      0.0000      0.0099      0.0317      0.0000      0.0000      0.0000      0.0000      0.0326      0.0000
145      0.0000      0.0423      0.0000      0.0006      0.0000      0.0056      0.0000      0.0000      0.0275
146      0.0000      0.0732      0.1228      0.0000      0.0000      0.1239      0.0000      0.0253      0.0991
147      0.0000      0.1603      0.1015      0.1920      0.0000      0.1995      0.0000      0.0647      0.1871
148      0.4634      0.3070      0.2713      0.2847      0.3743      0.2472      0.2897      0.0866      0.1671
149      0.0000      0.3544      0.2935      0.1810      0.3227      0.2801      0.3761      0.3039      0.3809
150      0.6197      0.3267      0.3350      0.4333      0.3504      0.2852      0.3617      0.3509      0.3195

# j      m_j: min, <> & last-chain-values for 1 ...  7 chains
  1  0.0000E+00  2.3809E-04  0.0000E+00  0.0000E+00  0.0000E+00  0.0000E+00  6.3706E-04  0.0000E+00  0.0000E+00
  2  2.7813E-02  2.2554E-03  2.0485E-03  8.7645E-03  3.9518E-03  4.4819E-03  5.0438E-03  6.4317E-03  8.4404E-03
  3  0.0000E+00  6.8039E-04  1.9223E-03  0.0000E+00  0.0000E+00  3.6042E-03  1.4375E-03  3.2349E-03  1.4412E-03
  4  0.0000E+00  2.0190E-04  0.0000E+00  0.0000E+00  0.0000E+00  0.0000E+00  0.0000E+00  0.0000E+00  0.0000E+00
  5  0.0000E+00  2.9383E-04  0.0000E+00  0.0000E+00  0.0000E+00  0.0000E+00  0.0000E+00  0.0000E+00  0.0000E+00
  6  0.0000E+00  3.4937E-04  0.0000E+00  0.0000E+00  0.0000E+00  0.0000E+00  2.3962E-04  0.0000E+00  1.2156E-03
  7  0.0000E+00  5.7687E-04  0.0000E+00  0.0000E+00  0.0000E+00  0.0000E+00  0.0000E+00  0.0000E+00  0.0000E+00
  8  0.0000E+00  2.2156E-03  4.0060E-03  0.0000E+00  0.0000E+00  4.1090E-03  0.0000E+00  1.3420E-02  0.0000E+00
  9  6.5169E-02  2.0481E-02  4.9028E-02  2.7752E-02  3.6630E-02  2.5139E-02  2.6095E-02  1.8065E-02  2.1866E-02
 10  4.8053E-02  1.4165E-02  2.4796E-02  1.0691E-02  1.4015E-02  1.8701E-02  1.3318E-02  2.3987E-02  1.9457E-02
 11  7.3005E-02  2.1320E-02  4.9637E-02  4.0837E-02  2.5766E-02  3.7810E-02  3.6634E-02  2.6834E-02  3.5983E-02
 12  0.0000E+00  5.5033E-03  4.5015E-03  0.0000E+00  0.0000E+00  0.0000E+00  8.8567E-03  1.8320E-02  0.0000E+00
 13  0.0000E+00  7.3414E-03  0.0000E+00  1.0067E-02  2.2308E-02  0.0000E+00  3.2268E-02  2.2273E-02  0.0000E+00
 14  0.0000E+00  6.4431E-03  0.0000E+00  0.0000E+00  0.0000E+00  4.5070E-03  1.0653E-03  0.0000E+00  0.0000E+00
 15  0.0000E+00  6.0741E-03  3.6474E-02  0.0000E+00  0.0000E+00  0.0000E+00  0.0000E+00  0.0000E+00  0.0000E+00
 16  0.0000E+00  7.1983E-03  0.0000E+00  0.0000E+00  5.5265E-03  0.0000E+00  0.0000E+00  0.0000E+00  0.0000E+00
 17  0.0000E+00  8.9448E-03  0.0000E+00  2.4281E-03  4.7902E-03  0.0000E+00  0.0000E+00  0.0000E+00  0.0000E+00
 18  0.0000E+00  5.3508E-02  0.0000E+00  3.6240E-02  2.6860E-02  2.3923E-02  2.5321E-01  1.0840E-02  1.8937E-01
 19  0.0000E+00  1.5169E-01  2.0706E-01  0.0000E+00  0.0000E+00  1.5295E-01  1.1379E-01  0.0000E+00  0.0000E+00
 20  0.0000E+00  2.9143E-01  0.0000E+00  2.2493E-01  1.1887E-01  9.6803E-02  0.0000E+00  0.0000E+00  1.7169E-01
 21  3.9513E-02  1.2206E+00  0.0000E+00  1.0575E+00  1.7622E+00  9.7284E-01  6.6964E-01  6.0961E-01  1.2457E+00
 22  2.3238E-01  1.6000E+00  1.9812E+00  1.4108E+00  1.3303E+00  1.5881E+00  1.1632E+00  1.9635E+00  1.8568E+00
 23  1.0883E-02  1.2450E+00  3.6890E-01  5.2492E-01  3.0546E+00  2.4266E-01  0.0000E+00  2.1253E+00  1.8205E+00
 24  1.4363E-02  2.5581E+00  0.0000E+00  2.1088E+00  1.0210E+00  2.3341E+00  1.9106E+00  1.5397E+00  1.4259E+00
 25  1.2827E-02  1.7052E+00  2.0293E+00  2.3170E+00  3.5055E-01  3.0705E-02  0.0000E+00  2.5482E+00  6.1661E-01
 26  0.0000E+00  1.6812E-04  8.9988E-04  0.0000E+00  1.8158E-03  0.0000E+00  0.0000E+00  4.1404E-04  7.4116E-04
 27  0.0000E+00  3.1512E-04  6.7376E-04  2.4722E-04  1.1481E-03  5.2712E-04  1.2279E-03  2.7713E-04  5.1681E-04
 28  0.0000E+00  2.4984E-04  0.0000E+00  0.0000E+00  0.0000E+00  0.0000E+00  0.0000E+00  0.0000E+00  2.1873E-03
 29  0.0000E+00  2.3239E-04  0.0000E+00  0.0000E+00  3.1497E-06  0.0000E+00  0.0000E+00  0.0000E+00  0.0000E+00
 30  3.7506E-06  3.3427E-04  0.0000E+00  4.2212E-03  0.0000E+00  0.0000E+00  0.0000E+00  0.0000E+00  1.2771E-03
 31  0.0000E+00  3.1174E-04  3.2003E-03  0.0000E+00  0.0000E+00  3.6177E-04  1.4004E-03  7.8351E-04  0.0000E+00
 32  0.0000E+00  1.2927E-03  0.0000E+00  1.5632E-03  3.4398E-03  1.3552E-04  3.5145E-03  1.2668E-03  0.0000E+00
 33  0.0000E+00  1.9628E-03  0.0000E+00  9.3496E-04  2.9984E-03  0.0000E+00  5.2448E-03  2.0553E-03  0.0000E+00
 34  4.6267E-03  6.4159E-03  9.9252E-03  1.2421E-02  5.4627E-03  7.6603E-03  1.6783E-02  1.0729E-02  0.0000E+00
 35  1.1740E-02  1.2832E-02  1.1545E-02  1.5394E-02  2.6502E-02  3.1121E-02  1.9400E-02  8.5529E-03  1.1890E-02
 36  1.1056E-03  1.1653E-02  1.5085E-02  1.7529E-02  7.2741E-03  0.0000E+00  8.9350E-03  0.0000E+00  1.3873E-02
 37  1.9539E-02  1.2983E-02  2.0561E-02  2.3397E-02  2.0437E-02  1.4539E-02  1.2331E-02  1.0380E-02  1.7605E-02
 38  3.9374E-04  6.9745E-03  3.4626E-03  2.2482E-02  0.0000E+00  4.0179E-03  8.2075E-03  0.0000E+00  1.2763E-02
 39  0.0000E+00  5.7072E-03  6.6128E-03  0.0000E+00  0.0000E+00  0.0000E+00  0.0000E+00  0.0000E+00  0.0000E+00
 40  0.0000E+00  4.0038E-03  0.0000E+00  0.0000E+00  0.0000E+00  3.4824E-03  1.0411E-02  0.0000E+00  0.0000E+00
 41  0.0000E+00  2.2897E-02  0.0000E+00  0.0000E+00  3.8085E-03  0.0000E+00  0.0000E+00  0.0000E+00  1.7588E-02
 42  0.0000E+00  4.1220E-02  3.9604E-03  0.0000E+00  0.0000E+00  4.4013E-02  0.0000E+00  0.0000E+00  7.0431E-02
 43  1.3357E+01  8.1669E+00  9.5273E+00  1.0258E+01  9.8895E+00  1.1310E+01  9.1124E+00  1.0364E+01  8.9973E+00
 44  5.4748E+01  4.9734E+01  5.4041E+01  4.9585E+01  5.1485E+01  5.1036E+01  5.5168E+01  5.1099E+01  5.4648E+01
 45  1.0068E+01  1.2547E+01  1.2424E+01  1.2061E+01  1.2066E+01  1.3094E+01  1.2783E+01  1.3859E+01  1.0211E+01
 46  0.0000E+00  2.6985E-01  0.0000E+00  0.0000E+00  2.8187E-01  0.0000E+00  0.0000E+00  2.9495E-01  0.0000E+00
 47  0.0000E+00  8.1214E-02  0.0000E+00  0.0000E+00  0.0000E+00  8.6097E-02  0.0000E+00  0.0000E+00  0.0000E+00
 48  0.0000E+00  1.7198E-01  0.0000E+00  0.0000E+00  4.2646E-02  9.5161E-02  0.0000E+00  2.6505E-01  0.0000E+00
 49  0.0000E+00  3.3377E-01  2.6268E-01  0.0000E+00  1.2610E-01  9.3977E-01  8.9366E-02  0.0000E+00  0.0000E+00
 50  2.9764E-03  5.9944E-01  6.2178E-01  1.9535E+00  0.0000E+00  0.0000E+00  0.0000E+00  1.2688E-01  0.0000E+00
 51  0.0000E+00  1.6990E-04  0.0000E+00  0.0000E+00  0.0000E+00  0.0000E+00  0.0000E+00  1.0341E-05  0.0000E+00
 52  2.8352E-05  4.9174E-04  1.1946E-03  7.6093E-04  1.0862E-03  4.4397E-04  9.2660E-04  1.1362E-03  4.3989E-04
 53  0.0000E+00  1.3216E-04  0.0000E+00  0.0000E+00  1.0516E-04  0.0000E+00  0.0000E+00  6.7352E-04  0.0000E+00
 54  0.0000E+00  8.8318E-04  1.5775E-03  0.0000E+00  1.4440E-03  1.8123E-03  1.0275E-03  6.2806E-04  0.0000E+00
 55  0.0000E+00  4.7681E-04  3.8218E-04  2.4089E-05  0.0000E+00  0.0000E+00  0.0000E+00  0.0000E+00  1.2169E-03
 56  0.0000E+00  5.5918E-04  0.0000E+00  2.1017E-03  0.0000E+00  0.0000E+00  0.0000E+00  0.0000E+00  0.0000E+00
 57  0.0000E+00  2.5571E-04  0.0000E+00  0.0000E+00  0.0000E+00  0.0000E+00  0.0000E+00  0.0000E+00  0.0000E+00
 58  0.0000E+00  7.1695E-04  0.0000E+00  0.0000E+00  2.1807E-03  0.0000E+00  3.0019E-04  0.0000E+00  0.0000E+00
 59  0.0000E+00  3.4740E-04  0.0000E+00  0.0000E+00  0.0000E+00  0.0000E+00  0.0000E+00  0.0000E+00  0.0000E+00
 60  0.0000E+00  5.5203E-04  0.0000E+00  0.0000E+00  3.3759E-04  0.0000E+00  4.6781E-03  5.6081E-04  0.0000E+00
 61  0.0000E+00  1.8656E-03  5.8295E-04  0.0000E+00  5.8769E-04  0.0000E+00  3.1570E-03  0.0000E+00  0.0000E+00
 62  0.0000E+00  3.2224E-03  3.8031E-03  0.0000E+00  4.5895E-03  0.0000E+00  0.0000E+00  0.0000E+00  1.2635E-02
 63  0.0000E+00  3.0410E-03  0.0000E+00  0.0000E+00  1.3759E-02  1.0189E-02  9.3339E-03  1.1141E-02  0.0000E+00
 64  0.0000E+00  8.6154E-03  0.0000E+00  2.4384E-02  0.0000E+00  0.0000E+00  2.4902E-02  3.3606E-03  0.0000E+00
 65  0.0000E+00  1.3346E-02  1.3738E-02  4.0884E-02  0.0000E+00  0.0000E+00  0.0000E+00  5.4109E-03  0.0000E+00
 66  0.0000E+00  1.4195E-03  0.0000E+00  0.0000E+00  0.0000E+00  0.0000E+00  0.0000E+00  1.2455E-02  0.0000E+00
 67  0.0000E+00  3.2411E-03  5.3530E-02  0.0000E+00  0.0000E+00  0.0000E+00  8.1872E-05  0.0000E+00  0.0000E+00
 68  0.0000E+00  3.3985E-03  2.4324E-03  0.0000E+00  7.2469E-02  0.0000E+00  0.0000E+00  0.0000E+00  0.0000E+00
 69  0.0000E+00  5.8298E-03  0.0000E+00  1.6437E-01  0.0000E+00  0.0000E+00  0.0000E+00  0.0000E+00  0.0000E+00
 70  0.0000E+00  5.6553E-03  0.0000E+00  0.0000E+00  7.3278E-02  1.6675E-02  0.0000E+00  0.0000E+00  0.0000E+00
 71  0.0000E+00  6.4841E-03  0.0000E+00  0.0000E+00  0.0000E+00  0.0000E+00  0.0000E+00  0.0000E+00  0.0000E+00
 72  0.0000E+00  7.7055E-03  0.0000E+00  0.0000E+00  0.0000E+00  0.0000E+00  0.0000E+00  0.0000E+00  0.0000E+00
 73  0.0000E+00  9.9219E-03  0.0000E+00  0.0000E+00  0.0000E+00  0.0000E+00  0.0000E+00  0.0000E+00  0.0000E+00
 74  0.0000E+00  8.4144E-03  0.0000E+00  0.0000E+00  0.0000E+00  6.3327E-02  0.0000E+00  0.0000E+00  0.0000E+00
 75  0.0000E+00  1.2631E-02  0.0000E+00  9.7146E-03  0.0000E+00  0.0000E+00  0.0000E+00  0.0000E+00  0.0000E+00
 76  0.0000E+00  1.2115E-04  0.0000E+00  0.0000E+00  0.0000E+00  1.0745E-03  8.2577E-04  0.0000E+00  0.0000E+00
 77  0.0000E+00  5.6509E-05  0.0000E+00  0.0000E+00  0.0000E+00  0.0000E+00  0.0000E+00  0.0000E+00  0.0000E+00
 78  0.0000E+00  4.6931E-05  0.0000E+00  2.8379E-04  0.0000E+00  0.0000E+00  0.0000E+00  0.0000E+00  0.0000E+00
 79  0.0000E+00  5.7755E-05  0.0000E+00  2.1521E-04  0.0000E+00  0.0000E+00  1.0062E-05  0.0000E+00  3.6395E-06
 80  0.0000E+00  1.5439E-04  0.0000E+00  0.0000E+00  0.0000E+00  1.2864E-03  0.0000E+00  8.9545E-04  0.0000E+00
 81  0.0000E+00  2.3220E-04  0.0000E+00  0.0000E+00  0.0000E+00  0.0000E+00  0.0000E+00  0.0000E+00  0.0000E+00
 82  0.0000E+00  5.4645E-04  0.0000E+00  0.0000E+00  0.0000E+00  0.0000E+00  0.0000E+00  0.0000E+00  3.7400E-03
 83  3.0114E-05  8.6838E-03  1.1125E-02  1.3472E-02  7.2375E-03  6.4573E-03  1.1093E-02  1.2116E-03  1.2022E-02
 84  9.4814E-05  6.6445E-03  7.6149E-03  8.6522E-03  8.2710E-03  1.7428E-02  7.5964E-03  8.5964E-03  1.5979E-03
 85  0.0000E+00  3.1983E-03  0.0000E+00  0.0000E+00  7.8240E-03  1.3421E-03  5.5094E-03  0.0000E+00  2.9448E-03
 86  0.0000E+00  1.9643E-03  0.0000E+00  8.8175E-04  0.0000E+00  0.0000E+00  0.0000E+00  0.0000E+00  0.0000E+00
 87  0.0000E+00  1.9028E-03  0.0000E+00  0.0000E+00  0.0000E+00  0.0000E+00  0.0000E+00  0.0000E+00  0.0000E+00
 88  0.0000E+00  1.0341E-03  0.0000E+00  0.0000E+00  0.0000E+00  0.0000E+00  1.7238E-02  4.2401E-04  0.0000E+00
 89  0.0000E+00  1.1833E-03  0.0000E+00  0.0000E+00  0.0000E+00  0.0000E+00  0.0000E+00  0.0000E+00  0.0000E+00
 90  0.0000E+00  8.2359E-04  0.0000E+00  0.0000E+00  0.0000E+00  0.0000E+00  0.0000E+00  0.0000E+00  1.2638E-02
 91  0.0000E+00  8.4807E-04  0.0000E+00  0.0000E+00  0.0000E+00  0.0000E+00  0.0000E+00  0.0000E+00  0.0000E+00
 92  0.0000E+00  1.2628E-03  0.0000E+00  0.0000E+00  0.0000E+00  0.0000E+00  0.0000E+00  0.0000E+00  0.0000E+00
 93  0.0000E+00  2.3601E-03  0.0000E+00  0.0000E+00  0.0000E+00  0.0000E+00  0.0000E+00  0.0000E+00  0.0000E+00
 94  0.0000E+00  3.9583E-03  0.0000E+00  0.0000E+00  0.0000E+00  0.0000E+00  0.0000E+00  0.0000E+00  0.0000E+00
 95  0.0000E+00  4.9384E-03  0.0000E+00  0.0000E+00  0.0000E+00  0.0000E+00  0.0000E+00  0.0000E+00  0.0000E+00
 96  0.0000E+00  6.9289E-03  0.0000E+00  0.0000E+00  0.0000E+00  0.0000E+00  0.0000E+00  0.0000E+00  0.0000E+00
 97  0.0000E+00  6.4459E-03  0.0000E+00  0.0000E+00  0.0000E+00  0.0000E+00  0.0000E+00  0.0000E+00  0.0000E+00
 98  0.0000E+00  8.4547E-03  0.0000E+00  0.0000E+00  0.0000E+00  0.0000E+00  0.0000E+00  0.0000E+00  0.0000E+00
 99  0.0000E+00  1.1374E-02  0.0000E+00  0.0000E+00  0.0000E+00  0.0000E+00  0.0000E+00  0.0000E+00  0.0000E+00
100  0.0000E+00  8.4674E-03  0.0000E+00  0.0000E+00  0.0000E+00  0.0000E+00  0.0000E+00  0.0000E+00  0.0000E+00
101  0.0000E+00  6.5034E-05  1.8981E-05  0.0000E+00  0.0000E+00  6.5701E-04  0.0000E+00  0.0000E+00  0.0000E+00
102  0.0000E+00  4.1230E-05  0.0000E+00  0.0000E+00  0.0000E+00  0.0000E+00  0.0000E+00  0.0000E+00  0.0000E+00
103  0.0000E+00  1.3334E-04  0.0000E+00  2.9669E-04  1.4550E-03  0.0000E+00  0.0000E+00  0.0000E+00  0.0000E+00
104  0.0000E+00  1.8656E-04  4.7050E-04  0.0000E+00  0.0000E+00  0.0000E+00  0.0000E+00  0.0000E+00  1.7873E-04
105  0.0000E+00  2.2858E-04  0.0000E+00  2.1169E-03  0.0000E+00  1.6884E-03  0.0000E+00  0.0000E+00  0.0000E+00
106  0.0000E+00  2.0287E-04  0.0000E+00  0.0000E+00  0.0000E+00  0.0000E+00  0.0000E+00  0.0000E+00  0.0000E+00
107  0.0000E+00  2.8834E-04  6.1040E-05  0.0000E+00  1.3373E-03  0.0000E+00  0.0000E+00  0.0000E+00  0.0000E+00
108  0.0000E+00  2.0356E-04  0.0000E+00  0.0000E+00  0.0000E+00  0.0000E+00  0.0000E+00  0.0000E+00  0.0000E+00
109  0.0000E+00  7.4879E-04  0.0000E+00  0.0000E+00  0.0000E+00  0.0000E+00  0.0000E+00  0.0000E+00  0.0000E+00
110  0.0000E+00  6.2978E-04  0.0000E+00  0.0000E+00  0.0000E+00  0.0000E+00  1.9269E-03  0.0000E+00  0.0000E+00
111  0.0000E+00  1.3568E-03  0.0000E+00  0.0000E+00  0.0000E+00  2.6702E-04  0.0000E+00  0.0000E+00  0.0000E+00
112  0.0000E+00  2.0294E-03  0.0000E+00  0.0000E+00  0.0000E+00  2.8605E-03  6.1685E-03  0.0000E+00  1.0672E-03
113  0.0000E+00  2.9054E-03  0.0000E+00  0.0000E+00  0.0000E+00  0.0000E+00  0.0000E+00  0.0000E+00  7.3888E-03
114  0.0000E+00  1.2152E-03  0.0000E+00  0.0000E+00  0.0000E+00  0.0000E+00  0.0000E+00  0.0000E+00  0.0000E+00
115  0.0000E+00  9.2768E-04  0.0000E+00  3.0626E-03  0.0000E+00  0.0000E+00  0.0000E+00  0.0000E+00  0.0000E+00
116  0.0000E+00  1.4415E-03  1.1154E-02  0.0000E+00  0.0000E+00  0.0000E+00  0.0000E+00  0.0000E+00  0.0000E+00
117  0.0000E+00  1.6717E-03  0.0000E+00  0.0000E+00  0.0000E+00  0.0000E+00  0.0000E+00  0.0000E+00  0.0000E+00
118  0.0000E+00  4.0076E-03  0.0000E+00  0.0000E+00  0.0000E+00  0.0000E+00  0.0000E+00  0.0000E+00  0.0000E+00
119  0.0000E+00  6.1187E-03  0.0000E+00  0.0000E+00  0.0000E+00  0.0000E+00  0.0000E+00  0.0000E+00  4.3723E-02
120  0.0000E+00  6.6326E-03  0.0000E+00  0.0000E+00  0.0000E+00  0.0000E+00  0.0000E+00  1.1915E-01  0.0000E+00
121  0.0000E+00  8.5114E-03  0.0000E+00  0.0000E+00  0.0000E+00  0.0000E+00  0.0000E+00  0.0000E+00  0.0000E+00
122  0.0000E+00  1.5032E-02  0.0000E+00  0.0000E+00  0.0000E+00  0.0000E+00  0.0000E+00  0.0000E+00  0.0000E+00
123  0.0000E+00  2.2062E-02  0.0000E+00  0.0000E+00  0.0000E+00  0.0000E+00  0.0000E+00  0.0000E+00  0.0000E+00
124  0.0000E+00  1.9321E-02  0.0000E+00  0.0000E+00  0.0000E+00  0.0000E+00  0.0000E+00  0.0000E+00  0.0000E+00
125  0.0000E+00  3.0599E-02  1.1555E-01  0.0000E+00  0.0000E+00  0.0000E+00  0.0000E+00  0.0000E+00  0.0000E+00
126  0.0000E+00  2.4425E-05  0.0000E+00  0.0000E+00  0.0000E+00  0.0000E+00  0.0000E+00  0.0000E+00  0.0000E+00
127  0.0000E+00  3.3710E-05  1.4129E-05  0.0000E+00  0.0000E+00  1.1021E-04  0.0000E+00  0.0000E+00  0.0000E+00
128  0.0000E+00  8.5428E-05  0.0000E+00  0.0000E+00  0.0000E+00  0.0000E+00  0.0000E+00  0.0000E+00  3.1476E-04
129  0.0000E+00  2.3760E-04  0.0000E+00  0.0000E+00  0.0000E+00  0.0000E+00  0.0000E+00  0.0000E+00  0.0000E+00
130  0.0000E+00  1.2227E-04  0.0000E+00  0.0000E+00  0.0000E+00  0.0000E+00  0.0000E+00  0.0000E+00  3.5697E-06
131  0.0000E+00  6.8163E-05  0.0000E+00  0.0000E+00  0.0000E+00  0.0000E+00  0.0000E+00  0.0000E+00  0.0000E+00
132  0.0000E+00  1.4362E-04  0.0000E+00  0.0000E+00  0.0000E+00  0.0000E+00  0.0000E+00  0.0000E+00  0.0000E+00
133  0.0000E+00  2.2770E-04  0.0000E+00  0.0000E+00  0.0000E+00  0.0000E+00  0.0000E+00  6.6889E-05  0.0000E+00
134  0.0000E+00  6.1422E-04  0.0000E+00  0.0000E+00  0.0000E+00  0.0000E+00  0.0000E+00  0.0000E+00  0.0000E+00
135  0.0000E+00  1.2653E-03  0.0000E+00  0.0000E+00  0.0000E+00  4.6495E-04  0.0000E+00  2.5788E-03  0.0000E+00
136  0.0000E+00  4.0951E-03  0.0000E+00  0.0000E+00  0.0000E+00  1.5983E-02  0.0000E+00  3.3330E-02  9.1288E-04
137  0.0000E+00  2.8262E-03  0.0000E+00  0.0000E+00  1.9584E-02  0.0000E+00  0.0000E+00  0.0000E+00  0.0000E+00
138  0.0000E+00  1.4840E-03  0.0000E+00  0.0000E+00  0.0000E+00  0.0000E+00  0.0000E+00  2.9323E-03  0.0000E+00
139  0.0000E+00  1.0706E-03  0.0000E+00  0.0000E+00  0.0000E+00  2.7546E-03  0.0000E+00  0.0000E+00  0.0000E+00
140  0.0000E+00  1.9993E-03  0.0000E+00  0.0000E+00  1.1301E-02  0.0000E+00  0.0000E+00  0.0000E+00  0.0000E+00
141  0.0000E+00  1.7575E-03  0.0000E+00  0.0000E+00  0.0000E+00  0.0000E+00  0.0000E+00  0.0000E+00  0.0000E+00
142  0.0000E+00  2.7837E-03  0.0000E+00  0.0000E+00  0.0000E+00  0.0000E+00  0.0000E+00  0.0000E+00  0.0000E+00
143  0.0000E+00  5.5773E-03  0.0000E+00  0.0000E+00  5.0184E-03  0.0000E+00  1.0323E-01  0.0000E+00  0.0000E+00
144  0.0000E+00  4.2254E-02  1.4346E-01  0.0000E+00  0.0000E+00  0.0000E+00  0.0000E+00  1.4895E-01  0.0000E+00
145  0.0000E+00  2.6766E-01  0.0000E+00  3.9880E-03  0.0000E+00  3.8029E-02  0.0000E+00  0.0000E+00  1.8513E-01
146  0.0000E+00  5.5362E-01  9.8734E-01  0.0000E+00  0.0000E+00  1.0090E+00  0.0000E+00  2.0545E-01  7.9590E-01
147  0.0000E+00  1.6286E+00  1.0969E+00  2.0518E+00  0.0000E+00  2.1821E+00  0.0000E+00  7.0579E-01  2.0195E+00
148  7.4195E+00  4.2254E+00  3.9699E+00  4.1197E+00  5.4366E+00  3.6629E+00  4.2997E+00  1.2781E+00  2.4421E+00
149  0.0000E+00  5.7138E+00  5.0294E+00  3.0673E+00  5.4892E+00  4.8605E+00  6.5379E+00  5.2550E+00  6.5216E+00
150  1.3843E+01  6.2734E+00  6.8380E+00  8.7491E+00  7.1001E+00  5.8955E+00  7.4884E+00  7.2290E+00  6.5148E+00

# AV, chi2 & Mass for <> & i_chain = 1 ...  7 solutions
AV       0.8948      0.8103      0.8371      0.8464      0.8405      0.8383      0.8432      0.8400      0.8373
chi2 2.3475E+00  2.5139E+00  2.4519E+00  2.4380E+00  2.4534E+00  2.4499E+00  2.4525E+00  2.4527E+00  2.4530E+00
Mass 3.8640E-10  4.0127E-10  3.9128E-10  4.0059E-10  3.9596E-10  3.8704E-10  3.8895E-10  3.8925E-10  3.9174E-10
 -19.52                                  [v0_min (km/s) before EX0s...]
  63.62                                  [vd_min (km/s) before EX0s...]


## Synthetic spectrum (Best Model) ##l_obs f_obs f_syn wei
 3070    [Nl_obs]
 3359.00    0.23525   0.37901   -1.000
 3360.00    0.23311   0.37221   -1.000
 3361.00    0.24299   0.38415   -1.000
 3362.00    0.26273   0.40653   -1.000
 3363.00    0.27723   0.42945   -1.000
 3364.00    0.27363   0.44125   -1.000
 3365.00    0.27749   0.43927   -1.000
 3366.00    0.29185   0.43275   -1.000
 3367.00    0.28018   0.42642   -1.000
 3368.00    0.27482   0.41945   -1.000
 3369.00    0.28217   0.40934   -1.000
 3370.00    0.28400   0.39547   -1.000
 3371.00    0.26910   0.38703   -1.000
 3372.00    0.27859   0.39156   -1.000
 3373.00    0.28461   0.40753   -1.000
 3374.00    0.29194   0.42742   -1.000
 3375.00    0.29854   0.44439   -1.000
 3376.00    0.31690   0.45210   -1.000
 3377.00    0.32759   0.44947   -1.000
 3378.00    0.32754   0.44083   -1.000
 3379.00    0.32505   0.43437   -1.000
 3380.00    0.32589   0.43450   -1.000
 3381.00    0.31079   0.43879   -1.000
 3382.00    0.30912   0.44389   -1.000
 3383.00    0.33287   0.44874   -1.000
 3384.00    0.33904   0.45305   -1.000
 3385.00    0.33191   0.45427   -1.000
 3386.00    0.34068   0.44842   -1.000
 3387.00    0.35087   0.44019   -1.000
 3388.00    0.34972   0.43881   -1.000
 3389.00    0.35897   0.44564   -1.000
 3390.00    0.37041   0.45399   -1.000
 3391.00    0.36376   0.45686   -1.000
 3392.00    0.34548   0.45235   -1.000
 3393.00    0.36597   0.44915   -1.000
 3394.00    0.37004   0.45360   -1.000
 3395.00    0.37965   0.46438   -1.000
 3396.00    0.38879   0.47712   -1.000
 3397.00    0.41234   0.48733   -1.000
 3398.00    0.41889   0.49328   -1.000
 3399.00    0.42591   0.49313   -1.000
 3400.00    0.42157   0.48707   -1.000
 3401.00    0.41652   0.47527   -1.000
 3402.00    0.42650   0.46172   -1.000
 3403.00    0.42046   0.45405   -1.000
 3404.00    0.40669   0.45274   -1.000
 3405.00    0.39679   0.45516   -1.000
 3406.00    0.39717   0.45437   -1.000
 3407.00    0.39672   0.44913   -1.000
 3408.00    0.39853   0.44467   -1.000
 3409.00    0.39517   0.44704   -1.000
 3410.00    0.40643   0.45277   -1.000
 3411.00    0.40711   0.45329   -1.000
 3412.00    0.41512   0.44924   -1.000
 3413.00    0.41532   0.44548   -1.000
 3414.00    0.40566   0.44848   -1.000
 3415.00    0.41297   0.45783   -1.000
 3416.00    0.41309   0.46757   -1.000
 3417.00    0.41824   0.47545   -1.000
 3418.00    0.43357   0.48197   -1.000
 3419.00    0.44076   0.48754   -1.000
 3420.00    0.45244   0.49077   -1.000
 3421.00    0.45384   0.48745   -1.000
 3422.00    0.44535   0.47676   -1.000
 3423.00    0.44063   0.46569  211.973
 3424.00    0.44280   0.46182  205.744
 3425.00    0.44647   0.46539  200.680
 3426.00    0.44600   0.47243   -1.000
 3427.00    0.45519   0.48241   -1.000
 3428.00    0.45902   0.49496   -1.000
 3429.00    0.46143   0.50539   -1.000
 3430.00    0.47773   0.50540   -1.000
 3431.00    0.46909   0.49340   -1.000
 3432.00    0.46916   0.48072  200.482
 3433.00    0.47257   0.47864  215.028
 3434.00    0.45898   0.48877   -1.000
 3435.00    0.46657   0.50003   -1.000
 3436.00    0.47414   0.50113   -1.000
 3437.00    0.47170   0.49201  209.587
 3438.00    0.46846   0.47874  222.590
 3439.00    0.44283   0.46487  239.705
 3440.00    0.43616   0.45129  248.465
 3441.00    0.42362   0.43976  248.646
 3442.00    0.43568   0.43442   -1.000
 3443.00    0.43903   0.43673   -1.000
 3444.00    0.43955   0.44563  223.518
 3445.00    0.44310   0.45991  211.549
 3446.00    0.46262   0.47846  221.923
 3447.00    0.47685   0.49697   -1.000
 3448.00    0.49006   0.50928   -1.000
 3449.00    0.47398   0.50928   -1.000
 3450.00    0.47772   0.49537   -1.000
 3451.00    0.48972   0.47718   -1.000
 3452.00    0.48560   0.46601   -1.000
 3453.00    0.49030   0.46537   -1.000
 3454.00    0.48763   0.47149   -1.000
 3455.00    0.49581   0.47834   -1.000
 3456.00    0.49853   0.48166   -1.000
 3457.00    0.49632   0.48038   -1.000
 3458.00    0.48627   0.47524   -1.000
 3459.00    0.47649   0.46763  202.347
 3460.00    0.46974   0.46006   -1.000
 3461.00    0.47726   0.45864   -1.000
 3462.00    0.48969   0.46540   -1.000
 3463.00    0.49067   0.47375   -1.000
 3464.00    0.49275   0.47694   -1.000
 3465.00    0.50005   0.47542   -1.000
 3466.00    0.49196   0.47716   -1.000
 3467.00    0.49952   0.48605   -1.000
 3468.00    0.50296   0.49870   -1.000
 3469.00    0.51564   0.50871   -1.000
 3470.00    0.52073   0.51159   -1.000
 3471.00    0.51841   0.50687   -1.000
 3472.00    0.50993   0.49581   -1.000
 3473.00    0.48666   0.48049   -1.000
 3474.00    0.47216   0.46739  202.107
 3475.00    0.47196   0.46161   -1.000
 3476.00    0.47308   0.46527   -1.000
 3477.00    0.47499   0.47670  665.340
 3478.00    0.48315   0.48949   -1.000
 3479.00    0.49453   0.50027   -1.000
 3480.00    0.50212   0.50737   -1.000
 3481.00    0.52009   0.50823   -1.000
 3482.00    0.53181   0.50434   -1.000
 3483.00    0.51067   0.50014   -1.000
 3484.00    0.50497   0.50035  665.340
 3485.00    0.51524   0.50704   -1.000
 3486.00    0.51971   0.51425   -1.000
 3487.00    0.52131   0.51458   -1.000
 3488.00    0.51952   0.50693   -1.000
 3489.00    0.50738   0.49505   -1.000
 3490.00    0.50401   0.48715   -1.000
 3491.00    0.48932   0.48881  665.340
 3492.00    0.48236   0.49491   -1.000
 3493.00    0.49081   0.49675  665.340
 3494.00    0.48823   0.49217  665.340
 3495.00    0.48986   0.48380   -1.000
 3496.00    0.49340   0.47821   -1.000
 3497.00    0.49153   0.47949   -1.000
 3498.00    0.48498   0.48462   -1.000
 3499.00    0.51040   0.48999   -1.000
 3500.00    0.51721   0.49196   -1.000
 3501.00    0.52531   0.49266   -1.000
 3502.00    0.52047   0.49510   -1.000
 3503.00    0.52222   0.49739   -1.000
 3504.00    0.52414   0.49685   -1.000
 3505.00    0.51517   0.49249   -1.000
 3506.00    0.50700   0.48723   -1.000
 3507.00    0.50097   0.48391   -1.000
 3508.00    0.51145   0.48345   -1.000
 3509.00    0.51953   0.48472   -1.000
 3510.00    0.52385   0.48444   -1.000
 3511.00    0.51267   0.48157   -1.000
 3512.00    0.50710   0.47710   -1.000
 3513.00    0.50110   0.47438   -1.000
 3514.00    0.49541   0.47742   -1.000
 3515.00    0.50829   0.48846   -1.000
 3516.00    0.52541   0.50465   -1.000
 3517.00    0.52788   0.51628   -1.000
 3518.00    0.52872   0.51572   -1.000
 3519.00    0.52108   0.50464   -1.000
 3520.00    0.51131   0.49230   -1.000
 3521.00    0.49521   0.48398   -1.000
 3522.00    0.49946   0.47862   -1.000
 3523.00    0.49345   0.47265   -1.000
 3524.00    0.48557   0.46556   -1.000
 3525.00    0.47347   0.46285   -1.000
 3526.00    0.47043   0.46836   -1.000
 3527.00    0.48602   0.47975   -1.000
 3528.00    0.49546   0.49383   -1.000
 3529.00    0.51582   0.50679  166.192
 3530.00    0.52997   0.51560  169.529
 3531.00    0.52179   0.51836  170.246
 3532.00    0.52437   0.51336  168.207
 3533.00    0.52831   0.50378   -1.000
 3534.00    0.52435   0.49742   -1.000
 3535.00    0.52715   0.49983   -1.000
 3536.00    0.53138   0.51087   -1.000
 3537.00    0.53062   0.52367  158.604
 3538.00    0.52604   0.53253  156.954
 3539.00    0.54208   0.53642  158.555
 3540.00    0.53978   0.53612  161.415
 3541.00    0.52920   0.53434  162.494
 3542.00    0.53100   0.53485  161.252
 3543.00    0.54829   0.53874  159.014
 3544.00    0.54290   0.54198  158.959
 3545.00    0.54454   0.54147  162.050
 3546.00    0.54791   0.53837  165.427
 3547.00    0.53764   0.53499  165.913
 3548.00    0.52871   0.53374  165.446
 3549.00    0.53527   0.53596  164.669
 3550.00    0.53035   0.54074  167.329
 3551.00    0.52679   0.54328   -1.000
 3552.00    0.52780   0.53897  177.305
 3553.00    0.52521   0.53043  179.610
 3554.00    0.51964   0.52492  177.586
 3555.00    0.52645   0.52647  174.052
 3556.00    0.53068   0.53360  175.130
 3557.00    0.52134   0.54173   -1.000
 3558.00    0.52926   0.54588   -1.000
 3559.00    0.53252   0.54594   -1.000
 3560.00    0.52580   0.54497   -1.000
 3561.00    0.53975   0.54394  173.773
 3562.00    0.53819   0.53997  175.410
 3563.00    0.53473   0.53015   92.277
 3564.00    0.52256   0.51566   20.268
 3565.00    0.50630   0.50185   20.969
 3566.00    0.49151   0.49427   20.731
 3567.00    0.48535   0.49324   20.718
 3568.00    0.49538   0.49378   21.397
 3569.00    0.49117   0.49042   21.649
 3570.00    0.48711   0.48264   20.920
 3571.00    0.49339   0.47589   22.644
 3572.00    0.48935   0.47422   -1.000
 3573.00    0.49237   0.47664   -1.000
 3574.00    0.50069   0.48194   -1.000
 3575.00    0.50261   0.48946  190.066
 3576.00    0.50911   0.49746  191.429
 3577.00    0.51990   0.50399   94.793
 3578.00    0.51066   0.50588   21.046
 3579.00    0.50019   0.50080   22.669
 3580.00    0.49603   0.49128   23.766
 3581.00    0.47974   0.48199   23.901
 3582.00    0.48288   0.47748   24.064
 3583.00    0.47259   0.47684   24.703
 3584.00    0.46500   0.47197   25.462
 3585.00    0.45947   0.45936   25.590
 3586.00    0.45987   0.44633   24.268
 3587.00    0.46127   0.44344   22.989
 3588.00    0.47057   0.45403   21.743
 3589.00    0.48335   0.47229   22.687
 3590.00    0.49169   0.48898  184.105
 3591.00    0.50235   0.49914  178.117
 3592.00    0.51132   0.50350  177.477
 3593.00    0.52268   0.50624  174.121
 3594.00    0.52270   0.51177  168.105
 3595.00    0.52152   0.52070  160.335
 3596.00    0.52822   0.52924  155.751
 3597.00    0.53624   0.53452  151.881
 3598.00    0.54948   0.53671  149.989
 3599.00    0.55465   0.53656  152.567
 3600.00    0.54469   0.53226  160.186
 3601.00    0.53720   0.52313  169.040
 3602.00    0.52719   0.51357  176.053
 3603.00    0.50927   0.50873  178.779
 3604.00    0.50855   0.51018  179.468
 3605.00    0.51845   0.51284  178.067
 3606.00    0.52459   0.51207  181.095
 3607.00    0.51466   0.50849  189.850
 3608.00    0.51451   0.50469  191.945
 3609.00    0.50893   0.50267  187.489
 3610.00    0.50171   0.50289  181.717
 3611.00    0.50540   0.50601  175.530
 3612.00    0.50778   0.51135  171.528
 3613.00    0.50742   0.51797  167.970
 3614.00    0.51243   0.52732   -1.000
 3615.00    0.51922   0.53658   -1.000
 3616.00    0.53183   0.53785  179.763
 3617.00    0.51797   0.52920   87.301
 3618.00    0.50360   0.51606   22.709
 3619.00    0.49449   0.50910   -1.000
 3620.00    0.51030   0.51410  168.631
 3621.00    0.52753   0.52552  159.882
 3622.00    0.53542   0.53592  156.388
 3623.00    0.54957   0.54319  153.907
 3624.00    0.54435   0.55105  148.021
 3625.00    0.54486   0.56319   -1.000
 3626.00    0.56446   0.57735   -1.000
 3627.00    0.57376   0.58527   -1.000
 3628.00    0.55885   0.57857   -1.000
 3629.00    0.54518   0.55812   -1.000
 3630.00    0.52221   0.53397   -1.000
 3631.00    0.50630   0.51936   -1.000
 3632.00    0.50948   0.52010  179.996
 3633.00    0.51277   0.53066   -1.000
 3634.00    0.52525   0.53993   -1.000
 3635.00    0.52885   0.54327   -1.000
 3636.00    0.53280   0.54593  155.240
 3637.00    0.54517   0.55291  148.521
 3638.00    0.54830   0.56198   -1.000
 3639.00    0.54964   0.56775   -1.000
 3640.00    0.55663   0.56730   -1.000
 3641.00    0.55106   0.56080   -1.000
 3642.00    0.54403   0.55116  162.024
 3643.00    0.53420   0.54246  166.410
 3644.00    0.52293   0.53642   -1.000
 3645.00    0.51638   0.53248   -1.000
 3646.00    0.51855   0.53029   -1.000
 3647.00    0.52033   0.52999  173.895
 3648.00    0.51978   0.53048  168.718
 3649.00    0.52206   0.53131  161.636
 3650.00    0.53052   0.53414  153.932
 3651.00    0.54345   0.54068  147.900
 3652.00    0.54480   0.55068  144.545
 3653.00    0.55515   0.56171  142.792
 3654.00    0.55997   0.57249   -1.000
 3655.00    0.56780   0.58188   -1.000
 3656.00    0.56398   0.58819   -1.000
 3657.00    0.57521   0.59063   -1.000
 3658.00    0.57403   0.59011   -1.000
 3659.00    0.56677   0.58785   -1.000
 3660.00    0.56581   0.58357   -1.000
 3661.00    0.57084   0.57756  140.471
 3662.00    0.56727   0.57205  142.698
 3663.00    0.57412   0.56952  143.312
 3664.00    0.57015   0.57066  141.803
 3665.00    0.56865   0.57324  142.383
 3666.00    0.57454   0.57444  145.230
 3667.00    0.57714   0.57277  147.112
 3668.00    0.57469   0.56864  150.078
 3669.00    0.56439   0.56493  148.255
 3670.00    0.55509   0.56465  143.006
 3671.00    0.55715   0.56904  140.556
 3672.00    0.57186   0.57563  140.176
 3673.00    0.57610   0.57948  140.207
 3674.00    0.57952   0.57793  141.172
 3675.00    0.58012   0.57122  145.649
 3676.00    0.56470   0.56096  150.170
 3677.00    0.55413   0.55061  154.609
 3678.00    0.55234   0.54448  157.826
 3679.00    0.55309   0.54468  156.698
 3680.00    0.56387   0.54842  152.449
 3681.00    0.56908   0.55216  148.518
 3682.00    0.56687   0.55440  147.995
 3683.00    0.55912   0.55397  152.102
 3684.00    0.55552   0.55044  158.425
 3685.00    0.55049   0.54502  164.354
 3686.00    0.54420   0.54214  165.960
 3687.00    0.54150   0.54735  160.043
 3688.00    0.55357   0.56121  149.320
 3689.00    0.57629   0.57568  140.328
 3690.00    0.57201   0.58308  137.043
 3691.00    0.57970   0.58412  138.635
 3692.00    0.58287   0.58418  142.233
 3693.00    0.58629   0.58695  143.709
 3694.00    0.59895   0.59047  142.920
 3695.00    0.60359   0.59018  141.552
 3696.00    0.58359   0.58534  139.302
 3697.00    0.58618   0.58382  134.843
 3698.00    0.59655   0.59393  131.715
 3699.00    0.61440   0.61261  130.697
 3700.00    0.62760   0.62589  133.865
 3701.00    0.62049   0.61826  141.160
 3702.00    0.60337   0.58936  154.796
 3703.00    0.57672   0.55384  168.600
 3704.00    0.54937   0.52910  175.694
 3705.00    0.54644   0.52418   -1.000
 3706.00    0.55884   0.53573   -1.000
 3707.00    0.58198   0.55300   -1.000
 3708.00    0.59051   0.56376   -1.000
 3709.00    0.58415   0.56103   -1.000
 3710.00    0.57212   0.54879   -1.000
 3711.00    0.56777   0.53935   -1.000
 3712.00    0.57941   0.54446   -1.000
 3713.00    0.60844   0.56794   -1.000
 3714.00    0.63248   0.60165   -1.000
 3715.00    0.65485   0.63133  133.669
 3716.00    0.67914   0.64761   -1.000
 3717.00    0.67709   0.64616   -1.000
 3718.00    0.64836   0.62306   -1.000
 3719.00    0.59138   0.57885   78.741
 3720.00    0.53488   0.52769   23.955
 3721.00    0.50232   0.49401  184.823
 3722.00    0.50950   0.49341  164.001
 3723.00    0.54610   0.52497  149.034
 3724.00    0.60005   0.57249   -1.000
 3725.00    0.64011   0.61292   -1.000
 3726.00    0.65518   0.63618   -1.000
 3727.00    0.66170   0.64692  150.872
 3728.00    0.66717   0.65199  149.018
 3729.00    0.65857   0.65233  151.553
 3730.00    0.65310   0.64057  160.186
 3731.00    0.63079   0.60692   73.803
 3732.00    0.58216   0.55425   20.286
 3733.00    0.52615   0.50068   22.460
 3734.00    0.48833   0.46515   22.922
 3735.00    0.48174   0.46130   21.561
 3736.00    0.51440   0.49046   23.589
 3737.00    0.56286   0.53921   -1.000
 3738.00    0.61790   0.59236   -1.000
 3739.00    0.65511   0.63915   -1.000
 3740.00    0.69641   0.66921   -1.000
 3741.00    0.70242   0.67837   -1.000
 3742.00    0.69469   0.67068   -1.000
 3743.00    0.68023   0.65418   -1.000
 3744.00    0.66936   0.63325   -1.000
 3745.00    0.63321   0.60909   75.892
 3746.00    0.60523   0.58008   20.406
 3747.00    0.57846   0.54520   21.538
 3748.00    0.52999   0.50852   25.889
 3749.00    0.48408   0.48094  191.107
 3750.00    0.49309   0.47839  167.937
 3751.00    0.53778   0.50857   -1.000
 3752.00    0.60092   0.56115   -1.000
 3753.00    0.65302   0.61664   -1.000
 3754.00    0.70585   0.65900   -1.000
 3755.00    0.73109   0.68225   -1.000
 3756.00    0.72934   0.68558   -1.000
 3757.00    0.70954   0.67394   -1.000
 3758.00    0.68224   0.65889   -1.000
 3759.00    0.67681   0.65042   -1.000
 3760.00    0.68864   0.65249   -1.000
 3761.00    0.71748   0.66261   -1.000
 3762.00    0.72479   0.67247   -1.000
 3763.00    0.72419   0.67541   -1.000
 3764.00    0.72490   0.66961   -1.000
 3765.00    0.71234   0.65614   -1.000
 3766.00    0.68181   0.63542   -1.000
 3767.00    0.64822   0.60482   -1.000
 3768.00    0.61619   0.56630   -1.000
 3769.00    0.58790   0.52999   -1.000
 3770.00    0.57512   0.51052   -1.000
 3771.00    0.58399   0.51985   -1.000
 3772.00    0.61664   0.55493   -1.000
 3773.00    0.65274   0.59944   -1.000
 3774.00    0.68812   0.63658   -1.000
 3775.00    0.72381   0.66166   -1.000
 3776.00    0.74047   0.68113   -1.000
 3777.00    0.75847   0.70313   -1.000
 3778.00    0.77953   0.72823   -1.000
 3779.00    0.79829   0.75241   -1.000
 3780.00    0.81744   0.77126   -1.000
 3781.00    0.82774   0.78119   -1.000
 3782.00    0.83320   0.78248   -1.000
 3783.00    0.82755   0.77800   -1.000
 3784.00    0.81815   0.76986   -1.000
 3785.00    0.80634   0.75802   -1.000
 3786.00    0.78817   0.74283   -1.000
 3787.00    0.77357   0.72729   -1.000
 3788.00    0.76361   0.71662   -1.000
 3789.00    0.74666   0.71177   -1.000
 3790.00    0.75769   0.70831   -1.000
 3791.00    0.75178   0.70053   -1.000
 3792.00    0.73011   0.68461   -1.000
 3793.00    0.69736   0.65832   -1.000
 3794.00    0.65977   0.62125   -1.000
 3795.00    0.61907   0.57727   -1.000
 3796.00    0.58550   0.53295   -1.000
 3797.00    0.54617   0.49898   -1.000
 3798.00    0.53337   0.49058   -1.000
 3799.00    0.55109   0.51733   -1.000
 3800.00    0.60484   0.57170   -1.000
 3801.00    0.65877   0.63248   -1.000
 3802.00    0.71779   0.68181   -1.000
 3803.00    0.75217   0.71361   -1.000
 3804.00    0.76675   0.73114   -1.000
 3805.00    0.78341   0.73898   -1.000
 3806.00    0.78145   0.74466   -1.000
 3807.00    0.79582   0.75472   -1.000
 3808.00    0.80772   0.77072   -1.000
 3809.00    0.81878   0.78838   -1.000
 3810.00    0.82941   0.79932   -1.000
 3811.00    0.82816   0.79595   -1.000
 3812.00    0.82255   0.77866   -1.000
 3813.00    0.80126   0.75735   -1.000
 3814.00    0.79236   0.74355   -1.000
 3815.00    0.79013   0.74351   -1.000
 3816.00    0.79472   0.75388   -1.000
 3817.00    0.79939   0.76478   -1.000
 3818.00    0.80290   0.76534   -1.000
 3819.00    0.79026   0.75383   -1.000
 3820.00    0.75943   0.74033   -1.000
 3821.00    0.75707   0.73467   -1.000
 3822.00    0.78340   0.73557   -1.000
 3823.00    0.77439   0.73060   -1.000
 3824.00    0.74995   0.71386   20.954
 3825.00    0.72484   0.69327   21.266
 3826.00    0.71397   0.67680   21.037
 3827.00    0.70736   0.66461   20.692
 3828.00    0.69564   0.65332   20.476
 3829.00    0.68677   0.64020   20.884
 3830.00    0.66874   0.62127   22.001
 3831.00    0.63741   0.59216   23.564
 3832.00    0.58664   0.55064   24.007
 3833.00    0.53576   0.50293   23.400
 3834.00    0.51051   0.46568   22.535
 3835.00    0.51445   0.45148   22.255
 3836.00    0.52621   0.46247   22.765
 3837.00    0.54272   0.49322   23.111
 3838.00    0.57549   0.53310   22.475
 3839.00    0.61326   0.57311   26.364
 3840.00    0.65090   0.61202   -1.000
 3841.00    0.69882   0.65060   -1.000
 3842.00    0.73768   0.68822   -1.000
 3843.00    0.76855   0.72200   -1.000
 3844.00    0.79027   0.74754   -1.000
 3845.00    0.80703   0.76559   -1.000
 3846.00    0.82436   0.77961   -1.000
 3847.00    0.82563   0.79025   -1.000
 3848.00    0.81395   0.79522   -1.000
 3849.00    0.81392   0.79533   -1.000
 3850.00    0.81583   0.79781   -1.000
 3851.00    0.81817   0.80837  166.718
 3852.00    0.83276   0.82345  168.664
 3853.00    0.83547   0.83379  173.223
 3854.00    0.82653   0.83360  177.814
 3855.00    0.82397   0.82502  181.049
 3856.00    0.81628   0.81399   66.118
 3857.00    0.80972   0.80447   20.016
 3858.00    0.80038   0.79821   20.909
 3859.00    0.79000   0.79805   25.392
 3860.00    0.78698   0.80570  179.276
 3861.00    0.80802   0.81834  163.290
 3862.00    0.84019   0.82978  157.943
 3863.00    0.86044   0.83562   -1.000
 3864.00    0.86004   0.83593   -1.000
 3865.00    0.85925   0.83472   -1.000
 3866.00    0.85806   0.83593   -1.000
 3867.00    0.84572   0.83974  176.608
 3868.00    0.84567   0.84203  186.390
 3869.00    0.83812   0.83712   66.950
 3870.00    0.81869   0.82325   24.923
 3871.00    0.80611   0.80365  189.560
 3872.00    0.79612   0.78526  171.749
 3873.00    0.79495   0.77620   -1.000
 3874.00    0.81366   0.77767   -1.000
 3875.00    0.82747   0.78147   -1.000
 3876.00    0.81387   0.77634   -1.000
 3877.00    0.78745   0.76133   -1.000
 3878.00    0.75786   0.74607   -1.000
 3879.00    0.75023   0.73899   -1.000
 3880.00    0.76171   0.73849   -1.000
 3881.00    0.75058   0.73457   -1.000
 3882.00    0.73483   0.72196  165.949
 3883.00    0.72197   0.70140   -1.000
 3884.00    0.71355   0.67223   -1.000
 3885.00    0.68918   0.63203   -1.000
 3886.00    0.64270   0.58171   -1.000
 3887.00    0.59799   0.53235   -1.000
 3888.00    0.57114   0.50157   -1.000
 3889.00    0.55991   0.50165   -1.000
 3890.00    0.59478   0.53358   -1.000
 3891.00    0.66202   0.58409   -1.000
 3892.00    0.70563   0.63238   -1.000
 3893.00    0.71850   0.66615   -1.000
 3894.00    0.73124   0.68764   -1.000
 3895.00    0.75500   0.70517   -1.000
 3896.00    0.78351   0.72371   -1.000
 3897.00    0.79935   0.74160   -1.000
 3898.00    0.80844   0.75449   -1.000
 3899.00    0.81195   0.76236   -1.000
 3900.00    0.81794   0.77106   -1.000
 3901.00    0.83275   0.78207   -1.000
 3902.00    0.84964   0.79099   -1.000
 3903.00    0.85264   0.79430   -1.000
 3904.00    0.83561   0.79330   -1.000
 3905.00    0.82990   0.79436   -1.000
 3906.00    0.83312   0.80305   -1.000
 3907.00    0.84799   0.82155   -1.000
 3908.00    0.87304   0.84581   -1.000
 3909.00    0.89101   0.86675   -1.000
 3910.00    0.90381   0.87792   -1.000
 3911.00    0.90218   0.87978  120.800
 3912.00    0.89667   0.87513  122.538
 3913.00    0.89143   0.86620  125.197
 3914.00    0.88755   0.85770   -1.000
 3915.00    0.89380   0.85445   -1.000
 3916.00    0.89252   0.85473   -1.000
 3917.00    0.88173   0.85327   -1.000
 3918.00    0.87517   0.84840   -1.000
 3919.00    0.86442   0.84305   -1.000
 3920.00    0.85521   0.83993  150.070
 3921.00    0.85540   0.83920  148.269
 3922.00    0.85723   0.84053  146.434
 3923.00    0.86573   0.84204   -1.000
 3924.00    0.87347   0.84003   -1.000
 3925.00    0.85041   0.82948   -1.000
 3926.00    0.82236   0.80716   67.871
 3927.00    0.79126   0.77404   22.890
 3928.00    0.74104   0.73121   26.830
 3929.00    0.67652   0.67870   31.467
 3930.00    0.60417   0.61201   37.159
 3931.00    0.50770   0.52987   42.811
 3932.00    0.41811   0.44925   45.286
 3933.00    0.38292   0.40021   42.222
 3934.00    0.41165   0.40642   36.112
 3935.00    0.48362   0.46533   29.782
 3936.00    0.56717   0.55022   24.612
 3937.00    0.64798   0.63506   27.509
 3938.00    0.71855   0.70600   -1.000
 3939.00    0.77778   0.75730   -1.000
 3940.00    0.80049   0.79063   -1.000
 3941.00    0.81329   0.80940  169.396
 3942.00    0.81911   0.81797  167.157
 3943.00    0.81834   0.82261  156.744
 3944.00    0.82742   0.82782  143.623
 3945.00    0.85479   0.83511   -1.000
 3946.00    0.87189   0.84289   -1.000
 3947.00    0.87286   0.84679   -1.000
 3948.00    0.86873   0.84493   -1.000
 3949.00    0.87427   0.83988   -1.000
 3950.00    0.87594   0.83541   -1.000
 3951.00    0.87438   0.83296   -1.000
 3952.00    0.87635   0.83340   -1.000
 3953.00    0.88826   0.83610   -1.000
 3954.00    0.88999   0.83651   -1.000
 3955.00    0.88326   0.83116   -1.000
 3956.00    0.86980   0.82102   -1.000
 3957.00    0.85105   0.81161   -1.000
 3958.00    0.84488   0.80538   -1.000
 3959.00    0.84143   0.79550   -1.000
 3960.00    0.81671   0.77530   -1.000
 3961.00    0.77374   0.74478   -1.000
 3962.00    0.73809   0.70803   62.955
 3963.00    0.70154   0.66809   21.580
 3964.00    0.65465   0.61860   25.626
 3965.00    0.57319   0.55095   31.593
 3966.00    0.46893   0.46570   37.767
 3967.00    0.37536   0.37843   39.885
 3968.00    0.32358   0.31698   35.747
 3969.00    0.32681   0.30371   29.399
 3970.00    0.36669   0.34224   24.277
 3971.00    0.44083   0.41626   27.400
 3972.00    0.53141   0.50105   -1.000
 3973.00    0.61964   0.57784   -1.000
 3974.00    0.68558   0.64109   -1.000
 3975.00    0.73766   0.69146   -1.000
 3976.00    0.77801   0.73197   -1.000
 3977.00    0.80250   0.76472   -1.000
 3978.00    0.83331   0.79138   -1.000
 3979.00    0.85986   0.81145   -1.000
 3980.00    0.87387   0.82346   -1.000
 3981.00    0.88230   0.82980   -1.000
 3982.00    0.88269   0.83547   -1.000
 3983.00    0.88238   0.84506   -1.000
 3984.00    0.89927   0.85908   -1.000
 3985.00    0.91745   0.87353   -1.000
 3986.00    0.92542   0.88497   -1.000
 3987.00    0.92990   0.89437   -1.000
 3988.00    0.93165   0.90242  105.581
 3989.00    0.94506   0.90829   -1.000
 3990.00    0.95241   0.91395   -1.000
 3991.00    0.96216   0.92149   -1.000
 3992.00    0.96887   0.93058   -1.000
 3993.00    0.96887   0.93740  104.485
 3994.00    0.96266   0.93646  106.786
 3995.00    0.95400   0.92669  108.522
 3996.00    0.93298   0.91404  108.496
 3997.00    0.92800   0.90772  105.264
 3998.00    0.93406   0.91182  100.703
 3999.00    0.94458   0.92270   97.804
 4000.00    0.96788   0.93376   96.324
 4001.00    0.97783   0.94063   95.818
 4002.00    0.98642   0.94152   -1.000
 4003.00    0.97969   0.93647   -1.000
 4004.00    0.95842   0.92767  109.196
 4005.00    0.94649   0.92142  106.657
 4006.00    0.95037   0.92424  100.889
 4007.00    0.95989   0.93649   97.663
 4008.00    0.96785   0.95164   96.497
 4009.00    0.98651   0.96218   95.654
 4010.00    0.99194   0.96643   95.624
 4011.00    0.97423   0.96641   96.293
 4012.00    0.98232   0.96467   96.472
 4013.00    1.00860   0.96422   -1.000
 4014.00    0.99341   0.96716   94.754
 4015.00    1.00258   0.97271   95.725
 4016.00    1.00295   0.97863   96.471
 4017.00    1.00039   0.98400   95.679
 4018.00    1.00698   0.98916   94.635
 4019.00    1.00956   0.99350   95.222
 4020.00    0.99977   0.99459   96.426
 4021.00    0.99522   0.99079   96.989
 4022.00    0.99555   0.98369   97.662
 4023.00    0.99042   0.97665   97.533
 4024.00    0.98439   0.97322   94.731
 4025.00    0.98851   0.97627   91.725
 4026.00    1.00069   0.98496   90.640
 4027.00    1.01088   0.99242   92.319
 4028.00    1.00445   0.99129   96.902
 4029.00    0.99031   0.98042  102.957
 4030.00    0.96892   0.96500  106.380
 4031.00    0.95912   0.95316  106.846
 4032.00    0.95762   0.94948  104.814
 4033.00    0.95921   0.95383  100.816
 4034.00    0.96933   0.96489   95.780
 4035.00    0.98685   0.98113   91.439
 4036.00    1.00559   0.99943   89.055
 4037.00    1.02474   1.01434   89.402
 4038.00    1.02979   1.02069   91.433
 4039.00    1.01988   1.01872   93.299
 4040.00    1.01306   1.01276   94.128
 4041.00    1.01429   1.00641   95.691
 4042.00    1.01689   0.99804  101.709
 4043.00    0.99966   0.98296  111.296
 4044.00    0.96778   0.96276  116.037
 4045.00    0.94477   0.94741  108.987
 4046.00    0.94006   0.94798   99.407
 4047.00    0.96572   0.96535   94.368
 4048.00    0.99765   0.98779   92.195
 4049.00    1.00966   1.00345   91.646
 4050.00    1.00799   1.00934   92.852
 4051.00    1.00591   1.00816   95.425
 4052.00    1.00446   1.00258   97.618
 4053.00    1.00067   0.99570   98.902
 4054.00    0.99710   0.99041   99.638
 4055.00    1.00000   0.98777  100.417
 4056.00    1.00024   0.98744  100.834
 4057.00    0.99995   0.98976   98.856
 4058.00    1.00122   0.99612   95.671
 4059.00    1.00592   1.00365   94.819
 4060.00    1.00871   1.00464   98.013
 4061.00    0.99929   0.99436  105.287
 4062.00    0.98074   0.97597  109.985
 4063.00    0.96298   0.95803  106.945
 4064.00    0.96349   0.94762  102.353
 4065.00    0.97839   0.94721   99.836
 4066.00    0.98512   0.95314   96.966
 4067.00    0.98775   0.95889   94.369
 4068.00    0.99801   0.96122   94.610
 4069.00    1.00693   0.95891   -1.000
 4070.00    1.00156   0.95060   -1.000
 4071.00    0.98131   0.93981   -1.000
 4072.00    0.97143   0.93449   97.082
 4073.00    0.98076   0.93694   -1.000
 4074.00    0.99154   0.93960   -1.000
 4075.00    0.97673   0.93262   -1.000
 4076.00    0.94646   0.91631  112.560
 4077.00    0.92876   0.90183  107.432
 4078.00    0.93242   0.90106   99.932
 4079.00    0.95391   0.91601   -1.000
 4080.00    0.98198   0.93609   -1.000
 4081.00    0.99750   0.94883   -1.000
 4082.00    0.98972   0.94953   -1.000
 4083.00    0.97716   0.94198   98.218
 4084.00    0.97110   0.93311   -1.000
 4085.00    0.96927   0.92881   -1.000
 4086.00    0.97373   0.93111   -1.000
 4087.00    0.98578   0.93730   -1.000
 4088.00    0.99073   0.94259   -1.000
 4089.00    0.98685   0.94297   -1.000
 4090.00    0.97906   0.93790   -1.000
 4091.00    0.97434   0.92885   -1.000
 4092.00    0.96906   0.91584   -1.000
 4093.00    0.95501   0.89950   -1.000
 4094.00    0.93138   0.88081   -1.000
 4095.00    0.90547   0.85878   -1.000
 4096.00    0.88407   0.83206   -1.000
 4097.00    0.86265   0.79900   -1.000
 4098.00    0.82798   0.75716   -1.000
 4099.00    0.77795   0.70414   -1.000
 4100.00    0.71182   0.64786   -1.000
 4101.00    0.65755   0.60968   -1.000
 4102.00    0.65799   0.61041   -1.000
 4103.00    0.71236   0.65249   -1.000
 4104.00    0.77547   0.71568   -1.000
 4105.00    0.82859   0.77440   -1.000
 4106.00    0.86207   0.81533   -1.000
 4107.00    0.88241   0.84024   -1.000
 4108.00    0.89593   0.85571   -1.000
 4109.00    0.89952   0.86775  100.988
 4110.00    0.90684   0.87975   99.341
 4111.00    0.92749   0.89369   97.228
 4112.00    0.94540   0.90982   95.624
 4113.00    0.95880   0.92658   94.322
 4114.00    0.97467   0.94182   93.838
 4115.00    0.98755   0.95218   94.808
 4116.00    0.98776   0.95539   97.241
 4117.00    0.98277   0.95241   99.923
 4118.00    0.97636   0.94680  100.283
 4119.00    0.96832   0.94336   99.032
 4120.00    0.96938   0.94496   98.359
 4121.00    0.97351   0.95025   98.128
 4122.00    0.97724   0.95661   96.824
 4123.00    0.98243   0.96353   95.513
 4124.00    0.98968   0.97077   95.724
 4125.00    0.99901   0.97581   97.303
 4126.00    1.00505   0.97631   99.034
 4127.00    0.99712   0.97335   99.720
 4128.00    0.98412   0.97014  100.449
 4129.00    0.97802   0.96759  102.325
 4130.00    0.96895   0.96387  105.628
 4131.00    0.95857   0.95857  108.018
 4132.00    0.95394   0.95569  106.995
 4133.00    0.95839   0.96028  102.751
 4134.00    0.96926   0.97228   98.089
 4135.00    0.99017   0.98744   95.449
 4136.00    1.01026   1.00219   93.960
 4137.00    1.01939   1.01499   92.837
 4138.00    1.02535   1.02500   93.205
 4139.00    1.02812   1.02964   96.108
 4140.00    1.02024   1.02546  102.210
 4141.00    1.00980   1.01229  110.002
 4142.00    0.98343   0.99507  112.545
 4143.00    0.95364   0.98254   -1.000
 4144.00    0.95647   0.98158   -1.000
 4145.00    0.98288   0.99159   98.694
 4146.00    1.00659   1.00416   98.648
 4147.00    1.00975   1.01121  100.891
 4148.00    0.99944   1.01253  103.259
 4149.00    0.99499   1.01227  103.850
 4150.00    0.99724   1.01273  103.090
 4151.00    0.99463   1.01233  102.997
 4152.00    0.99353   1.00888  104.242
 4153.00    0.98980   1.00339  104.573
 4154.00    0.98392   0.99915  102.395
 4155.00    1.01837   0.99906  102.278
 4156.00    1.17716   1.00356   -1.000
 4157.00    1.17371   1.01113   -1.000
 4158.00    0.85493   1.01925   -1.000
 4159.00    0.81854   1.02523   -1.000
 4160.00    1.02290   1.02800   95.555
 4161.00    1.04588   1.02877   95.072
 4162.00    1.01758   1.03062   96.007
 4163.00    1.02562   1.03506   97.577
 4164.00    1.02302   1.04005   -1.000
 4165.00    1.01820   1.04168   -1.000
 4166.00    1.01361   1.03883   -1.000
 4167.00    1.00900   1.03429   -1.000
 4168.00    1.00807   1.02984   -1.000
 4169.00    1.01258   1.02367  102.716
 4170.00    1.00187   1.01114  109.076
 4171.00    0.97558   0.99209   -1.000
 4172.00    0.96077   0.97512   -1.000
 4173.00    0.95469   0.96949   -1.000
 4174.00    0.95963   0.97762   -1.000
 4175.00    0.97273   0.99147   -1.000
 4176.00    0.97815   1.00009   -1.000
 4177.00    0.97561   1.00169   -1.000
 4178.00    0.97824   1.00215   -1.000
 4179.00    0.98604   1.00705   -1.000
 4180.00    0.99166   1.01387   -1.000
 4181.00    0.99015   1.01681   -1.000
 4182.00    0.98458   1.01743   -1.000
 4183.00    0.98893   1.01957   -1.000
 4184.00    0.99516   1.02205   -1.000
 4185.00    0.99417   1.02129   -1.000
 4186.00    0.98792   1.01644   -1.000
 4187.00    0.97712   1.01138   -1.000
 4188.00    0.97642   1.01038   -1.000
 4189.00    0.99403   1.01303  100.246
 4190.00    1.00021   1.01606   98.600
 4191.00    0.99108   1.01806   -1.000
 4192.00    0.99719   1.02075   -1.000
 4193.00    1.01078   1.02457  100.512
 4194.00    1.01169   1.02468  105.259
 4195.00    0.99833   1.01672   -1.000
 4196.00    0.98261   1.00286   -1.000
 4197.00    0.97088   0.98853   -1.000
 4198.00    0.96630   0.97815  107.708
 4199.00    0.96456   0.97436  106.444
 4200.00    0.96846   0.97615  106.065
 4201.00    0.97646   0.97932  105.025
 4202.00    0.97399   0.98271  103.644
 4203.00    0.97078   0.98841  102.490
 4204.00    0.97293   0.99605   -1.000
 4205.00    0.97527   1.00358   -1.000
 4206.00    0.98408   1.01077   -1.000
 4207.00    0.99405   1.01736   -1.000
 4208.00    0.99974   1.02173   -1.000
 4209.00    1.00146   1.02386   -1.000
 4210.00    1.00184   1.02562   -1.000
 4211.00    1.00594   1.02873   -1.000
 4212.00    1.00938   1.03087   -1.000
 4213.00    1.00367   1.02636   -1.000
 4214.00    0.98427   1.01502   -1.000
 4215.00    0.96932   1.00328   -1.000
 4216.00    0.96857   0.99928   -1.000
 4217.00    0.98048   1.00608   -1.000
 4218.00    0.99596   1.01831   89.458
 4219.00    1.01188   1.02913   89.146
 4220.00    1.02185   1.03541   90.980
 4221.00    1.01578   1.03534   95.721
 4222.00    1.00025   1.02628   -1.000
 4223.00    0.98014   1.00548   -1.000
 4224.00    0.95356   0.97628   -1.000
 4225.00    0.91682   0.94881   -1.000
 4226.00    0.88895   0.93557   -1.000
 4227.00    0.89658   0.94571   -1.000
 4228.00    0.93567   0.97664   -1.000
 4229.00    0.97881   1.01169   -1.000
 4230.00    0.99947   1.03184   -1.000
 4231.00    1.00093   1.03279   -1.000
 4232.00    0.98859   1.02241   -1.000
 4233.00    0.97576   1.00990   -1.000
 4234.00    0.97709   1.00270   -1.000
 4235.00    0.97736   1.00258   -1.000
 4236.00    0.96985   1.00556   -1.000
 4237.00    0.96660   1.00997   -1.000
 4238.00    0.97900   1.01656   -1.000
 4239.00    0.99166   1.02511   -1.000
 4240.00    0.99956   1.03481   -1.000
 4241.00    1.00149   1.04334   -1.000
 4242.00    1.00389   1.04791   -1.000
 4243.00    1.00976   1.04727   -1.000
 4244.00    1.00665   1.04229   -1.000
 4245.00    0.99564   1.03314   -1.000
 4246.00    0.98055   1.02039   -1.000
 4247.00    0.96893   1.00823   -1.000
 4248.00    0.96148   1.00106   -1.000
 4249.00    0.95926   0.99958   -1.000
 4250.00    0.96520   1.00324   -1.000
 4251.00    0.97475   1.01106   -1.000
 4252.00    0.98514   1.01921   -1.000
 4253.00    0.98291   1.02395   -1.000
 4254.00    0.97708   1.02534   -1.000
 4255.00    0.98015   1.02678   -1.000
 4256.00    0.98810   1.02969   -1.000
 4257.00    0.99613   1.02944   -1.000
 4258.00    0.98704   1.02257   -1.000
 4259.00    0.97222   1.01349   -1.000
 4260.00    0.96786   1.01026   -1.000
 4261.00    0.97278   1.01713   -1.000
 4262.00    0.99005   1.03150   -1.000
 4263.00    1.01028   1.04605   -1.000
 4264.00    1.01856   1.05387   -1.000
 4265.00    1.01640   1.05418   -1.000
 4266.00    1.00999   1.05028   -1.000
 4267.00    1.00182   1.04319   -1.000
 4268.00    0.99590   1.03211   -1.000
 4269.00    0.98019   1.01650   -1.000
 4270.00    0.95483   0.99840   -1.000
 4271.00    0.93008   0.98361   -1.000
 4272.00    0.92673   0.97786   -1.000
 4273.00    0.92972   0.98275   -1.000
 4274.00    0.93846   0.99515   -1.000
 4275.00    0.96119   1.01122   -1.000
 4276.00    0.98438   1.02876   -1.000
 4277.00    1.00075   1.04319   -1.000
 4278.00    1.00533   1.04862   -1.000
 4279.00    0.99457   1.04372   -1.000
 4280.00    0.97952   1.03320   -1.000
 4281.00    0.97104   1.02427   -1.000
 4282.00    0.97239   1.02027   -1.000
 4283.00    0.97912   1.02011   -1.000
 4284.00    0.97868   1.02019   -1.000
 4285.00    0.96922   1.01594   -1.000
 4286.00    0.96055   1.00477   -1.000
 4287.00    0.94852   0.98787   -1.000
 4288.00    0.92746   0.96895   -1.000
 4289.00    0.90675   0.95439   -1.000
 4290.00    0.90307   0.95130   -1.000
 4291.00    0.91653   0.96016   -1.000
 4292.00    0.93749   0.97248   -1.000
 4293.00    0.94477   0.97848   -1.000
 4294.00    0.95025   0.97758   -1.000
 4295.00    0.95334   0.97475   -1.000
 4296.00    0.93650   0.96894   -1.000
 4297.00    0.91373   0.95583   -1.000
 4298.00    0.89060   0.93486   -1.000
 4299.00    0.86741   0.91101   -1.000
 4300.00    0.85280   0.89299   -1.000
 4301.00    0.85599   0.88693   -1.000
 4302.00    0.85976   0.89206   -1.000
 4303.00    0.86644   0.90325   -1.000
 4304.00    0.88110   0.91372   -1.000
 4305.00    0.88469   0.91659   -1.000
 4306.00    0.87297   0.91072   -1.000
 4307.00    0.85176   0.90208   -1.000
 4308.00    0.83620   0.89885   -1.000
 4309.00    0.83700   0.90471   -1.000
 4310.00    0.85387   0.91639   -1.000
 4311.00    0.87774   0.92701   -1.000
 4312.00    0.89425   0.93266   -1.000
 4313.00    0.90297   0.93834   -1.000
 4314.00    0.91936   0.95178   -1.000
 4315.00    0.94854   0.97601   -1.000
 4316.00    0.98881   1.00508   83.423
 4317.00    1.01014   1.02688   84.017
 4318.00    1.01707   1.03518   85.607
 4319.00    1.01409   1.03231   87.941
 4320.00    1.01007   1.02356   91.476
 4321.00    0.99766   1.01186   96.885
 4322.00    0.97411   0.99683   -1.000
 4323.00    0.94636   0.97753   -1.000
 4324.00    0.91749   0.95723   -1.000
 4325.00    0.90469   0.94614   -1.000
 4326.00    0.91729   0.95137   -1.000
 4327.00    0.94596   0.96774   88.174
 4328.00    0.97037   0.98309   87.444
 4329.00    0.97123   0.98836   87.559
 4330.00    0.96587   0.98502   86.622
 4331.00    0.96597   0.97911   85.307
 4332.00    0.95768   0.97217   84.728
 4333.00    0.95244   0.96101   85.201
 4334.00    0.94431   0.94129   88.249
 4335.00    0.92141   0.90963   95.210
 4336.00    0.88862   0.86318  104.480
 4337.00    0.83334   0.80168  113.787
 4338.00    0.76048   0.73534  120.616
 4339.00    0.69987   0.68281  118.463
 4340.00    0.67332   0.66251  108.093
 4341.00    0.69008   0.68524   98.941
 4342.00    0.75211   0.74297   94.170
 4343.00    0.82063   0.81041   91.460
 4344.00    0.86751   0.86633   89.353
 4345.00    0.90484   0.90689   88.101
 4346.00    0.92685   0.93721   86.985
 4347.00    0.94243   0.95961   86.186
 4348.00    0.95685   0.97177   88.237
 4349.00    0.95934   0.97153   94.019
 4350.00    0.95012   0.96220   98.934
 4351.00    0.93496   0.95340   97.879
 4352.00    0.93205   0.95507   -1.000
 4353.00    0.94914   0.97093   89.785
 4354.00    0.97449   0.99466   87.431
 4355.00    0.98953   1.01544   86.379
 4356.00    1.00270   1.02746   87.222
 4357.00    1.01060   1.03171   88.881
 4358.00    1.00742   1.03237   88.806
 4359.00    1.00398   1.03420   -1.000
 4360.00    1.00836   1.04009   -1.000
 4361.00    1.02070   1.04923   -1.000
 4362.00    1.02806   1.05846   -1.000
 4363.00    1.02460   1.06484   -1.000
 4364.00    1.03009   1.06679   -1.000
 4365.00    1.03676   1.06384   86.660
 4366.00    1.02457   1.05638   -1.000
 4367.00    1.01154   1.04686   -1.000
 4368.00    1.00325   1.03934   -1.000
 4369.00    0.99986   1.03552   -1.000
 4370.00    1.00931   1.03389   88.281
 4371.00    1.01472   1.03070   90.287
 4372.00    1.01300   1.02271   94.080
 4373.00    1.00282   1.01009   96.332
 4374.00    0.97915   0.99872   94.564
 4375.00    0.96836   0.99801   -1.000
 4376.00    0.98496   1.01158   -1.000
 4377.00    1.01325   1.03233   86.189
 4378.00    1.02703   1.04823   87.198
 4379.00    1.02319   1.05248   -1.000
 4380.00    1.02347   1.04427   96.393
 4381.00    1.01338   1.02420  107.523
 4382.00    0.97723   0.99651   -1.000
 4383.00    0.94073   0.97218   -1.000
 4384.00    0.92774   0.96282   -1.000
 4385.00    0.94850   0.97249   -1.000
 4386.00    0.97663   0.99342   91.733
 4387.00    0.99486   1.01281   92.292
 4388.00    1.00413   1.02414   93.046
 4389.00    1.00481   1.02818   -1.000
 4390.00    1.00394   1.02906   -1.000
 4391.00    1.00653   1.02982   -1.000
 4392.00    1.01273   1.02896   90.758
 4393.00    1.01598   1.02325   91.870
 4394.00    1.00635   1.01512   89.782
 4395.00    1.00386   1.01311   86.141
 4396.00    1.01225   1.02025   85.220
 4397.00    1.02027   1.02891   87.376
 4398.00    1.02013   1.03087   90.448
 4399.00    1.00753   1.02613   91.544
 4400.00    0.99650   1.02178   -1.000
 4401.00    1.00570   1.02282   90.370
 4402.00    1.01685   1.02674   94.639
 4403.00    1.01014   1.02833   98.325
 4404.00    0.99609   1.02645   -1.000
 4405.00    0.99001   1.02517   -1.000
 4406.00    0.99574   1.02754   -1.000
 4407.00    1.00576   1.03180   -1.000
 4408.00    1.00563   1.03651   -1.000
 4409.00    1.00740   1.04418   -1.000
 4410.00    1.02462   1.05516   -1.000
 4411.00    1.04511   1.06391   82.597
 4412.00    1.05504   1.06417   86.018
 4413.00    1.04543   1.05410   90.354
 4414.00    1.01970   1.03680   91.941
 4415.00    1.00248   1.02030   90.105
 4416.00    0.99605   1.01364   86.589
 4417.00    0.99541   1.02072   -1.000
 4418.00    1.00600   1.03793   -1.000
 4419.00    1.02674   1.05650   -1.000
 4420.00    1.03570   1.06836   -1.000
 4421.00    1.03348   1.07099   -1.000
 4422.00    1.02626   1.06883   -1.000
 4423.00    1.02140   1.06660   -1.000
 4424.00    1.01988   1.06454   -1.000
 4425.00    1.02131   1.06183   -1.000
 4426.00    1.01616   1.05996   -1.000
 4427.00    1.01126   1.06126   -1.000
 4428.00    1.01541   1.06572   -1.000
 4429.00    1.01937   1.07075   -1.000
 4430.00    1.01990   1.07385   -1.000
 4431.00    1.02590   1.07406   -1.000
 4432.00    1.02721   1.07072   -1.000
 4433.00    1.02033   1.06323   -1.000
 4434.00    1.00542   1.05441   -1.000
 4435.00    0.99202   1.05162   -1.000
 4436.00    1.00780   1.06090   -1.000
 4437.00    1.04111   1.07880   -1.000
 4438.00    1.05893   1.09422   -1.000
 4439.00    1.06578   1.09725   -1.000
 4440.00    1.05675   1.08561   -1.000
 4441.00    1.03298   1.06516   -1.000
 4442.00    1.00866   1.04645   -1.000
 4443.00    0.99848   1.03983   -1.000
 4444.00    1.00854   1.04830   -1.000
 4445.00    1.03155   1.06559   -1.000
 4446.00    1.04448   1.08098   -1.000
 4447.00    1.04727   1.08875   -1.000
 4448.00    1.04783   1.09057   -1.000
 4449.00    1.04598   1.08980   -1.000
 4450.00    1.04522   1.08859   -1.000
 4451.00    1.04657   1.08738   -1.000
 4452.00    1.04820   1.08455   -1.000
 4453.00    1.04400   1.07733   -1.000
 4454.00    1.02290   1.06724   -1.000
 4455.00    1.00769   1.06124   -1.000
 4456.00    1.01861   1.06361   -1.000
 4457.00    1.03386   1.07058   -1.000
 4458.00    1.03672   1.07554   -1.000
 4459.00    1.03068   1.07639   -1.000
 4460.00    1.02491   1.07525   -1.000
 4461.00    1.02781   1.07541   -1.000
 4462.00    1.03334   1.07845   -1.000
 4463.00    1.04255   1.08300   -1.000
 4464.00    1.05410   1.08615   -1.000
 4465.00    1.05642   1.08494   -1.000
 4466.00    1.05087   1.07823   -1.000
 4467.00    1.03939   1.06842   -1.000
 4468.00    1.02872   1.06128   -1.000
 4469.00    1.02735   1.06233   -1.000
 4470.00    1.03781   1.07284   -1.000
 4471.00    1.05148   1.08874   -1.000
 4472.00    1.06448   1.10376   -1.000
 4473.00    1.08475   1.11375   -1.000
 4474.00    1.09340   1.11796   77.583
 4475.00    1.09004   1.11858   76.966
 4476.00    1.09082   1.11812   77.028
 4477.00    1.09240   1.11634   78.711
 4478.00    1.09274   1.10924   82.021
 4479.00    1.08243   1.09460   85.173
 4480.00    1.05933   1.07791   86.029
 4481.00    1.03639   1.06911   -1.000
 4482.00    1.03837   1.07472   -1.000
 4483.00    1.06018   1.09219   -1.000
 4484.00    1.07757   1.11174   -1.000
 4485.00    1.08670   1.12442   -1.000
 4486.00    1.08912   1.12644   -1.000
 4487.00    1.08545   1.11905   -1.000
 4488.00    1.07567   1.10795   -1.000
 4489.00    1.06365   1.10102   -1.000
 4490.00    1.05831   1.10246   -1.000
 4491.00    1.06835   1.10949   -1.000
 4492.00    1.08120   1.11455   -1.000
 4493.00    1.08184   1.11368   -1.000
 4494.00    1.06705   1.11008   -1.000
 4495.00    1.05712   1.10828   -1.000
 4496.00    1.06007   1.10949   -1.000
 4497.00    1.07016   1.11174   -1.000
 4498.00    1.07966   1.11172   -1.000
 4499.00    1.08446   1.10712   79.117
 4500.00    1.07648   1.10074   78.399
 4501.00    1.06896   1.09963   -1.000
 4502.00    1.07730   1.10751   -1.000
 4503.00    1.09814   1.12088   73.451
 4504.00    1.11340   1.13183   74.471
 4505.00    1.11855   1.13529   75.687
 4506.00    1.11350   1.13222   76.089
 4507.00    1.10492   1.12733   75.832
 4508.00    1.10182   1.12526   75.249
 4509.00    1.10575   1.12701   75.249
 4510.00    1.11035   1.12973   76.320
 4511.00    1.11076   1.13023   77.805
 4512.00    1.10343   1.12804   78.780
 4513.00    1.09616   1.12425   78.836
 4514.00    1.09236   1.12013   -1.000
 4515.00    1.09198   1.11702   78.979
 4516.00    1.08842   1.11513   -1.000
 4517.00    1.08696   1.11304   79.371
 4518.00    1.08408   1.10969   77.851
 4519.00    1.08720   1.10672   77.108
 4520.00    1.08927   1.10568   78.131
 4521.00    1.07896   1.10457   79.932
 4522.00    1.07404   1.10135   -1.000
 4523.00    1.07023   1.09791   -1.000
 4524.00    1.06969   1.09670   -1.000
 4525.00    1.07372   1.09598   86.537
 4526.00    1.06624   1.09229   -1.000
 4527.00    1.05295   1.08519   -1.000
 4528.00    1.04557   1.07831   -1.000
 4529.00    1.04807   1.07575   -1.000
 4530.00    1.05604   1.07743   84.790
 4531.00    1.05955   1.07822   85.678
 4532.00    1.05825   1.07274   88.429
 4533.00    1.04401   1.06281   89.540
 4534.00    1.02514   1.05740   -1.000
 4535.00    1.02635   1.06405   -1.000
 4536.00    1.05625   1.08178   77.627
 4537.00    1.08954   1.10302   76.922
 4538.00    1.10679   1.11937   78.278
 4539.00    1.11107   1.12632   79.309
 4540.00    1.10428   1.12549   78.922
 4541.00    1.09446   1.12211   -1.000
 4542.00    1.08793   1.12020   -1.000
 4543.00    1.11469   1.11961   -2.000
 4544.00    0.91592   1.11796   -2.000
 4545.00    0.32577   1.11484   -2.000
 4546.00   -0.04125   1.11002    0.000
 4547.00    0.20183   1.10039   -1.000
 4548.00    0.59168   1.08556   -1.000
 4549.00    0.53927   1.07335   -1.000
 4550.00    0.68730   1.07325   -1.000
 4551.00    1.09340   1.08322   82.718
 4552.00    1.06806   1.09057   83.799
 4553.00    1.06070   1.08804   -1.000
 4554.00    1.05377   1.08151   -1.000
 4555.00    1.06328   1.08133   78.241
 4556.00    1.07808   1.09137   75.909
 4557.00    1.09138   1.10668   75.447
 4558.00    1.10456   1.12007   75.709
 4559.00    1.11186   1.12895   75.679
 4560.00    1.10724   1.13355   76.511
 4561.00    1.10536   1.13235   78.420
 4562.00    1.10233   1.12471   80.099
 4563.00    1.09263   1.11527   80.394
 4564.00    1.08761   1.11118   78.885
 4565.00    1.09068   1.11537   76.802
 4566.00    1.10149   1.12435   75.358
 4567.00    1.11440   1.13197   75.380
 4568.00    1.12158   1.13370   76.769
 4569.00    1.11719   1.12802   78.794
 4570.00    1.09889   1.11690   79.630
 4571.00    1.07954   1.10650   78.091
 4572.00    1.07465   1.10476   -1.000
 4573.00    1.09003   1.11315   75.741
 4574.00    1.10445   1.12354   75.965
 4575.00    1.10741   1.12823   76.367
 4576.00    1.11209   1.12727   77.218
 4577.00    1.11394   1.12387   79.037
 4578.00    1.10923   1.11873   81.105
 4579.00    1.09775   1.11134   81.859
 4580.00    1.08781   1.10304   81.128
 4581.00    1.08404   1.09592   80.211
 4582.00    1.08020   1.09078   80.028
 4583.00    1.08033   1.08882   80.420
 4584.00    1.08264   1.09181   80.166
 4585.00    1.08620   1.09869   78.524
 4586.00    1.09536   1.10606   76.616
 4587.00    1.10046   1.11153   75.717
 4588.00    1.10032   1.11431   76.228
 4589.00    1.10231   1.11511   77.532
 4590.00    1.09843   1.11547   78.950
 4591.00    1.08888   1.11569   79.713
 4592.00    1.08626   1.11595   -1.000
 4593.00    1.09243   1.11774   78.710
 4594.00    1.10078   1.12188   78.288
 4595.00    1.10594   1.12747   78.113
 4596.00    1.11277   1.13242   77.944
 4597.00    1.11275   1.13445   78.177
 4598.00    1.11018   1.13283   78.904
 4599.00    1.11277   1.12865   79.381
 4600.00    1.10876   1.12345   79.077
 4601.00    1.09712   1.11918   78.179
 4602.00    1.09306   1.11759   77.780
 4603.00    1.09889   1.11910   77.818
 4604.00    1.10737   1.12253   77.333
 4605.00    1.11301   1.12612   76.134
 4606.00    1.11461   1.12933   74.545
 4607.00    1.12020   1.13271   73.289
 4608.00    1.13067   1.13631   73.017
 4609.00    1.13723   1.13926   73.708
 4610.00    1.13357   1.14000   74.654
 4611.00    1.12348   1.13845   75.311
 4612.00    1.11636   1.13633   75.373
 4613.00    1.11593   1.13497   74.827
 4614.00    1.11845   1.13405   74.328
 4615.00    1.12040   1.13238   74.425
 4616.00    1.12456   1.12985   74.977
 4617.00    1.12406   1.12750   75.232
 4618.00    1.12069   1.12632   74.825
 4619.00    1.12320   1.12744   73.856
 4620.00    1.12916   1.13171   73.222
 4621.00    1.13582   1.13779   73.338
 4622.00    1.14035   1.14242   73.509
 4623.00    1.14313   1.14334   73.911
 4624.00    1.13475   1.14110   74.368
 4625.00    1.12380   1.13789   74.425
 4626.00    1.12056   1.13515   74.633
 4627.00    1.11902   1.13288   74.977
 4628.00    1.11897   1.13095   74.864
 4629.00    1.11945   1.13094   74.229
 4630.00    1.12027   1.13420   73.933
 4631.00    1.12491   1.13887   74.670
 4632.00    1.12764   1.14139   75.659
 4633.00    1.12641   1.14073   76.043
 4634.00    1.12775   1.13910   76.279
 4635.00    1.12697   1.13876   77.116
 4636.00    1.12384   1.13938   77.808
 4637.00    1.12194   1.13993   77.893
 4638.00    1.12055   1.14106   77.169
 4639.00    1.12332   1.14420   75.528
 4640.00    1.13232   1.14928   74.060
 4641.00    1.13730   1.15435   73.716
 4642.00    1.14026   1.15750   74.585
 4643.00    1.14040   1.15779   76.363
 4644.00    1.13980   1.15461   78.527
 4645.00    1.13621   1.14817   79.797
 4646.00    1.12140   1.14041   79.204
 4647.00    1.10815   1.13563   77.520
 4648.00    1.11440   1.13683   76.064
 4649.00    1.12392   1.14230   75.495
 4650.00    1.12174   1.14792   75.380
 4651.00    1.12301   1.15087   75.741
 4652.00    1.12613   1.15020   77.103
 4653.00    1.12510   1.14650   78.481
 4654.00    1.11986   1.14171   78.568
 4655.00    1.11508   1.13825   76.921
 4656.00    1.11145   1.13778   74.158
 4657.00    1.11776   1.14223   71.887
 4658.00    1.13708   1.15223   71.076
 4659.00    1.15042   1.16373   71.526
 4660.00    1.15321   1.17057   72.879
 4661.00    1.15171   1.17037   74.529
 4662.00    1.14344   1.16547   75.340
 4663.00    1.13741   1.15911   76.001
 4664.00    1.13757   1.15207   78.285
 4665.00    1.13326   1.14308   81.681
 4666.00    1.11943   1.13161   83.423
 4667.00    1.10018   1.12095   82.055
 4668.00    1.09222   1.11675   78.983
 4669.00    1.10299   1.12092   76.238
 4670.00    1.11788   1.13017   75.021
 4671.00    1.13017   1.13983   74.878
 4672.00    1.13765   1.14681   74.882
 4673.00    1.14077   1.15116   74.344
 4674.00    1.14705   1.15484   73.268
 4675.00    1.15133   1.15824   72.898
 4676.00    1.14793   1.15944   73.926
 4677.00    1.14581   1.15648   75.504
 4678.00    1.14527   1.15014   76.870
 4679.00    1.13692   1.14303   77.869
 4680.00    1.12573   1.13707   77.729
 4681.00    1.12355   1.13415   76.193
 4682.00    1.12752   1.13550   74.707
 4683.00    1.13562   1.13992   74.382
 4684.00    1.14559   1.14465   74.561
 4685.00    1.15101   1.14756   74.783
 4686.00    1.15357   1.14862   75.010
 4687.00    1.15013   1.14894   75.001
 4688.00    1.14322   1.14926   75.281
 4689.00    1.14308   1.14910   75.646
 4690.00    1.14376   1.14764   75.249
 4691.00    1.13966   1.14595   74.204
 4692.00    1.14001   1.14596   72.807
 4693.00    1.14588   1.14764   71.520
 4694.00    1.15332   1.14963   71.274
 4695.00    1.15673   1.15118   72.530
 4696.00    1.15861   1.15087   74.737
 4697.00    1.15619   1.14701   76.296
 4698.00    1.14794   1.14056   76.367
 4699.00    1.14520   1.13430   76.310
 4700.00    1.14492   1.12928   77.323
 4701.00    1.13765   1.12458   78.227
 4702.00    1.12528   1.12024   77.621
 4703.00    1.11821   1.11859   76.257
 4704.00    1.12038   1.12140   76.261
 4705.00    1.12854   1.12587   77.639
 4706.00    1.13173   1.12708   78.801
 4707.00    1.12334   1.12386   78.929
 4708.00    1.11812   1.12021   77.479
 4709.00    1.12053   1.12104   75.217
 4710.00    1.12661   1.12698   73.842
 4711.00    1.13815   1.13410   73.891
 4712.00    1.15168   1.13769   75.003
 4713.00    1.14881   1.13658   75.715
 4714.00    1.13620   1.13416   74.884
 4715.00    1.13544   1.13480   73.374
 4716.00    1.14359   1.13949   72.462
 4717.00    1.15094   1.14535   72.143
 4718.00    1.15473   1.14974   71.897
 4719.00    1.15520   1.15240   72.095
 4720.00    1.15375   1.15353   72.687
 4721.00    1.15252   1.15336   72.708
 4722.00    1.15126   1.15326   72.061
 4723.00    1.15162   1.15501   71.732
 4724.00    1.15301   1.15825   72.714
 4725.00    1.15114   1.16026   75.057
 4726.00    1.14483   1.15874   77.347
 4727.00    1.13633   1.15359   77.988
 4728.00    1.13024   1.14700   77.369
 4729.00    1.13333   1.14143   76.659
 4730.00    1.14164   1.13770   75.893
 4731.00    1.14604   1.13678   75.101
 4732.00    1.14664   1.13954   74.575
 4733.00    1.14474   1.14388   74.163
 4734.00    1.14604   1.14648   74.381
 4735.00    1.14876   1.14607   74.853
 4736.00    1.14613   1.14405   74.362
 4737.00    1.14459   1.14285   73.887
 4738.00    1.14778   1.14352   74.161
 4739.00    1.15070   1.14514   74.430
 4740.00    1.15478   1.14669   74.150
 4741.00    1.15898   1.14849   73.418
 4742.00    1.15830   1.15140   73.109
 4743.00    1.15735   1.15531   73.244
 4744.00    1.15835   1.15916   72.980
 4745.00    1.15500   1.16275   72.312
 4746.00    1.15103   1.16686   71.880
 4747.00    1.15917   1.17159   71.885
 4748.00    1.16514   1.17597   71.970
 4749.00    1.16111   1.17897   72.267
 4750.00    1.16158   1.18092   72.966
 4751.00    1.16175   1.18195   73.690
 4752.00    1.15803   1.18123   74.242
 4753.00    1.15063   1.17869   74.408
 4754.00    1.14692   1.17578   74.480
 4755.00    1.14518   1.17419   74.925
 4756.00    1.14019   1.17470   -1.000
 4757.00    1.14059   1.17645   -1.000
 4758.00    1.13986   1.17771   -1.000
 4759.00    1.14213   1.17714   -1.000
 4760.00    1.14437   1.17367   76.703
 4761.00    1.13839   1.16669   78.156
 4762.00    1.13223   1.15788   78.659
 4763.00    1.12833   1.15096   78.601
 4764.00    1.12684   1.14898   78.222
 4765.00    1.13002   1.15236   77.373
 4766.00    1.13829   1.15939   75.912
 4767.00    1.14655   1.16783   74.526
 4768.00    1.15063   1.17606   74.131
 4769.00    1.15488   1.18221   74.560
 4770.00    1.15865   1.18434   75.223
 4771.00    1.15819   1.18259   75.063
 4772.00    1.15769   1.18003   73.747
 4773.00    1.15832   1.18012   72.723
 4774.00    1.15989   1.18313   72.555
 4775.00    1.16242   1.18628   72.712
 4776.00    1.16087   1.18751   73.071
 4777.00    1.15885   1.18654   73.742
 4778.00    1.15852   1.18321   74.373
 4779.00    1.15476   1.17860   74.664
 4780.00    1.15426   1.17590   74.940
 4781.00    1.15469   1.17677   75.442
 4782.00    1.14801   1.17873   -1.000
 4783.00    1.14628   1.17876   -1.000
 4784.00    1.15045   1.17684   76.352
 4785.00    1.14703   1.17388   76.957
 4786.00    1.14294   1.17059   77.109
 4787.00    1.14625   1.16853   76.853
 4788.00    1.14660   1.16871   76.414
 4789.00    1.14371   1.17074   75.763
 4790.00    1.15042   1.17454   74.714
 4791.00    1.16237   1.18035   73.232
 4792.00    1.16575   1.18735   71.791
 4793.00    1.16669   1.19408   71.094
 4794.00    1.17100   1.19903   71.389
 4795.00    1.17432   1.20026   72.528
 4796.00    1.17638   1.19738   73.960
 4797.00    1.17177   1.19198   75.069
 4798.00    1.15616   1.18685   75.102
 4799.00    1.14792   1.18500   -1.000
 4800.00    1.15338   1.18776   -1.000
 4801.00    1.16333   1.19323   72.237
 4802.00    1.17117   1.19681   72.843
 4803.00    1.17149   1.19434   73.822
 4804.00    1.16506   1.18664   74.617
 4805.00    1.16136   1.17967   74.908
 4806.00    1.16369   1.17793   74.777
 4807.00    1.16363   1.18114   74.503
 4808.00    1.16321   1.18614   73.976
 4809.00    1.16171   1.18972   73.372
 4810.00    1.16267   1.19086   72.933
 4811.00    1.16578   1.19119   72.728
 4812.00    1.17031   1.19296   72.607
 4813.00    1.17638   1.19671   72.380
 4814.00    1.17953   1.20080   72.009
 4815.00    1.18224   1.20337   71.553
 4816.00    1.17965   1.20456   71.194
 4817.00    1.17547   1.20506   71.054
 4818.00    1.17462   1.20436   71.051
 4819.00    1.17397   1.20227   71.396
 4820.00    1.17307   1.19919   72.731
 4821.00    1.17346   1.19438   74.403
 4822.00    1.16508   1.18675   74.948
 4823.00    1.15126   1.17783   74.106
 4824.00    1.15200   1.17204   72.855
 4825.00    1.15893   1.17218   72.519
 4826.00    1.16155   1.17614   73.167
 4827.00    1.16605   1.17942   73.823
 4828.00    1.16972   1.17978   74.006
 4829.00    1.16437   1.17832   74.363
 4830.00    1.15648   1.17677   74.763
 4831.00    1.15843   1.17560   74.135
 4832.00    1.16384   1.17482   73.025
 4833.00    1.16509   1.17471   72.449
 4834.00    1.16978   1.17477   72.413
 4835.00    1.17664   1.17422   72.668
 4836.00    1.17526   1.17304   73.380
 4837.00    1.16606   1.17187   74.576
 4838.00    1.15863   1.17052   75.206
 4839.00    1.15430   1.16848   75.103
 4840.00    1.14993   1.16656   74.818
 4841.00    1.15082   1.16554   74.334
 4842.00    1.15388   1.16455   73.669
 4843.00    1.15329   1.16273   72.690
 4844.00    1.15754   1.16071   71.963
 4845.00    1.16181   1.15916   72.625
 4846.00    1.15528   1.15685   73.937
 4847.00    1.14147   1.15182   74.411
 4848.00    1.12932   1.14505   73.794
 4849.00    1.12980   1.13965   73.213
 4850.00    1.13430   1.13623   73.392
 4851.00    1.13158   1.13232   73.941
 4852.00    1.12627   1.12514   75.452
 4853.00    1.11630   1.11238   77.692
 4854.00    1.09647   1.09374   78.567
 4855.00    1.07631   1.07245   77.982
 4856.00    1.05918   1.05147   78.792
 4857.00    1.04583   1.02616   83.535
 4858.00    1.01155   0.98351   92.317
 4859.00    0.93752   0.91520   99.794
 4860.00    0.84586   0.83544   98.190
 4861.00    0.79459   0.78350   90.370
 4862.00    0.82776   0.79181   83.818
 4863.00    0.91306   0.85396   -1.000
 4864.00    0.98514   0.93161   -1.000
 4865.00    1.02689   0.99388   76.795
 4866.00    1.05170   1.03585   76.323
 4867.00    1.06905   1.06461   76.556
 4868.00    1.08286   1.08421   78.079
 4869.00    1.08946   1.09376   80.164
 4870.00    1.08618   1.09347   80.633
 4871.00    1.07491   1.08969   78.966
 4872.00    1.07489   1.09159   77.176
 4873.00    1.09119   1.10263   76.273
 4874.00    1.10909   1.11765   75.795
 4875.00    1.11834   1.12931   75.475
 4876.00    1.11867   1.13541   74.745
 4877.00    1.11949   1.13911   73.800
 4878.00    1.12580   1.14499   73.829
 4879.00    1.13406   1.15468   74.836
 4880.00    1.13835   1.16439   75.646
 4881.00    1.13821   1.16847   75.680
 4882.00    1.13696   1.16603   75.782
 4883.00    1.13776   1.16210   76.637
 4884.00    1.13931   1.16094   77.406
 4885.00    1.13928   1.16267   77.334
 4886.00    1.14185   1.16504   77.077
 4887.00    1.14421   1.16573   77.679
 4888.00    1.14154   1.16289   79.184
 4889.00    1.13113   1.15583   79.667
 4890.00    1.11535   1.14762   -1.000
 4891.00    1.11253   1.14543   -1.000
 4892.00    1.13318   1.15490   71.357
 4893.00    1.16344   1.17297   69.710
 4894.00    1.18302   1.19097   68.965
 4895.00    1.19081   1.20363   68.923
 4896.00    1.19278   1.21040   69.840
 4897.00    1.18973   1.21215   71.466
 4898.00    1.18254   1.20944   72.657
 4899.00    1.17630   1.20365   72.784
 4900.00    1.17325   1.19800   72.666
 4901.00    1.16788   1.19487   73.230
 4902.00    1.16228   1.19333   73.183
 4903.00    1.16856   1.19252   71.907
 4904.00    1.17499   1.19491   70.908
 4905.00    1.17817   1.20178   71.058
 4906.00    1.18639   1.20880   72.339
 4907.00    1.19033   1.21047   74.311
 4908.00    1.18238   1.20623   75.793
 4909.00    1.17461   1.19898   75.612
 4910.00    1.16610   1.19201   74.365
 4911.00    1.16503   1.18882   73.196
 4912.00    1.17547   1.19107   72.227
 4913.00    1.18095   1.19715   71.459
 4914.00    1.18316   1.20377   71.384
 4915.00    1.18791   1.20758   72.959
 4916.00    1.19085   1.20475   76.377
 4917.00    1.17762   1.19267   80.307
 4918.00    1.15097   1.17284   82.486
 4919.00    1.12954   1.15205   81.284
 4920.00    1.11643   1.13858   78.397
 4921.00    1.12081   1.13646   76.508
 4922.00    1.13862   1.14165   76.007
 4923.00    1.14435   1.14746   75.436
 4924.00    1.14580   1.15365   73.868
 4925.00    1.15900   1.16457   72.269
 4926.00    1.17865   1.18008   71.339
 4927.00    1.19361   1.19497   70.782
 4928.00    1.19617   1.20568   70.333
 4929.00    1.19645   1.21193   70.548
 4930.00    1.19816   1.21324   71.965
 4931.00    1.19263   1.20786   74.332
 4932.00    1.17872   1.19539   75.612
 4933.00    1.16222   1.18038   74.860
 4934.00    1.15638   1.17133   74.232
 4935.00    1.16383   1.17230   75.482
 4936.00    1.17249   1.17701   77.676
 4937.00    1.16669   1.17692   78.193
 4938.00    1.15495   1.17213   76.305
 4939.00    1.14788   1.17030   73.755
 4940.00    1.15992   1.17734   71.973
 4941.00    1.18446   1.19162   71.046
 4942.00    1.19481   1.20659   70.810
 4943.00    1.19809   1.21656   71.135
 4944.00    1.19917   1.22015   71.448
 4945.00    1.19753   1.21925   71.132
 4946.00    1.19776   1.21743   70.358
 4947.00    1.19671   1.21778   69.880
 4948.00    1.19662   1.22056   69.630
 4949.00    1.20246   1.22348   69.715
 4950.00    1.20608   1.22455   70.157
 4951.00    1.20505   1.22389   70.834
 4952.00    1.20377   1.22252   71.698
 4953.00    1.20333   1.22023   73.183
 4954.00    1.20103   1.21420   76.207
 4955.00    1.18780   1.20010   79.699
 4956.00    1.16126   1.17841   80.084
 4957.00    1.13477   1.15968   76.621
 4958.00    1.13699   1.15761   73.212
 4959.00    1.16463   1.17390   71.854
 4960.00    1.18687   1.19656   71.844
 4961.00    1.19644   1.21388   72.332
 4962.00    1.20176   1.22235   73.076
 4963.00    1.20360   1.22361   74.348
 4964.00    1.19767   1.21976   75.587
 4965.00    1.18665   1.21296   75.998
 4966.00    1.18014   1.20648   75.862
 4967.00    1.18092   1.20309   75.437
 4968.00    1.18550   1.20300   74.727
 4969.00    1.19192   1.20544   73.922
 4970.00    1.19281   1.20993   73.074
 4971.00    1.19290   1.21508   72.306
 4972.00    1.19779   1.21925   71.853
 4973.00    1.20213   1.22174   72.030
 4974.00    1.20391   1.22237   72.695
 4975.00    1.20452   1.22120   73.596
 4976.00    1.20317   1.21839   74.720
 4977.00    1.19814   1.21437   75.769
 4978.00    1.19415   1.21020   76.781
 4979.00    1.18841   1.20535   78.713
 4980.00    1.17603   1.19673   81.316
 4981.00    1.16090   1.18332   82.409
 4982.00    1.14620   1.16926   81.455
 4983.00    1.13970   1.16104   79.449
 4984.00    1.14568   1.16249   77.030
 4985.00    1.15905   1.17217   74.895
 4986.00    1.17477   1.18605   74.175
 4987.00    1.18633   1.19954   74.872
 4988.00    1.18765   1.20744   75.798
 4989.00    1.17804   1.20667   76.134
 4990.00    1.16996   1.19996   75.733
 4991.00    1.17270   1.19374   75.257
 4992.00    1.17730   1.19245   75.112
 4993.00    1.17923   1.19576   74.871
 4994.00    1.18252   1.20135   74.487
 4995.00    1.18961   1.20752   74.603
 4996.00    1.19997   1.21163   75.391
 4997.00    1.19988   1.20974   76.715
 4998.00    1.18486   1.19953   77.930
 4999.00    1.17218   1.18440   78.353
 5000.00    1.16460   1.17362   77.920
 5001.00    1.16841   1.17372   77.302
 5002.00    1.17747   1.18034   77.753
 5003.00    1.18198   1.18468   79.409
 5004.00    1.17986   1.18176   80.515
 5005.00    1.16660   1.17286   79.488
 5006.00    1.15638   1.16535   77.217
 5007.00    1.16094   1.16666   75.768
 5008.00    1.17327   1.17631   76.048
 5009.00    1.18724   1.18602   77.833
 5010.00    1.18886   1.18831   80.544
 5011.00    1.17178   1.18194   82.906
 5012.00    1.15389   1.17113   83.429
 5013.00    1.14255   1.16217   82.122
 5014.00    1.14011   1.15937   80.341
 5015.00    1.15105   1.16193   79.465
 5016.00    1.15833   1.16404   79.358
 5017.00    1.15498   1.16132   78.825
 5018.00    1.15771   1.15738   78.066
 5019.00    1.16666   1.16025   78.021
 5020.00    1.17666   1.17103   78.277
 5021.00    1.18435   1.18262   78.073
 5022.00    1.18251   1.19054   77.387
 5023.00    1.18041   1.19670   76.742
 5024.00    1.18549   1.20318   76.762
 5025.00    1.19164   1.20853   77.142
 5026.00    1.19035   1.21043   76.861
 5027.00    1.18903   1.20941   75.688
 5028.00    1.19264   1.20813   74.461
 5029.00    1.19301   1.20812   73.311
 5030.00    1.19806   1.20953   72.327
 5031.00    1.20692   1.21271   72.073
 5032.00    1.21064   1.21685   73.521
 5033.00    1.21125   1.21839   76.258
 5034.00    1.20075   1.21446   78.241
 5035.00    1.18439   1.20688   78.896
 5036.00    1.17267   1.20034   79.582
 5037.00    1.17535   1.19626   81.867
 5038.00    1.16999   1.19021   85.203
 5039.00    1.15081   1.17787   86.595
 5040.00    1.13207   1.16250   83.965
 5041.00    1.12666   1.15420   79.134
 5042.00    1.14369   1.16059   75.250
 5043.00    1.16613   1.17885   73.115
 5044.00    1.20044   1.19991   70.807
 5045.00    1.19749   1.21659   71.032
 5046.00    0.72617   1.22555   -1.000
 5047.00    0.22769   1.22547   -1.000
 5048.00    0.05890   1.21702   -1.000
 5049.00    0.56105   1.20385   -1.000
 5050.00    1.10102   1.19167   -1.000
 5051.00    1.19351   1.18584   74.788
 5052.00    1.18884   1.18970   73.220
 5053.00    1.20324   1.20214   72.285
 5054.00    1.21520   1.21688   71.885
 5055.00    1.22632   1.22756   71.884
 5056.00    1.22821   1.23284   72.022
 5057.00    1.22515   1.23501   72.056
 5058.00    1.22523   1.23622   71.738
 5059.00    1.22387   1.23727   71.568
 5060.00    1.22184   1.23814   72.186
 5061.00    1.22465   1.23800   73.870
 5062.00    1.22744   1.23496   76.344
 5063.00    1.21842   1.22765   77.946
 5064.00    1.19785   1.21783   77.668
 5065.00    1.18562   1.21004   76.550
 5066.00    1.19273   1.20719   75.954
 5067.00    1.20332   1.20776   75.652
 5068.00    1.20487   1.20898   75.203
 5069.00    1.20796   1.21031   75.390
 5070.00    1.21458   1.21188   76.011
 5071.00    1.21293   1.21241   75.650
 5072.00    1.20861   1.21090   74.906
 5073.00    1.21000   1.20851   74.628
 5074.00    1.20670   1.20707   74.561
 5075.00    1.20615   1.20676   74.991
 5076.00    1.21017   1.20554   76.903
 5077.00    1.20581   1.20027   80.235
 5078.00    1.18458   1.19033   82.283
 5079.00    1.16362   1.18048   81.493
 5080.00    1.16467   1.17716   79.719
 5081.00    1.17495   1.18110   78.412
 5082.00    1.18025   1.18770   77.096
 5083.00    1.18794   1.19439   75.716
 5084.00    1.20254   1.20223   74.896
 5085.00    1.21534   1.21080   74.645
 5086.00    1.22068   1.21735   74.376
 5087.00    1.21915   1.22071   73.893
 5088.00    1.21456   1.22258   73.435
 5089.00    1.21607   1.22500   73.048
 5090.00    1.21857   1.22821   72.374
 5091.00    1.22232   1.23148   71.646
 5092.00    1.22901   1.23461   71.823
 5093.00    1.23827   1.23713   73.034
 5094.00    1.24222   1.23748   74.611
 5095.00    1.23593   1.23388   76.350
 5096.00    1.22065   1.22598   78.050
 5097.00    1.20679   1.21555   78.806
 5098.00    1.19660   1.20632   77.635
 5099.00    1.19337   1.20291   75.469
 5100.00    1.20586   1.20734   74.244
 5101.00    1.21984   1.21632   74.308
 5102.00    1.22374   1.22435   75.109
 5103.00    1.22163   1.22830   76.085
 5104.00    1.21873   1.22754   77.028
 5105.00    1.21180   1.22196   77.987
 5106.00    1.20028   1.21220   78.268
 5107.00    1.18710   1.20182   77.884
 5108.00    1.17937   1.19579   77.340
 5109.00    1.18592   1.19593   76.425
 5110.00    1.19570   1.20120   75.419
 5111.00    1.20375   1.21043   74.501
 5112.00    1.21646   1.22152   73.744
 5113.00    1.22230   1.23097   73.256
 5114.00    1.22299   1.23675   72.622
 5115.00    1.22985   1.23997   71.949
 5116.00    1.23502   1.24268   71.872
 5117.00    1.24042   1.24515   72.566
 5118.00    1.24122   1.24588   73.623
 5119.00    1.23661   1.24368   74.805
 5120.00    1.23325   1.23843   76.486
 5121.00    1.22483   1.23055   78.689
 5122.00    1.21064   1.22102   79.901
 5123.00    1.19586   1.21207   79.605
 5124.00    1.18931   1.20667   79.081
 5125.00    1.19240   1.20562   78.644
 5126.00    1.19583   1.20616   78.549
 5127.00    1.19675   1.20548   78.555
 5128.00    1.19574   1.20417   77.859
 5129.00    1.19988   1.20483   76.621
 5130.00    1.20809   1.20874   75.752
 5131.00    1.21419   1.21461   75.078
 5132.00    1.21560   1.22006   74.395
 5133.00    1.22076   1.22400   74.042
 5134.00    1.22821   1.22635   74.844
 5135.00    1.22844   1.22627   76.532
 5136.00    1.22281   1.22234   77.993
 5137.00    1.21026   1.21455   78.487
 5138.00    1.19199   1.20569   78.042
 5139.00    1.18313   1.20017   78.158
 5140.00    1.18354   1.20008   79.217
 5141.00    1.18669   1.20310   79.378
 5142.00    1.18845   1.20628   78.307
 5143.00    1.19611   1.21008   77.655
 5144.00    1.20890   1.21567   78.056
 5145.00    1.21352   1.22093   78.455
 5146.00    1.21164   1.22324   77.876
 5147.00    1.20843   1.22303   77.237
 5148.00    1.20943   1.22157   77.722
 5149.00    1.21306   1.21830   79.014
 5150.00    1.20624   1.21253   79.865
 5151.00    1.19204   1.20610   79.761
 5152.00    1.18988   1.20270   78.598
 5153.00    1.19897   1.20413   76.743
 5154.00    1.21021   1.20955   74.782
 5155.00    1.22352   1.21783   73.212
 5156.00    1.23186   1.22776   72.397
 5157.00    1.23953   1.23676   72.222
 5158.00    1.24883   1.24252   72.387
 5159.00    1.25181   1.24461   72.749
 5160.00    1.24590   1.24368   73.437
 5161.00    1.24019   1.24055   74.479
 5162.00    1.23465   1.23581   76.749
 5163.00    1.23338   1.22777   81.923
 5164.00    1.22098   1.21077   89.948
 5165.00    1.18336   1.17901   97.248
 5166.00    1.13192   1.13587   98.051
 5167.00    1.09260   1.09809   93.430
 5168.00    1.09133   1.08359   90.727
 5169.00    1.11869   1.09291   94.188
 5170.00    1.13902   1.10752  100.668
 5171.00    1.12348   1.11066  100.130
 5172.00    1.10100   1.10740   91.148
 5173.00    1.11164   1.11725   82.767
 5174.00    1.15364   1.14802   78.479
 5175.00    1.20130   1.18685   76.965
 5176.00    1.22808   1.21671   76.603
 5177.00    1.24246   1.23234   77.070
 5178.00    1.24825   1.23781   79.133
 5179.00    1.24392   1.23579   83.886
 5180.00    1.23578   1.22355   92.433
 5181.00    1.20990   1.19684  101.020
 5182.00    1.15620   1.15931  100.294
 5183.00    1.11262   1.12737   90.829
 5184.00    1.11053   1.12035   82.151
 5185.00    1.15559   1.14136   78.149
 5186.00    1.20465   1.17273   76.961
 5187.00    1.21862   1.19495   76.556
 5188.00    1.21754   1.20359   77.010
 5189.00    1.21660   1.20416   78.948
 5190.00    1.20989   1.20041   81.282
 5191.00    1.19298   1.19349   81.587
 5192.00    1.17736   1.18696   80.376
 5193.00    1.18128   1.18565   79.109
 5194.00    1.19126   1.18976   77.954
 5195.00    1.19733   1.19578   76.521
 5196.00    1.20921   1.20178   75.133
 5197.00    1.21776   1.20818   74.310
 5198.00    1.22279   1.21529   74.077
 5199.00    1.23180   1.22208   74.469
 5200.00    1.23548   1.22614   75.592
 5201.00    1.22990   1.22478   77.224
 5202.00    1.22126   1.21662   79.452
 5203.00    1.20887   1.20243   81.936
 5204.00    1.19113   1.18602   82.946
 5205.00    1.17835   1.17332   83.297
 5206.00    1.17616   1.16801   83.789
 5207.00    1.17992   1.16853   83.112
 5208.00    1.18098   1.17175   80.828
 5209.00    1.18832   1.17854   77.732
 5210.00    1.20359   1.19158   74.651
 5211.00    1.23126   1.20883   72.674
 5212.00    1.24734   1.22374   72.770
 5213.00    1.25105   1.23055   74.253
 5214.00    1.24108   1.22775   75.451
 5215.00    1.22518   1.21934   75.290
 5216.00    1.22008   1.21316   73.939
 5217.00    1.23053   1.21520   72.649
 5218.00    1.24605   1.22510   71.930
 5219.00    1.25561   1.23746   71.570
 5220.00    1.26235   1.24712   72.119
 5221.00    1.26298   1.25180   73.950
 5222.00    1.25912   1.25034   76.785
 5223.00    1.25157   1.24077   80.272
 5224.00    1.23529   1.22155   83.002
 5225.00    1.20166   1.19549   82.448
 5226.00    1.17142   1.17278   78.616
 5227.00    1.16637   1.16628   74.993
 5228.00    1.19269   1.17944   73.151
 5229.00    1.22763   1.20167   72.704
 5230.00    1.24517   1.21799   73.708
 5231.00    1.24568   1.22130   75.116
 5232.00    1.23505   1.21476   75.408
 5233.00    1.22309   1.20726   74.117
 5234.00    1.22298   1.20689   72.334
 5235.00    1.23219   1.21563   71.242
 5236.00    1.24676   1.22880   70.971
 5237.00    1.26218   1.24016   71.124
 5238.00    1.26784   1.24675   71.110
 5239.00    1.26829   1.24932   70.770
 5240.00    1.26905   1.24997   70.712
 5241.00    1.26723   1.25005   70.656
 5242.00    1.26588   1.25013   70.527
 5243.00    1.26598   1.25058   71.478
 5244.00    1.26968   1.25087   73.513
 5245.00    1.26191   1.24894   75.427
 5246.00    1.24941   1.24329   76.078
 5247.00    1.24124   1.23570   76.201
 5248.00    1.23222   1.22943   76.587
 5249.00    1.22703   1.22564   76.488
 5250.00    1.22365   1.22408   75.612
 5251.00    1.22630   1.22511   74.760
 5252.00    1.23643   1.22811   74.554
 5253.00    1.24546   1.23080   74.196
 5254.00    1.24185   1.23237   72.798
 5255.00    1.24467   1.23510   70.879
 5256.00    1.25418   1.24133   69.867
 5257.00    1.26647   1.24952   70.171
 5258.00    1.27731   1.25501   71.745
 5259.00    1.27616   1.25376   74.498
 5260.00    1.26464   1.24430   77.959
 5261.00    1.23801   1.22794   80.978
 5262.00    1.21338   1.20869   82.965
 5263.00    1.19506   1.19115   83.606
 5264.00    1.18600   1.17870   82.606
 5265.00    1.18525   1.17300   81.107
 5266.00    1.19086   1.17268   81.919
 5267.00    1.20130   1.17185   84.852
 5268.00    1.19031   1.16445   84.879
 5269.00    1.16467   1.15354   80.712
 5270.00    1.16158   1.15144   76.790
 5271.00    1.19073   1.16556   75.309
 5272.00    1.21869   1.18813   75.165
 5273.00    1.22804   1.20544   75.067
 5274.00    1.23025   1.21270   73.979
 5275.00    1.23308   1.21574   71.731
 5276.00    1.24449   1.22194   70.052
 5277.00    1.26284   1.23303   69.999
 5278.00    1.27447   1.24413   71.357
 5279.00    1.27268   1.24871   73.206
 5280.00    1.26550   1.24457   74.716
 5281.00    1.25452   1.23474   75.359
 5282.00    1.24150   1.22470   74.348
 5283.00    1.23534   1.21997   72.245
 5284.00    1.24072   1.22415   69.971
 5285.00    1.26121   1.23655   68.965
 5286.00    1.28102   1.25142   69.114
 5287.00    1.28649   1.26247   69.229
 5288.00    1.28287   1.26792   68.925
 5289.00    1.28482   1.26989   68.697
 5290.00    1.28986   1.27013   68.952
 5291.00    1.28721   1.26920   69.547
 5292.00    1.28121   1.26769   70.402
 5293.00    1.27756   1.26576   72.043
 5294.00    1.27478   1.26208   74.607
 5295.00    1.26846   1.25476   76.880
 5296.00    1.25178   1.24409   77.091
 5297.00    1.23939   1.23380   75.485
 5298.00    1.23724   1.22881   73.908
 5299.00    1.24420   1.23082   73.197
 5300.00    1.25179   1.23670   72.434
 5301.00    1.25221   1.24256   70.757
 5302.00    1.25375   1.24781   69.266
 5303.00    1.26295   1.25358   68.797
 5304.00    1.27303   1.25911   69.256
 5305.00    1.27950   1.26212   69.897
 5306.00    1.27915   1.26204   69.731
 5307.00    1.27326   1.26104   69.051
 5308.00    1.27798   1.26166   68.526
 5309.00    1.28723   1.26427   68.461
 5310.00    1.29306   1.26712   68.771
 5311.00    1.29664   1.26832   69.100
 5312.00    1.29142   1.26709   69.544
 5313.00    1.28534   1.26307   70.188
 5314.00    1.28202   1.25586   70.836
 5315.00    1.26929   1.24668   71.022
 5316.00    1.25915   1.23953   70.630
 5317.00    1.26176   1.23888   70.257
 5318.00    1.26803   1.24503   70.370
 5319.00    1.27511   1.25332   70.814
 5320.00    1.27941   1.25827   71.562
 5321.00    1.27693   1.25705   72.714
 5322.00    1.26806   1.24992   73.562
 5323.00    1.25489   1.23992   73.710
 5324.00    1.24822   1.23062   75.160
 5325.00    1.24950   1.22141   79.291
 5326.00    1.23684   1.20766   82.614
 5327.00    1.20450   1.18963   80.875
 5328.00    1.18440   1.17798   76.353
 5329.00    1.20032   1.18414   73.313
 5330.00    1.23564   1.20597   72.163
 5331.00    1.26391   1.22936   71.485
 5332.00    1.26946   1.24373   70.690
 5333.00    1.27136   1.24928   70.245
 5334.00    1.27932   1.25039   70.508
 5335.00    1.28035   1.24945   70.981
 5336.00    1.27372   1.24720   71.674
 5337.00    1.27088   1.24389   73.223
 5338.00    1.27222   1.23904   74.686
 5339.00    1.25944   1.23266   74.559
 5340.00    1.24380   1.22769   72.859
 5341.00    1.24418   1.22861   71.353
 5342.00    1.26560   1.23598   71.030
 5343.00    1.27950   1.24473   71.398
 5344.00    1.28014   1.24942   71.869
 5345.00    1.27450   1.24897   72.250
 5346.00    1.27626   1.24571   72.824
 5347.00    1.27138   1.24230   73.131
 5348.00    1.26377   1.24034   72.321
 5349.00    1.26080   1.24111   70.753
 5350.00    1.27062   1.24552   69.665
 5351.00    1.28000   1.25225   69.294
 5352.00    1.28646   1.25855   68.843
 5353.00    1.29444   1.26320   68.039
 5354.00    1.29171   1.26712   67.429
 5355.00    1.29288   1.27113   67.353
 5356.00    1.29854   1.27460   67.457
 5357.00    1.29836   1.27647   67.668
 5358.00    1.30085   1.27645   68.327
 5359.00    1.30504   1.27456   69.400
 5360.00    1.29494   1.27066   70.464
 5361.00    1.28061   1.26490   71.093
 5362.00    1.27780   1.25817   71.516
 5363.00    1.27528   1.25189   71.942
 5364.00    1.27180   1.24737   71.884
 5365.00    1.27108   1.24537   71.812
 5366.00    1.27042   1.24517   72.365
 5367.00    1.26761   1.24420   73.920
 5368.00    1.26374   1.23930   76.094
 5369.00    1.25503   1.22929   76.858
 5370.00    1.23881   1.21754   74.731
 5371.00    1.23352   1.21185   71.389
 5372.00    1.24197   1.21846   69.254
 5373.00    1.26706   1.23505   68.482
 5374.00    1.28946   1.25268   -1.000
 5375.00    1.29786   1.26435   68.619
 5376.00    1.30154   1.26940   68.723
 5377.00    1.30358   1.27065   69.060
 5378.00    1.29870   1.26982   69.682
 5379.00    1.29583   1.26678   70.377
 5380.00    1.28870   1.26180   70.806
 5381.00    1.27512   1.25659   70.846
 5382.00    1.27059   1.25325   70.572
 5383.00    1.27830   1.25303   69.907
 5384.00    1.28563   1.25615   69.613
 5385.00    1.29227   1.26166   69.833
 5386.00    1.29535   1.26723   70.434
 5387.00    1.29400   1.27009   71.427
 5388.00    1.29088   1.26881   72.309
 5389.00    1.28928   1.26414   72.741
 5390.00    1.28805   1.25812   72.834
 5391.00    1.27965   1.25250   73.008
 5392.00    1.27256   1.24799   73.480
 5393.00    1.27131   1.24449   74.359
 5394.00    1.26357   1.24054   75.755
 5395.00    1.25708   1.23377   76.169
 5396.00    1.24485   1.22490   74.400
 5397.00    1.24083   1.22003   72.195
 5398.00    1.25813   1.22438   71.384
 5399.00    1.27433   1.23556   -1.000
 5400.00    1.28145   1.24626   -1.000
 5401.00    1.28635   1.25081   -1.000
 5402.00    1.28165   1.24707   -1.000
 5403.00    1.26309   1.23569   77.589
 5404.00    1.24088   1.22088   77.180
 5405.00    1.23111   1.21039   75.680
 5406.00    1.23789   1.21012   74.795
 5407.00    1.25311   1.21790   -1.000
 5408.00    1.26077   1.22577   -1.000
 5409.00    1.25834   1.22927   73.420
 5410.00    1.25524   1.23149   71.624
 5411.00    1.25878   1.23699   70.677
 5412.00    1.27657   1.24462   70.562
 5413.00    1.28709   1.24975   -1.000
 5414.00    1.28070   1.25112   70.207
 5415.00    1.27818   1.25167   69.730
 5416.00    1.28705   1.25403   69.856
 5417.00    1.28912   1.25765   70.478
 5418.00    1.28650   1.26053   70.971
 5419.00    1.28624   1.26186   70.835
 5420.00    1.28356   1.26177   70.535
 5421.00    1.28409   1.25997   71.242
 5422.00    1.28271   1.25628   72.002
 5423.00    1.27647   1.25173   71.537
 5424.00    1.27227   1.24903   70.390
 5425.00    1.27638   1.25050   70.292
 5426.00    1.28492   1.25438   71.889
 5427.00    1.27852   1.25488   74.170
 5428.00    1.26913   1.24865   74.803
 5429.00    1.25801   1.24010   73.724
 5430.00    1.24903   1.23646   73.379
 5431.00    1.25895   1.23819   74.225
 5432.00    1.26468   1.23919   75.152
 5433.00    1.25661   1.23567   75.116
 5434.00    1.25077   1.23144   73.854
 5435.00    1.25245   1.23339   71.907
 5436.00    1.26901   1.24329   70.290
 5437.00    1.28905   1.25657   69.214
 5438.00    1.29873   1.26778   68.565
 5439.00    1.30746   1.27474   68.360
 5440.00    1.30992   1.27830   68.342
 5441.00    1.30696   1.27966   68.912
 5442.00    1.30222   1.27837   70.531
 5443.00    1.29791   1.27241   73.254
 5444.00    1.28280   1.26008   75.836
 5445.00    1.25882   1.24319   75.911
 5446.00    1.23819   1.22876   73.783
 5447.00    1.23735   1.22491   71.619
 5448.00    1.26083   1.23347   70.670
 5449.00    1.28643   1.24831   -1.000
 5450.00    1.30049   1.26106   -1.000
 5451.00    1.30364   1.26675   -1.000
 5452.00    1.29672   1.26425   -1.000
 5453.00    1.28131   1.25446   76.283
 5454.00    1.26044   1.24098   75.733
 5455.00    1.24479   1.23126   73.350
 5456.00    1.25168   1.23251   71.209
 5457.00    1.27883   1.24482   70.503
 5458.00    1.30088   1.26044   -1.000
 5459.00    1.30751   1.27106   -1.000
 5460.00    1.30457   1.27381   73.448
 5461.00    1.29581   1.27035   73.963
 5462.00    1.28547   1.26415   73.296
 5463.00    1.28582   1.25944   72.401
 5464.00    1.29155   1.25909   71.962
 5465.00    1.30269   1.26241   -1.000
 5466.00    1.30353   1.26656   -1.000
 5467.00    1.30380   1.26983   -1.000
 5468.00    1.30978   1.27233   -1.000
 5469.00    1.30919   1.27423   -1.000
 5470.00    1.30363   1.27461   72.785
 5471.00    1.30221   1.27263   73.460
 5472.00    1.29699   1.26859   74.457
 5473.00    1.29100   1.26277   75.953
 5474.00    1.28042   1.25454   77.241
 5475.00    1.26656   1.24427   76.901
 5476.00    1.25220   1.23589   74.819
 5477.00    1.25541   1.23510   73.196
 5478.00    1.27501   1.24293   73.391
 5479.00    1.28688   1.25343   -1.000
 5480.00    1.28739   1.26028   74.349
 5481.00    1.28436   1.26270   73.244
 5482.00    1.28283   1.26400   71.760
 5483.00    1.28741   1.26696   70.970
 5484.00    1.29433   1.27132   71.424
 5485.00    1.29609   1.27460   72.419
 5486.00    1.29044   1.27494   72.966
 5487.00    1.28724   1.27279   73.044
 5488.00    1.29222   1.27018   72.620
 5489.00    1.29064   1.26889   72.083
 5490.00    1.28855   1.26957   71.768
 5491.00    1.29527   1.27168   71.853
 5492.00    1.29711   1.27377   71.914
 5493.00    1.29865   1.27430   71.907
 5494.00    1.30296   1.27245   72.333
 5495.00    1.29633   1.26810   72.859
 5496.00    1.28654   1.26229   72.633
 5497.00    1.28148   1.25785   71.868
 5498.00    1.28171   1.25704   72.175
 5499.00    1.29044   1.25814   -1.000
 5500.00    1.28992   1.25757   -1.000
 5501.00    1.28183   1.25520   73.100
 5502.00    1.28388   1.25449   72.851
 5503.00    1.28918   1.25672   -1.000
 5504.00    1.29215   1.25822   -1.000
 5505.00    1.28166   1.25549   74.016
 5506.00    1.26941   1.25081   72.884
 5507.00    1.27293   1.24960   72.404
 5508.00    1.27920   1.25390   72.758
 5509.00    1.29623   1.25999   -1.000
 5510.00    1.30160   1.26285   -1.000
 5511.00    1.29575   1.26139   -1.000
 5512.00    1.28227   1.25818   75.458
 5513.00    1.28095   1.25629   74.176
 5514.00    1.29121   1.25734   -1.000
 5515.00    1.29622   1.26128   -1.000
 5516.00    1.30455   1.26697   -1.000
 5517.00    1.30974   1.27281   -1.000
 5518.00    1.31442   1.27720   -1.000
 5519.00    1.31633   1.27926   -1.000
 5520.00    1.31133   1.27935   -1.000
 5521.00    1.31294   1.27884   -1.000
 5522.00    1.31239   1.27865   -1.000
 5523.00    1.30815   1.27778   71.954
 5524.00    1.30355   1.27371   73.509
 5525.00    1.29312   1.26439   75.394
 5526.00    1.27681   1.25106   76.095
 5527.00    1.26283   1.23919   74.775
 5528.00    1.26133   1.23528   72.811
 5529.00    1.27207   1.24151   71.691
 5530.00    1.28810   1.25334   -1.000
 5531.00    1.29880   1.26328   -1.000
 5532.00    1.29391   1.26668   72.695
 5533.00    1.29085   1.26440   72.543
 5534.00    1.29072   1.26111   71.992
 5535.00    1.28887   1.26129   71.738
 5536.00    1.29495   1.26567   71.457
 5537.00    1.30107   1.27157   70.820
 5538.00    1.30715   1.27637   70.228
 5539.00    1.31355   1.27937   -1.000
 5540.00    1.31298   1.28078   -1.000
 5541.00    1.31289   1.28065   -1.000
 5542.00    1.31239   1.27903   -1.000
 5543.00    1.30640   1.27685   71.647
 5544.00    1.30358   1.27555   71.472
 5545.00    1.30594   1.27587   71.070
 5546.00    1.30737   1.27755   70.400
 5547.00    1.30856   1.28037   69.787
 5548.00    1.31246   1.28403   69.558
 5549.00    1.31697   1.28724   69.850
 5550.00    1.31748   1.28844   70.432
 5551.00    1.32054   1.28749   -1.000
 5552.00    1.31802   1.28567   -1.000
 5553.00    1.31385   1.28407   71.600
 5554.00    1.31178   1.28307   71.384
 5555.00    1.30955   1.28285   71.243
 5556.00    1.30824   1.28338   71.151
 5557.00    1.31499   1.28425   71.073
 5558.00    1.32008   1.28508   -1.000
 5559.00    1.31806   1.28569   -1.000
 5560.00    1.31830   1.28551   -1.000
 5561.00    1.31407   1.28397   72.753
 5562.00    1.31112   1.28158   73.003
 5563.00    1.30546   1.27968   73.156
 5564.00    1.30429   1.27871   73.242
 5565.00    1.30169   1.27782   73.123
 5566.00    1.30037   1.27613   72.964
 5567.00    1.30024   1.27366   73.120
 5568.00    1.29654   1.27100   73.116
 5569.00    1.29043   1.26882   73.108
 5570.00    1.28532   1.26696   73.293
 5571.00    1.26471   1.26453   73.065
 5572.00    1.19280   1.26223   -1.000
 5573.00    0.93598   1.26206   -1.000
 5574.00    0.54711   1.26449   -1.000
 5575.00    0.40350   1.26826   -1.000
 5576.00    0.73499   1.27205   -1.000
 5577.00    1.26881   1.27532   72.685
 5578.00    1.47751   1.27788   -1.000
 5579.00    1.39370   1.27929   -1.000
 5580.00    1.32594   1.27909   -1.000
 5581.00    1.30867   1.27799   -1.000
 5582.00    1.30624   1.27719   72.381
 5583.00    1.30970   1.27610   -1.000
 5584.00    1.30872   1.27201   -1.000
 5585.00    1.29422   1.26314   -1.000
 5586.00    1.27282   1.25146   78.191
 5587.00    1.25453   1.24157   77.471
 5588.00    1.25214   1.23749   76.111
 5589.00    1.26472   1.24038   74.990
 5590.00    1.27897   1.24819   74.646
 5591.00    1.29031   1.25650   -1.000
 5592.00    1.28986   1.26138   74.556
 5593.00    1.28529   1.26257   73.551
 5594.00    1.27972   1.26310   72.864
 5595.00    1.28891   1.26502   73.373
 5596.00    1.30233   1.26652   -1.000
 5597.00    1.29612   1.26516   -1.000
 5598.00    1.28936   1.26177   75.546
 5599.00    1.28456   1.25811   75.892
 5600.00    1.28909   1.25427   -1.000
 5601.00    1.27756   1.25122   75.255
 5602.00    1.26405   1.25215   73.270
 5603.00    1.27892   1.25902   71.533
 5604.00    1.30288   1.26998   -1.000
 5605.00    1.31531   1.28085   -1.000
 5606.00    1.31976   1.28854   -1.000
 5607.00    1.32243   1.29268   70.567
 5608.00    1.32730   1.29470   -1.000
 5609.00    1.32459   1.29606   70.320
 5610.00    1.31936   1.29703   70.575
 5611.00    1.32361   1.29629   71.892
 5612.00    1.32291   1.29146   -1.000
 5613.00    1.31203   1.28137   -1.000
 5614.00    1.28800   1.26899   75.844
 5615.00    1.27594   1.26121   74.132
 5616.00    1.28234   1.26282   72.989
 5617.00    1.30030   1.27152   72.721
 5618.00    1.31104   1.28094   72.426
 5619.00    1.31105   1.28694   72.064
 5620.00    1.31727   1.28944   72.284
 5621.00    1.32080   1.28961   -1.000
 5622.00    1.31521   1.28775   74.986
 5623.00    1.30633   1.28427   74.888
 5624.00    1.29824   1.28118   73.707
 5625.00    1.29862   1.28084   72.603
 5626.00    1.30899   1.28359   71.739
 5627.00    1.31441   1.28759   71.174
 5628.00    1.31772   1.29117   70.937
 5629.00    1.32601   1.29381   -1.000
 5630.00    1.32842   1.29535   -1.000
 5631.00    1.32372   1.29561   71.196
 5632.00    1.32102   1.29481   71.723
 5633.00    1.32390   1.29366   72.181
 5634.00    1.32192   1.29267   72.703
 5635.00    1.31520   1.29144   73.204
 5636.00    1.30948   1.28960   73.271
 5637.00    1.30714   1.28759   73.194
 5638.00    1.30781   1.28595   73.403
 5639.00    1.30719   1.28462   73.475
 5640.00    1.30697   1.28341   73.216
 5641.00    1.30804   1.28277   72.875
 5642.00    1.31661   1.28342   -1.000
 5643.00    1.31907   1.28526   -1.000
 5644.00    1.31743   1.28733   72.026
 5645.00    1.31672   1.28887   71.843
 5646.00    1.32186   1.28976   -1.000
 5647.00    1.32638   1.29031   -1.000
 5648.00    1.32466   1.29065   -1.000
 5649.00    1.32405   1.29070   -1.000
 5650.00    1.32193   1.29067   -1.000
 5651.00    1.32656   1.29091   -1.000
 5652.00    1.32650   1.29119   -1.000
 5653.00    1.32460   1.29083   -1.000
 5654.00    1.31955   1.28869   -1.000
 5655.00    1.31070   1.28308   -1.000
 5656.00    1.30211   1.27344   -1.000
 5657.00    1.28760   1.26306   76.639
 5658.00    1.27519   1.25768   74.979
 5659.00    1.28038   1.25979   74.531
 5660.00    1.29887   1.26621   -1.000
 5661.00    1.30211   1.27228   -1.000
 5662.00    1.29711   1.27698   72.863
 5663.00    1.30368   1.28193   72.488
 5664.00    1.31281   1.28657   72.813
 5665.00    1.31539   1.28811   73.256
 5666.00    1.30957   1.28571   73.384
 5667.00    1.30503   1.28189   73.220
 5668.00    1.30585   1.27997   72.771
 5669.00    1.30875   1.28120   72.150
 5670.00    1.31207   1.28450   71.431
 5671.00    1.31926   1.28821   -1.000
 5672.00    1.32598   1.29128   -1.000
 5673.00    1.32592   1.29338   -1.000
 5674.00    1.32081   1.29470   70.735
 5675.00    1.32059   1.29575   70.603
 5676.00    1.32740   1.29672   -1.000
 5677.00    1.32782   1.29714   -1.000
 5678.00    1.32229   1.29637   71.630
 5679.00    1.32055   1.29413   72.430
 5680.00    1.31789   1.29042   73.300
 5681.00    1.31486   1.28541   -1.000
 5682.00    1.31192   1.28012   -1.000
 5683.00    1.30554   1.27648   72.809
 5684.00    1.30605   1.27590   -1.000
 5685.00    1.30777   1.27772   -1.000
 5686.00    1.30644   1.27975   74.231
 5687.00    1.30811   1.28047   73.492
 5688.00    1.30392   1.28032   72.164
 5689.00    1.30702   1.28092   71.412
 5690.00    1.31621   1.28338   -1.000
 5691.00    1.31758   1.28725   -1.000
 5692.00    1.32243   1.29108   -1.000
 5693.00    1.32617   1.29380   -1.000
 5694.00    1.32425   1.29530   -1.000
 5695.00    1.32307   1.29595   71.772
 5696.00    1.32424   1.29587   -1.000
 5697.00    1.31706   1.29462   73.264
 5698.00    1.31541   1.29169   74.039
 5699.00    1.31104   1.28759   74.422
 5700.00    1.30098   1.28383   73.939
 5701.00    1.29730   1.28195   73.170
 5702.00    1.29383   1.28262   72.937
 5703.00    1.29791   1.28487   73.379
 5704.00    1.30187   1.28650   74.383
 5705.00    1.30468   1.28562   75.755
 5706.00    1.30255   1.28168   76.962
 5707.00    1.29750   1.27524   77.470
 5708.00    1.27754   1.26802   77.331
 5709.00    1.26618   1.26267   76.579
 5710.00    1.27175   1.26159   75.054
 5711.00    1.28416   1.26547   73.206
 5712.00    1.29787   1.27260   72.025
 5713.00    1.31818   1.27997   -1.000
 5714.00    1.32645   1.28561   -1.000
 5715.00    1.31903   1.28941   -1.000
 5716.00    1.31431   1.29211   70.992
 5717.00    1.31899   1.29413   70.538
 5718.00    1.32111   1.29576   70.197
 5719.00    1.32157   1.29732   70.018
 5720.00    1.32374   1.29879   69.907
 5721.00    1.32634   1.29984   69.822
 5722.00    1.33260   1.30044   -1.000
 5723.00    1.33600   1.30065   -1.000
 5724.00    1.32917   1.30000   -1.000
 5725.00    1.32311   1.29798   71.859
 5726.00    1.32176   1.29503   71.542
 5727.00    1.32039   1.29252   71.103
 5728.00    1.32496   1.29151   -1.000
 5729.00    1.32719   1.29209   -1.000
 5730.00    1.32530   1.29358   -1.000
 5731.00    1.32707   1.29518   -1.000
 5732.00    1.32793   1.29672   -1.000
 5733.00    1.32804   1.29853   -1.000
 5734.00    1.32504   1.30026   70.364
 5735.00    1.32727   1.30108   70.569
 5736.00    1.33090   1.30106   -1.000
 5737.00    1.33128   1.30087   -1.000
 5738.00    1.32826   1.30088   70.889
 5739.00    1.33012   1.30117   -1.000
 5740.00    1.32354   1.30150   70.900
 5741.00    1.32656   1.30149   70.823
 5742.00    1.32618   1.30121   70.331
 5743.00    1.32733   1.30115   69.937
 5744.00    1.32714   1.30133   70.269
 5745.00    1.32848   1.30118   -1.000
 5746.00    1.32369   1.30045   71.264
 5747.00    1.31630   1.29972   70.884
 5748.00    1.31915   1.29976   70.646
 5749.00    1.33021   1.30028   -1.000
 5750.00    1.33105   1.29990   -1.000
 5751.00    1.32485   1.29763   -1.000
 5752.00    1.31738   1.29411   72.781
 5753.00    1.30551   1.29158   71.901
 5754.00    1.30731   1.29211   70.579
 5755.00    1.31996   1.29571   69.710
 5756.00    1.33003   1.30066   -1.000
 5757.00    1.33393   1.30500   -1.000
 5758.00    1.33644   1.30715   -1.000
 5759.00    1.33221   1.30630   -1.000
 5760.00    1.32372   1.30294   72.931
 5761.00    1.31922   1.29882   72.209
 5762.00    1.31628   1.29644   70.935
 5763.00    1.31375   1.29762   70.039
 5764.00    1.32159   1.30173   69.785
 5765.00    1.33237   1.30595   69.711
 5766.00    1.33589   1.30819   -1.000
 5767.00    1.33531   1.30844   69.722
 5768.00    1.33159   1.30769   69.951
 5769.00    1.32875   1.30665   70.332
 5770.00    1.32447   1.30564   70.769
 5771.00    1.32578   1.30475   70.962
 5772.00    1.32783   1.30370   71.052
 5773.00    1.32020   1.30205   70.917
 5774.00    1.31348   1.29991   70.569
 5775.00    1.30773   1.29817   70.483
 5776.00    1.29633   1.29723   70.692
 5777.00    1.28493   1.29617   71.677
 5778.00    1.27747   1.29411   73.278
 5779.00    1.27970   1.29120   74.282
 5780.00    1.29185   1.28816   74.210
 5781.00    1.30186   1.28583   73.920
 5782.00    1.30822   1.28484   73.654
 5783.00    1.31448   1.28524   73.385
 5784.00    1.31982   1.28652   -1.000
 5785.00    1.31754   1.28809   71.634
 5786.00    1.31752   1.28969   71.059
 5787.00    1.32419   1.29134   -1.000
 5788.00    1.33397   1.29301   -1.000
 5789.00    1.32645   1.29440   -1.000
 5790.00    1.32129   1.29533   70.771
 5791.00    1.32536   1.29633   -1.000
 5792.00    1.32385   1.29829   69.850
 5793.00    1.31837   1.30134   69.780
 5794.00    1.31630   1.30446   70.175
 5795.00    1.31709   1.30620   70.628
 5796.00    1.31779   1.30602   70.338
 5797.00    1.32377   1.30513   69.464
 5798.00    1.32846   1.30519   68.507
 5799.00    1.33540   1.30657   -1.000
 5800.00    1.33858   1.30845   -1.000
 5801.00    1.34390   1.30992   -1.000
 5802.00    1.33797   1.31047   -1.000
 5803.00    1.33679   1.31006   -1.000
 5804.00    1.33322   1.30945   70.141
 5805.00    1.33338   1.30954   69.878
 5806.00    1.33006   1.31058   69.667
 5807.00    1.33063   1.31206   69.652
 5808.00    1.33315   1.31327   69.590
 5809.00    1.33720   1.31397   69.336
 5810.00    1.33838   1.31449   69.128
 5811.00    1.34457   1.31496   -1.000
 5812.00    1.33958   1.31494   69.806
 5813.00    1.34281   1.31385   -1.000
 5814.00    1.34382   1.31200   -1.000
 5815.00    1.34198   1.31059   -1.000
 5816.00    1.34346   1.31078   -1.000
 5817.00    1.34273   1.31250   -1.000
 5818.00    1.33997   1.31464   68.380
 5819.00    1.34333   1.31621   -1.000
 5820.00    1.35205   1.31713   -1.000
 5821.00    1.35260   1.31777   -1.000
 5822.00    1.34832   1.31829   -1.000
 5823.00    1.35290   1.31855   -1.000
 5824.00    1.35581   1.31860   -1.000
 5825.00    1.35039   1.31880   -1.000
 5826.00    1.34953   1.31940   -1.000
 5827.00    1.35451   1.32035   -1.000
 5828.00    1.35371   1.32141   -1.000
 5829.00    1.34964   1.32215   -1.000
 5830.00    1.35226   1.32218   -1.000
 5831.00    1.35640   1.32155   -1.000
 5832.00    1.35726   1.32049   -1.000
 5833.00    1.35535   1.31927   -1.000
 5834.00    1.35249   1.31840   -1.000
 5835.00    1.35250   1.31830   -1.000
 5836.00    1.35601   1.31907   -1.000
 5837.00    1.35487   1.32056   -1.000
 5838.00    1.34666   1.32238   68.266
 5839.00    1.34434   1.32390   67.904
 5840.00    1.34877   1.32444   67.905
 5841.00    1.34925   1.32376   68.126
 5842.00    1.34511   1.32203   68.390
 5843.00    1.35021   1.31972   -1.000
 5844.00    1.34878   1.31740   -1.000
 5845.00    1.34942   1.31556   -1.000
 5846.00    1.33820   1.31438   69.471
 5847.00    1.34130   1.31375   -1.000
 5848.00    1.34028   1.31314   -1.000
 5849.00    1.34376   1.31180   -1.000
 5850.00    1.34413   1.30908   -1.000
 5851.00    1.34376   1.30484   -1.000
 5852.00    1.33429   1.30004   -1.000
 5853.00    1.32588   1.29632   -1.000
 5854.00    1.32502   1.29393   -1.000
 5855.00    1.32851   1.29124   -1.000
 5856.00    1.32415   1.28741   -1.000
 5857.00    1.31449   1.28436   -1.000
 5858.00    1.32776   1.28469   -1.000
 5859.00    1.33589   1.28863   -1.000
 5860.00    1.33662   1.29405   -1.000
 5861.00    1.34519   1.29883   -1.000
 5862.00    1.34052   1.30222   -1.000
 5863.00    1.34108   1.30411   -1.000
 5864.00    1.34229   1.30428   -1.000
 5865.00    1.34122   1.30296   -1.000
 5866.00    1.33965   1.30159   -1.000
 5867.00    1.33804   1.30179   -1.000
 5868.00    1.34340   1.30380   -1.000
 5869.00    1.35106   1.30653   -1.000
 5870.00    1.35587   1.30871   -1.000
 5871.00    1.35550   1.30952   -1.000
 5872.00    1.35018   1.30878   -1.000
 5873.00    1.34825   1.30687   -1.000
 5874.00    1.34863   1.30444   -1.000
 5875.00    1.34698   1.30225   -1.000
 5876.00    1.34931   1.30068   -1.000
 5877.00    1.34816   1.29920   -1.000
 5878.00    1.34094   1.29720   -1.000
 5879.00    1.33637   1.29486   -1.000
 5880.00    1.33147   1.29263   -1.000
 5881.00    1.32617   1.29027   -1.000
 5882.00    1.32362   1.28729   -1.000
 5883.00    1.31005   1.28364   71.690
 5884.00    1.27045   1.27925   72.548
 5885.00    1.18178   1.27257   -1.000
 5886.00    1.04364   1.25965   -1.000
 5887.00    0.93938   1.23692   -1.000
 5888.00    0.94612   1.20791   -1.000
 5889.00    1.03795   1.18503   -1.000
 5890.00    1.12155   1.17951   -1.000
 5891.00    1.13099   1.19019   -1.000
 5892.00    1.06965   1.20464   -1.000
 5893.00    1.00172   1.21019   -1.000
 5894.00    1.00590   1.20434   -1.000
 5895.00    1.08941   1.19614   -1.000
 5896.00    1.18836   1.19694   77.234
 5897.00    1.24874   1.20934   -1.000
 5898.00    1.28675   1.22735   -1.000
 5899.00    1.30588   1.24456   -1.000
 5900.00    1.31945   1.25842   -1.000
 5901.00    1.33282   1.26882   -1.000
 5902.00    1.33313   1.27634   -1.000
 5903.00    1.32750   1.28151   -1.000
 5904.00    1.33803   1.28493   -1.000
 5905.00    1.33487   1.28717   -1.000
 5906.00    1.33703   1.28859   -1.000
 5907.00    1.33115   1.28957   -1.000
 5908.00    1.33252   1.29054   -1.000
 5909.00    1.33245   1.29140   -1.000
 5910.00    1.32936   1.29145   -1.000
 5911.00    1.32907   1.29001   -1.000
 5912.00    1.32389   1.28693   -1.000
 5913.00    1.31876   1.28277   -1.000
 5914.00    1.31457   1.27888   -1.000
 5915.00    1.30944   1.27658   -1.000
 5916.00    1.30516   1.27638   -1.000
 5917.00    1.31206   1.27793   -1.000
 5918.00    1.31481   1.28038   -1.000
 5919.00    1.31741   1.28271   -1.000
 5920.00    1.32012   1.28436   -1.000
 5921.00    1.31430   1.28549   -1.000
 5922.00    1.31340   1.28644   -1.000
 5923.00    1.32558   1.28767   -1.000
 5924.00    1.33196   1.28954   -1.000
 5925.00    1.32780   1.29179   -1.000
 5926.00    1.32984   1.29360   -1.000
 5927.00    1.33961   1.29398   -1.000
 5928.00    1.33413   1.29267   -1.000
 5929.00    1.32704   1.29081   -1.000
 5930.00    1.33264   1.29007   -1.000
 5931.00    1.33293   1.29076   -1.000
 5932.00    1.33628   1.29187   -1.000
 5933.00    1.33403   1.29242   -1.000
 5934.00    1.32908   1.29238   -1.000
 5935.00    1.32952   1.29242   -1.000
 5936.00    1.33202   1.29293   -1.000
 5937.00    1.33238   1.29323   -1.000
 5938.00    1.32469   1.29225   -1.000
 5939.00    1.31615   1.29000   -1.000
 5940.00    1.31526   1.28751   -1.000
 5941.00    1.31550   1.28559   -1.000
 5942.00    1.32261   1.28463   -1.000
 5943.00    1.32666   1.28500   -1.000
 5944.00    1.31990   1.28648   -1.000
 5945.00    1.32227   1.28777   -1.000
 5946.00    1.31918   1.28780   -1.000
 5947.00    1.31124   1.28705   73.348
 5948.00    1.31448   1.28709   -1.000
 5949.00    1.32196   1.28858   -1.000
 5950.00    1.32542   1.29054   -1.000
 5951.00    1.32137   1.29198   -1.000
 5952.00    1.32501   1.29274   -1.000
 5953.00    1.32831   1.29272   -1.000
 5954.00    1.32641   1.29161   -1.000
 5955.00    1.32113   1.28977   -1.000
 5956.00    1.31563   1.28845   -1.000
 5957.00    1.31522   1.28878   71.965
 5958.00    1.31937   1.29088   -1.000
 5959.00    1.33766   1.29393   -1.000
 5960.00    1.34658   1.29693   -1.000
 5961.00    1.34194   1.29914   -1.000
 5962.00    1.33572   1.29998   -1.000
 5963.00    1.33477   1.29923   -1.000
 5964.00    1.32856   1.29731   -1.000
 5965.00    1.31859   1.29516   71.825
 5966.00    1.31282   1.29385   71.264
 5967.00    1.31883   1.29382   71.107
 5968.00    1.33034   1.29487   -1.000
 5969.00    1.32883   1.29650   -1.000
 5970.00    1.33543   1.29820   -1.000
 5971.00    1.33034   1.29941   -1.000
 5972.00    1.33677   1.29983   -1.000
 5973.00    1.33354   1.29943   -1.000
 5974.00    1.33213   1.29812   -1.000
 5975.00    1.32550   1.29596   -1.000
 5976.00    1.32601   1.29376   -1.000
 5977.00    1.32217   1.29273   -1.000
 5978.00    1.32326   1.29348   -1.000
 5979.00    1.33474   1.29548   -1.000
 5980.00    1.33552   1.29725   -1.000
 5981.00    1.33269   1.29751   -1.000
 5982.00    1.33139   1.29605   -1.000
 5983.00    1.32945   1.29387   -1.000
 5984.00    1.32068   1.29238   -1.000
 5985.00    1.31728   1.29238   72.260
 5986.00    1.31785   1.29356   72.023
 5987.00    1.31691   1.29512   71.664
 5988.00    1.32247   1.29629   -1.000
 5989.00    1.32194   1.29671   -1.000
 5990.00    1.32500   1.29677   -1.000
 5991.00    1.32941   1.29751   -1.000
 5992.00    1.33194   1.29959   -1.000
 5993.00    1.33188   1.30239   -1.000
 5994.00    1.33932   1.30444   -1.000
 5995.00    1.34009   1.30477   -1.000
 5996.00    1.33183   1.30374   -1.000
 5997.00    1.32835   1.30253   -1.000
 5998.00    1.32774   1.30193   -1.000
 5999.00    1.32761   1.30167   -1.000
 6000.00    1.32714   1.30103   -1.000
 6001.00    1.32485   1.29991   -1.000
 6002.00    1.31795   1.29875   72.636
 6003.00    1.31189   1.29782   72.698
 6004.00    1.31328   1.29679   73.245
 6005.00    1.31975   1.29509   -1.000
 6006.00    1.31730   1.29282   -1.000
 6007.00    1.30801   1.29113   73.065
 6008.00    1.30779   1.29142   72.317
 6009.00    1.31287   1.29373   72.386
 6010.00    1.31731   1.29644   72.964
 6011.00    1.32010   1.29806   73.336
 6012.00    1.32438   1.29862   -1.000
 6013.00    1.32497   1.29908   -1.000
 6014.00    1.32380   1.29976   -1.000
 6015.00    1.32398   1.30001   -1.000
 6016.00    1.32153   1.29933   73.211
 6017.00    1.32216   1.29790   -1.000
 6018.00    1.32180   1.29623   -1.000
 6019.00    1.32287   1.29484   -1.000
 6020.00    1.31562   1.29397   73.110
 6021.00    1.31045   1.29352   72.970
 6022.00    1.31295   1.29352   72.877
 6023.00    1.31478   1.29443   72.419
 6024.00    1.31932   1.29652   72.220
 6025.00    1.32114   1.29927   71.745
 6026.00    1.32447   1.30186   71.444
 6027.00    1.32997   1.30386   -1.000
 6028.00    1.32684   1.30521   71.378
 6029.00    1.32936   1.30604   -1.000
 6030.00    1.33513   1.30664   -1.000
 6031.00    1.32777   1.30715   71.079
 6032.00    1.32305   1.30761   70.908
 6033.00    1.32665   1.30835   70.883
 6034.00    1.32661   1.30953   70.743
 6035.00    1.32884   1.31040   70.835
 6036.00    1.32484   1.30990   71.258
 6037.00    1.32866   1.30786   71.384
 6038.00    1.33404   1.30509   -1.000
 6039.00    1.32883   1.30230   -1.000
 6040.00    1.32931   1.29927   -1.000
 6041.00    1.32632   1.29511   -1.000
 6042.00    1.32496   1.29100   -1.000
 6043.00    1.33286   1.29090   -1.000
 6044.00    1.32911   1.29627   -1.000
 6045.00    1.32987   1.30347   -1.000
 6046.00    1.33449   1.30836   -1.000
 6047.00    1.33568   1.31017   -1.000
 6048.00    1.33187   1.31008   -1.000
 6049.00    1.33866   1.30918   -1.000
 6050.00    1.33119   1.30816   -1.000
 6051.00    1.33253   1.30745   -1.000
 6052.00    1.32711   1.30702   71.560
 6053.00    1.31895   1.30645   71.972
 6054.00    1.32725   1.30540   -1.000
 6055.00    1.32939   1.30414   -1.000
 6056.00    1.32996   1.30316   -1.000
 6057.00    1.33128   1.30270   -1.000
 6058.00    1.32885   1.30276   -1.000
 6059.00    1.32586   1.30321   -1.000
 6060.00    1.33039   1.30337   -1.000
 6061.00    1.32247   1.30204   -1.000
 6062.00    1.29421   1.29848   71.380
 6063.00    1.29492   1.29352  116.973
 6064.00    1.27894   1.28955   22.865
 6065.00    1.17416   1.28904   -1.000
 6066.00    1.21852   1.29258   -1.000
 6067.00    1.30991   1.29829   71.524
 6068.00    1.31383   1.30350   69.531
 6069.00    1.38936   1.30694   -1.000
 6070.00    0.57068   1.30897   -1.000
 6071.00    0.69750   1.31035   -1.000
 6072.00    1.35505   1.31141   -1.000
 6073.00    1.32452   1.31184   71.008
 6074.00    1.33045   1.31120   71.384
 6075.00    1.33270   1.30956   -1.000
 6076.00    1.32130   1.30762   72.364
 6077.00    1.31578   1.30613   72.797
 6078.00    1.32214   1.30529   72.814
 6079.00    1.32268   1.30471   72.885
 6080.00    1.31572   1.30387   73.104
 6081.00    1.31513   1.30265   73.084
 6082.00    1.31782   1.30154   73.030
 6083.00    1.31691   1.30124   72.951
 6084.00    1.31642   1.30181   72.730
 6085.00    1.31932   1.30279   72.432
 6086.00    1.31867   1.30390   72.603
 6087.00    1.31957   1.30499   73.060
 6088.00    1.31988   1.30559   73.359
 6089.00    1.31543   1.30514   73.302
 6090.00    1.31071   1.30377   72.806
 6091.00    1.31558   1.30259   72.453
 6092.00    1.31979   1.30270   72.037
 6093.00    1.31969   1.30423   71.732
 6094.00    1.31944   1.30653   71.778
 6095.00    1.32656   1.30899   71.965
 6096.00    1.32549   1.31121   72.002
 6097.00    1.31753   1.31258   72.006
 6098.00    1.32045   1.31193   72.923
 6099.00    1.32089   1.30807   74.773
 6100.00    1.31142   1.30084   75.927
 6101.00    1.29761   1.29223   75.279
 6102.00    1.28964   1.28606   73.795
 6103.00    1.29351   1.28538   72.707
 6104.00    1.29510   1.28983   72.504
 6105.00    1.31401   1.29649   72.809
 6106.00    1.31233   1.30266   72.977
 6107.00    1.30467   1.30742   72.936
 6108.00    1.31188   1.31071   72.770
 6109.00    1.31636   1.31238   72.439
 6110.00    1.31595   1.31240   72.447
 6111.00    1.31593   1.31144   72.032
 6112.00    1.31354   1.31056   71.877
 6113.00    1.31849   1.31034   72.183
 6114.00    1.31703   1.31064   72.673
 6115.00    1.31880   1.31101   72.747
 6116.00    1.31770   1.31072   73.121
 6117.00    1.31353   1.30828   74.231
 6118.00    1.31092   1.30231   75.181
 6119.00    1.29627   1.29312   75.883
 6120.00    1.29521   1.28308   75.902
 6121.00    1.27918   1.27613   74.589
 6122.00    1.27265   1.27598   73.657
 6123.00    1.28382   1.28270   73.692
 6124.00    1.29321   1.29205   74.147
 6125.00    1.30167   1.29959   74.013
 6126.00    1.30757   1.30367   73.852
 6127.00    1.30156   1.30512   73.216
 6128.00    1.30729   1.30600   72.522
 6129.00    1.30390   1.30795   72.409
 6130.00    1.30650   1.31087   72.563
 6131.00    1.31086   1.31322   73.290
 6132.00    1.30754   1.31289   75.020
 6133.00    1.30241   1.30770   77.282
 6134.00    1.29288   1.29664   79.197
 6135.00    1.26880   1.28237   79.310
 6136.00    1.24700   1.27117   77.180
 6137.00    1.24150   1.26796   74.992
 6138.00    1.25769   1.27147   74.255
 6139.00    1.27551   1.27615   74.442
 6140.00    1.28455   1.27883   74.556
 6141.00    1.27712   1.28137   73.737
 6142.00    1.28564   1.28642   72.850
 6143.00    1.29083   1.29330   72.798
 6144.00    1.30051   1.29904   73.160
 6145.00    1.30703   1.30171   73.634
 6146.00    1.30623   1.30145   74.172
 6147.00    1.29248   1.29955   74.596
 6148.00    1.29363   1.29749   74.569
 6149.00    1.29403   1.29650   74.277
 6150.00    1.29295   1.29701   73.739
 6151.00    1.29856   1.29856   73.686
 6152.00    1.29629   1.30003   74.368
 6153.00    1.29840   1.30039   74.721
 6154.00    1.30058   1.29939   74.752
 6155.00    1.29876   1.29746   75.089
 6156.00    1.29633   1.29506   75.926
 6157.00    1.28811   1.29207   77.429
 6158.00    1.28588   1.28719   79.855
 6159.00    1.27716   1.27844   82.155
 6160.00    1.25505   1.26603   82.818
 6161.00    1.24236   1.25440   81.441
 6162.00    1.23690   1.24912   79.116
 6163.00    1.24292   1.25171   77.999
 6164.00    1.25782   1.25872   77.724
 6165.00    1.26263   1.26556   77.966
 6166.00    1.26789   1.26966   79.055
 6167.00    1.26730   1.27066   79.824
 6168.00    1.25711   1.26961   79.117
 6169.00    1.25222   1.26871   77.508
 6170.00    1.25214   1.27013   76.476
 6171.00    1.26763   1.27421   76.647
 6172.00    1.27973   1.27949   76.691
 6173.00    1.27860   1.28457   76.481
 6174.00    1.27780   1.28877   76.343
 6175.00    1.27551   1.29169   76.128
 6176.00    1.28145   1.29317   75.735
 6177.00    1.28046   1.29357   75.474
 6178.00    1.28012   1.29343   75.234
 6179.00    1.28144   1.29338   74.871
 6180.00    1.27757   1.29386   74.700
 6181.00    1.28028   1.29471   74.882
 6182.00    1.28391   1.29540   75.153
 6183.00    1.28646   1.29561   75.789
 6184.00    1.29208   1.29524   76.640
 6185.00    1.28767   1.29410   77.424
 6186.00    1.28572   1.29189   78.155
 6187.00    1.27975   1.28815   78.702
 6188.00    1.27526   1.28231   79.794
 6189.00    1.26717   1.27491   80.234
 6190.00    1.26282   1.26872   79.203
 6191.00    1.25460   1.26728   77.132
 6192.00    1.25436   1.27171   75.963
 6193.00    1.26712   1.27955   75.563
 6194.00    1.27844   1.28717   75.479
 6195.00    1.28556   1.29237   76.036
 6196.00    1.28725   1.29458   76.958
 6197.00    1.27851   1.29404   77.548
 6198.00    1.27334   1.29186   77.403
 6199.00    1.27129   1.29030   76.548
 6200.00    1.24985   1.29119   75.574
 6201.00    1.25759   1.29437   75.450
 6202.00    1.27039   1.29821   75.467
 6203.00    1.27732   1.30118   75.320
 6204.00    1.28520   1.30280   75.336
 6205.00    1.29129   1.30345   75.662
 6206.00    1.29586   1.30368   75.613
 6207.00    1.29214   1.30367   75.996
 6208.00    1.28735   1.30314   76.732
 6209.00    1.29002   1.30168   77.310
 6210.00    1.28552   1.29899   78.094
 6211.00    1.27951   1.29498   79.338
 6212.00    1.26867   1.29019   80.077
 6213.00    1.27043   1.28582   80.227
 6214.00    1.26460   1.28292   79.031
 6215.00    1.26632   1.28148   78.757
 6216.00    1.27050   1.28060   79.462
 6217.00    1.26928   1.27943   79.038
 6218.00    1.27286   1.27816   78.438
 6219.00    1.26787   1.27783   79.061
 6220.00    1.26858   1.27927   85.679
 6221.00    1.27787   1.28203   81.682
 6222.00    1.25970   1.28470   77.917
 6223.00    1.28135   1.28646   78.131
 6224.00    1.28678   1.28745   78.140
 6225.00    1.28501   1.28781   78.638
 6226.00    1.28738   1.28683   79.784
 6227.00    1.28051   1.28325   81.130
 6228.00    1.27485   1.27675   82.124
 6229.00    1.26132   1.26921   81.614
 6230.00    1.25293   1.26411   80.365
 6231.00    1.24865   1.26412   78.808
 6232.00    1.25462   1.26903   77.557
 6233.00    1.27161   1.27606   77.304
 6234.00    1.27508   1.28193   77.913
 6235.00    1.28301   1.28465   78.723
 6236.00    1.28825   1.28417   79.520
 6237.00    1.27840   1.28176   80.375
 6238.00    1.27198   1.27902   80.643
 6239.00    1.26936   1.27705   80.580
 6240.00    1.26924   1.27592   81.255
 6241.00    1.27116   1.27463   81.769
 6242.00    1.26436   1.27209   81.649
 6243.00    1.26241   1.26818   81.081
 6244.00    1.25702   1.26424   80.248
 6245.00    1.25564   1.26253   79.201
 6246.00    1.25070   1.26465   78.402
 6247.00    1.25630   1.26991   78.407
 6248.00    1.26722   1.27556   79.221
 6249.00    1.26906   1.27836   80.771
 6250.00    1.26034   1.27661   81.692
 6251.00    1.25046   1.27143   82.210
 6252.00    1.24212   1.26588   82.404
 6253.00    1.23479   1.26257   82.344
 6254.00    1.23290   1.26207   83.196
 6255.00    1.23933   1.26324   83.920
 6256.00    1.24155   1.26485   83.433
 6257.00    1.24242   1.26671   82.085
 6258.00    1.24352   1.26931   80.866
 6259.00    1.25073   1.27279   79.781
 6260.00    1.25782   1.27662   78.521
 6261.00    1.26537   1.28024   78.233
 6262.00    1.26217   1.28310   78.963
 6263.00    1.26374   1.28476   79.459
 6264.00    1.26183   1.28543   79.003
 6265.00    1.25518   1.28599   78.415
 6266.00    1.25809   1.28683   78.796
 6267.00    1.26004   1.28713   79.195
 6268.00    1.26069   1.28605   79.031
 6269.00    1.26064   1.28389   78.746
 6270.00    1.26952   1.28153   78.573
 6271.00    1.26884   1.27913   78.826
 6272.00    1.25533   1.27571   79.439
 6273.00    1.24344   1.26994   80.083
 6274.00    1.22392   1.26152   81.448
 6275.00    1.20831   1.25185   83.603
 6276.00    1.19350   1.24321   85.029
 6277.00    1.18478   1.23759   -1.000
 6278.00    1.18377   1.23574   85.041
 6279.00    1.17557   1.23755   -1.000
 6280.00    1.16749   1.24255   -1.000
 6281.00    1.17585   1.25009   -1.000
 6282.00    1.19030   1.25891   -1.000
 6283.00    1.20491   1.26734   -1.000
 6284.00    1.22534   1.27398   78.589
 6285.00    1.23821   1.27837   78.062
 6286.00    1.24510   1.28075   77.951
 6287.00    1.25503   1.28122   78.431
 6288.00    1.25725   1.27979   79.122
 6289.00    1.25689   1.27719   79.697
 6290.00    1.25618   1.27465   79.802
 6291.00    1.25188   1.27292   79.886
 6292.00    1.24953   1.27176   80.036
 6293.00    1.24014   1.27032   80.717
 6294.00    1.21299   1.26795   81.229
 6295.00    1.18876   1.26483   -1.000
 6296.00    1.13732   1.26189   -1.000
 6297.00    1.05804   1.26006   -1.000
 6298.00    1.05769   1.25947   -1.000
 6299.00    1.14170   1.25941   -1.000
 6300.00    1.22118   1.25970   82.191
 6301.00    1.23578   1.26130   81.308
 6302.00    1.23029   1.26495   79.969
 6303.00    1.24445   1.26979   79.028
 6304.00    1.24930   1.27403   78.383
 6305.00    1.25379   1.27678   77.660
 6306.00    1.26317   1.27860   77.606
 6307.00    1.25951   1.28027   77.996
 6308.00    1.25759   1.28200   78.546
 6309.00    1.26661   1.28329   78.817
 6310.00    1.26695   1.28354   79.149
 6311.00    1.25949   1.28257   79.190
 6312.00    1.25899   1.28078   80.012
 6313.00    1.24978   1.27875   80.231
 6314.00    1.24220   1.27687   80.144
 6315.00    1.23990   1.27516   80.068
 6316.00    1.24357   1.27357   80.204
 6317.00    1.24108   1.27275   79.857
 6318.00    1.24276   1.27395   78.813
 6319.00    1.24655   1.27722   78.073
 6320.00    1.25090   1.28130   77.826
 6321.00    1.26178   1.28513   77.563
 6322.00    1.26246   1.28858   77.122
 6323.00    1.26429   1.29162   76.904
 6324.00    1.26993   1.29365   76.884
 6325.00    1.26867   1.29430   76.451
 6326.00    1.26736   1.29402   76.587
 6327.00    1.27677   1.29342   76.631
 6328.00    1.27413   1.29295   76.686
 6329.00    1.27340   1.29286   76.364
 6330.00    1.26649   1.29312   76.262
 6331.00    1.26466   1.29295   76.508
 6332.00    1.26200   1.29104   76.693
 6333.00    1.29904   1.28667   78.699
 6334.00    1.33251   1.28103   -1.000
 6335.00    1.24407   1.27718   77.913
 6336.00    1.24065   1.27729   77.111
 6337.00    1.24793   1.28079   76.252
 6338.00    1.25523   1.28533   75.939
 6339.00    1.26463   1.28899   75.559
 6340.00    1.26868   1.29118   75.672
 6341.00    1.26725   1.29200   76.433
 6342.00    1.26709   1.29147   76.461
 6343.00    1.26317   1.28978   76.220
 6344.00    1.25428   1.28765   75.784
 6345.00    1.25874   1.28623   75.238
 6346.00    1.26264   1.28655   74.984
 6347.00    1.26629   1.28889   75.035
 6348.00    1.26079   1.29267   74.843
 6349.00    1.26433   1.29656   74.945
 6350.00    1.26321   1.29915   75.297
 6351.00    1.26501   1.29965   75.644
 6352.00    1.26153   1.29830   76.584
 6353.00    1.26017   1.29615   77.209
 6354.00    1.25767   1.29424   77.172
 6355.00    1.25376   1.29282   77.431
 6356.00    1.25346   1.29156   78.395
 6357.00    1.24301   1.29007   78.650
 6358.00    1.23265   1.28842   78.265
 6359.00    1.21706   1.28687   -1.000
 6360.00    1.21319   1.28549   -1.000
 6361.00    1.19962   1.28434   -1.000
 6362.00    1.21813   1.28404   -1.000
 6363.00    1.24430   1.28524   76.650
 6364.00    1.25463   1.28755   76.247
 6365.00    1.25933   1.28995   75.751
 6366.00    1.26631   1.29171   75.245
 6367.00    1.26346   1.29245   75.089
 6368.00    1.26316   1.29204   75.166
 6369.00    1.25400   1.29091   74.873
 6370.00    1.24955   1.28985   74.579
 6371.00    1.25096   1.28968   74.833
 6372.00    1.25216   1.29077   74.871
 6373.00    1.25804   1.29240   75.048
 6374.00    1.24494   1.29338   75.340
 6375.00    1.24020   1.29321   75.736
 6376.00    1.24261   1.29218   76.267
 6377.00    1.24095   1.29083   76.527
 6378.00    1.24219   1.28939   76.555
 6379.00    1.23680   1.28798   76.715
 6380.00    1.23077   1.28691   76.672
 6381.00    1.22967   1.28652   76.453
 6382.00    1.22729   1.28696   76.875
 6383.00    1.22698   1.28805   77.020
 6384.00    1.22419   1.28940   -1.000
 6385.00    1.21597   1.29085   -1.000
 6386.00    1.21419   1.29223   -1.000
 6387.00    1.21871   1.29303   -1.000
 6388.00    1.20754   1.29271   -1.000
 6389.00    1.20117   1.29072   -1.000
 6390.00    1.19795   1.28667   -1.000
 6391.00    1.19317   1.28125   -1.000
 6392.00    1.18075   1.27673   -1.000
 6393.00    1.17343   1.27566   -1.000
 6394.00    1.16815   1.27837   -1.000
 6395.00    1.17237   1.28245   -1.000
 6396.00    1.16967   1.28459   -1.000
 6397.00    1.16819   1.28315   -1.000
 6398.00    1.15057   1.27949   -1.000
 6399.00    1.14272   1.27689   -1.000
 6400.00    1.13163   1.27798   -1.000
 6401.00    1.13935   1.28254   -1.000
 6402.00    1.14723   1.28811   -1.000
 6403.00    1.15190   1.29195   -1.000
 6404.00    1.14606   1.29253   -1.000
 6405.00    1.13760   1.28966   -1.000
 6406.00    1.12252   1.28432   -1.000
 6407.00    1.11518   1.27858   -1.000
 6408.00    1.10121   1.27562   -1.000
 6409.00    1.09788   1.27665   -1.000
 6410.00    1.09137   1.27939   -1.000
 6411.00    1.07814   1.28180   -1.000
 6412.00    1.08364   1.28360   -1.000
 6413.00    1.07643   1.28533   -1.000
 6414.00    1.07182   1.28707   -1.000
 6415.00    1.07047   1.28874   -1.000
 6416.00    1.06956   1.28982   -1.000
 6417.00    1.04929   1.28941   -1.000
 6418.00    1.03731   1.28703   -1.000
 6419.00    1.02263   1.28367   -1.000
 6420.00    1.01937   1.28169   -1.000
 6421.00    1.00624   1.28290   -1.000
 6422.00    0.99224   1.28703   -1.000
 6423.00    0.99280   1.29228   -1.000
 6424.00    0.98811   1.29687   -1.000
 6425.00    0.98275   1.29987   -1.000
 6426.00    0.97824   1.30063   -1.000
 6427.00    0.96462   1.29834   -1.000
 6428.00    0.93287   1.29304   -1.000
