###################################################################
## OUTPUT of StarlightChains_v04.for    [Cid@UFSC - 01/Apr/2007] ##
###################################################################

## Some input info
NGC5286_b_1.cxt                          [arq_obs]
Base.BC03.S                              [arq_base]
NGC5286_b_1.msk                          [arq_masks]
StCv04.C99.config                        [arq_config]
  150                                    [N_base]
    0                                    [N_YAV_components = # of components with extra extinction!]
    0                                    [i_FitPowerLaw (1/0 = Yes/No)]
-9.99                                    [alpha_PowerLaw]
CCM                                      [red_law_option]
 1.458241                                [q_norm = A(l_norm)/A(V)]

## (Re)Sampling Parameters
 3359.00                                 [l_ini (A)]
 6428.00                                 [l_fin (A)]
    1.00                                 [dl    (A)]     (OBS: dl_cushion =    50.00 A)

## Normalization info
 4020.00                                 [l_norm (A) - for base]
 4010.00                                 [llow_norm (A) - window for f_obs]
 4060.00                                 [lupp_norm (A) - window for f_obs]
1.497078E-14                             [fobs_norm (in input units)]

## S/N
 4730.00                                 [llow_SN (A) - window for S/N]
 4780.00                                 [lupp_SN (A) - window for S/N]
 111.377                                 [S/N in S/N window]
  94.497                                 [S/N in norm. window]
  66.783                                 [S/N_err in S/N window]
  56.662                                 [S/N_err in norm. window]
  1.0000                                 [fscale_chi2]

## etc...
  2147483637                             [idum_orig]
  3065                                   [NOl_eff]
  2313                                   [Nl_eff]
   752    NSIGMA                         [Ntot_cliped & clip_method]
  3564890                                [Nglobal_steps]
   7                                     [N_chains]
  20                                     [NEX0s_base = N_base in EX0s-fits]
 0   0   1      308   2.0   8.979E+02    [Clip-Bug, RC-Crash & Burn-In warning-flags, n_censored_weights, wei_nsig_threshold & wei_limit]
   148    146.928    146.908      0.020  [idt_all, wdt_TotTime, wdt_UsrTime & wdt_SysTime (sec)]

## Synthesis Results - Best model ##

 2.07070E+00                             [chi2/Nl_eff]
     1.61664                             [adev (%)]

   101.90338                             [sum-of-x (%)]
 4.64871E-14                             [Flux_tot (units of input spectrum!)]
 6.46834E-10                             [Mini_tot (???)]
 3.34080E-10                             [Mcor_tot (???)]

 -29.35                                  [v0_min  (km/s)]
 100.61                                  [vd_min  (km/s)]
 0.8296                                  [AV_min  (mag)]
 0.0000                                  [YAV_min (mag)]

# j     x_j(%)      Mini_j(%)     Mcor_j(%)     age_j(yr)     Z_j      (L/M)_j    YAV?  Mstars   component_j        a/Fe...       SSP_chi2r SSP_adev(%)   SSP_AV   SSP_x(%)
  1      0.0000     0.0000E+00    0.0000E+00    1.000000E+06  0.00010  8.160E-03    0   1.0000   age020_m22            0.0000     3.0193E+02    16.9486   4.0000    67.8192
  2     25.0848     3.7175E-02    7.1976E-02    3.160000E+06  0.00010  4.759E-02    0   1.0000   age045_m22            0.0000     2.1326E+01     3.4529   2.1382    94.1963
  3      0.0000     1.5677E-08    2.9085E-08    5.010000E+06  0.00010  1.932E-02    0   0.9582   age055_m22            0.0000     1.6999E+02    11.7817   2.6822    73.3543
  4      0.0000     0.0000E+00    0.0000E+00    6.610000E+06  0.00010  9.973E-03    0   0.9297   age061_m22            0.0000     2.7477E+02    15.6088   4.0000    70.5924
  5      0.0000     0.0000E+00    0.0000E+00    8.710000E+06  0.00010  7.690E-03    0   0.9030   age067_m22            0.0000     2.5793E+02    15.0006   4.0000    71.2383
  6      0.0000     0.0000E+00    0.0000E+00    1.000000E+07  0.00010  6.375E-03    0   0.8902   age070_m22            0.0000     2.5295E+02    14.9586   4.0000    71.6302
  7      0.0000     0.0000E+00    0.0000E+00    1.445000E+07  0.00010  4.874E-03    0   0.8589   age078_m22            0.0000     1.3819E+02     9.6472   4.0000    75.3677
  8      0.0000     0.0000E+00    0.0000E+00    2.512000E+07  0.00010  4.103E-03    0   0.8174   age090_m22            0.0000     4.8218E+01     5.8453   3.5898    85.1230
  9      0.0332     6.4157E-04    9.7263E-04    4.000000E+07  0.00010  3.654E-03    0   0.7830   age104_m22            0.0000     3.8823E+01     3.7271   3.1604    94.4189
 10      0.0770     1.7551E-03    2.5816E-03    5.500000E+07  0.00010  3.093E-03    0   0.7597   age110_m22            0.0000     4.4995E+01     3.3776   3.0015    98.2374
 11      0.0000     0.0000E+00    0.0000E+00    1.015200E+08  0.00010  2.431E-03    0   0.7138   age116_m22            0.0000     7.8359E+01     4.2653   2.5661   104.8506
 12      0.0000     0.0000E+00    0.0000E+00    1.609000E+08  0.00010  1.319E-03    0   0.6775   age120_m22            0.0000     5.9492E+01     4.9648   2.0546   109.2112
 13      0.0000     0.0000E+00    0.0000E+00    2.861200E+08  0.00010  1.075E-03    0   0.6412   age125_m22            0.0000     2.2539E+02    11.3519   1.8183   125.7570
 14      0.0000     0.0000E+00    0.0000E+00    5.088000E+08  0.00010  7.183E-04    0   0.6083   age130_m22            0.0000     2.8068E+02    13.5426   1.4790   132.6490
 15      0.0000     0.0000E+00    0.0000E+00    9.047900E+08  0.00010  4.524E-04    0   0.5785   age135_m22            0.0000     2.7884E+02    13.9161   1.2616   134.9893
 16      0.0000     0.0000E+00    0.0000E+00    1.278050E+09  0.00010  3.018E-04    0   0.5588   age138_m22            0.0000     9.9603E+01     8.7646   0.9779   121.9958
 17      0.0000     0.0000E+00    0.0000E+00    1.434000E+09  0.00010  2.691E-04    0   0.5532   age139_m22            0.0000     7.5159E+01     7.7623   0.8692   119.2758
 18      0.0000     0.0000E+00    0.0000E+00    2.500000E+09  0.00010  1.582E-04    0   0.5296   age150_m22            0.0000     5.9035E+01     6.6277   0.8015   118.0935
 19      0.0000     0.0000E+00    0.0000E+00    4.250000E+09  0.00010  1.007E-04    0   0.5110   age158_m22            0.0000     2.3049E+01     4.4334   0.7523   111.7765
 20      0.0000     0.0000E+00    0.0000E+00    6.250000E+09  0.00010  6.869E-05    0   0.4985   age166_m22            0.0000     7.2410E+00     2.5666   0.7898   104.7952
 21      0.0000     0.0000E+00    0.0000E+00    7.500000E+09  0.00010  5.873E-05    0   0.4931   age171_m22            0.0000     6.1444E+00     2.2500   0.7975   103.3973
 22      0.0000     0.0000E+00    0.0000E+00    1.000000E+10  0.00010  4.481E-05    0   0.4854   age181_m22            0.0000     5.7180E+00     2.2301   0.7605   102.9771
 23      0.0384     7.7686E-02    7.2063E-02    1.300000E+10  0.00010  3.489E-05    0   0.4791   age193_m22            0.0000     5.2249E+00     2.1476   0.7097   102.1871
 24      0.0000     0.0000E+00    0.0000E+00    1.500000E+10  0.00010  3.035E-05    0   0.4766   age201_m22            0.0000     5.0220E+00     2.0812   0.6760   101.7834
 25      0.0000     0.0000E+00    0.0000E+00    1.800000E+10  0.00010  2.510E-05    0   0.4735   age213_m22            0.0000     5.1337E+00     1.9356   0.6225   100.5731
 26      0.0000     0.0000E+00    0.0000E+00    1.000000E+06  0.00040  8.458E-03    0   1.0000   age020_m32            0.0000     3.0520E+02    17.1283   4.0000    68.5220
 27      0.0000     0.0000E+00    0.0000E+00    3.160000E+06  0.00040  3.973E-02    0   1.0000   age045_m32            0.0000     5.5533E+01     6.3188   3.5026    84.4666
 28      0.0000     0.0000E+00    0.0000E+00    5.010000E+06  0.00040  1.935E-02    0   0.9532   age055_m32            0.0000     1.3461E+02    10.3897   3.8507    74.8684
 29      0.0000     0.0000E+00    0.0000E+00    6.610000E+06  0.00040  1.204E-02    0   0.9243   age061_m32            0.0000     1.8094E+02    11.5717   4.0000    73.1112
 30      0.0000     0.0000E+00    0.0000E+00    8.710000E+06  0.00040  9.433E-03    0   0.9001   age067_m32            0.0000     1.5363E+02    10.4562   4.0000    74.3835
 31      0.0000     0.0000E+00    0.0000E+00    1.000000E+07  0.00040  8.053E-03    0   0.8877   age070_m32            0.0000     1.4068E+02     9.8283   4.0000    74.9311
 32      0.0000     0.0000E+00    0.0000E+00    1.445000E+07  0.00040  7.027E-03    0   0.8578   age078_m32            0.0000     7.0425E+01     7.5139   3.4966    82.0102
 33      0.0000     0.0000E+00    0.0000E+00    2.512000E+07  0.00040  4.707E-03    0   0.8166   age090_m32            0.0000     3.8353E+01     5.3775   3.1234    88.5754
 34      0.0000     0.0000E+00    0.0000E+00    4.000000E+07  0.00040  3.714E-03    0   0.7827   age104_m32            0.0000     3.0752E+01     3.7395   2.8233    95.4721
 35      0.0000     0.0000E+00    0.0000E+00    5.500000E+07  0.00040  2.982E-03    0   0.7593   age110_m32            0.0000     3.7216E+01     3.4008   2.7132    98.5716
 36      0.0000     0.0000E+00    0.0000E+00    1.015200E+08  0.00040  2.188E-03    0   0.7143   age116_m32            0.0000     1.1791E+02     6.4321   2.2350   111.7372
 37      0.0000     0.0000E+00    0.0000E+00    1.609000E+08  0.00040  1.690E-03    0   0.6856   age120_m32            0.0000     1.9551E+02     9.1876   1.8920   120.4506
 38      0.0000     0.0000E+00    0.0000E+00    2.861200E+08  0.00040  1.152E-03    0   0.6509   age125_m32            0.0000     2.3672E+02    11.9565   1.5366   128.6070
 39      0.0000     0.0000E+00    0.0000E+00    5.088000E+08  0.00040  7.331E-04    0   0.6182   age130_m32            0.0000     2.5625E+02    13.1271   1.3186   131.9655
 40      0.0000     0.0000E+00    0.0000E+00    9.047900E+08  0.00040  3.960E-04    0   0.5890   age135_m32            0.0000     1.0399E+02     9.3906   1.0524   121.9203
 41      0.0000     0.0000E+00    0.0000E+00    1.278050E+09  0.00040  2.854E-04    0   0.5687   age138_m32            0.0000     7.3114E+01     7.5702   0.8294   120.8963
 42      0.0000     0.0000E+00    0.0000E+00    1.434000E+09  0.00040  2.531E-04    0   0.5632   age139_m32            0.0000     7.0985E+01     7.3648   0.7737   120.5508
 43     15.6435     7.4145E+00    7.7320E+00    2.500000E+09  0.00040  1.488E-04    0   0.5386   age150_m32            0.0000     4.4730E+01     5.8544   0.5834   115.5130
 44     44.7774     3.4772E+01    3.5002E+01    4.250000E+09  0.00040  9.082E-05    0   0.5199   age158_m32            0.0000     7.5108E+00     2.7624   0.6349   105.6428
 45      3.3731     3.7393E+00    3.6750E+00    6.250000E+09  0.00040  6.362E-05    0   0.5076   age166_m32            0.0000     9.6377E+00     2.0611   0.7048    97.6589
 46      3.8797     5.1734E+00    5.0353E+00    7.500000E+09  0.00040  5.289E-05    0   0.5027   age171_m32            0.0000     1.3559E+01     2.2822   0.6848    95.8052
 47      1.2533     2.2253E+00    2.1319E+00    1.000000E+10  0.00040  3.972E-05    0   0.4948   age181_m32            0.0000     1.7184E+01     2.4324   0.6295    94.2656
 48      0.0193     4.1555E-02    3.9183E-02    1.300000E+10  0.00040  3.283E-05    0   0.4870   age193_m32            0.0000     8.4563E+00     2.1063   0.5293    99.2259
 49      0.0000     0.0000E+00    0.0000E+00    1.500000E+10  0.00040  2.925E-05    0   0.4854   age201_m32            0.0000     6.6347E+00     2.3253   0.4754   102.2765
 50      0.0000     0.0000E+00    0.0000E+00    1.800000E+10  0.00040  2.469E-05    0   0.4819   age213_m32            0.0000     7.0098E+00     2.5423   0.4197   103.4438
 51      0.0000     0.0000E+00    0.0000E+00    1.000000E+06  0.00400  1.114E-02    0   1.0000   age020_m42            0.0000     2.6545E+02    15.0726   4.0000    69.1259
 52      0.0000     0.0000E+00    0.0000E+00    3.160000E+06  0.00400  4.073E-02    0   0.9999   age045_m42            0.0000     3.3879E+01     4.6530   3.1486    88.9431
 53      0.0000     0.0000E+00    0.0000E+00    5.010000E+06  0.00400  2.534E-02    0   0.9488   age055_m42            0.0000     8.7459E+01     8.1377   3.6766    78.7383
 54      1.0125     2.7646E-03    4.9353E-03    6.610000E+06  0.00400  2.583E-02    0   0.9220   age061_m42            0.0000     3.1098E+01     3.9710   2.9334    90.9615
 55      0.0000     0.0000E+00    0.0000E+00    8.710000E+06  0.00400  1.706E-02    0   0.8983   age067_m42            0.0000     4.4169E+01     6.2645   2.8434    86.0325
 56      0.0000     0.0000E+00    0.0000E+00    1.000000E+07  0.00400  1.271E-02    0   0.8862   age070_m42            0.0000     6.6298E+01     8.1615   2.8795    82.8347
 57      0.0000     0.0000E+00    0.0000E+00    1.445000E+07  0.00400  7.666E-03    0   0.8571   age078_m42            0.0000     1.0131E+02     9.2495   3.3267    78.4000
 58      0.0000     0.0000E+00    0.0000E+00    2.512000E+07  0.00400  5.070E-03    0   0.8174   age090_m42            0.0000     6.1730E+01     7.5174   2.7279    85.2376
 59      0.0000     0.0000E+00    0.0000E+00    4.000000E+07  0.00400  3.505E-03    0   0.7851   age104_m42            0.0000     4.7442E+01     5.4245   2.3482    90.6614
 60      0.0000     0.0000E+00    0.0000E+00    5.500000E+07  0.00400  3.059E-03    0   0.7629   age110_m42            0.0000     3.2117E+01     2.9911   2.2172   102.6357
 61      0.0000     0.0000E+00    0.0000E+00    1.015200E+08  0.00400  2.268E-03    0   0.7207   age116_m42            0.0000     1.5628E+02     8.8537   1.8293   120.4463
 62      0.0000     0.0000E+00    0.0000E+00    1.609000E+08  0.00400  1.720E-03    0   0.6930   age120_m42            0.0000     1.6828E+02    10.0005   1.6311   124.7567
 63      0.0000     0.0000E+00    0.0000E+00    2.861200E+08  0.00400  1.079E-03    0   0.6613   age125_m42            0.0000     1.5423E+02    10.2834   1.2652   126.2071
 64      0.0000     0.0000E+00    0.0000E+00    5.088000E+08  0.00400  6.261E-04    0   0.6313   age130_m42            0.0000     1.9138E+02    11.4328   1.0089   132.2880
 65      0.0000     0.0000E+00    0.0000E+00    9.047900E+08  0.00400  3.535E-04    0   0.6024   age135_m42            0.0000     9.6077E+01     8.5556   0.7551   125.9051
 66      0.0000     0.0000E+00    0.0000E+00    1.278050E+09  0.00400  2.677E-04    0   0.5837   age138_m42            0.0000     5.7963E+01     6.3312   0.2400   115.6191
 67      0.0000     0.0000E+00    0.0000E+00    1.434000E+09  0.00400  1.910E-04    0   0.5716   age139_m42            0.0000     5.1125E+01     6.7453   0.3625   118.4968
 68      0.0000     0.0000E+00    0.0000E+00    2.500000E+09  0.00400  9.818E-05    0   0.5463   age150_m42            0.0000     4.2438E+01     4.7534   0.2571   106.4286
 69      0.0000     0.0000E+00    0.0000E+00    4.250000E+09  0.00400  5.491E-05    0   0.5269   age158_m42            0.0000     5.9649E+01     4.4122   0.2009   100.8184
 70      0.0000     0.0000E+00    0.0000E+00    6.250000E+09  0.00400  3.857E-05    0   0.5151   age166_m42            0.0000     7.2632E+01     4.9267   0.0969    98.6635
 71      0.0000     0.0000E+00    0.0000E+00    7.500000E+09  0.00400  3.243E-05    0   0.5110   age171_m42            0.0000     8.2961E+01     5.4828   0.0000    97.9795
 72      0.7892     2.2963E+00    2.2354E+00    1.000000E+10  0.00400  2.424E-05    0   0.5028   age181_m42            0.0000     1.0230E+02     5.7532  -0.0431    96.8790
 73      0.0000     0.0000E+00    0.0000E+00    1.300000E+10  0.00400  1.883E-05    0   0.4927   age193_m42            0.0000     1.2576E+02     6.0614  -0.0718    96.1962
 74      0.0000     0.0000E+00    0.0000E+00    1.500000E+10  0.00400  1.685E-05    0   0.4919   age201_m42            0.0000     1.2042E+02     5.9677  -0.0680    96.2162
 75      0.0000     0.0000E+00    0.0000E+00    1.800000E+10  0.00400  1.452E-05    0   0.4874   age213_m42            0.0000     1.1248E+02     5.7980  -0.0545    96.5276
 76      0.0000     0.0000E+00    0.0000E+00    1.000000E+06  0.00800  1.286E-02    0   1.0000   age020_m52            0.0000     2.3075E+02    13.3238   4.0000    71.4847
 77      0.0000     0.0000E+00    0.0000E+00    3.160000E+06  0.00800  3.147E-02    0   0.9966   age045_m52            0.0000     1.8743E+02    11.4248   4.0000    72.9843
 78      0.0000     0.0000E+00    0.0000E+00    5.010000E+06  0.00800  2.664E-02    0   0.9443   age055_m52            0.0000     1.1636E+02     8.7648   3.8159    77.2852
 79      0.0000     0.0000E+00    0.0000E+00    6.610000E+06  0.00800  2.151E-02    0   0.9177   age061_m52            0.0000     7.5433E+01     7.3092   2.4693    84.8223
 80      0.0000     0.0000E+00    0.0000E+00    8.710000E+06  0.00800  1.628E-02    0   0.8948   age067_m52            0.0000     6.4054E+01     6.8802   2.8123    86.2170
 81      0.0000     0.0000E+00    0.0000E+00    1.000000E+07  0.00800  1.215E-02    0   0.8827   age070_m52            0.0000     8.0993E+01     7.6386   3.1752    83.6643
 82      0.0000     0.0000E+00    0.0000E+00    1.445000E+07  0.00800  8.739E-03    0   0.8552   age078_m52            0.0000     6.4109E+01     6.4797   3.1781    86.2743
 83      0.0000     0.0000E+00    0.0000E+00    2.512000E+07  0.00800  5.676E-03    0   0.8162   age090_m52            0.0000     4.7769E+01     4.6211   2.6740    94.7315
 84      0.0000     0.0000E+00    0.0000E+00    4.000000E+07  0.00800  3.939E-03    0   0.7841   age104_m52            0.0000     4.8640E+01     3.2853   2.4227   100.9334
 85      0.0000     0.0000E+00    0.0000E+00    5.500000E+07  0.00800  3.155E-03    0   0.7627   age110_m52            0.0000     5.9755E+01     3.8095   2.3126   106.0178
 86      0.0000     0.0000E+00    0.0000E+00    1.015200E+08  0.00800  2.206E-03    0   0.7226   age116_m52            0.0000     1.0587E+02     7.1478   1.9691   116.8963
 87      0.0000     0.0000E+00    0.0000E+00    1.609000E+08  0.00800  1.596E-03    0   0.6963   age120_m52            0.0000     1.2707E+02     8.6797   1.6864   121.8291
 88      0.0000     0.0000E+00    0.0000E+00    2.861200E+08  0.00800  1.002E-03    0   0.6665   age125_m52            0.0000     2.0705E+02    12.4197   1.2218   132.8104
 89      0.0000     0.0000E+00    0.0000E+00    5.088000E+08  0.00800  5.759E-04    0   0.6377   age130_m52            0.0000     2.1199E+02    13.6061   0.8226   140.0157
 90      0.0000     0.0000E+00    0.0000E+00    9.047900E+08  0.00800  2.972E-04    0   0.6086   age135_m52            0.0000     9.8315E+01    10.2114   0.4878   129.4012
 91      0.0000     0.0000E+00    0.0000E+00    1.278050E+09  0.00800  2.242E-04    0   0.5907   age138_m52            0.0000     8.3963E+01     7.2400   0.0765   118.6059
 92      0.0000     0.0000E+00    0.0000E+00    1.434000E+09  0.00800  1.645E-04    0   0.5787   age139_m52            0.0000     7.3006E+01     6.5256   0.2421   117.1598
 93      0.0000     0.0000E+00    0.0000E+00    2.500000E+09  0.00800  7.723E-05    0   0.5519   age150_m52            0.0000     9.4873E+01     5.9534   0.0000   108.4849
 94      0.0000     0.0000E+00    0.0000E+00    4.250000E+09  0.00800  4.151E-05    0   0.5320   age158_m52            0.0000     9.0000E+01     5.6492  -0.0153   104.0170
 95      0.0000     0.0000E+00    0.0000E+00    6.250000E+09  0.00800  3.010E-05    0   0.5197   age166_m52            0.0000     1.2326E+02     6.3539  -0.1873   101.8058
 96      0.0000     0.0000E+00    0.0000E+00    7.500000E+09  0.00800  2.467E-05    0   0.5139   age171_m52            0.0000     1.3301E+02     6.5792  -0.2270   101.3529
 97      0.0000     0.0000E+00    0.0000E+00    1.000000E+10  0.00800  1.862E-05    0   0.5054   age181_m52            0.0000     1.6449E+02     7.3095  -0.3592   101.1293
 98      0.0000     0.0000E+00    0.0000E+00    1.300000E+10  0.00800  1.433E-05    0   0.4988   age193_m52            0.0000     2.1851E+02     7.9760  -0.4525   101.7764
 99      0.0000     0.0000E+00    0.0000E+00    1.500000E+10  0.00800  1.244E-05    0   0.4936   age201_m52            0.0000     2.4370E+02     8.2152  -0.4822   102.2437
100      0.0000     0.0000E+00    0.0000E+00    1.800000E+10  0.00800  1.070E-05    0   0.4888   age213_m52            0.0000     2.5556E+02     8.4239  -0.5181   102.1851
101      0.0000     0.0000E+00    0.0000E+00    1.000000E+06  0.02000  1.989E-02    0   1.0000   age020_m62            0.0000     2.5561E+02    14.0743   4.0000    69.9274
102      0.0000     0.0000E+00    0.0000E+00    3.160000E+06  0.02000  3.772E-02    0   0.9858   age045_m62            0.0000     1.8159E+02    11.1610   4.0000    72.1880
103      0.0000     0.0000E+00    0.0000E+00    5.010000E+06  0.02000  3.227E-02    0   0.9342   age055_m62            0.0000     5.3799E+01     6.3518   3.4715    83.6024
104      0.0000     0.0000E+00    0.0000E+00    6.610000E+06  0.02000  2.387E-02    0   0.9090   age061_m62            0.0000     8.4716E+01     8.7686   3.2852    80.7668
105      0.0000     0.0000E+00    0.0000E+00    8.710000E+06  0.02000  1.102E-02    0   0.8861   age067_m62            0.0000     2.3856E+02    15.5902   3.0562    71.5871
106      0.0000     0.0000E+00    0.0000E+00    1.000000E+07  0.02000  1.011E-02    0   0.8751   age070_m62            0.0000     1.7571E+02    12.9579   3.0243    75.5884
107      0.0000     0.0000E+00    0.0000E+00    1.445000E+07  0.02000  7.331E-03    0   0.8472   age078_m62            0.0000     1.3268E+02    10.6759   2.9941    78.6400
108      0.0000     0.0000E+00    0.0000E+00    2.512000E+07  0.02000  4.206E-03    0   0.8099   age090_m62            0.0000     1.5521E+02    10.7369   2.9083    78.3102
109      0.0000     0.0000E+00    0.0000E+00    4.000000E+07  0.02000  3.373E-03    0   0.7799   age104_m62            0.0000     4.9785E+01     4.5363   2.4981    94.6234
110      0.0000     0.0000E+00    0.0000E+00    5.500000E+07  0.02000  2.747E-03    0   0.7595   age110_m62            0.0000     4.6308E+01     3.5204   2.3008   103.4083
111      0.0000     0.0000E+00    0.0000E+00    1.015200E+08  0.02000  1.878E-03    0   0.7221   age116_m62            0.0000     1.1726E+02     7.3371   1.9321   118.2269
112      0.0000     0.0000E+00    0.0000E+00    1.609000E+08  0.02000  1.378E-03    0   0.6978   age120_m62            0.0000     1.8688E+02    10.4091   1.6329   127.5842
113      0.0000     0.0000E+00    0.0000E+00    2.861200E+08  0.02000  8.869E-04    0   0.6700   age125_m62            0.0000     3.1748E+02    14.8015   1.0414   142.9379
114      0.0000     0.0000E+00    0.0000E+00    5.088000E+08  0.02000  4.834E-04    0   0.6430   age130_m62            0.0000     2.3867E+02    14.5376   0.6413   144.2451
115      0.0000     0.0000E+00    0.0000E+00    9.047900E+08  0.02000  2.312E-04    0   0.6152   age135_m62            0.0000     9.0676E+01     9.6902   0.3145   130.3296
116      0.0000     0.0000E+00    0.0000E+00    1.278050E+09  0.02000  1.387E-04    0   0.5927   age138_m62            0.0000     5.7854E+01     6.5563   0.1254   116.7869
117      0.0000     0.0000E+00    0.0000E+00    1.434000E+09  0.02000  1.168E-04    0   0.5865   age139_m62            0.0000     6.0834E+01     6.1511   0.1369   113.4691
118      0.0000     0.0000E+00    0.0000E+00    2.500000E+09  0.02000  5.505E-05    0   0.5610   age150_m62            0.0000     1.0429E+02     6.5422  -0.1542   106.9604
119      0.0000     0.0000E+00    0.0000E+00    4.250000E+09  0.02000  3.070E-05    0   0.5407   age158_m62            0.0000     1.7817E+02     8.1090  -0.4458   106.8527
120      0.0000     0.0000E+00    0.0000E+00    6.250000E+09  0.02000  2.104E-05    0   0.5277   age166_m62            0.0000     2.3290E+02     8.8508  -0.5774   107.3109
121      0.0000     0.0000E+00    0.0000E+00    7.500000E+09  0.02000  1.770E-05    0   0.5223   age171_m62            0.0000     2.5815E+02     9.3035  -0.6718   107.9729
122      0.0000     0.0000E+00    0.0000E+00    1.000000E+10  0.02000  1.297E-05    0   0.5121   age181_m62            0.0000     3.1839E+02    10.1739  -0.8398   108.9603
123      0.0000     0.0000E+00    0.0000E+00    1.300000E+10  0.02000  9.691E-06    0   0.5047   age193_m62            0.0000     3.6636E+02    10.7254  -0.9304   109.6466
124      0.0000     0.0000E+00    0.0000E+00    1.500000E+10  0.02000  8.360E-06    0   0.4999   age201_m62            0.0000     4.0201E+02    11.1563  -1.0000   110.2987
125      0.0000     0.0000E+00    0.0000E+00    1.800000E+10  0.02000  6.911E-06    0   0.4946   age213_m62            0.0000     4.4784E+02    11.4996  -1.0000   110.7782
126      0.0000     0.0000E+00    0.0000E+00    1.000000E+06  0.05000  2.651E-02    0   0.9998   age020_m72            0.0000     2.4639E+02    13.5123   4.0000    71.1147
127      0.0000     0.0000E+00    0.0000E+00    3.160000E+06  0.05000  4.817E-02    0   0.9577   age045_m72            0.0000     1.1572E+02     8.8650   3.9356    76.5882
128      0.0000     0.0000E+00    0.0000E+00    5.010000E+06  0.05000  3.101E-02    0   0.9147   age055_m72            0.0000     1.0328E+02     8.6633   3.5683    79.4129
129      0.0000     0.0000E+00    0.0000E+00    6.610000E+06  0.05000  1.472E-02    0   0.8877   age061_m72            0.0000     2.0935E+02    13.2666   3.2271    74.2369
130      0.0000     0.0000E+00    0.0000E+00    8.710000E+06  0.05000  1.050E-02    0   0.8638   age067_m72            0.0000     1.6718E+02    10.7198   3.5706    76.5660
131      0.0000     0.0000E+00    0.0000E+00    1.000000E+07  0.05000  8.954E-03    0   0.8524   age070_m72            0.0000     1.3832E+02     8.7822   3.8063    78.1988
132      0.0000     0.0000E+00    0.0000E+00    1.445000E+07  0.05000  6.392E-03    0   0.8262   age078_m72            0.0000     1.2431E+02     7.9847   3.7287    80.0916
133      0.0000     0.0000E+00    0.0000E+00    2.512000E+07  0.05000  4.207E-03    0   0.7902   age090_m72            0.0000     7.6602E+01     5.6098   3.2556    87.7691
134      0.0000     0.0000E+00    0.0000E+00    4.000000E+07  0.05000  3.198E-03    0   0.7618   age104_m72            0.0000     6.4152E+01     4.8509   2.4487   107.5194
135      0.0000     0.0000E+00    0.0000E+00    5.500000E+07  0.05000  2.593E-03    0   0.7432   age110_m72            0.0000     8.8090E+01     6.2001   2.2742   112.8541
136      0.0000     0.0000E+00    0.0000E+00    1.015200E+08  0.05000  1.716E-03    0   0.7092   age116_m72            0.0000     1.5018E+02     8.6968   1.9476   121.4381
137      0.0000     0.0000E+00    0.0000E+00    1.609000E+08  0.05000  1.218E-03    0   0.6876   age120_m72            0.0000     2.3797E+02    11.9677   1.5247   131.5384
138      0.0000     0.0000E+00    0.0000E+00    2.861200E+08  0.05000  7.047E-04    0   0.6618   age125_m72            0.0000     3.1156E+02    15.2179   0.8263   143.6198
139      0.0000     0.0000E+00    0.0000E+00    5.088000E+08  0.05000  3.590E-04    0   0.6356   age130_m72            0.0000     2.0704E+02    13.8048   0.3430   142.4422
140      0.0000     0.0000E+00    0.0000E+00    9.047900E+08  0.05000  1.484E-04    0   0.6088   age135_m72            0.0000     7.8104E+01     8.2570  -0.0294   118.4878
141      0.0000     0.0000E+00    0.0000E+00    1.278050E+09  0.05000  9.435E-05    0   0.5924   age138_m72            0.0000     1.1897E+02     8.5091  -0.3465   111.6201
142      0.0000     0.0000E+00    0.0000E+00    1.434000E+09  0.05000  7.827E-05    0   0.5847   age139_m72            0.0000     1.2594E+02     8.1520  -0.3048   109.7920
143      0.0000     0.0000E+00    0.0000E+00    2.500000E+09  0.05000  3.759E-05    0   0.5583   age150_m72            0.0000     2.1433E+02     8.9692  -0.5839   107.1111
144      1.6963     6.4948E+00    6.7578E+00    4.250000E+09  0.05000  1.842E-05    0   0.5374   age158_m72            0.0000     2.8608E+02    10.0626  -0.9086   106.9621
145      1.3309     7.7766E+00    7.8927E+00    6.250000E+09  0.05000  1.207E-05    0   0.5242   age166_m72            0.0000     3.6898E+02    11.9464  -1.0000   106.9167
146      1.5354     1.0836E+01    1.0874E+01    7.500000E+09  0.05000  9.993E-06    0   0.5183   age171_m72            0.0000     3.8886E+02    12.8475  -1.0000   106.7640
147      0.2970     2.8726E+00    2.8260E+00    1.000000E+10  0.05000  7.291E-06    0   0.5081   age181_m72            0.0000     4.9322E+02    16.4433  -1.0000   106.7040
148      0.5630     7.4698E+00    7.2574E+00    1.300000E+10  0.05000  5.316E-06    0   0.5018   age193_m72            0.0000     7.2835E+02    22.1869  -1.0000   105.9018
149      0.2036     3.1927E+00    3.0735E+00    1.500000E+10  0.05000  4.497E-06    0   0.4972   age201_m72            0.0000     8.6466E+02    24.5874  -1.0000   105.8257
150      0.2956     5.5749E+00    5.3149E+00    1.800000E+10  0.05000  3.739E-06    0   0.4924   age213_m72            0.0000     1.0781E+03    27.6617  -1.0000   104.9874


## Synthesis Results - Average & Chains ##

# j      x_j: min, <> & last-chain-values for 1 ...  7 chains
  1      0.0000      0.0055      0.0000      0.0000      0.0000      0.0000      0.0000      0.0000      0.0000
  2     25.0848     20.2293     22.0271     21.1079     21.1619     21.6446     20.7973     21.9010     21.3552
  3      0.0000      0.9921      0.4776      0.9022      0.8814      0.3695      0.6833      0.7238      0.8006
  4      0.0000      0.0031      0.0000      0.0000      0.0000      0.0000      0.0000      0.0000      0.0000
  5      0.0000      0.0016      0.0000      0.0000      0.0000      0.0000      0.0000      0.0000      0.0000
  6      0.0000      0.0018      0.0000      0.0000      0.0000      0.0000      0.0000      0.0357      0.0000
  7      0.0000      0.0025      0.0000      0.0000      0.0000      0.0000      0.0000      0.0000      0.0000
  8      0.0000      0.0140      0.1248      0.0000      0.0174      0.0000      0.0000      0.0000      0.0011
  9      0.0332      0.2928      0.0000      0.0000      0.0000      0.2788      0.2350      0.0000      0.2723
 10      0.0770      0.0907      0.0000      0.0000      0.0000      0.3928      0.1138      0.0630      0.0440
 11      0.0000      0.1856      0.3489      0.1340      0.3236      0.1406      0.2044      0.4107      0.1661
 12      0.0000      0.0116      0.1229      0.0000      0.0000      0.0000      0.0000      0.0000      0.0000
 13      0.0000      0.0074      0.0000      0.0000      0.0000      0.0000      0.0000      0.0000      0.0000
 14      0.0000      0.0056      0.0872      0.0000      0.0000      0.0000      0.0000      0.0000      0.0000
 15      0.0000      0.0044      0.0000      0.0000      0.0000      0.0000      0.0000      0.0000      0.0000
 16      0.0000      0.0093      0.0000      0.0000      0.0088      0.0000      0.0000      0.0000      0.0000
 17      0.0000      0.0146      0.0000      0.0000      0.0000      0.0000      0.0121      0.0000      0.0000
 18      0.0000      0.0178      0.0161      0.0000      0.0000      0.0000      0.0000      0.0000      0.0682
 19      0.0000      0.0403      0.0000      0.0000      0.0422      0.0000      0.0000      0.0000      0.0626
 20      0.0000      0.1324      0.0292      0.0000      0.0028      0.0000      0.0957      0.0000      0.2794
 21      0.0000      0.2487      0.0000      0.0000      0.0000      0.0000      0.1026      0.0000      0.0000
 22      0.0000      0.2319      0.5267      0.0249      0.0192      0.0000      0.0000      0.2015      0.0000
 23      0.0384      0.2138      0.2626      0.1017      0.2036      0.2275      0.0659      0.1948      0.2411
 24      0.0000      0.2237      0.0604      0.5053      0.1023      0.0000      0.2170      0.0000      0.0000
 25      0.0000      0.1925      0.0000      0.3515      0.1018      0.1475      0.2077      0.1055      0.0576
 26      0.0000      0.0018      0.0008      0.0000      0.0013      0.0000      0.0000      0.0000      0.0000
 27      0.0000      0.0121      0.0000      0.0000      0.0000      0.0000      0.0000      0.0000      0.0087
 28      0.0000      0.0050      0.0041      0.0000      0.0022      0.0000      0.0000      0.0000      0.0180
 29      0.0000      0.0026      0.0000      0.0000      0.0000      0.0000      0.0000      0.0000      0.0024
 30      0.0000      0.0036      0.0000      0.0000      0.0000      0.0000      0.0000      0.0000      0.0000
 31      0.0000      0.0021      0.0000      0.0000      0.0000      0.0000      0.0356      0.0000      0.0000
 32      0.0000      0.0125      0.0690      0.0000      0.0000      0.0000      0.0000      0.0000      0.0000
 33      0.0000      0.0142      0.0000      0.0000      0.0000      0.0000      0.0000      0.0000      0.0000
 34      0.0000      0.0407      0.0000      0.0000      0.0000      0.0463      0.0000      0.0169      0.0000
 35      0.0000      0.0525      0.2312      0.2881      0.0000      0.0000      0.0000      0.0000      0.0000
 36      0.0000      0.0317      0.0000      0.0000      0.0000      0.0000      0.0000      0.0000      0.0000
 37      0.0000      0.0202      0.0000      0.0000      0.0000      0.0000      0.0000      0.0000      0.0000
 38      0.0000      0.0096      0.0000      0.0000      0.0000      0.0000      0.0281      0.0000      0.0000
 39      0.0000      0.0050      0.0000      0.0000      0.0000      0.0000      0.0000      0.0000      0.0000
 40      0.0000      0.0085      0.0000      0.0190      0.0000      0.0000      0.0000      0.0000      0.0000
 41      0.0000      0.0163      0.0000      0.0000      0.0000      0.0000      0.0000      0.0000      0.0000
 42      0.0000      0.0190      0.0000      0.0000      0.0395      0.0000      0.0000      0.0470      0.0487
 43     15.6435     18.9813     17.8368     18.1535     18.7205     17.6885     17.8570     17.9931     18.2990
 44     44.7774     42.7979     42.4110     43.0602     42.3418     43.3904     43.9424     43.5679     43.6573
 45      3.3731      1.9100      4.4175      2.3185      5.2703      2.5303      2.5754      2.7257      1.4875
 46      3.8797      1.7967      1.5546      1.6508      1.7252      1.5738      2.0803      1.8588      2.8719
 47      1.2533      0.9482      0.7502      1.7587      0.7976      1.8260      1.5071      1.0700      1.0820
 48      0.0193      0.1972      0.0000      0.0954      0.0000      0.6565      0.0000      0.1272      0.1363
 49      0.0000      0.1144      0.0756      0.0080      0.0000      0.0000      0.0000      0.0970      0.1152
 50      0.0000      0.0801      0.0000      0.1087      0.0199      0.0000      0.0000      0.0000      0.0000
 51      0.0000      0.0017      0.0000      0.0000      0.0000      0.0283      0.0000      0.0000      0.0000
 52      0.0000      0.0498      0.0000      0.0662      0.0189      0.1359      0.0398      0.0000      0.0000
 53      0.0000      0.0052      0.0000      0.0000      0.0000      0.0150      0.0000      0.0000      0.0000
 54      1.0125      2.1515      1.9376      2.4138      1.9175      2.1013      2.1360      2.0907      2.1078
 55      0.0000      0.1866      0.0000      0.0000      0.2085      0.0000      0.2193      0.0000      0.2284
 56      0.0000      0.0272      0.0000      0.0608      0.1038      0.0000      0.2486      0.0000      0.0000
 57      0.0000      0.0064      0.0000      0.0000      0.0000      0.0000      0.0000      0.0000      0.0000
 58      0.0000      0.0106      0.0000      0.0000      0.0000      0.0000      0.0000      0.0000      0.0232
 59      0.0000      0.0093      0.0000      0.0000      0.0000      0.0000      0.0000      0.0000      0.0281
 60      0.0000      0.0089      0.1540      0.0000      0.0000      0.0000      0.0000      0.0000      0.0000
 61      0.0000      0.0139      0.0000      0.0000      0.0000      0.0000      0.0105      0.0000      0.0000
 62      0.0000      0.0150      0.0000      0.1616      0.0000      0.0000      0.0000      0.0000      0.0000
 63      0.0000      0.0063      0.0000      0.0367      0.0000      0.0000      0.0000      0.0000      0.0065
 64      0.0000      0.0083      0.0067      0.0000      0.0000      0.0000      0.0000      0.0000      0.0000
 65      0.0000      0.0145      0.0000      0.0000      0.0000      0.0000      0.0000      0.0664      0.0000
 66      0.0000      0.0140      0.0000      0.0000      0.0000      0.0000      0.0000      0.0000      0.0000
 67      0.0000      0.0188      0.0000      0.0000      0.0000      0.0914      0.0000      0.0271      0.0165
 68      0.0000      0.0343      0.0244      0.0000      0.0000      0.0000      0.0000      0.3072      0.0000
 69      0.0000      0.0430      0.0000      0.3041      0.0455      0.1368      0.0167      0.0000      0.1659
 70      0.0000      0.0434      0.0000      0.0000      0.0103      0.0000      0.0000      0.0000      0.0221
 71      0.0000      0.3008      0.0189      0.2476      0.0000      0.1437      0.1475      0.0000      0.0709
 72      0.7892      3.5897      3.1113      2.6310      2.6133      3.1122      3.1130      3.6456      2.7007
 73      0.0000      0.1609      0.0000      0.0628      0.0000      0.0906      0.0663      0.0776      0.0000
 74      0.0000      0.0324      0.0803      0.0123      0.0000      0.0000      0.0000      0.0000      0.0000
 75      0.0000      0.0285      0.0286      0.0427      0.0000      0.0029      0.0133      0.0000      0.0000
 76      0.0000      0.0029      0.0000      0.0000      0.0000      0.0000      0.0000      0.0000      0.0000
 77      0.0000      0.0017      0.0000      0.0000      0.0000      0.0000      0.0000      0.0000      0.0000
 78      0.0000      0.0041      0.0000      0.0000      0.0413      0.0000      0.0000      0.0000      0.0000
 79      0.0000      0.0083      0.0000      0.0000      0.0000      0.0000      0.0000      0.0000      0.0832
 80      0.0000      0.0077      0.0000      0.0000      0.0000      0.0000      0.0000      0.0000      0.0000
 81      0.0000      0.0070      0.0000      0.0000      0.0130      0.0820      0.0000      0.0000      0.0319
 82      0.0000      0.0074      0.0000      0.0000      0.0144      0.0000      0.0000      0.0000      0.0000
 83      0.0000      0.0211      0.0000      0.0000      0.0606      0.0000      0.0000      0.0000      0.0000
 84      0.0000      0.0154      0.0000      0.0000      0.0000      0.0000      0.0000      0.0000      0.0000
 85      0.0000      0.0139      0.0132      0.0368      0.0000      0.0000      0.0000      0.0000      0.0000
 86      0.0000      0.0114      0.0000      0.0000      0.0000      0.0000      0.0000      0.0000      0.0000
 87      0.0000      0.0086      0.0035      0.0000      0.0000      0.0000      0.0000      0.0000      0.0000
 88      0.0000      0.0049      0.0000      0.0000      0.0000      0.0000      0.0003      0.0000      0.0000
 89      0.0000      0.0043      0.0000      0.0000      0.0000      0.0000      0.0000      0.0000      0.0000
 90      0.0000      0.0052      0.0000      0.0000      0.0000      0.0000      0.0000      0.0160      0.0000
 91      0.0000      0.0077      0.0000      0.0000      0.0000      0.0000      0.0000      0.0000      0.0007
 92      0.0000      0.0107      0.0041      0.0000      0.0000      0.0000      0.0000      0.0000      0.0000
 93      0.0000      0.0311      0.0000      0.0000      0.0000      0.0000      0.0000      0.0000      0.0074
 94      0.0000      0.0385      0.0000      0.0000      0.1345      0.1969      0.0038      0.2116      0.1822
 95      0.0000      0.0376      0.0000      0.0526      0.0000      0.0000      0.0118      0.0673      0.0471
 96      0.0000      0.0424      0.0683      0.2180      0.0000      0.0169      0.2229      0.0000      0.0000
 97      0.0000      0.0438      0.1241      0.0000      0.0000      0.0000      0.0000      0.0000      0.0000
 98      0.0000      0.0534      0.0764      0.0032      0.0064      0.0571      0.0000      0.0096      0.4466
 99      0.0000      0.0279      0.0000      0.0035      0.0000      0.1797      0.0000      0.0867      0.0000
100      0.0000      0.0331      0.0000      0.0000      0.0000      0.0801      0.0000      0.0067      0.0000
101      0.0000      0.0012      0.0345      0.0000      0.0000      0.0000      0.0000      0.0000      0.0006
102      0.0000      0.0027      0.0000      0.0000      0.0000      0.0000      0.0000      0.0000      0.0000
103      0.0000      0.0106      0.0000      0.0802      0.0089      0.0000      0.0000      0.0000      0.0000
104      0.0000      0.0106      0.0000      0.0000      0.0182      0.0000      0.0000      0.0000      0.0024
105      0.0000      0.0033      0.0000      0.0000      0.0000      0.0000      0.0000      0.0000      0.0027
106      0.0000      0.0058      0.0000      0.0000      0.0000      0.0000      0.0000      0.0000      0.0000
107      0.0000      0.0056      0.0120      0.0000      0.0000      0.0000      0.0297      0.0000      0.0000
108      0.0000      0.0026      0.0000      0.0000      0.0000      0.0000      0.0000      0.0000      0.0000
109      0.0000      0.0044      0.0000      0.0000      0.0000      0.0000      0.0000      0.0000      0.0000
110      0.0000      0.0056      0.0000      0.0000      0.0000      0.0000      0.0000      0.0539      0.0000
111      0.0000      0.0061      0.0000      0.0000      0.0000      0.0000      0.0000      0.0000      0.0000
112      0.0000      0.0051      0.0000      0.0000      0.0000      0.0000      0.0000      0.0000      0.0000
113      0.0000      0.0027      0.0000      0.0000      0.0055      0.0000      0.0000      0.0000      0.0000
114      0.0000      0.0033      0.0000      0.0000      0.0000      0.0000      0.0000      0.0000      0.0000
115      0.0000      0.0069      0.0041      0.0000      0.0000      0.0000      0.0000      0.0000      0.0067
116      0.0000      0.0134      0.0000      0.0000      0.0045      0.0000      0.0000      0.0000      0.0000
117      0.0000      0.0152      0.0037      0.0000      0.0076      0.0000      0.0000      0.0000      0.0000
118      0.0000      0.0297      0.0000      0.0348      0.0766      0.0000      0.0000      0.0297      0.0817
119      0.0000      0.0297      0.0000      0.0000      0.0000      0.0000      0.0000      0.0000      0.0000
120      0.0000      0.0253      0.0000      0.0128      0.0000      0.0209      0.0000      0.0205      0.0000
121      0.0000      0.0350      0.1232      0.0000      0.0000      0.0974      0.0000      0.0000      0.0000
122      0.0000      0.0433      0.0773      0.0000      0.0000      0.0824      0.0000      0.0168      0.0000
123      0.0000      0.0258      0.0000      0.0000      0.1391      0.0000      0.0000      0.0000      0.0246
124      0.0000      0.0225      0.0000      0.1741      0.0000      0.0000      0.0501      0.0000      0.0000
125      0.0000      0.0326      0.0000      0.0303      0.0000      0.0000      0.0000      0.0247      0.0000
126      0.0000      0.0023      0.0000      0.0000      0.0000      0.0302      0.0000      0.0000      0.0000
127      0.0000      0.0050      0.0000      0.0000      0.0275      0.0000      0.0006      0.0000      0.0000
128      0.0000      0.0052      0.0000      0.0000      0.0000      0.0000      0.0000      0.0000      0.0000
129      0.0000      0.0060      0.0000      0.0000      0.0000      0.0000      0.0000      0.0000      0.0000
130      0.0000      0.0026      0.0000      0.0000      0.0000      0.0000      0.0000      0.0000      0.0000
131      0.0000      0.0027      0.0000      0.0029      0.0000      0.0000      0.0000      0.0000      0.0000
132      0.0000      0.0021      0.0000      0.0000      0.0000      0.0000      0.0000      0.0000      0.0000
133      0.0000      0.0027      0.0000      0.0000      0.0000      0.0000      0.0000      0.0000      0.0000
134      0.0000      0.0050      0.0000      0.0000      0.0000      0.0000      0.0000      0.0000      0.0000
135      0.0000      0.0051      0.0174      0.0000      0.0000      0.0000      0.0000      0.0000      0.0000
136      0.0000      0.0042      0.0000      0.0000      0.0000      0.0000      0.0438      0.0000      0.0000
137      0.0000      0.0044      0.0000      0.0000      0.0000      0.0000      0.0000      0.0000      0.0000
138      0.0000      0.0044      0.0000      0.0000      0.0000      0.0000      0.0000      0.0000      0.0000
139      0.0000      0.0061      0.0000      0.0000      0.0000      0.0000      0.0000      0.0000      0.0000
140      0.0000      0.0181      0.0000      0.0000      0.0000      0.0000      0.0627      0.0324      0.0000
141      0.0000      0.0497      0.0000      0.0110      0.0000      0.0000      0.0299      0.0000      0.0665
142      0.0000      0.0670      0.0923      0.2990      0.0000      0.0000      0.3468      0.0000      0.1356
143      0.0000      0.1015      0.1076      0.0000      0.3884      0.0000      0.1043      0.0877      0.2049
144      1.6963      0.3067      0.6121      0.3070      0.2911      0.4445      0.3545      0.0284      0.4399
145      1.3309      0.6187      0.6948      0.8404      0.6268      0.7373      0.6758      0.6919      0.5798
146      1.5354      0.9822      1.1192      1.1870      1.0528      1.1421      1.1368      1.1367      1.0099
147      0.2970      0.4410      0.4012      0.4699      0.4171      0.3848      0.4232      0.4879      0.3576
148      0.5630      0.6302      0.7152      0.6669      0.7800      0.6665      0.6885      0.6414      0.7573
149      0.2036      0.5081      0.5292      0.5303      0.5888      0.5036      0.5843      0.5241      0.5142
150      0.2956      0.3916      0.3700      0.3157      0.4979      0.4084      0.3484      0.4588      0.5046

# j      m_j: min, <> & last-chain-values for 1 ...  7 chains
  1  0.0000E+00  8.7401E-05  0.0000E+00  0.0000E+00  0.0000E+00  0.0000E+00  0.0000E+00  0.0000E+00  0.0000E+00
  2  7.1976E-02  5.5046E-02  5.9880E-02  5.7008E-02  5.6955E-02  5.8062E-02  5.6668E-02  5.9502E-02  5.7897E-02
  3  2.9085E-08  6.3721E-03  3.0643E-03  5.7509E-03  5.5990E-03  2.3397E-03  4.3947E-03  4.6414E-03  5.1230E-03
  4  0.0000E+00  3.7313E-05  0.0000E+00  0.0000E+00  0.0000E+00  0.0000E+00  0.0000E+00  0.0000E+00  0.0000E+00
  5  0.0000E+00  2.4743E-05  0.0000E+00  0.0000E+00  0.0000E+00  0.0000E+00  0.0000E+00  0.0000E+00  0.0000E+00
  6  0.0000E+00  3.1911E-05  0.0000E+00  0.0000E+00  0.0000E+00  0.0000E+00  0.0000E+00  6.4426E-04  0.0000E+00
  7  0.0000E+00  5.8084E-05  0.0000E+00  0.0000E+00  0.0000E+00  0.0000E+00  0.0000E+00  0.0000E+00  0.0000E+00
  8  0.0000E+00  3.6144E-04  3.2161E-03  0.0000E+00  4.4375E-04  0.0000E+00  0.0000E+00  0.0000E+00  2.7500E-05
  9  9.7263E-04  8.1254E-03  0.0000E+00  0.0000E+00  0.0000E+00  7.6260E-03  6.5305E-03  0.0000E+00  7.5296E-03
 10  2.5816E-03  2.8837E-03  0.0000E+00  0.0000E+00  0.0000E+00  1.2316E-02  3.6230E-03  2.0022E-03  1.3958E-03
 11  0.0000E+00  7.0589E-03  1.3255E-02  5.0564E-03  1.2172E-02  5.2701E-03  7.7815E-03  1.5593E-02  6.2938E-03
 12  0.0000E+00  7.6965E-04  8.1684E-03  0.0000E+00  0.0000E+00  0.0000E+00  0.0000E+00  0.0000E+00  0.0000E+00
 13  0.0000E+00  5.7382E-04  0.0000E+00  0.0000E+00  0.0000E+00  0.0000E+00  0.0000E+00  0.0000E+00  0.0000E+00
 14  0.0000E+00  6.0923E-04  9.5516E-03  0.0000E+00  0.0000E+00  0.0000E+00  0.0000E+00  0.0000E+00  0.0000E+00
 15  0.0000E+00  7.2183E-04  0.0000E+00  0.0000E+00  0.0000E+00  0.0000E+00  0.0000E+00  0.0000E+00  0.0000E+00
 16  0.0000E+00  2.2359E-03  0.0000E+00  0.0000E+00  2.0971E-03  0.0000E+00  0.0000E+00  0.0000E+00  0.0000E+00
 17  0.0000E+00  3.8841E-03  0.0000E+00  0.0000E+00  0.0000E+00  0.0000E+00  3.2133E-03  0.0000E+00  0.0000E+00
 18  0.0000E+00  7.7266E-03  6.9792E-03  0.0000E+00  0.0000E+00  0.0000E+00  0.0000E+00  0.0000E+00  2.9456E-02
 19  0.0000E+00  2.6465E-02  0.0000E+00  0.0000E+00  2.7444E-02  0.0000E+00  0.0000E+00  0.0000E+00  4.0975E-02
 20  0.0000E+00  1.2445E-01  2.7381E-02  0.0000E+00  2.5892E-03  0.0000E+00  9.0034E-02  0.0000E+00  2.6160E-01
 21  0.0000E+00  2.7037E-01  0.0000E+00  0.0000E+00  0.0000E+00  0.0000E+00  1.1174E-01  0.0000E+00  0.0000E+00
 22  0.0000E+00  3.2524E-01  7.3814E-01  3.4729E-02  2.6589E-02  0.0000E+00  0.0000E+00  2.8220E-01  0.0000E+00
 23  7.2063E-02  3.8013E-01  4.6650E-01  1.7956E-01  3.5805E-01  3.9882E-01  1.1728E-01  3.4587E-01  4.2725E-01
 24  0.0000E+00  4.5493E-01  1.2265E-01  1.0198E+00  2.0576E-01  0.0000E+00  4.4194E-01  0.0000E+00  0.0000E+00
 25  0.0000E+00  4.7021E-01  0.0000E+00  8.5218E-01  2.4603E-01  3.5523E-01  5.0811E-01  2.5741E-01  1.4027E-01
 26  0.0000E+00  2.6805E-05  1.2385E-05  0.0000E+00  2.0190E-05  0.0000E+00  0.0000E+00  0.0000E+00  0.0000E+00
 27  0.0000E+00  3.9489E-05  0.0000E+00  0.0000E+00  0.0000E+00  0.0000E+00  0.0000E+00  0.0000E+00  2.8382E-05
 28  0.0000E+00  3.2068E-05  2.5842E-05  0.0000E+00  1.4172E-05  0.0000E+00  0.0000E+00  0.0000E+00  1.1413E-04
 29  0.0000E+00  2.5653E-05  0.0000E+00  0.0000E+00  0.0000E+00  0.0000E+00  0.0000E+00  0.0000E+00  2.4033E-05
 30  0.0000E+00  4.5086E-05  0.0000E+00  0.0000E+00  0.0000E+00  0.0000E+00  0.0000E+00  0.0000E+00  0.0000E+00
 31  0.0000E+00  2.9882E-05  0.0000E+00  0.0000E+00  0.0000E+00  0.0000E+00  5.0921E-04  0.0000E+00  0.0000E+00
 32  0.0000E+00  1.9762E-04  1.0894E-03  0.0000E+00  0.0000E+00  0.0000E+00  0.0000E+00  0.0000E+00  0.0000E+00
 33  0.0000E+00  3.1975E-04  0.0000E+00  0.0000E+00  0.0000E+00  0.0000E+00  0.0000E+00  0.0000E+00  0.0000E+00
 34  0.0000E+00  1.1105E-03  0.0000E+00  0.0000E+00  0.0000E+00  1.2444E-03  0.0000E+00  4.6146E-04  0.0000E+00
 35  0.0000E+00  1.7321E-03  7.6169E-03  9.4300E-03  0.0000E+00  0.0000E+00  0.0000E+00  0.0000E+00  0.0000E+00
 36  0.0000E+00  1.3415E-03  0.0000E+00  0.0000E+00  0.0000E+00  0.0000E+00  0.0000E+00  0.0000E+00  0.0000E+00
 37  0.0000E+00  1.0593E-03  0.0000E+00  0.0000E+00  0.0000E+00  0.0000E+00  0.0000E+00  0.0000E+00  0.0000E+00
 38  0.0000E+00  6.9905E-04  0.0000E+00  0.0000E+00  0.0000E+00  0.0000E+00  2.0563E-03  0.0000E+00  0.0000E+00
 39  0.0000E+00  5.4180E-04  0.0000E+00  0.0000E+00  0.0000E+00  0.0000E+00  0.0000E+00  0.0000E+00  0.0000E+00
 40  0.0000E+00  1.6311E-03  0.0000E+00  3.6394E-03  0.0000E+00  0.0000E+00  0.0000E+00  0.0000E+00  0.0000E+00
 41  0.0000E+00  4.1936E-03  0.0000E+00  0.0000E+00  0.0000E+00  0.0000E+00  0.0000E+00  0.0000E+00  0.0000E+00
 42  0.0000E+00  5.4822E-03  0.0000E+00  0.0000E+00  1.1256E-02  0.0000E+00  0.0000E+00  1.3530E-02  1.3993E-02
 43  7.7320E+00  8.8971E+00  8.3526E+00  8.4456E+00  8.6791E+00  8.1736E+00  8.3815E+00  8.4207E+00  8.5459E+00
 44  3.5002E+01  3.1726E+01  3.1409E+01  3.1682E+01  3.1046E+01  3.1710E+01  3.2619E+01  3.2247E+01  3.2245E+01
 45  3.6750E+00  1.9734E+00  4.5598E+00  2.3776E+00  5.3858E+00  2.5772E+00  2.6645E+00  2.8118E+00  1.5313E+00
 46  5.0353E+00  2.2114E+00  1.9116E+00  2.0166E+00  2.1002E+00  1.9096E+00  2.5640E+00  2.2843E+00  3.5219E+00
 47  2.1319E+00  1.5296E+00  1.2091E+00  2.8160E+00  1.2726E+00  2.9039E+00  2.4346E+00  1.7233E+00  1.7391E+00
 48  3.9183E-02  3.7888E-01  0.0000E+00  1.8184E-01  0.0000E+00  1.2432E+00  0.0000E+00  2.4398E-01  2.6084E-01
 49  0.0000E+00  2.4594E-01  1.6233E-01  1.6973E-02  0.0000E+00  0.0000E+00  0.0000E+00  2.0805E-01  2.4661E-01
 50  0.0000E+00  2.0246E-01  0.0000E+00  2.7257E-01  4.9655E-02  0.0000E+00  0.0000E+00  0.0000E+00  0.0000E+00
 51  0.0000E+00  1.9636E-05  0.0000E+00  0.0000E+00  0.0000E+00  3.2480E-04  0.0000E+00  0.0000E+00  0.0000E+00
 52  0.0000E+00  1.5836E-04  0.0000E+00  2.0878E-04  5.9371E-05  4.2594E-04  1.2684E-04  0.0000E+00  0.0000E+00
 53  0.0000E+00  2.5230E-05  0.0000E+00  0.0000E+00  0.0000E+00  7.1782E-05  0.0000E+00  0.0000E+00  0.0000E+00
 54  4.9353E-03  9.9451E-03  8.9476E-03  1.1074E-02  8.7665E-03  9.5756E-03  9.8866E-03  9.6487E-03  9.7073E-03
 55  0.0000E+00  1.2727E-03  0.0000E+00  0.0000E+00  1.4060E-03  0.0000E+00  1.4972E-03  0.0000E+00  1.5520E-03
 56  0.0000E+00  2.4560E-04  0.0000E+00  5.4456E-04  9.2699E-04  0.0000E+00  2.2480E-03  0.0000E+00  0.0000E+00
 57  0.0000E+00  9.3021E-05  0.0000E+00  0.0000E+00  0.0000E+00  0.0000E+00  0.0000E+00  0.0000E+00  0.0000E+00
 58  0.0000E+00  2.2196E-04  0.0000E+00  0.0000E+00  0.0000E+00  0.0000E+00  0.0000E+00  0.0000E+00  4.8283E-04
 59  0.0000E+00  2.6936E-04  0.0000E+00  0.0000E+00  0.0000E+00  0.0000E+00  0.0000E+00  0.0000E+00  8.1291E-04
 60  0.0000E+00  2.8693E-04  4.9676E-03  0.0000E+00  0.0000E+00  0.0000E+00  0.0000E+00  0.0000E+00  0.0000E+00
 61  0.0000E+00  5.7126E-04  0.0000E+00  0.0000E+00  0.0000E+00  0.0000E+00  4.3414E-04  0.0000E+00  0.0000E+00
 62  0.0000E+00  7.8092E-04  0.0000E+00  8.3698E-03  0.0000E+00  0.0000E+00  0.0000E+00  0.0000E+00  0.0000E+00
 63  0.0000E+00  4.9782E-04  0.0000E+00  2.8936E-03  0.0000E+00  0.0000E+00  0.0000E+00  0.0000E+00  5.1595E-04
 64  0.0000E+00  1.0849E-03  8.7524E-04  0.0000E+00  0.0000E+00  0.0000E+00  0.0000E+00  0.0000E+00  0.0000E+00
 65  0.0000E+00  3.1915E-03  0.0000E+00  0.0000E+00  0.0000E+00  0.0000E+00  0.0000E+00  1.4640E-02  0.0000E+00
 66  0.0000E+00  3.9583E-03  0.0000E+00  0.0000E+00  0.0000E+00  0.0000E+00  0.0000E+00  0.0000E+00  0.0000E+00
 67  0.0000E+00  7.2753E-03  0.0000E+00  0.0000E+00  0.0000E+00  3.4921E-02  0.0000E+00  1.0472E-02  6.3774E-03
 68  0.0000E+00  2.4730E-02  1.7552E-02  0.0000E+00  0.0000E+00  0.0000E+00  0.0000E+00  2.2100E-01  0.0000E+00
 69  0.0000E+00  5.3415E-02  0.0000E+00  3.7511E-01  5.5943E-02  1.6757E-01  2.0792E-02  0.0000E+00  2.0540E-01
 70  0.0000E+00  7.4993E-02  0.0000E+00  0.0000E+00  1.7567E-02  0.0000E+00  0.0000E+00  0.0000E+00  3.8147E-02
 71  0.0000E+00  6.1380E-01  3.8434E-02  5.0148E-01  0.0000E+00  2.8916E-01  3.0130E-01  0.0000E+00  1.4423E-01
 72  2.2354E+00  9.6422E+00  8.3492E+00  7.0145E+00  6.9431E+00  8.2413E+00  8.3732E+00  9.7772E+00  7.2279E+00
 73  0.0000E+00  5.4525E-01  0.0000E+00  2.1109E-01  0.0000E+00  3.0277E-01  2.2482E-01  2.6256E-01  0.0000E+00
 74  0.0000E+00  1.2253E-01  3.0313E-01  4.6217E-02  0.0000E+00  0.0000E+00  0.0000E+00  0.0000E+00  0.0000E+00
 75  0.0000E+00  1.2374E-01  1.2400E-01  1.8410E-01  0.0000E+00  1.2603E-02  5.7827E-02  0.0000E+00  0.0000E+00
 76  0.0000E+00  2.9145E-05  0.0000E+00  0.0000E+00  0.0000E+00  0.0000E+00  0.0000E+00  0.0000E+00  0.0000E+00
 77  0.0000E+00  6.8968E-06  0.0000E+00  0.0000E+00  0.0000E+00  0.0000E+00  0.0000E+00  0.0000E+00  0.0000E+00
 78  0.0000E+00  1.8917E-05  0.0000E+00  0.0000E+00  1.8767E-04  0.0000E+00  0.0000E+00  0.0000E+00  0.0000E+00
 79  0.0000E+00  4.5882E-05  0.0000E+00  0.0000E+00  0.0000E+00  0.0000E+00  0.0000E+00  0.0000E+00  4.5773E-04
 80  0.0000E+00  5.5158E-05  0.0000E+00  0.0000E+00  0.0000E+00  0.0000E+00  0.0000E+00  0.0000E+00  0.0000E+00
 81  0.0000E+00  6.5389E-05  0.0000E+00  0.0000E+00  1.2115E-04  7.6031E-04  0.0000E+00  0.0000E+00  2.9863E-04
 82  0.0000E+00  9.4242E-05  0.0000E+00  0.0000E+00  1.8007E-04  0.0000E+00  0.0000E+00  0.0000E+00  0.0000E+00
 83  0.0000E+00  3.9299E-04  0.0000E+00  0.0000E+00  1.1155E-03  0.0000E+00  0.0000E+00  0.0000E+00  0.0000E+00
 84  0.0000E+00  3.9761E-04  0.0000E+00  0.0000E+00  0.0000E+00  0.0000E+00  0.0000E+00  0.0000E+00  0.0000E+00
 85  0.0000E+00  4.3516E-04  4.1372E-04  1.1440E-03  0.0000E+00  0.0000E+00  0.0000E+00  0.0000E+00  0.0000E+00
 86  0.0000E+00  4.8489E-04  0.0000E+00  0.0000E+00  0.0000E+00  0.0000E+00  0.0000E+00  0.0000E+00  0.0000E+00
 87  0.0000E+00  4.8322E-04  1.9887E-04  0.0000E+00  0.0000E+00  0.0000E+00  0.0000E+00  0.0000E+00  0.0000E+00
 88  0.0000E+00  4.2369E-04  0.0000E+00  0.0000E+00  0.0000E+00  0.0000E+00  2.9481E-05  0.0000E+00  0.0000E+00
 89  0.0000E+00  6.1058E-04  0.0000E+00  0.0000E+00  0.0000E+00  0.0000E+00  0.0000E+00  0.0000E+00  0.0000E+00
 90  0.0000E+00  1.3661E-03  0.0000E+00  0.0000E+00  0.0000E+00  0.0000E+00  0.0000E+00  4.2413E-03  0.0000E+00
 91  0.0000E+00  2.6125E-03  0.0000E+00  0.0000E+00  0.0000E+00  0.0000E+00  0.0000E+00  0.0000E+00  2.4857E-04
 92  0.0000E+00  4.8627E-03  1.8615E-03  0.0000E+00  0.0000E+00  0.0000E+00  0.0000E+00  0.0000E+00  0.0000E+00
 93  0.0000E+00  2.8799E-02  0.0000E+00  0.0000E+00  0.0000E+00  0.0000E+00  0.0000E+00  0.0000E+00  6.8212E-03
 94  0.0000E+00  6.3910E-02  0.0000E+00  0.0000E+00  2.2087E-01  3.2208E-01  6.2686E-03  3.5067E-01  3.0130E-01
 95  0.0000E+00  8.3958E-02  0.0000E+00  1.1670E-01  0.0000E+00  0.0000E+00  2.6347E-02  1.5028E-01  1.0486E-01
 96  0.0000E+00  1.1448E-01  1.8401E-01  5.8359E-01  0.0000E+00  4.5028E-02  6.0213E-01  0.0000E+00  0.0000E+00
 97  0.0000E+00  1.5382E-01  4.3580E-01  0.0000E+00  0.0000E+00  0.0000E+00  0.0000E+00  0.0000E+00  0.0000E+00
 98  0.0000E+00  2.4054E-01  3.4421E-01  1.4231E-02  2.8405E-02  2.5363E-01  0.0000E+00  4.3098E-02  2.0057E+00
 99  0.0000E+00  1.4322E-01  0.0000E+00  1.7947E-02  0.0000E+00  9.1011E-01  0.0000E+00  4.4481E-01  0.0000E+00
100  0.0000E+00  1.9574E-01  0.0000E+00  0.0000E+00  0.0000E+00  4.6707E-01  0.0000E+00  3.9844E-02  0.0000E+00
101  0.0000E+00  7.6805E-06  2.2460E-04  0.0000E+00  0.0000E+00  0.0000E+00  0.0000E+00  0.0000E+00  3.5774E-06
102  0.0000E+00  9.1769E-06  0.0000E+00  0.0000E+00  0.0000E+00  0.0000E+00  0.0000E+00  0.0000E+00  0.0000E+00
103  0.0000E+00  3.9696E-05  0.0000E+00  2.9831E-04  3.3100E-05  0.0000E+00  0.0000E+00  0.0000E+00  0.0000E+00
104  0.0000E+00  5.2198E-05  0.0000E+00  0.0000E+00  8.9009E-05  0.0000E+00  0.0000E+00  0.0000E+00  1.1669E-05
105  0.0000E+00  3.4023E-05  0.0000E+00  0.0000E+00  0.0000E+00  0.0000E+00  0.0000E+00  0.0000E+00  2.8131E-05
106  0.0000E+00  6.5388E-05  0.0000E+00  0.0000E+00  0.0000E+00  0.0000E+00  0.0000E+00  0.0000E+00  0.0000E+00
107  0.0000E+00  8.4465E-05  1.7909E-04  0.0000E+00  0.0000E+00  0.0000E+00  4.4505E-04  0.0000E+00  0.0000E+00
108  0.0000E+00  6.5351E-05  0.0000E+00  0.0000E+00  0.0000E+00  0.0000E+00  0.0000E+00  0.0000E+00  0.0000E+00
109  0.0000E+00  1.3068E-04  0.0000E+00  0.0000E+00  0.0000E+00  0.0000E+00  0.0000E+00  0.0000E+00  0.0000E+00
110  0.0000E+00  1.9968E-04  0.0000E+00  0.0000E+00  0.0000E+00  0.0000E+00  0.0000E+00  1.9260E-03  0.0000E+00
111  0.0000E+00  3.0545E-04  0.0000E+00  0.0000E+00  0.0000E+00  0.0000E+00  0.0000E+00  0.0000E+00  0.0000E+00
112  0.0000E+00  3.3390E-04  0.0000E+00  0.0000E+00  0.0000E+00  0.0000E+00  0.0000E+00  0.0000E+00  0.0000E+00
113  0.0000E+00  2.6055E-04  0.0000E+00  0.0000E+00  5.3135E-04  0.0000E+00  0.0000E+00  0.0000E+00  0.0000E+00
114  0.0000E+00  5.6759E-04  0.0000E+00  0.0000E+00  0.0000E+00  0.0000E+00  0.0000E+00  0.0000E+00  0.0000E+00
115  0.0000E+00  2.3752E-03  1.4165E-03  0.0000E+00  0.0000E+00  0.0000E+00  0.0000E+00  0.0000E+00  2.3163E-03
116  0.0000E+00  7.4058E-03  0.0000E+00  0.0000E+00  2.4650E-03  0.0000E+00  0.0000E+00  0.0000E+00  0.0000E+00
117  0.0000E+00  9.8651E-03  2.3966E-03  0.0000E+00  4.8561E-03  0.0000E+00  0.0000E+00  0.0000E+00  0.0000E+00
118  0.0000E+00  3.9207E-02  0.0000E+00  4.5525E-02  9.9981E-02  0.0000E+00  0.0000E+00  3.9076E-02  1.0737E-01
119  0.0000E+00  6.7671E-02  0.0000E+00  0.0000E+00  0.0000E+00  0.0000E+00  0.0000E+00  0.0000E+00  0.0000E+00
120  0.0000E+00  8.2203E-02  0.0000E+00  4.1173E-02  0.0000E+00  6.6967E-02  0.0000E+00  6.6363E-02  0.0000E+00
121  0.0000E+00  1.3371E-01  4.7038E-01  0.0000E+00  0.0000E+00  3.6677E-01  0.0000E+00  0.0000E+00  0.0000E+00
122  0.0000E+00  2.2119E-01  3.9509E-01  0.0000E+00  0.0000E+00  4.1559E-01  0.0000E+00  8.5971E-02  0.0000E+00
123  0.0000E+00  1.7397E-01  0.0000E+00  0.0000E+00  9.2805E-01  0.0000E+00  0.0000E+00  0.0000E+00  1.6503E-01
124  0.0000E+00  1.7446E-01  0.0000E+00  1.3380E+00  0.0000E+00  0.0000E+00  3.8810E-01  0.0000E+00  0.0000E+00
125  0.0000E+00  3.0175E-01  0.0000E+00  2.7857E-01  0.0000E+00  0.0000E+00  0.0000E+00  2.2865E-01  0.0000E+00
126  0.0000E+00  1.1224E-05  0.0000E+00  0.0000E+00  0.0000E+00  1.4532E-04  0.0000E+00  0.0000E+00  0.0000E+00
127  0.0000E+00  1.2863E-05  0.0000E+00  0.0000E+00  6.9957E-05  0.0000E+00  1.5360E-06  0.0000E+00  0.0000E+00
128  0.0000E+00  1.9751E-05  0.0000E+00  0.0000E+00  0.0000E+00  0.0000E+00  0.0000E+00  0.0000E+00  0.0000E+00
129  0.0000E+00  4.6732E-05  0.0000E+00  0.0000E+00  0.0000E+00  0.0000E+00  0.0000E+00  0.0000E+00  0.0000E+00
130  0.0000E+00  2.8058E-05  0.0000E+00  0.0000E+00  0.0000E+00  0.0000E+00  0.0000E+00  0.0000E+00  0.0000E+00
131  0.0000E+00  3.3134E-05  0.0000E+00  3.5449E-05  0.0000E+00  0.0000E+00  0.0000E+00  0.0000E+00  0.0000E+00
132  0.0000E+00  3.5643E-05  0.0000E+00  0.0000E+00  0.0000E+00  0.0000E+00  0.0000E+00  0.0000E+00  0.0000E+00
133  0.0000E+00  6.6577E-05  0.0000E+00  0.0000E+00  0.0000E+00  0.0000E+00  0.0000E+00  0.0000E+00  0.0000E+00
134  0.0000E+00  1.5399E-04  0.0000E+00  0.0000E+00  0.0000E+00  0.0000E+00  0.0000E+00  0.0000E+00  0.0000E+00
135  0.0000E+00  1.9025E-04  6.4399E-04  0.0000E+00  0.0000E+00  0.0000E+00  0.0000E+00  0.0000E+00  0.0000E+00
136  0.0000E+00  2.2282E-04  0.0000E+00  0.0000E+00  0.0000E+00  0.0000E+00  2.3460E-03  0.0000E+00  0.0000E+00
137  0.0000E+00  3.2328E-04  0.0000E+00  0.0000E+00  0.0000E+00  0.0000E+00  0.0000E+00  0.0000E+00  0.0000E+00
138  0.0000E+00  5.3152E-04  0.0000E+00  0.0000E+00  0.0000E+00  0.0000E+00  0.0000E+00  0.0000E+00  0.0000E+00
139  0.0000E+00  1.4093E-03  0.0000E+00  0.0000E+00  0.0000E+00  0.0000E+00  0.0000E+00  0.0000E+00  0.0000E+00
140  0.0000E+00  9.6303E-03  0.0000E+00  0.0000E+00  0.0000E+00  0.0000E+00  3.3364E-02  1.7192E-02  0.0000E+00
141  0.0000E+00  4.0394E-02  0.0000E+00  8.8800E-03  0.0000E+00  0.0000E+00  2.4373E-02  0.0000E+00  5.3839E-02
142  0.0000E+00  6.4844E-02  8.9159E-02  2.8709E-01  0.0000E+00  0.0000E+00  3.3595E-01  0.0000E+00  1.3073E-01
143  0.0000E+00  1.9524E-01  2.0677E-01  0.0000E+00  7.3896E-01  0.0000E+00  2.0097E-01  1.6841E-01  3.9272E-01
144  6.7578E+00  1.1587E+00  2.3101E+00  1.1514E+00  1.0878E+00  1.6557E+00  1.3410E+00  1.0727E-01  1.6558E+00
145  7.8927E+00  3.4794E+00  3.9040E+00  4.6909E+00  3.4866E+00  4.0877E+00  3.8057E+00  3.8852E+00  3.2488E+00
146  1.0874E+01  6.5970E+00  7.5096E+00  7.9128E+00  6.9941E+00  7.5622E+00  7.6457E+00  7.6225E+00  6.7586E+00
147  2.8260E+00  3.9799E+00  3.6173E+00  4.2090E+00  3.7227E+00  3.4237E+00  3.8240E+00  4.3963E+00  3.2156E+00
148  7.2574E+00  7.7031E+00  8.7339E+00  8.0906E+00  9.4300E+00  8.0321E+00  8.4273E+00  7.8275E+00  9.2231E+00
149  3.0735E+00  7.2745E+00  7.5692E+00  7.5356E+00  8.3387E+00  7.1080E+00  8.3770E+00  7.4928E+00  7.3352E+00
150  5.3149E+00  6.6787E+00  6.3039E+00  5.3441E+00  8.3984E+00  6.8654E+00  5.9492E+00  7.8118E+00  8.5732E+00

# AV, chi2 & Mass for <> & i_chain = 1 ...  7 solutions
AV       0.8296      0.8288      0.8301      0.8286      0.8285      0.8272      0.8277      0.8302      0.8302
chi2 2.0707E+00  2.1432E+00  2.1136E+00  2.1199E+00  2.1150E+00  2.1132E+00  2.1188E+00  2.1177E+00  2.1184E+00
Mass 3.3408E-10  3.5191E-10  3.5285E-10  3.5447E-10  3.5563E-10  3.5618E-10  3.5091E-10  3.5311E-10  3.5384E-10
 -29.02                                  [v0_min (km/s) before EX0s...]
 101.28                                  [vd_min (km/s) before EX0s...]


## Synthetic spectrum (Best Model) ##l_obs f_obs f_syn wei
 3070    [Nl_obs]
 3359.00    0.00000   0.43904   -2.000
 3360.00    0.00000   0.43417   -2.000
 3361.00    0.23162   0.44446   -1.000
 3362.00    0.28353   0.46401   -1.000
 3363.00    0.31250   0.48296   -1.000
 3364.00    0.31140   0.49296   -1.000
 3365.00    0.32200   0.49226   -1.000
 3366.00    0.31911   0.48537   -1.000
 3367.00    0.29619   0.47678   -1.000
 3368.00    0.31458   0.46766   -1.000
 3369.00    0.30489   0.45764   -1.000
 3370.00    0.29314   0.44837   -1.000
 3371.00    0.29272   0.44460   -1.000
 3372.00    0.29005   0.45038   -1.000
 3373.00    0.32252   0.46482   -1.000
 3374.00    0.33784   0.48260   -1.000
 3375.00    0.33199   0.49700   -1.000
 3376.00    0.34882   0.50304   -1.000
 3377.00    0.36521   0.50025   -1.000
 3378.00    0.35342   0.49328   -1.000
 3379.00    0.35277   0.48851   -1.000
 3380.00    0.36174   0.48910   -1.000
 3381.00    0.36950   0.49364   -1.000
 3382.00    0.35824   0.49925   -1.000
 3383.00    0.36124   0.50424   -1.000
 3384.00    0.36886   0.50776   -1.000
 3385.00    0.39931   0.50836   -1.000
 3386.00    0.40512   0.50536   -1.000
 3387.00    0.38426   0.50147   -1.000
 3388.00    0.41392   0.50083   -1.000
 3389.00    0.42758   0.50406   -1.000
 3390.00    0.41164   0.50770   -1.000
 3391.00    0.41422   0.50828   -1.000
 3392.00    0.40886   0.50654   -1.000
 3393.00    0.42260   0.50698   -1.000
 3394.00    0.42237   0.51276   -1.000
 3395.00    0.42772   0.52271   -1.000
 3396.00    0.44763   0.53345   -1.000
 3397.00    0.44618   0.54182   -1.000
 3398.00    0.48813   0.54557   -1.000
 3399.00    0.46897   0.54361   -1.000
 3400.00    0.46761   0.53631   -1.000
 3401.00    0.46533   0.52549   -1.000
 3402.00    0.46104   0.51483   -1.000
 3403.00    0.45255   0.50812   -1.000
 3404.00    0.45126   0.50610   -1.000
 3405.00    0.46573   0.50589   -1.000
 3406.00    0.46142   0.50414   -1.000
 3407.00    0.44575   0.50069   -1.000
 3408.00    0.43466   0.49876   -1.000
 3409.00    0.44239   0.50038   -1.000
 3410.00    0.45005   0.50305   -1.000
 3411.00    0.44995   0.50309   -1.000
 3412.00    0.44494   0.50065   -1.000
 3413.00    0.45794   0.49944   -1.000
 3414.00    0.44278   0.50277   -1.000
 3415.00    0.43410   0.51047   -1.000
 3416.00    0.44709   0.51974   -1.000
 3417.00    0.46048   0.52840   -1.000
 3418.00    0.47198   0.53566   -1.000
 3419.00    0.49525   0.54077   -1.000
 3420.00    0.48605   0.54204   -1.000
 3421.00    0.47436   0.53792   -1.000
 3422.00    0.46727   0.52978   -1.000
 3423.00    0.47485   0.52230   -1.000
 3424.00    0.49171   0.51957   -1.000
 3425.00    0.48616   0.52214   -1.000
 3426.00    0.48036   0.52873   -1.000
 3427.00    0.46477   0.53847   -1.000
 3428.00    0.48598   0.54941   -1.000
 3429.00    0.49005   0.55654   -1.000
 3430.00    0.50818   0.55481   -1.000
 3431.00    0.51524   0.54534   -1.000
 3432.00    0.49625   0.53598   -1.000
 3433.00    0.48820   0.53422   -1.000
 3434.00    0.49753   0.54018   -1.000
 3435.00    0.51472   0.54678   -1.000
 3436.00    0.51808   0.54685   -1.000
 3437.00    0.50852   0.53891   -1.000
 3438.00    0.49703   0.52586   -1.000
 3439.00    0.46958   0.51104   -1.000
 3440.00    0.44060   0.49715   -1.000
 3441.00    0.44331   0.48713   -1.000
 3442.00    0.46140   0.48358  187.632
 3443.00    0.46404   0.48704   -1.000
 3444.00    0.48230   0.49621  188.289
 3445.00    0.48744   0.50958   -1.000
 3446.00    0.48765   0.52550   -1.000
 3447.00    0.50806   0.54082   -1.000
 3448.00    0.52089   0.55070   -1.000
 3449.00    0.52840   0.55065   -1.000
 3450.00    0.51919   0.54081   -1.000
 3451.00    0.53408   0.52756   -1.000
 3452.00    0.51948   0.51873  897.916
 3453.00    0.51697   0.51750  897.916
 3454.00    0.51478   0.52157   -1.000
 3455.00    0.52612   0.52614  897.916
 3456.00    0.52286   0.52742  897.916
 3457.00    0.52487   0.52426  897.916
 3458.00    0.52925   0.51788   -1.000
 3459.00    0.52843   0.51075   -1.000
 3460.00    0.51371   0.50632  176.542
 3461.00    0.51920   0.50782  153.504
 3462.00    0.53177   0.51470  152.938
 3463.00    0.54062   0.52181   -1.000
 3464.00    0.54602   0.52498   -1.000
 3465.00    0.54356   0.52578   -1.000
 3466.00    0.52774   0.52902  897.916
 3467.00    0.54323   0.53694   -1.000
 3468.00    0.55182   0.54706   -1.000
 3469.00    0.55776   0.55450   -1.000
 3470.00    0.56824   0.55551   -1.000
 3471.00    0.55466   0.54946   -1.000
 3472.00    0.53615   0.53803  897.916
 3473.00    0.53318   0.52432   -1.000
 3474.00    0.53148   0.51273   -1.000
 3475.00    0.51336   0.50746   -1.000
 3476.00    0.49971   0.51012  178.981
 3477.00    0.52254   0.51879  157.864
 3478.00    0.53719   0.52962  155.817
 3479.00    0.54032   0.53933  612.668
 3480.00    0.56536   0.54554   -1.000
 3481.00    0.55718   0.54684   -1.000
 3482.00    0.53761   0.54458   -1.000
 3483.00    0.54494   0.54281  897.916
 3484.00    0.54078   0.54521   -1.000
 3485.00    0.55218   0.55132  897.916
 3486.00    0.57071   0.55633   -1.000
 3487.00    0.56790   0.55554   -1.000
 3488.00    0.56002   0.54833   -1.000
 3489.00    0.55013   0.53867   -1.000
 3490.00    0.53694   0.53252   -1.000
 3491.00    0.52789   0.53265  897.916
 3492.00    0.53596   0.53577  897.916
 3493.00    0.54337   0.53640   -1.000
 3494.00    0.55715   0.53223   -1.000
 3495.00    0.52909   0.52574   -1.000
 3496.00    0.52524   0.52210   -1.000
 3497.00    0.53150   0.52442   -1.000
 3498.00    0.53539   0.53089   -1.000
 3499.00    0.56257   0.53708   -1.000
 3500.00    0.57536   0.54035   -1.000
 3501.00    0.58683   0.54197   -1.000
 3502.00    0.57950   0.54364   -1.000
 3503.00    0.57445   0.54444   -1.000
 3504.00    0.56993   0.54268   -1.000
 3505.00    0.56897   0.53864   -1.000
 3506.00    0.55839   0.53447   -1.000
 3507.00    0.57504   0.53175   -1.000
 3508.00    0.58225   0.53040   -1.000
 3509.00    0.58492   0.52919   -1.000
 3510.00    0.56177   0.52691   -1.000
 3511.00    0.55696   0.52341   -1.000
 3512.00    0.56289   0.51995   -1.000
 3513.00    0.55530   0.51914   -1.000
 3514.00    0.56079   0.52385   -1.000
 3515.00    0.56572   0.53473   -1.000
 3516.00    0.56002   0.54799   -1.000
 3517.00    0.56993   0.55671   -1.000
 3518.00    0.56148   0.55619   -1.000
 3519.00    0.55753   0.54776   -1.000
 3520.00    0.56525   0.53692   -1.000
 3521.00    0.55603   0.52786   -1.000
 3522.00    0.54447   0.52080   -1.000
 3523.00    0.53889   0.51423   -1.000
 3524.00    0.51833   0.50882   -1.000
 3525.00    0.52255   0.50802   -1.000
 3526.00    0.52174   0.51423  156.192
 3527.00    0.53090   0.52610  156.299
 3528.00    0.53614   0.53980  584.070
 3529.00    0.55991   0.55133   -1.000
 3530.00    0.56370   0.55814   -1.000
 3531.00    0.56130   0.55942  897.916
 3532.00    0.56852   0.55583   -1.000
 3533.00    0.55802   0.55024   -1.000
 3534.00    0.57544   0.54715   -1.000
 3535.00    0.58434   0.54983   -1.000
 3536.00    0.57550   0.55780   -1.000
 3537.00    0.56912   0.56746  897.916
 3538.00    0.56977   0.57509   -1.000
 3539.00    0.57820   0.57898  897.916
 3540.00    0.58380   0.57959  897.916
 3541.00    0.57775   0.57908   -1.000
 3542.00    0.57556   0.57985   -1.000
 3543.00    0.57901   0.58219   -1.000
 3544.00    0.58255   0.58403   -1.000
 3545.00    0.58463   0.58362  897.916
 3546.00    0.58076   0.58149  897.916
 3547.00    0.57911   0.57952  897.916
 3548.00    0.56540   0.57925   -1.000
 3549.00    0.54890   0.58085   -1.000
 3550.00    0.56074   0.58271   -1.000
 3551.00    0.56987   0.58213   -1.000
 3552.00    0.57015   0.57788   -1.000
 3553.00    0.55950   0.57222   -1.000
 3554.00    0.55507   0.56907   -1.000
 3555.00    0.56450   0.57047   -1.000
 3556.00    0.57164   0.57529   -1.000
 3557.00    0.55520   0.58053   -1.000
 3558.00    0.56681   0.58367   -1.000
 3559.00    0.56217   0.58465   -1.000
 3560.00    0.56207   0.58472   -1.000
 3561.00    0.56552   0.58366   -1.000
 3562.00    0.56086   0.57912   -1.000
 3563.00    0.54295   0.56927   -1.000
 3564.00    0.53566   0.55570   -1.000
 3565.00    0.52974   0.54293   -1.000
 3566.00    0.50191   0.53482   -1.000
 3567.00    0.51247   0.53134  158.300
 3568.00    0.51121   0.52903  157.990
 3569.00    0.49946   0.52470   -1.000
 3570.00    0.50514   0.51876  161.122
 3571.00    0.52149   0.51439  164.580
 3572.00    0.53059   0.51382  160.882
 3573.00    0.52498   0.51676  154.041
 3574.00    0.52363   0.52205  548.440
 3575.00    0.52716   0.52844  897.916
 3576.00    0.52591   0.53435   -1.000
 3577.00    0.53106   0.53785   -1.000
 3578.00    0.54070   0.53697   -1.000
 3579.00    0.53742   0.53134   -1.000
 3580.00    0.50877   0.52322  192.197
 3581.00    0.49583   0.51618  168.429
 3582.00    0.50584   0.51220  178.506
 3583.00    0.49151   0.50916  181.286
 3584.00    0.48776   0.50294  182.095
 3585.00    0.48534   0.49319  185.965
 3586.00    0.47475   0.48526  191.847
 3587.00    0.48191   0.48534  195.254
 3588.00    0.48517   0.49497  187.661
 3589.00    0.50000   0.51028  177.718
 3590.00    0.53281   0.52530  168.968
 3591.00    0.55315   0.53603  155.061
 3592.00    0.55349   0.54242   -1.000
 3593.00    0.55993   0.54739   -1.000
 3594.00    0.56925   0.55377   -1.000
 3595.00    0.56001   0.56179  897.916
 3596.00    0.56924   0.56947  897.916
 3597.00    0.58410   0.57508   -1.000
 3598.00    0.58806   0.57801   -1.000
 3599.00    0.59226   0.57754   -1.000
 3600.00    0.59572   0.57259   -1.000
 3601.00    0.57667   0.56384   -1.000
 3602.00    0.56429   0.55477   -1.000
 3603.00    0.55651   0.54920   -1.000
 3604.00    0.54986   0.54796  897.916
 3605.00    0.54820   0.54835  897.916
 3606.00    0.54317   0.54731   -1.000
 3607.00    0.54841   0.54432   -1.000
 3608.00    0.54141   0.54104  897.916
 3609.00    0.53484   0.53930   -1.000
 3610.00    0.55714   0.54007   -1.000
 3611.00    0.56037   0.54334   -1.000
 3612.00    0.55083   0.54860  897.916
 3613.00    0.53588   0.55562   -1.000
 3614.00    0.54795   0.56380   -1.000
 3615.00    0.57162   0.56990  897.916
 3616.00    0.57231   0.56941   -1.000
 3617.00    0.54191   0.56170   -1.000
 3618.00    0.51877   0.55214   -1.000
 3619.00    0.52565   0.54825   -1.000
 3620.00    0.54462   0.55312  186.108
 3621.00    0.56456   0.56355  512.154
 3622.00    0.57864   0.57447   -1.000
 3623.00    0.58103   0.58405  897.916
 3624.00    0.58680   0.59407   -1.000
 3625.00    0.59198   0.60589   -1.000
 3626.00    0.59948   0.61666   -1.000
 3627.00    0.60321   0.61995   -1.000
 3628.00    0.60387   0.61104   -1.000
 3629.00    0.58518   0.59197   -1.000
 3630.00    0.55724   0.57130   -1.000
 3631.00    0.53863   0.55857   -1.000
 3632.00    0.54867   0.55768   -1.000
 3633.00    0.55690   0.56495   -1.000
 3634.00    0.56489   0.57347   -1.000
 3635.00    0.57520   0.57965   -1.000
 3636.00    0.58199   0.58510  897.916
 3637.00    0.58587   0.59212   -1.000
 3638.00    0.59923   0.59951  897.916
 3639.00    0.60989   0.60377   -1.000
 3640.00    0.60399   0.60246  897.916
 3641.00    0.59835   0.59579  897.916
 3642.00    0.58205   0.58627   -1.000
 3643.00    0.57582   0.57707  897.916
 3644.00    0.57739   0.57009   -1.000
 3645.00    0.56806   0.56561  897.916
 3646.00    0.56053   0.56327  897.916
 3647.00    0.56183   0.56283  897.916
 3648.00    0.56440   0.56415  897.916
 3649.00    0.57223   0.56735   -1.000
 3650.00    0.57388   0.57288  897.916
 3651.00    0.57252   0.58104   -1.000
 3652.00    0.58929   0.59111  897.916
 3653.00    0.60380   0.60165  897.916
 3654.00    0.60919   0.61152   -1.000
 3655.00    0.61765   0.61987   -1.000
 3656.00    0.60848   0.62582   -1.000
 3657.00    0.60009   0.62881   -1.000
 3658.00    0.60643   0.62886   -1.000
 3659.00    0.61086   0.62630   -1.000
 3660.00    0.61544   0.62161   -1.000
 3661.00    0.61139   0.61595   -1.000
 3662.00    0.60512   0.61127   -1.000
 3663.00    0.60010   0.60921   -1.000
 3664.00    0.61190   0.60973  897.916
 3665.00    0.61204   0.61106  897.916
 3666.00    0.61922   0.61112   -1.000
 3667.00    0.62818   0.60912   -1.000
 3668.00    0.61592   0.60613   -1.000
 3669.00    0.60916   0.60447   -1.000
 3670.00    0.59845   0.60599   -1.000
 3671.00    0.61540   0.61057   -1.000
 3672.00    0.61892   0.61571  897.916
 3673.00    0.61266   0.61809   -1.000
 3674.00    0.61080   0.61571   -1.000
 3675.00    0.61085   0.60862  897.916
 3676.00    0.60326   0.59862   -1.000
 3677.00    0.58938   0.58905  897.916
 3678.00    0.57877   0.58348   -1.000
 3679.00    0.58910   0.58340   -1.000
 3680.00    0.59842   0.58717   -1.000
 3681.00    0.60365   0.59149   -1.000
 3682.00    0.60553   0.59356   -1.000
 3683.00    0.59691   0.59201   -1.000
 3684.00    0.59396   0.58727   -1.000
 3685.00    0.58051   0.58206  897.916
 3686.00    0.56868   0.58113   -1.000
 3687.00    0.57047   0.58818   -1.000
 3688.00    0.58583   0.60181   -1.000
 3689.00    0.60252   0.61580   -1.000
 3690.00    0.60830   0.62465   -1.000
 3691.00    0.60975   0.62806   -1.000
 3692.00    0.61567   0.62934   -1.000
 3693.00    0.62800   0.63075  897.916
 3694.00    0.63042   0.63148  897.916
 3695.00    0.62160   0.63010   -1.000
 3696.00    0.61201   0.62845   -1.000
 3697.00    0.61713   0.63191   -1.000
 3698.00    0.64476   0.64346  897.916
 3699.00    0.66926   0.65801   -1.000
 3700.00    0.67153   0.66415   -1.000
 3701.00    0.64211   0.65297   -1.000
 3702.00    0.61539   0.62600   -1.000
 3703.00    0.59413   0.59468  897.916
 3704.00    0.57187   0.57251  897.916
 3705.00    0.56156   0.56668  897.916
 3706.00    0.57715   0.57482   -1.000
 3707.00    0.58850   0.58773  897.916
 3708.00    0.59941   0.59569   -1.000
 3709.00    0.60042   0.59467   -1.000
 3710.00    0.59392   0.58872   -1.000
 3711.00    0.59663   0.58691   -1.000
 3712.00    0.60976   0.59688   -1.000
 3713.00    0.63708   0.61949   -1.000
 3714.00    0.65630   0.64781   -1.000
 3715.00    0.66236   0.67168   -1.000
 3716.00    0.68102   0.68279  897.916
 3717.00    0.67393   0.67576  897.916
 3718.00    0.64102   0.64856   -1.000
 3719.00    0.59529   0.60639   -1.000
 3720.00    0.53925   0.56373   -1.000
 3721.00    0.50523   0.53826   -1.000
 3722.00    0.52989   0.54081  197.271
 3723.00    0.58223   0.56959   -1.000
 3724.00    0.62906   0.61095   -1.000
 3725.00    0.65254   0.64775   -1.000
 3726.00    0.66159   0.67108   -1.000
 3727.00    0.65749   0.68287   -1.000
 3728.00    0.66333   0.68753   -1.000
 3729.00    0.67232   0.68403   -1.000
 3730.00    0.66270   0.66615  897.916
 3731.00    0.63058   0.62995  897.916
 3732.00    0.57958   0.58116  897.916
 3733.00    0.53619   0.53442  897.916
 3734.00    0.50825   0.50586  193.877
 3735.00    0.50166   0.50548  164.594
 3736.00    0.52195   0.53282  174.212
 3737.00    0.57517   0.57832  169.003
 3738.00    0.62949   0.62885  154.714
 3739.00    0.66396   0.67186  451.031
 3740.00    0.68765   0.69818   -1.000
 3741.00    0.71193   0.70521   -1.000
 3742.00    0.69328   0.69708   -1.000
 3743.00    0.68204   0.68006  897.916
 3744.00    0.66441   0.65796   -1.000
 3745.00    0.63236   0.63131  897.916
 3746.00    0.59741   0.59968  897.916
 3747.00    0.56462   0.56485  897.916
 3748.00    0.53000   0.53331  198.271
 3749.00    0.50956   0.51612  160.679
 3750.00    0.51373   0.52355  164.584
 3751.00    0.55645   0.55688  490.016
 3752.00    0.61405   0.60606   -1.000
 3753.00    0.66091   0.65574   -1.000
 3754.00    0.70201   0.69307   -1.000
 3755.00    0.72825   0.71125   -1.000
 3756.00    0.72407   0.70991   -1.000
 3757.00    0.68908   0.69557   -1.000
 3758.00    0.67392   0.67942   -1.000
 3759.00    0.67422   0.67096  897.916
 3760.00    0.68490   0.67308   -1.000
 3761.00    0.69749   0.68224   -1.000
 3762.00    0.71277   0.69186   -1.000
 3763.00    0.71172   0.69620   -1.000
 3764.00    0.70243   0.69231   -1.000
 3765.00    0.70523   0.67953   -1.000
 3766.00    0.67997   0.65792   -1.000
 3767.00    0.65775   0.62857   -1.000
 3768.00    0.62695   0.59583   -1.000
 3769.00    0.58003   0.56881   -1.000
 3770.00    0.56575   0.55857   -1.000
 3771.00    0.58876   0.57119   -1.000
 3772.00    0.63126   0.60213   -1.000
 3773.00    0.66242   0.63907   -1.000
 3774.00    0.68775   0.67136   -1.000
 3775.00    0.70329   0.69664   -1.000
 3776.00    0.71680   0.71891   -1.000
 3777.00    0.74261   0.74215  897.916
 3778.00    0.76889   0.76623  897.916
 3779.00    0.78304   0.78801   -1.000
 3780.00    0.79097   0.80405   -1.000
 3781.00    0.80356   0.81229   -1.000
 3782.00    0.80606   0.81295   -1.000
 3783.00    0.80334   0.80765   -1.000
 3784.00    0.80266   0.79739  897.916
 3785.00    0.78561   0.78258  897.916
 3786.00    0.76596   0.76524   -1.000
 3787.00    0.74917   0.74975   -1.000
 3788.00    0.74686   0.74014   -1.000
 3789.00    0.74844   0.73631   -1.000
 3790.00    0.74517   0.73379   -1.000
 3791.00    0.73829   0.72659   -1.000
 3792.00    0.71315   0.70998   -1.000
 3793.00    0.68882   0.68201   -1.000
 3794.00    0.65889   0.64417   -1.000
 3795.00    0.62538   0.60131   -1.000
 3796.00    0.57929   0.56139   -1.000
 3797.00    0.53532   0.53554  897.916
 3798.00    0.53827   0.53516  897.916
 3799.00    0.57333   0.56444   -1.000
 3800.00    0.61650   0.61510  897.916
 3801.00    0.67022   0.67079  164.901
 3802.00    0.70779   0.71719  116.862
 3803.00    0.74095   0.74809  110.695
 3804.00    0.75764   0.76451  107.665
 3805.00    0.76442   0.77171  106.616
 3806.00    0.76104   0.77702  107.693
 3807.00    0.75396   0.78640   -1.000
 3808.00    0.77856   0.80066  113.919
 3809.00    0.80822   0.81461  112.226
 3810.00    0.81764   0.82013  108.170
 3811.00    0.80661   0.81183  106.186
 3812.00    0.79155   0.79203  107.442
 3813.00    0.78082   0.77027  112.311
 3814.00    0.75902   0.75696  119.099
 3815.00    0.75835   0.75648  126.330
 3816.00    0.77238   0.76456  132.570
 3817.00    0.78152   0.77169  132.378
 3818.00    0.77830   0.77040  127.954
 3819.00    0.75449   0.76139  128.261
 3820.00    0.74463   0.75205  135.517
 3821.00    0.75514   0.74781  143.315
 3822.00    0.75782   0.74546  142.725
 3823.00    0.74526   0.73739  136.987
 3824.00    0.72147   0.72167  136.349
 3825.00    0.69587   0.70393  145.424
 3826.00    0.68100   0.68986   21.125
 3827.00    0.68222   0.67999   16.093
 3828.00    0.67462   0.67098   16.080
 3829.00    0.66649   0.65846   15.848
 3830.00    0.64984   0.63797   15.588
 3831.00    0.61774   0.60659   15.663
 3832.00    0.58757   0.56608   16.242
 3833.00    0.54523   0.52495   17.398
 3834.00    0.50876   0.49523   18.170
 3835.00    0.50032   0.48579   18.044
 3836.00    0.51944   0.49802   17.402
 3837.00    0.54790   0.52649   16.934
 3838.00    0.57460   0.56307   17.101
 3839.00    0.59845   0.60179   17.509
 3840.00    0.63552   0.64062   17.390
 3841.00    0.68306   0.67910   16.563
 3842.00    0.72732   0.71570   44.802
 3843.00    0.75272   0.74749  137.199
 3844.00    0.76391   0.77212  127.337
 3845.00    0.77994   0.78955  123.482
 3846.00    0.78702   0.80105  122.899
 3847.00    0.79019   0.80724  122.860
 3848.00    0.79740   0.80880  123.012
 3849.00    0.79006   0.80894   -1.000
 3850.00    0.79004   0.81262   -1.000
 3851.00    0.79693   0.82175   -1.000
 3852.00    0.80916   0.83244   -1.000
 3853.00    0.82100   0.83839   -1.000
 3854.00    0.81887   0.83634   -1.000
 3855.00    0.80758   0.82798   -1.000
 3856.00    0.79010   0.81747   -1.000
 3857.00    0.78572   0.80838   -1.000
 3858.00    0.77278   0.80330   -1.000
 3859.00    0.75811   0.80460   20.268
 3860.00    0.76082   0.81290   15.680
 3861.00    0.78813   0.82509   15.695
 3862.00    0.82925   0.83589   42.076
 3863.00    0.84544   0.84178  129.148
 3864.00    0.84191   0.84318  121.350
 3865.00    0.83810   0.84332  120.474
 3866.00    0.83142   0.84512  122.491
 3867.00    0.82651   0.84822   -1.000
 3868.00    0.82438   0.84870   -1.000
 3869.00    0.80817   0.84226   -1.000
 3870.00    0.78806   0.82816   -1.000
 3871.00    0.76119   0.81073   -1.000
 3872.00    0.76220   0.79731   20.675
 3873.00    0.77431   0.79303   41.352
 3874.00    0.78734   0.79570  137.196
 3875.00    0.80381   0.79702  124.624
 3876.00    0.78708   0.79043  118.146
 3877.00    0.75463   0.77766   -1.000
 3878.00    0.73768   0.76622   -1.000
 3879.00    0.74016   0.76075   -1.000
 3880.00    0.72836   0.75836   -1.000
 3881.00    0.70778   0.75282   -1.000
 3882.00    0.70233   0.74034   -1.000
 3883.00    0.70891   0.71948  141.629
 3884.00    0.69907   0.68861  131.385
 3885.00    0.66740   0.64729  122.455
 3886.00    0.63356   0.60056   -1.000
 3887.00    0.59612   0.55998   -1.000
 3888.00    0.55571   0.53907  130.625
 3889.00    0.55839   0.54617  130.727
 3890.00    0.59681   0.57899  127.351
 3891.00    0.64600   0.62496  118.447
 3892.00    0.68999   0.66862  108.374
 3893.00    0.72082   0.70098  103.054
 3894.00    0.72904   0.72261  102.361
 3895.00    0.74204   0.73886  103.769
 3896.00    0.76170   0.75332  104.194
 3897.00    0.77765   0.76555  102.040
 3898.00    0.78906   0.77433   99.208
 3899.00    0.79370   0.78131   99.722
 3900.00    0.80642   0.78951  101.312
 3901.00    0.80914   0.79878  100.677
 3902.00    0.81549   0.80593   99.579
 3903.00    0.82290   0.80883  100.005
 3904.00    0.82114   0.80939  103.363
 3905.00    0.80761   0.81268  106.469
 3906.00    0.80258   0.82365  109.500
 3907.00    0.83184   0.84307  109.807
 3908.00    0.85931   0.86598  104.842
 3909.00    0.87556   0.88483   97.969
 3910.00    0.88352   0.89452   94.412
 3911.00    0.88247   0.89423   93.194
 3912.00    0.87588   0.88645   92.328
 3913.00    0.87299   0.87597   91.685
 3914.00    0.86531   0.86784   92.300
 3915.00    0.86686   0.86414   93.995
 3916.00    0.86316   0.86278   96.145
 3917.00    0.85632   0.86029   97.674
 3918.00    0.85156   0.85538   98.951
 3919.00    0.83886   0.84954  101.388
 3920.00    0.83354   0.84510  105.452
 3921.00    0.82505   0.84324  110.416
 3922.00    0.82448   0.84330   -1.000
 3923.00    0.84114   0.84277  113.509
 3924.00    0.84869   0.83755  111.687
 3925.00    0.83171   0.82340  111.692
 3926.00    0.80041   0.79803  115.895
 3927.00    0.76224   0.76170  125.477
 3928.00    0.72166   0.71541  139.832
 3929.00    0.66583   0.65878   23.227
 3930.00    0.58641   0.59126   18.669
 3931.00    0.49417   0.51792   21.856
 3932.00    0.41338   0.45444   25.766
 3933.00    0.37559   0.42211   30.262
 3934.00    0.40640   0.43420   33.812
 3935.00    0.48636   0.48602   33.728
 3936.00    0.57859   0.55949   30.090
 3937.00    0.65573   0.63552   25.198
 3938.00    0.71562   0.70165   20.726
 3939.00    0.75722   0.75226   17.312
 3940.00    0.78168   0.78646   41.660
 3941.00    0.79484   0.80649  138.021
 3942.00    0.79671   0.81708   -1.000
 3943.00    0.80039   0.82387   -1.000
 3944.00    0.81386   0.83109   -1.000
 3945.00    0.83202   0.83971  124.083
 3946.00    0.84769   0.84751  114.107
 3947.00    0.85480   0.85156  106.337
 3948.00    0.85621   0.85118  103.689
 3949.00    0.86113   0.84839  102.858
 3950.00    0.86936   0.84589   99.972
 3951.00    0.86595   0.84564   96.555
 3952.00    0.86649   0.84807   95.899
 3953.00    0.87434   0.85118   97.046
 3954.00    0.86982   0.85122   96.286
 3955.00    0.85823   0.84603   94.056
 3956.00    0.84412   0.83742   94.034
 3957.00    0.83854   0.82866   96.763
 3958.00    0.84097   0.81959   98.978
 3959.00    0.82987   0.80580   98.224
 3960.00    0.79170   0.78331   99.230
 3961.00    0.75415   0.75227  107.171
 3962.00    0.72139   0.71502  120.388
 3963.00    0.68310   0.67105  134.185
 3964.00    0.63706   0.61606   -1.000
 3965.00    0.56360   0.54658   22.248
 3966.00    0.46140   0.46740   17.547
 3967.00    0.35874   0.39413   21.277
 3968.00    0.30505   0.34783   26.121
 3969.00    0.31181   0.34332   29.902
 3970.00    0.37087   0.38115   29.334
 3971.00    0.46081   0.44808   25.005
 3972.00    0.55314   0.52582   20.553
 3973.00    0.62072   0.59997   17.108
 3974.00    0.68710   0.66380   39.837
 3975.00    0.73794   0.71609  128.344
 3976.00    0.76867   0.75813  114.961
 3977.00    0.80506   0.79172  105.243
 3978.00    0.84005   0.81775   98.439
 3979.00    0.86157   0.83588   93.097
 3980.00    0.86676   0.84628   88.120
 3981.00    0.86218   0.85187   85.913
 3982.00    0.87976   0.85774   86.031
 3983.00    0.89525   0.86750   87.382
 3984.00    0.90865   0.88044   87.489
 3985.00    0.92476   0.89311   86.009
 3986.00    0.92441   0.90341   84.271
 3987.00    0.92305   0.91165   82.816
 3988.00    0.92870   0.91879   81.305
 3989.00    0.93879   0.92560   80.277
 3990.00    0.94557   0.93304   80.245
 3991.00    0.95351   0.94151   79.999
 3992.00    0.96607   0.94928   78.548
 3993.00    0.97383   0.95274   76.649
 3994.00    0.96842   0.94901   76.686
 3995.00    0.94989   0.93933   78.276
 3996.00    0.93201   0.92926   80.121
 3997.00    0.93372   0.92506   81.756
 3998.00    0.94395   0.92905   82.721
 3999.00    0.95684   0.93847   81.645
 4000.00    0.97077   0.94800   78.442
 4001.00    0.97699   0.95333   75.468
 4002.00    0.98480   0.95259   73.846
 4003.00    0.97556   0.94658   72.763
 4004.00    0.95342   0.93915   73.404
 4005.00    0.93895   0.93617   77.274
 4006.00    0.94086   0.94165   81.749
 4007.00    0.96558   0.95398   82.649
 4008.00    0.98828   0.96737   79.073
 4009.00    0.98646   0.97675   75.448
 4010.00    0.98992   0.98064   73.837
 4011.00    0.97592   0.98072   73.003
 4012.00    1.00378   0.98007   72.586
 4013.00    1.00487   0.98137   72.869
 4014.00    0.99395   0.98549   73.316
 4015.00    1.00366   0.99146   73.068
 4016.00    1.01165   0.99786   72.172
 4017.00    1.00634   1.00393   72.256
 4018.00    1.00991   1.00917   73.086
 4019.00    1.00979   1.01219   73.142
 4020.00    1.00596   1.01113   72.240
 4021.00    1.00491   1.00541   71.985
 4022.00    0.99890   0.99663   72.772
 4023.00    0.99357   0.98841   73.420
 4024.00    0.99283   0.98505   73.877
 4025.00    0.98560   0.98858   74.427
 4026.00    1.00000   0.99593   73.356
 4027.00    1.00772   1.00035   70.957
 4028.00    1.00670   0.99670   69.157
 4029.00    0.99258   0.98529   69.130
 4030.00    0.96295   0.97132   71.270
 4031.00    0.95156   0.96111   75.549
 4032.00    0.95937   0.95855   79.442
 4033.00    0.95951   0.96439   81.165
 4034.00    0.96788   0.97746   80.760
 4035.00    0.98822   0.99536   78.611
 4036.00    1.01176   1.01418   75.114
 4037.00    1.02353   1.02884   71.386
 4038.00    1.02647   1.03565   68.547
 4039.00    1.02516   1.03474   67.590
 4040.00    1.01307   1.02895   68.490
 4041.00    1.00799   1.02002   70.093
 4042.00    1.00737   1.00684   71.164
 4043.00    0.99670   0.98865   71.640
 4044.00    0.96888   0.96975   74.042
 4045.00    0.93982   0.95906   80.072
 4046.00    0.94323   0.96316   86.925
 4047.00    0.98017   0.97971   86.677
 4048.00    1.01481   0.99955   79.639
 4049.00    1.02165   1.01429   73.819
 4050.00    1.01792   1.02069   70.957
 4051.00    1.01337   1.01960   69.760
 4052.00    1.00623   1.01385   69.823
 4053.00    0.99729   1.00712   71.277
 4054.00    0.99667   1.00242   73.186
 4055.00    0.99518   1.00091   74.580
 4056.00    0.99397   1.00240   75.355
 4057.00    0.99890   1.00658   75.889
 4058.00    0.99899   1.01192   76.590
 4059.00    1.00251   1.01422   76.259
 4060.00    1.00940   1.00903   74.074
 4061.00    1.00120   0.99578   72.175
 4062.00    0.97929   0.97866   72.521
 4063.00    0.95935   0.96405   76.461
 4064.00    0.95750   0.95699   81.954
 4065.00    0.96748   0.95840   83.012
 4066.00    0.97364   0.96487   79.743
 4067.00    0.98371   0.97143   77.101
 4068.00    1.00310   0.97396   75.106
 4069.00    1.00758   0.97029   72.802
 4070.00    0.99469   0.96178   71.387
 4071.00    0.98200   0.95362   72.933
 4072.00    0.97625   0.95043   76.182
 4073.00    0.97784   0.95097   77.018
 4074.00    0.97238   0.94872   74.884
 4075.00    0.96308   0.93911   73.647
 4076.00    0.93797   0.92564   75.863
 4077.00    0.92078   0.91793   81.424
 4078.00    0.93262   0.92342   85.519
 4079.00    0.95633   0.94030   84.453
 4080.00    0.97227   0.95924   79.563
 4081.00    0.98249   0.97100   74.042
 4082.00    0.97843   0.97252   70.827
 4083.00    0.96049   0.96714   70.894
 4084.00    0.95139   0.96105   72.946
 4085.00    0.96221   0.95932   74.569
 4086.00    0.97286   0.96334   74.209
 4087.00    0.97854   0.97060   72.140
 4088.00    0.98260   0.97659   69.455
 4089.00    0.97810   0.97789   67.064
 4090.00    0.97354   0.97384   66.518
 4091.00    0.96706   0.96527   67.555
 4092.00    0.95566   0.95274   68.884
 4093.00    0.94616   0.93646   69.839
 4094.00    0.93408   0.91621   70.146
 4095.00    0.90998   0.89159   71.000
 4096.00    0.87919   0.86175   73.597
 4097.00    0.85548   0.82510   76.425
 4098.00    0.83406   0.78021   -1.000
 4099.00    0.78635   0.72933   -1.000
 4100.00    0.71511   0.68295   81.940
 4101.00    0.65565   0.65749   88.492
 4102.00    0.65510   0.66562   95.472
 4103.00    0.71393   0.70536   96.459
 4104.00    0.78600   0.76116   90.239
 4105.00    0.84299   0.81426   82.938
 4106.00    0.87812   0.85384   77.800
 4107.00    0.89104   0.87875   74.818
 4108.00    0.89607   0.89360   73.798
 4109.00    0.90505   0.90421   74.150
 4110.00    0.91998   0.91512   75.357
 4111.00    0.93408   0.92861   76.615
 4112.00    0.95107   0.94446   76.387
 4113.00    0.96381   0.96077   74.897
 4114.00    0.97196   0.97457   73.456
 4115.00    0.98052   0.98279   72.285
 4116.00    0.98573   0.98393   71.438
 4117.00    0.97907   0.97944   71.424
 4118.00    0.96605   0.97332   72.546
 4119.00    0.96060   0.96962   74.702
 4120.00    0.96122   0.96977   76.187
 4121.00    0.96755   0.97277   75.859
 4122.00    0.97913   0.97769   74.990
 4123.00    0.98899   0.98423   74.766
 4124.00    0.99726   0.99088   74.285
 4125.00    1.00376   0.99458   73.132
 4126.00    0.99974   0.99330   72.502
 4127.00    0.99394   0.98825   73.057
 4128.00    0.98886   0.98243   74.446
 4129.00    0.98326   0.97737   75.430
 4130.00    0.97971   0.97276   75.883
 4131.00    0.97025   0.96926   76.631
 4132.00    0.95863   0.97002   78.536
 4133.00    0.96059   0.97768   81.048
 4134.00    0.97260   0.99148   82.111
 4135.00    0.99189   1.00789   80.402
 4136.00    1.01571   1.02342   76.780
 4137.00    1.02768   1.03602   73.769
 4138.00    1.03231   1.04418   72.164
 4139.00    1.03288   1.04556   71.038
 4140.00    1.02714   1.03813   70.458
 4141.00    1.01489   1.02294   71.286
 4142.00    0.98712   1.00578   74.225
 4143.00    0.96864   0.99502   -1.000
 4144.00    0.97659   0.99568   84.891
 4145.00    0.99321   1.00537   84.443
 4146.00    1.00564   1.01659   79.947
 4147.00    1.01430   1.02341   76.281
 4148.00    1.01285   1.02522   74.767
 4149.00    1.00176   1.02481   75.410
 4150.00    0.99856   1.02427   -1.000
 4151.00    1.00567   1.02312   78.737
 4152.00    1.00441   1.02026   78.709
 4153.00    0.99125   1.01622   -1.000
 4154.00    0.97035   1.01337   -1.000
 4155.00    1.03963   1.01415   79.601
 4156.00    1.22709   1.01924   -1.000
 4157.00    1.14532   1.02722   -1.000
 4158.00    0.83102   1.03520   -1.000
 4159.00    0.85792   1.04068   -1.000
 4160.00    1.03596   1.04319   75.397
 4161.00    1.04819   1.04440   75.425
 4162.00    1.02262   1.04633   73.752
 4163.00    1.02590   1.04951   72.377
 4164.00    1.03650   1.05265   72.375
 4165.00    1.03223   1.05362   73.309
 4166.00    1.01647   1.05189   -1.000
 4167.00    1.01316   1.04827   -1.000
 4168.00    1.02007   1.04254   77.312
 4169.00    1.02268   1.03233   77.369
 4170.00    1.00697   1.01576   76.270
 4171.00    0.98281   0.99596   76.261
 4172.00    0.96108   0.98062   79.420
 4173.00    0.95196   0.97629   -1.000
 4174.00    0.95407   0.98287   -1.000
 4175.00    0.96387   0.99306   -1.000
 4176.00    0.97116   0.99992   -1.000
 4177.00    0.97211   1.00278   -1.000
 4178.00    0.97718   1.00585   -1.000
 4179.00    0.98545   1.01195   -1.000
 4180.00    1.00133   1.01891   79.526
 4181.00    1.00966   1.02381   78.565
 4182.00    1.00504   1.02664   78.329
 4183.00    1.00417   1.02858   -1.000
 4184.00    1.01254   1.02938   76.521
 4185.00    1.01451   1.02766   75.085
 4186.00    1.00347   1.02372   74.658
 4187.00    0.98585   1.02065   -1.000
 4188.00    0.98616   1.02076   -1.000
 4189.00    0.99867   1.02344   79.083
 4190.00    1.00606   1.02701   77.642
 4191.00    1.00941   1.03079   76.667
 4192.00    1.01326   1.03439   75.873
 4193.00    1.02094   1.03571   74.449
 4194.00    1.02442   1.03149   73.214
 4195.00    1.00596   1.02089   74.175
 4196.00    0.98238   1.00647   -1.000
 4197.00    0.96962   0.99254   -1.000
 4198.00    0.96049   0.98291   -1.000
 4199.00    0.96021   0.97908   83.185
 4200.00    0.96705   0.97972   82.660
 4201.00    0.96676   0.98292   81.467
 4202.00    0.97053   0.98827   80.828
 4203.00    0.98013   0.99584   80.440
 4204.00    0.98251   1.00494   79.442
 4205.00    0.98313   1.01453   -1.000
 4206.00    0.99081   1.02344   -1.000
 4207.00    1.00121   1.03015   -1.000
 4208.00    1.01193   1.03410   74.006
 4209.00    1.01384   1.03641   73.239
 4210.00    1.01183   1.03855   73.310
 4211.00    1.01500   1.04027   73.342
 4212.00    1.01566   1.03878   72.951
 4213.00    1.00770   1.03166   73.010
 4214.00    0.99576   1.02105   -1.000
 4215.00    0.97704   1.01294   -1.000
 4216.00    0.97461   1.01317   -1.000
 4217.00    0.99094   1.02179   -1.000
 4218.00    1.00781   1.03374   75.295
 4219.00    1.02091   1.04330   71.369
 4220.00    1.03114   1.04661   68.963
 4221.00    1.02915   1.04103   67.790
 4222.00    1.01096   1.02528   67.905
 4223.00    0.98531   0.99999   69.877
 4224.00    0.95516   0.97083   74.036
 4225.00    0.91817   0.94718   -1.000
 4226.00    0.89564   0.93971   -1.000
 4227.00    0.90692   0.95330   -1.000
 4228.00    0.94963   0.98225   -1.000
 4229.00    0.99906   1.01203   87.695
 4230.00    1.02093   1.02969   77.576
 4231.00    1.01571   1.03174   72.110
 4232.00    0.99887   1.02362   70.370
 4233.00    0.98733   1.01394   71.180
 4234.00    0.98715   1.00877   72.995
 4235.00    0.98429   1.00909   74.190
 4236.00    0.98012   1.01330   -1.000
 4237.00    0.98096   1.02015   -1.000
 4238.00    0.98946   1.02868   -1.000
 4239.00    0.99648   1.03822   -1.000
 4240.00    1.00538   1.04758   -1.000
 4241.00    1.01172   1.05536   -1.000
 4242.00    1.00729   1.06035   -1.000
 4243.00    1.01201   1.06093   -1.000
 4244.00    1.01734   1.05585   -1.000
 4245.00    1.00755   1.04490   -1.000
 4246.00    0.98946   1.03093   -1.000
 4247.00    0.97414   1.01861   -1.000
 4248.00    0.96318   1.01116   -1.000
 4249.00    0.95858   1.00913   -1.000
 4250.00    0.96302   1.01212   -1.000
 4251.00    0.97875   1.01841   -1.000
 4252.00    0.99496   1.02504   -1.000
 4253.00    1.00309   1.03025   74.335
 4254.00    1.00046   1.03437   -1.000
 4255.00    0.99474   1.03795   -1.000
 4256.00    1.00224   1.03943   -1.000
 4257.00    1.00734   1.03616   73.191
 4258.00    0.99706   1.02879   71.660
 4259.00    0.97422   1.02224   -1.000
 4260.00    0.95735   1.02240   -1.000
 4261.00    0.96646   1.03190   -1.000
 4262.00    0.99483   1.04767   -1.000
 4263.00    1.01537   1.06311   -1.000
 4264.00    1.02305   1.07248   -1.000
 4265.00    1.02741   1.07410   -1.000
 4266.00    1.02722   1.06876   -1.000
 4267.00    1.01839   1.05746   -1.000
 4268.00    1.00911   1.04110   69.851
 4269.00    0.99024   1.02108   72.084
 4270.00    0.96459   1.00113   -1.000
 4271.00    0.93887   0.98672   -1.000
 4272.00    0.93376   0.98218   -1.000
 4273.00    0.93902   0.98807   -1.000
 4274.00    0.94417   1.00208   -1.000
 4275.00    0.96723   1.02078   -1.000
 4276.00    0.99396   1.03968   -1.000
 4277.00    1.01063   1.05350   -1.000
 4278.00    1.00893   1.05891   -1.000
 4279.00    0.98983   1.05616   -1.000
 4280.00    0.98124   1.04904   -1.000
 4281.00    0.97435   1.04206   -1.000
 4282.00    0.97773   1.03751   -1.000
 4283.00    0.98587   1.03516   -1.000
 4284.00    0.98327   1.03213   -1.000
 4285.00    0.97456   1.02495   -1.000
 4286.00    0.96338   1.01178   -1.000
 4287.00    0.95561   0.99409   -1.000
 4288.00    0.94038   0.97621   -1.000
 4289.00    0.91388   0.96471   -1.000
 4290.00    0.90179   0.96389   -1.000
 4291.00    0.92002   0.97162   -1.000
 4292.00    0.94441   0.98040   -1.000
 4293.00    0.95995   0.98423   80.417
 4294.00    0.96166   0.98292   77.415
 4295.00    0.95298   0.97790   77.319
 4296.00    0.94469   0.96820   78.419
 4297.00    0.92661   0.95225   80.024
 4298.00    0.89099   0.93074   -1.000
 4299.00    0.86046   0.90899   -1.000
 4300.00    0.84712   0.89372   -1.000
 4301.00    0.84687   0.88879   -1.000
 4302.00    0.85154   0.89342   -1.000
 4303.00    0.85944   0.90344   -1.000
 4304.00    0.87565   0.91206   -1.000
 4305.00    0.88068   0.91405   -1.000
 4306.00    0.86750   0.90977   -1.000
 4307.00    0.84418   0.90442   -1.000
 4308.00    0.83133   0.90446   -1.000
 4309.00    0.83721   0.91185   -1.000
 4310.00    0.85715   0.92340   -1.000
 4311.00    0.87074   0.93413   -1.000
 4312.00    0.87873   0.94294   -1.000
 4313.00    0.89356   0.95450   -1.000
 4314.00    0.92298   0.97371   -1.000
 4315.00    0.96826   1.00095   -1.000
 4316.00    1.00735   1.02902   73.707
 4317.00    1.03017   1.04942   67.751
 4318.00    1.03942   1.05765   64.285
 4319.00    1.02890   1.05476   63.406
 4320.00    1.01665   1.04463   64.039
 4321.00    1.00792   1.02992   65.333
 4322.00    0.98683   1.01126   67.257
 4323.00    0.95374   0.99022   70.163
 4324.00    0.92369   0.97272   -1.000
 4325.00    0.90623   0.96747   -1.000
 4326.00    0.91344   0.97706   -1.000
 4327.00    0.94875   0.99481   -1.000
 4328.00    0.98372   1.01038   76.154
 4329.00    0.99269   1.01770   69.567
 4330.00    0.98563   1.01802   66.786
 4331.00    0.98196   1.01463   66.508
 4332.00    0.98295   1.00810   66.447
 4333.00    0.98129   0.99556   65.586
 4334.00    0.96939   0.97253   64.696
 4335.00    0.94265   0.93519   64.354
 4336.00    0.90566   0.88293   64.952
 4337.00    0.85605   0.82125   67.861
 4338.00    0.78967   0.76306   73.607
 4339.00    0.71633   0.72340   80.671
 4340.00    0.67258   0.71517   -1.000
 4341.00    0.70048   0.74132   -1.000
 4342.00    0.77667   0.79191   88.669
 4343.00    0.84450   0.84991   80.572
 4344.00    0.88909   0.90245   74.350
 4345.00    0.92259   0.94465   71.162
 4346.00    0.94552   0.97640   69.150
 4347.00    0.95837   0.99692   67.690
 4348.00    0.97271   1.00484   66.817
 4349.00    0.97862   1.00048   65.890
 4350.00    0.96734   0.98998   65.529
 4351.00    0.95061   0.98294   67.718
 4352.00    0.94077   0.98684   -1.000
 4353.00    0.95876   1.00229   -1.000
 4354.00    0.99255   1.02311   73.786
 4355.00    1.01262   1.04162   70.464
 4356.00    1.02299   1.05337   67.863
 4357.00    1.02456   1.05863   66.196
 4358.00    1.01965   1.06108   65.649
 4359.00    1.01814   1.06491   -1.000
 4360.00    1.02603   1.07180   -1.000
 4361.00    1.04090   1.08064   67.227
 4362.00    1.04568   1.08892   65.424
 4363.00    1.04283   1.09419   -1.000
 4364.00    1.04759   1.09452   -1.000
 4365.00    1.04600   1.08926   63.214
 4366.00    1.03121   1.07956   -1.000
 4367.00    1.02264   1.06893   -1.000
 4368.00    1.02015   1.06084   -1.000
 4369.00    1.01896   1.05603   67.705
 4370.00    1.02414   1.05241   67.583
 4371.00    1.02773   1.04621   67.021
 4372.00    1.02508   1.03570   66.821
 4373.00    1.01778   1.02325   67.189
 4374.00    1.00182   1.01581   69.063
 4375.00    0.99392   1.01933   71.923
 4376.00    1.00977   1.03328   73.168
 4377.00    1.03133   1.05030   71.338
 4378.00    1.04271   1.06134   67.929
 4379.00    1.05010   1.06072   65.772
 4380.00    1.04895   1.04692   65.560
 4381.00    1.03712   1.02203   66.442
 4382.00    1.00395   0.99338   68.757
 4383.00    0.95728   0.97191   74.483
 4384.00    0.93994   0.96622   -1.000
 4385.00    0.96274   0.97725   87.625
 4386.00    0.99334   0.99733   82.956
 4387.00    1.01823   1.01700   74.974
 4388.00    1.03002   1.03049   70.563
 4389.00    1.02786   1.03705   69.725
 4390.00    1.02669   1.03919   70.242
 4391.00    1.03284   1.03874   70.721
 4392.00    1.03859   1.03535   70.012
 4393.00    1.04141   1.02957   68.478
 4394.00    1.02789   1.02543   68.066
 4395.00    1.02052   1.02723   69.190
 4396.00    1.03474   1.03368   69.743
 4397.00    1.04230   1.03899   67.721
 4398.00    1.04732   1.03914   65.181
 4399.00    1.03989   1.03576   64.906
 4400.00    1.02400   1.03355   66.748
 4401.00    1.02674   1.03387   69.002
 4402.00    1.03859   1.03429   69.408
 4403.00    1.03638   1.03284   68.253
 4404.00    1.02261   1.03100   69.033
 4405.00    1.01271   1.03150   72.498
 4406.00    1.02696   1.03532   74.752
 4407.00    1.03524   1.04142   73.451
 4408.00    1.02985   1.04947   71.685
 4409.00    1.03185   1.05956   70.919
 4410.00    1.04520   1.06954   69.099
 4411.00    1.06315   1.07496   66.203
 4412.00    1.07227   1.07163   63.695
 4413.00    1.06420   1.05897   62.348
 4414.00    1.04004   1.04169   63.004
 4415.00    1.02038   1.02829   65.863
 4416.00    1.01337   1.02560   68.958
 4417.00    1.02093   1.03540   69.774
 4418.00    1.03963   1.05292   68.122
 4419.00    1.05910   1.07014   65.419
 4420.00    1.07092   1.08062   63.181
 4421.00    1.06960   1.08362   62.627
 4422.00    1.05754   1.08287   63.783
 4423.00    1.05238   1.08159   65.221
 4424.00    1.05670   1.08052   65.514
 4425.00    1.05471   1.07961   65.121
 4426.00    1.04939   1.07942   65.121
 4427.00    1.04640   1.08078   65.419
 4428.00    1.04675   1.08348   65.303
 4429.00    1.05023   1.08626   64.930
 4430.00    1.05323   1.08767   65.184
 4431.00    1.05700   1.08663   65.631
 4432.00    1.06351   1.08256   65.279
 4433.00    1.05555   1.07646   64.620
 4434.00    1.03101   1.07228   -1.000
 4435.00    1.02015   1.07495   -1.000
 4436.00    1.04082   1.08592   -1.000
 4437.00    1.07658   1.10031   69.059
 4438.00    1.09813   1.10992   65.336
 4439.00    1.10002   1.10820   61.984
 4440.00    1.08876   1.09506   60.762
 4441.00    1.06595   1.07659   61.816
 4442.00    1.04469   1.06234   64.409
 4443.00    1.03410   1.05986   67.348
 4444.00    1.03295   1.07015   -1.000
 4445.00    1.04997   1.08688   -1.000
 4446.00    1.07400   1.10161   64.507
 4447.00    1.08466   1.10990   62.594
 4448.00    1.08165   1.11190   62.122
 4449.00    1.07288   1.11040   62.237
 4450.00    1.07255   1.10792   62.672
 4451.00    1.07842   1.10461   63.348
 4452.00    1.07629   1.09884   63.360
 4453.00    1.06619   1.08989   63.340
 4454.00    1.04937   1.08077   64.839
 4455.00    1.03289   1.07580   -1.000
 4456.00    1.03999   1.07648   -1.000
 4457.00    1.06534   1.08015   69.790
 4458.00    1.07471   1.08325   68.490
 4459.00    1.06703   1.08440   67.961
 4460.00    1.06202   1.08483   68.216
 4461.00    1.06055   1.08677   68.777
 4462.00    1.06360   1.09066   69.453
 4463.00    1.07807   1.09485   68.972
 4464.00    1.08328   1.09694   66.789
 4465.00    1.07599   1.09498   64.695
 4466.00    1.07760   1.08869   63.984
 4467.00    1.07111   1.08063   64.011
 4468.00    1.05598   1.07579   64.430
 4469.00    1.04817   1.07833   65.468
 4470.00    1.05287   1.08897   -1.000
 4471.00    1.07526   1.10431   65.928
 4472.00    1.09991   1.11960   64.327
 4473.00    1.11411   1.13132   62.154
 4474.00    1.11914   1.13845   60.251
 4475.00    1.11426   1.14171   59.239
 4476.00    1.11132   1.14161   59.104
 4477.00    1.12078   1.13709   58.893
 4478.00    1.12460   1.12648   58.446
 4479.00    1.11422   1.11130   58.578
 4480.00    1.09825   1.09777   60.012
 4481.00    1.08440   1.09323   62.573
 4482.00    1.07739   1.10090   64.867
 4483.00    1.08424   1.11696   65.281
 4484.00    1.10550   1.13351   63.354
 4485.00    1.12207   1.14316   60.768
 4486.00    1.12537   1.14278   59.021
 4487.00    1.12029   1.13441   58.512
 4488.00    1.10897   1.12427   59.306
 4489.00    1.09127   1.11841   61.198
 4490.00    1.08340   1.11884   63.091
 4491.00    1.09683   1.12295   63.362
 4492.00    1.10606   1.12606   62.055
 4493.00    1.10390   1.12620   60.722
 4494.00    1.09555   1.12521   60.773
 4495.00    1.09095   1.12564   62.257
 4496.00    1.09627   1.12816   63.906
 4497.00    1.10252   1.13073   64.154
 4498.00    1.11389   1.13078   62.566
 4499.00    1.11571   1.12762   60.571
 4500.00    1.10348   1.12499   59.462
 4501.00    1.09487   1.12771   59.585
 4502.00    1.10328   1.13738   60.134
 4503.00    1.12817   1.15023   59.437
 4504.00    1.14670   1.16021   57.561
 4505.00    1.14504   1.16368   56.078
 4506.00    1.13664   1.16120   55.841
 4507.00    1.13051   1.15688   56.670
 4508.00    1.13273   1.15480   57.543
 4509.00    1.14477   1.15594   57.811
 4510.00    1.14611   1.15799   57.581
 4511.00    1.13448   1.15799   57.144
 4512.00    1.12799   1.15481   57.211
 4513.00    1.13002   1.14929   58.069
 4514.00    1.12696   1.14365   59.185
 4515.00    1.12174   1.13953   59.877
 4516.00    1.12105   1.13687   59.874
 4517.00    1.11652   1.13451   59.688
 4518.00    1.11188   1.13180   60.058
 4519.00    1.11494   1.12935   60.621
 4520.00    1.11788   1.12725   60.231
 4521.00    1.11191   1.12483   59.073
 4522.00    1.10149   1.12177   58.602
 4523.00    1.09756   1.11868   59.455
 4524.00    1.10005   1.11559   60.805
 4525.00    1.10215   1.11118   61.660
 4526.00    1.10148   1.10442   62.426
 4527.00    1.08783   1.09620   63.942
 4528.00    1.07329   1.08955   65.858
 4529.00    1.07861   1.08691   67.159
 4530.00    1.09000   1.08725   67.254
 4531.00    1.09483   1.08663   66.360
 4532.00    1.08939   1.08249   65.147
 4533.00    1.07268   1.07756   64.406
 4534.00    1.05783   1.07795   65.205
 4535.00    1.05943   1.08776   67.313
 4536.00    1.07775   1.10523   67.970
 4537.00    1.10574   1.12412   65.393
 4538.00    1.13100   1.13779   61.506
 4539.00    1.13836   1.14337   58.900
 4540.00    1.13500   1.14272   58.480
 4541.00    1.13291   1.13994   59.550
 4542.00    1.12813   1.13786   60.248
 4543.00    1.15388   1.13669   59.940
 4544.00    1.00599   1.13525   -1.000
 4545.00    0.41844   1.13239   -1.000
 4546.00   -0.02213   1.12668   -2.000
 4547.00    0.14709   1.11713   -2.000
 4548.00    0.58679   1.10582   -2.000
 4549.00    0.56004   1.09797   -1.000
 4550.00    0.65549   1.09738   -1.000
 4551.00    1.10464   1.10137   38.092
 4552.00    1.10380   1.10362   65.771
 4553.00    1.09119   1.10164   62.204
 4554.00    1.08943   1.09925   62.891
 4555.00    1.09523   1.10248   63.691
 4556.00    1.11066   1.11347   63.475
 4557.00    1.12820   1.12890   61.765
 4558.00    1.13651   1.14355   59.347
 4559.00    1.14158   1.15419   57.636
 4560.00    1.14721   1.15882   57.338
 4561.00    1.14385   1.15647   57.519
 4562.00    1.13129   1.14871   57.500
 4563.00    1.12031   1.14045   58.184
 4564.00    1.11560   1.13724   59.635
 4565.00    1.12055   1.14113   60.893
 4566.00    1.13632   1.14935   61.053
 4567.00    1.14627   1.15672   59.880
 4568.00    1.14717   1.15864   58.299
 4569.00    1.14135   1.15382   57.237
 4570.00    1.12957   1.14489   57.295
 4571.00    1.11932   1.13734   58.376
 4572.00    1.11701   1.13653   59.915
 4573.00    1.12680   1.14222   60.484
 4574.00    1.13654   1.14948   59.273
 4575.00    1.13568   1.15376   57.915
 4576.00    1.13254   1.15358   57.549
 4577.00    1.13547   1.14951   57.724
 4578.00    1.13566   1.14239   58.031
 4579.00    1.13210   1.13318   58.696
 4580.00    1.12721   1.12351   60.098
 4581.00    1.11906   1.11514   61.653
 4582.00    1.11716   1.10951   62.188
 4583.00    1.11578   1.10850   61.617
 4584.00    1.11447   1.11270   60.932
 4585.00    1.12556   1.12022   60.809
 4586.00    1.13936   1.12807   61.110
 4587.00    1.14767   1.13391   60.888
 4588.00    1.14785   1.13693   59.626
 4589.00    1.14202   1.13783   58.186
 4590.00    1.13764   1.13790   57.527
 4591.00    1.12986   1.13795   57.933
 4592.00    1.12292   1.13896   58.927
 4593.00    1.12211   1.14152   60.003
 4594.00    1.12615   1.14546   60.564
 4595.00    1.13401   1.15005   60.306
 4596.00    1.14055   1.15404   59.795
 4597.00    1.14268   1.15591   59.479
 4598.00    1.14609   1.15510   59.347
 4599.00    1.14240   1.15202   59.218
 4600.00    1.13128   1.14816   59.405
 4601.00    1.12759   1.14535   59.956
 4602.00    1.12689   1.14464   60.313
 4603.00    1.12944   1.14602   60.073
 4604.00    1.13527   1.14890   59.391
 4605.00    1.13794   1.15275   59.097
 4606.00    1.14151   1.15760   59.123
 4607.00    1.15146   1.16307   58.750
 4608.00    1.16213   1.16833   57.836
 4609.00    1.16208   1.17192   56.628
 4610.00    1.16194   1.17287   55.679
 4611.00    1.15985   1.17166   55.478
 4612.00    1.15150   1.16954   56.006
 4613.00    1.14976   1.16762   56.723
 4614.00    1.14966   1.16588   57.221
 4615.00    1.15231   1.16359   57.265
 4616.00    1.15539   1.16072   56.850
 4617.00    1.15525   1.15798   56.472
 4618.00    1.14918   1.15660   56.547
 4619.00    1.14164   1.15783   56.966
 4620.00    1.15183   1.16195   57.159
 4621.00    1.16315   1.16762   56.850
 4622.00    1.16900   1.17247   56.115
 4623.00    1.17380   1.17453   55.632
 4624.00    1.16840   1.17356   55.720
 4625.00    1.15530   1.17040   55.850
 4626.00    1.14349   1.16628   56.153
 4627.00    1.14760   1.16213   56.502
 4628.00    1.15573   1.15927   56.546
 4629.00    1.15211   1.15912   56.702
 4630.00    1.14596   1.16182   56.965
 4631.00    1.15225   1.16523   56.882
 4632.00    1.15926   1.16692   56.403
 4633.00    1.15735   1.16607   56.170
 4634.00    1.15868   1.16423   56.725
 4635.00    1.15447   1.16320   57.478
 4636.00    1.14767   1.16331   57.776
 4637.00    1.14747   1.16429   57.949
 4638.00    1.15310   1.16611   58.582
 4639.00    1.15677   1.16914   59.114
 4640.00    1.16132   1.17338   59.182
 4641.00    1.17518   1.17746   58.645
 4642.00    1.18441   1.17975   57.405
 4643.00    1.18469   1.17863   56.280
 4644.00    1.17490   1.17388   56.003
 4645.00    1.15923   1.16674   56.650
 4646.00    1.14583   1.15992   57.991
 4647.00    1.14303   1.15668   59.635
 4648.00    1.14469   1.15843   60.625
 4649.00    1.15635   1.16391   60.199
 4650.00    1.16440   1.17020   58.924
 4651.00    1.15660   1.17434   57.807
 4652.00    1.14768   1.17486   57.361
 4653.00    1.14963   1.17192   57.274
 4654.00    1.14846   1.16740   57.530
 4655.00    1.14103   1.16428   58.550
 4656.00    1.13764   1.16533   59.613
 4657.00    1.14491   1.17208   59.708
 4658.00    1.15697   1.18280   58.491
 4659.00    1.17272   1.19314   56.398
 4660.00    1.18636   1.19871   54.649
 4661.00    1.18306   1.19786   54.001
 4662.00    1.17213   1.19184   54.325
 4663.00    1.16768   1.18266   55.333
 4664.00    1.16654   1.17146   56.594
 4665.00    1.16482   1.15882   57.239
 4666.00    1.15661   1.14635   57.713
 4667.00    1.13534   1.13750   59.400
 4668.00    1.12237   1.13529   61.983
 4669.00    1.13125   1.14011   63.386
 4670.00    1.14529   1.14959   62.410
 4671.00    1.15602   1.16025   60.094
 4672.00    1.15813   1.16919   57.975
 4673.00    1.15883   1.17572   57.008
 4674.00    1.16749   1.18032   56.888
 4675.00    1.17501   1.18312   56.896
 4676.00    1.18234   1.18348   56.513
 4677.00    1.18648   1.18041   55.698
 4678.00    1.16747   1.17461   55.373
 4679.00    1.14512   1.16791   56.118
 4680.00    1.14420   1.16248   57.323
 4681.00    1.14937   1.16009   58.367
 4682.00    1.15296   1.16099   59.141
 4683.00    1.15991   1.16421   59.090
 4684.00    1.17130   1.16792   57.953
 4685.00    1.17263   1.17078   56.790
 4686.00    1.17511   1.17245   56.503
 4687.00    1.17918   1.17314   56.649
 4688.00    1.17786   1.17323   56.803
 4689.00    1.17545   1.17281   56.992
 4690.00    1.17180   1.17217   56.984
 4691.00    1.17257   1.17209   57.176
 4692.00    1.17385   1.17325   57.469
 4693.00    1.18221   1.17545   57.207
 4694.00    1.19245   1.17752   56.419
 4695.00    1.19546   1.17804   55.379
 4696.00    1.19388   1.17564   54.372
 4697.00    1.18938   1.17023   54.136
 4698.00    1.17468   1.16317   55.022
 4699.00    1.16058   1.15623   56.698
 4700.00    1.16107   1.15022   57.937
 4701.00    1.16704   1.14556   58.050
 4702.00    1.16035   1.14280   57.953
 4703.00    1.14768   1.14278   58.691
 4704.00    1.14852   1.14500   59.420
 4705.00    1.15454   1.14708   59.041
 4706.00    1.15927   1.14695   57.985
 4707.00    1.15301   1.14483   57.889
 4708.00    1.14321   1.14354   58.920
 4709.00    1.14292   1.14554   59.841
 4710.00    1.15447   1.15053   59.990
 4711.00    1.16805   1.15582   58.975
 4712.00    1.17576   1.15878   57.242
 4713.00    1.17735   1.15932   56.133
 4714.00    1.17184   1.15970   56.104
 4715.00    1.16832   1.16231   56.917
 4716.00    1.17060   1.16755   57.531
 4717.00    1.17996   1.17378   56.971
 4718.00    1.18453   1.17911   55.816
 4719.00    1.18494   1.18267   55.073
 4720.00    1.18999   1.18450   54.824
 4721.00    1.18900   1.18538   54.637
 4722.00    1.18662   1.18620   54.742
 4723.00    1.19121   1.18745   55.200
 4724.00    1.19406   1.18828   55.267
 4725.00    1.18365   1.18691   54.792
 4726.00    1.16922   1.18239   54.491
 4727.00    1.16567   1.17496   55.149
 4728.00    1.16437   1.16666   56.873
 4729.00    1.16603   1.15977   58.679
 4730.00    1.17025   1.15601   59.275
 4731.00    1.16937   1.15634   58.828
 4732.00    1.17285   1.16001   58.276
 4733.00    1.17405   1.16467   57.714
 4734.00    1.17491   1.16799   57.095
 4735.00    1.17429   1.16912   56.684
 4736.00    1.17148   1.16905   56.371
 4737.00    1.17813   1.16929   56.463
 4738.00    1.17453   1.17039   56.869
 4739.00    1.17364   1.17208   56.559
 4740.00    1.17916   1.17401   56.131
 4741.00    1.18327   1.17621   56.319
 4742.00    1.18768   1.17899   56.546
 4743.00    1.18505   1.18235   56.376
 4744.00    1.18281   1.18602   55.831
 4745.00    1.17922   1.18997   55.533
 4746.00    1.17638   1.19405   55.645
 4747.00    1.18799   1.19826   55.485
 4748.00    1.19393   1.20202   54.988
 4749.00    1.19104   1.20478   54.620
 4750.00    1.18442   1.20606   54.608
 4751.00    1.18368   1.20559   54.678
 4752.00    1.18818   1.20345   54.870
 4753.00    1.18429   1.20040   55.382
 4754.00    1.17882   1.19763   55.948
 4755.00    1.17788   1.19619   56.374
 4756.00    1.17427   1.19630   56.545
 4757.00    1.17266   1.19716   56.567
 4758.00    1.17941   1.19722   56.887
 4759.00    1.18344   1.19500   57.161
 4760.00    1.17950   1.18945   56.975
 4761.00    1.17149   1.18087   56.643
 4762.00    1.15979   1.17136   56.980
 4763.00    1.14715   1.16408   58.140
 4764.00    1.14614   1.16155   59.315
 4765.00    1.15514   1.16438   59.759
 4766.00    1.16974   1.17134   59.732
 4767.00    1.17462   1.18023   59.472
 4768.00    1.17767   1.18880   58.867
 4769.00    1.18295   1.19500   57.808
 4770.00    1.18293   1.19784   56.697
 4771.00    1.18176   1.19824   56.308
 4772.00    1.17788   1.19833   56.599
 4773.00    1.17867   1.19993   57.103
 4774.00    1.18716   1.20295   57.105
 4775.00    1.19328   1.20575   56.157
 4776.00    1.19392   1.20663   55.286
 4777.00    1.19395   1.20479   55.119
 4778.00    1.19588   1.20078   55.227
 4779.00    1.19046   1.19641   55.479
 4780.00    1.18269   1.19356   55.961
 4781.00    1.18657   1.19260   56.474
 4782.00    1.19078   1.19221   56.714
 4783.00    1.18277   1.19113   56.907
 4784.00    1.17466   1.18912   57.268
 4785.00    1.17258   1.18672   57.531
 4786.00    1.17078   1.18475   57.581
 4787.00    1.17058   1.18402   57.946
 4788.00    1.16913   1.18505   58.435
 4789.00    1.16934   1.18802   58.595
 4790.00    1.17732   1.19296   58.424
 4791.00    1.18524   1.19972   58.098
 4792.00    1.20089   1.20755   57.632
 4793.00    1.20240   1.21512   56.874
 4794.00    1.19739   1.22046   55.784
 4795.00    1.20174   1.22185   54.650
 4796.00    1.20544   1.21902   54.033
 4797.00    1.19843   1.21361   54.172
 4798.00    1.18576   1.20870   54.974
 4799.00    1.18336   1.20689   56.073
 4800.00    1.19063   1.20875   56.960
 4801.00    1.19227   1.21196   57.128
 4802.00    1.19568   1.21328   56.307
 4803.00    1.19547   1.21045   55.284
 4804.00    1.19042   1.20472   54.868
 4805.00    1.18371   1.19947   55.252
 4806.00    1.17779   1.19744   56.002
 4807.00    1.18208   1.19892   56.631
 4808.00    1.18992   1.20221   56.919
 4809.00    1.19582   1.20541   56.832
 4810.00    1.19296   1.20776   56.638
 4811.00    1.18613   1.20986   56.270
 4812.00    1.19033   1.21262   55.795
 4813.00    1.19968   1.21628   55.447
 4814.00    1.20388   1.22021   55.262
 4815.00    1.20311   1.22356   55.183
 4816.00    1.20301   1.22593   55.018
 4817.00    1.20412   1.22718   54.756
 4818.00    1.20946   1.22701   54.408
 4819.00    1.21502   1.22496   54.119
 4820.00    1.20470   1.22024   53.986
 4821.00    1.19503   1.21260   53.982
 4822.00    1.19531   1.20310   54.179
 4823.00    1.18745   1.19464   55.062
 4824.00    1.17990   1.19036   56.392
 4825.00    1.18718   1.19112   56.967
 4826.00    1.20015   1.19483   56.445
 4827.00    1.20205   1.19823   55.468
 4828.00    1.19569   1.19943   55.059
 4829.00    1.19437   1.19852   55.498
 4830.00    1.19304   1.19668   56.044
 4831.00    1.18666   1.19482   56.233
 4832.00    1.18437   1.19374   56.423
 4833.00    1.18882   1.19356   56.793
 4834.00    1.19470   1.19398   56.461
 4835.00    1.19975   1.19434   55.584
 4836.00    1.19597   1.19415   55.069
 4837.00    1.19101   1.19322   55.003
 4838.00    1.18535   1.19153   55.173
 4839.00    1.17493   1.18940   55.640
 4840.00    1.17055   1.18742   56.516
 4841.00    1.17139   1.18597   57.143
 4842.00    1.17535   1.18491   57.080
 4843.00    1.17155   1.18403   56.887
 4844.00    1.17123   1.18300   56.540
 4845.00    1.17973   1.18126   56.055
 4846.00    1.18421   1.17798   55.359
 4847.00    1.17123   1.17315   54.713
 4848.00    1.15564   1.16805   55.003
 4849.00    1.15335   1.16405   56.055
 4850.00    1.15767   1.16073   56.544
 4851.00    1.15441   1.15578   56.192
 4852.00    1.14759   1.14650   55.639
 4853.00    1.14224   1.13166   55.710
 4854.00    1.13255   1.11232   56.105
 4855.00    1.10606   1.09028   57.059
 4856.00    1.08621   1.06504   58.777
 4857.00    1.07313   1.03167   59.728
 4858.00    1.04234   0.98513   -1.000
 4859.00    0.97891   0.92749   -1.000
 4860.00    0.89300   0.87384   62.630
 4861.00    0.81840   0.84535   68.915
 4862.00    0.80899   0.85541   -1.000
 4863.00    0.88315   0.89875   75.412
 4864.00    0.97755   0.95705   69.701
 4865.00    1.03510   1.01243   64.289
 4866.00    1.07256   1.05583   61.157
 4867.00    1.10264   1.08582   59.379
 4868.00    1.12450   1.10349   58.428
 4869.00    1.13166   1.11062   58.026
 4870.00    1.11724   1.11078   58.078
 4871.00    1.10077   1.10974   59.044
 4872.00    1.10006   1.11281   60.669
 4873.00    1.11498   1.12153   61.365
 4874.00    1.13388   1.13324   60.295
 4875.00    1.14058   1.14436   58.800
 4876.00    1.14456   1.15347   58.021
 4877.00    1.15120   1.16163   57.639
 4878.00    1.14890   1.17008   57.375
 4879.00    1.15331   1.17822   56.935
 4880.00    1.16808   1.18380   56.171
 4881.00    1.17191   1.18499   56.001
 4882.00    1.16476   1.18250   56.696
 4883.00    1.15935   1.17890   57.420
 4884.00    1.15973   1.17666   57.537
 4885.00    1.16266   1.17632   57.520
 4886.00    1.16407   1.17655   58.067
 4887.00    1.16441   1.17536   58.761
 4888.00    1.16719   1.17132   58.817
 4889.00    1.16373   1.16529   58.573
 4890.00    1.14629   1.16087   58.859
 4891.00    1.13268   1.16304   59.926
 4892.00    1.14633   1.17431   60.613
 4893.00    1.17379   1.19219   59.370
 4894.00    1.19905   1.21122   56.783
 4895.00    1.20967   1.22619   54.499
 4896.00    1.20615   1.23464   53.140
 4897.00    1.20985   1.23639   52.438
 4898.00    1.20802   1.23294   52.343
 4899.00    1.19131   1.22685   52.848
 4900.00    1.18705   1.22093   54.067
 4901.00    1.18825   1.21694   55.098
 4902.00    1.18615   1.21541   55.356
 4903.00    1.18586   1.21656   55.193
 4904.00    1.19318   1.22049   55.507
 4905.00    1.20541   1.22595   55.725
 4906.00    1.21261   1.22999   54.859
 4907.00    1.21126   1.22974   53.946
 4908.00    1.21236   1.22467   53.888
 4909.00    1.20188   1.21706   54.709
 4910.00    1.19332   1.21069   56.155
 4911.00    1.18855   1.20869   57.456
 4912.00    1.19245   1.21183   57.604
 4913.00    1.20057   1.21810   56.699
 4914.00    1.20703   1.22381   55.758
 4915.00    1.21332   1.22473   55.014
 4916.00    1.21265   1.21770   54.383
 4917.00    1.20016   1.20203   54.180
 4918.00    1.17458   1.18099   55.052
 4919.00    1.14582   1.16084   57.423
 4920.00    1.13054   1.14764   60.467
 4921.00    1.13376   1.14378   62.547
 4922.00    1.14453   1.14748   62.179
 4923.00    1.16097   1.15598   60.003
 4924.00    1.17234   1.16807   58.291
 4925.00    1.17680   1.18347   57.753
 4926.00    1.19075   1.20057   57.466
 4927.00    1.20832   1.21650   56.428
 4928.00    1.22305   1.22851   55.103
 4929.00    1.22388   1.23486   54.301
 4930.00    1.22304   1.23447   53.852
 4931.00    1.22047   1.22724   53.502
 4932.00    1.20366   1.21533   53.487
 4933.00    1.18750   1.20327   54.371
 4934.00    1.17053   1.19556   56.061
 4935.00    1.17467   1.19295   57.433
 4936.00    1.19116   1.19239   57.099
 4937.00    1.19372   1.19100   56.400
 4938.00    1.17786   1.18978   56.992
 4939.00    1.16663   1.19248   58.685
 4940.00    1.17780   1.20131   59.533
 4941.00    1.19967   1.21455   58.408
 4942.00    1.22035   1.22782   56.421
 4943.00    1.22746   1.23738   54.892
 4944.00    1.22500   1.24209   54.079
 4945.00    1.22232   1.24348   53.787
 4946.00    1.21711   1.24413   53.963
 4947.00    1.21536   1.24585   54.261
 4948.00    1.21908   1.24870   54.153
 4949.00    1.22753   1.25145   53.595
 4950.00    1.23116   1.25279   53.124
 4951.00    1.22989   1.25197   52.952
 4952.00    1.22414   1.24840   52.904
 4953.00    1.22449   1.24085   53.224
 4954.00    1.22402   1.22771   53.681
 4955.00    1.21010   1.20913   54.327
 4956.00    1.19212   1.18949   55.278
 4957.00    1.16413   1.17674   57.255
 4958.00    1.14955   1.17717   60.034
 4959.00    1.16862   1.19010   61.146
 4960.00    1.20304   1.20865   58.998
 4961.00    1.22232   1.22467   56.050
 4962.00    1.22510   1.23369   54.676
 4963.00    1.23044   1.23524   54.523
 4964.00    1.23486   1.23134   54.857
 4965.00    1.22375   1.22497   55.374
 4966.00    1.21172   1.21921   56.218
 4967.00    1.21104   1.21616   57.265
 4968.00    1.21020   1.21660   57.744
 4969.00    1.20941   1.22008   57.677
 4970.00    1.21174   1.22553   57.414
 4971.00    1.21453   1.23160   56.917
 4972.00    1.21823   1.23694   56.302
 4973.00    1.22651   1.24048   55.674
 4974.00    1.22978   1.24159   55.055
 4975.00    1.22576   1.24013   54.642
 4976.00    1.23042   1.23639   54.634
 4977.00    1.22519   1.23088   55.096
 4978.00    1.21224   1.22376   55.740
 4979.00    1.20764   1.21440   56.555
 4980.00    1.19958   1.20227   57.405
 4981.00    1.18399   1.18846   58.144
 4982.00    1.16462   1.17654   59.341
 4983.00    1.15126   1.17086   61.319
 4984.00    1.15422   1.17367   62.627
 4985.00    1.16857   1.18388   62.175
 4986.00    1.18697   1.19750   60.778
 4987.00    1.20198   1.20963   58.980
 4988.00    1.21201   1.21652   57.243
 4989.00    1.20877   1.21730   56.334
 4990.00    1.19514   1.21417   56.679
 4991.00    1.19345   1.21089   57.449
 4992.00    1.19588   1.21021   57.842
 4993.00    1.19505   1.21276   57.670
 4994.00    1.19664   1.21737   57.235
 4995.00    1.20428   1.22168   57.073
 4996.00    1.21454   1.22281   56.959
 4997.00    1.21359   1.21849   56.662
 4998.00    1.20358   1.20865   56.592
 4999.00    1.19251   1.19675   57.089
 5000.00    1.18771   1.18779   57.996
 5001.00    1.18978   1.18424   59.031
 5002.00    1.19763   1.18459   59.526
 5003.00    1.20648   1.18449   59.347
 5004.00    1.20013   1.18149   58.828
 5005.00    1.18629   1.17695   58.855
 5006.00    1.16857   1.17486   59.947
 5007.00    1.16143   1.17787   61.097
 5008.00    1.18070   1.18445   60.787
 5009.00    1.20503   1.18996   59.132
 5010.00    1.20812   1.19011   57.714
 5011.00    1.19925   1.18422   57.577
 5012.00    1.18257   1.17521   58.684
 5013.00    1.16227   1.16730   60.619
 5014.00    1.15473   1.16309   62.626
 5015.00    1.15814   1.16191   63.479
 5016.00    1.16726   1.16152   62.764
 5017.00    1.17464   1.16098   61.375
 5018.00    1.17277   1.16231   60.433
 5019.00    1.17589   1.16772   60.289
 5020.00    1.19119   1.17694   60.074
 5021.00    1.19890   1.18741   59.438
 5022.00    1.19482   1.19687   59.203
 5023.00    1.19263   1.20491   59.440
 5024.00    1.19711   1.21157   59.411
 5025.00    1.21119   1.21633   58.965
 5026.00    1.21424   1.21862   58.409
 5027.00    1.20998   1.21903   58.242
 5028.00    1.21003   1.21903   58.536
 5029.00    1.20767   1.22013   58.547
 5030.00    1.21336   1.22308   57.803
 5031.00    1.22413   1.22733   56.789
 5032.00    1.22975   1.23091   55.947
 5033.00    1.23439   1.23137   55.121
 5034.00    1.22936   1.22746   54.729
 5035.00    1.21378   1.22026   55.370
 5036.00    1.19736   1.21181   57.328
 5037.00    1.18884   1.20256   59.194
 5038.00    1.18789   1.19173   59.893
 5039.00    1.17702   1.17952   60.258
 5040.00    1.15560   1.16971   61.533
 5041.00    1.13701   1.16790   64.030
 5042.00    1.15509   1.17689   65.808
 5043.00    1.18222   1.19448   64.701
 5044.00    1.20581   1.21436   61.202
 5045.00    1.23526   1.23007   57.823
 5046.00    1.01067   1.23752   -1.000
 5047.00    0.31546   1.23565   -1.000
 5048.00    0.02083   1.22638   -1.000
 5049.00    0.17604   1.21374   -1.000
 5050.00    0.75397   1.20273   -1.000
 5051.00    1.16291   1.19808   85.422
 5052.00    1.20377   1.20212   58.288
 5053.00    1.21281   1.21326   58.635
 5054.00    1.22573   1.22707   57.236
 5055.00    1.24115   1.23899   55.917
 5056.00    1.25138   1.24708   55.064
 5057.00    1.24509   1.25211   54.663
 5058.00    1.23959   1.25547   54.584
 5059.00    1.24009   1.25777   54.692
 5060.00    1.24144   1.25854   54.754
 5061.00    1.23999   1.25653   54.616
 5062.00    1.23954   1.25082   54.362
 5063.00    1.23332   1.24185   54.626
 5064.00    1.21379   1.23193   55.652
 5065.00    1.20494   1.22399   57.416
 5066.00    1.21145   1.21963   59.041
 5067.00    1.21581   1.21857   59.236
 5068.00    1.22017   1.21939   58.422
 5069.00    1.22008   1.22075   57.754
 5070.00    1.22993   1.22172   57.560
 5071.00    1.22840   1.22184   57.249
 5072.00    1.22842   1.22125   57.133
 5073.00    1.22910   1.22049   57.617
 5074.00    1.22294   1.21983   57.702
 5075.00    1.22451   1.21844   57.040
 5076.00    1.23010   1.21481   56.718
 5077.00    1.22979   1.20801   56.663
 5078.00    1.22146   1.19917   56.805
 5079.00    1.20236   1.19142   57.817
 5080.00    1.17896   1.18785   60.109
 5081.00    1.18600   1.18941   62.329
 5082.00    1.20647   1.19500   62.339
 5083.00    1.20469   1.20286   60.963
 5084.00    1.21164   1.21152   59.813
 5085.00    1.21801   1.21974   58.919
 5086.00    1.23339   1.22649   57.828
 5087.00    1.24283   1.23153   57.021
 5088.00    1.24319   1.23558   56.733
 5089.00    1.24151   1.23947   56.599
 5090.00    1.23941   1.24359   56.268
 5091.00    1.24532   1.24777   55.887
 5092.00    1.24547   1.25113   55.588
 5093.00    1.25758   1.25240   55.190
 5094.00    1.28186   1.25010   54.585
 5095.00    1.26077   1.24363   54.403
 5096.00    1.23326   1.23406   55.127
 5097.00    1.22136   1.22392   56.314
 5098.00    1.20551   1.21667   57.577
 5099.00    1.20831   1.21469   58.922
 5100.00    1.22261   1.21811   59.830
 5101.00    1.23134   1.22470   59.469
 5102.00    1.24342   1.23091   57.875
 5103.00    1.24715   1.23391   56.549
 5104.00    1.24138   1.23249   56.342
 5105.00    1.23731   1.22695   56.825
 5106.00    1.22272   1.21921   57.580
 5107.00    1.20531   1.21205   58.299
 5108.00    1.20248   1.20806   59.018
 5109.00    1.20488   1.20873   59.507
 5110.00    1.20964   1.21393   59.300
 5111.00    1.21667   1.22227   58.897
 5112.00    1.23133   1.23184   58.342
 5113.00    1.24135   1.24086   57.527
 5114.00    1.25683   1.24825   56.827
 5115.00    1.25740   1.25395   56.189
 5116.00    1.25339   1.25798   55.751
 5117.00    1.25518   1.25996   55.370
 5118.00    1.26003   1.25914   54.812
 5119.00    1.25806   1.25493   54.545
 5120.00    1.25528   1.24750   54.893
 5121.00    1.25114   1.23778   55.664
 5122.00    1.23879   1.22743   56.530
 5123.00    1.22085   1.21842   57.623
 5124.00    1.21204   1.21221   59.204
 5125.00    1.21755   1.20881   60.591
 5126.00    1.21863   1.20715   60.674
 5127.00    1.21651   1.20635   60.176
 5128.00    1.21947   1.20655   59.872
 5129.00    1.21730   1.20884   59.644
 5130.00    1.21783   1.21361   59.704
 5131.00    1.22484   1.22007   59.426
 5132.00    1.22955   1.22673   58.553
 5133.00    1.22911   1.23208   57.702
 5134.00    1.23299   1.23494   57.227
 5135.00    1.23937   1.23445   56.690
 5136.00    1.23710   1.23027   56.298
 5137.00    1.22765   1.22352   56.505
 5138.00    1.21708   1.21662   57.673
 5139.00    1.20636   1.21202   58.950
 5140.00    1.20410   1.21077   59.619
 5141.00    1.20627   1.21215   59.486
 5142.00    1.20667   1.21499   59.216
 5143.00    1.20825   1.21837   59.848
 5144.00    1.21788   1.22154   60.453
 5145.00    1.22356   1.22382   59.853
 5146.00    1.22383   1.22481   59.056
 5147.00    1.23279   1.22447   59.103
 5148.00    1.23714   1.22287   59.565
 5149.00    1.23628   1.21975   59.436
 5150.00    1.23531   1.21506   58.790
 5151.00    1.22123   1.21021   58.782
 5152.00    1.20653   1.20728   59.652
 5153.00    1.21159   1.20835   60.554
 5154.00    1.22176   1.21434   60.720
 5155.00    1.23331   1.22422   60.134
 5156.00    1.24824   1.23565   58.840
 5157.00    1.25925   1.24572   57.331
 5158.00    1.27437   1.25238   55.986
 5159.00    1.26713   1.25492   55.137
 5160.00    1.26505   1.25371   54.869
 5161.00    1.26192   1.24892   54.930
 5162.00    1.25455   1.23967   55.159
 5163.00    1.24591   1.22334   55.569
 5164.00    1.23548   1.19738   56.276
 5165.00    1.21637   1.16213   -1.000
 5166.00    1.17453   1.12433   60.468
 5167.00    1.12473   1.09402   65.952
 5168.00    1.10027   1.07845   72.249
 5169.00    1.10886   1.07673   75.166
 5170.00    1.14139   1.08128   -1.000
 5171.00    1.16144   1.08743   -1.000
 5172.00    1.13429   1.09699   69.874
 5173.00    1.11791   1.11534   74.695
 5174.00    1.14639   1.14367   77.405
 5175.00    1.20485   1.17582   72.296
 5176.00    1.24667   1.20346   64.838
 5177.00    1.26379   1.22082   60.405
 5178.00    1.26966   1.22610   58.691
 5179.00    1.26765   1.21933   58.234
 5180.00    1.25900   1.20036   -1.000
 5181.00    1.24281   1.17234   -1.000
 5182.00    1.20552   1.14292   -1.000
 5183.00    1.14895   1.12332   67.407
 5184.00    1.12413   1.12193   74.723
 5185.00    1.15274   1.13737   77.743
 5186.00    1.20060   1.16122   72.210
 5187.00    1.23411   1.18258   -1.000
 5188.00    1.23658   1.19564   60.012
 5189.00    1.23388   1.19998   58.638
 5190.00    1.23773   1.19787   58.250
 5191.00    1.22692   1.19289   58.259
 5192.00    1.20885   1.18870   59.262
 5193.00    1.19854   1.18785   61.139
 5194.00    1.20525   1.19089   62.212
 5195.00    1.21793   1.19693   61.477
 5196.00    1.22772   1.20444   60.437
 5197.00    1.23771   1.21282   59.554
 5198.00    1.24900   1.22103   58.592
 5199.00    1.26493   1.22731   57.449
 5200.00    1.26312   1.22940   56.622
 5201.00    1.25324   1.22541   56.293
 5202.00    1.24779   1.21495   56.396
 5203.00    1.23617   1.19966   57.030
 5204.00    1.22130   1.18334   58.166
 5205.00    1.20606   1.16990   59.647
 5206.00    1.19155   1.16205   61.540
 5207.00    1.19281   1.16046   62.974
 5208.00    1.20122   1.16489   63.154
 5209.00    1.21132   1.17530   63.512
 5210.00    1.22487   1.19050   63.536
 5211.00    1.23569   1.20785   62.226
 5212.00    1.24948   1.22270   60.013
 5213.00    1.26476   1.23117   57.596
 5214.00    1.27142   1.23287   55.638
 5215.00    1.25901   1.23077   55.011
 5216.00    1.24372   1.23000   55.891
 5217.00    1.23701   1.23391   57.075
 5218.00    1.25258   1.24246   57.418
 5219.00    1.27155   1.25261   56.676
 5220.00    1.28125   1.26032   55.516
 5221.00    1.28574   1.26219   54.806
 5222.00    1.28374   1.25605   54.458
 5223.00    1.28240   1.24129   54.495
 5224.00    1.27127   1.21998   55.501
 5225.00    1.24096   1.19780   57.405
 5226.00    1.20459   1.18302   59.893
 5227.00    1.17814   1.18128   62.417
 5228.00    1.19059   1.19195   63.255
 5229.00    1.22864   1.20800   61.158
 5230.00    1.25231   1.22049   57.905
 5231.00    1.26471   1.22488   55.942
 5232.00    1.26095   1.22270   55.250
 5233.00    1.24297   1.21999   55.524
 5234.00    1.23885   1.22176   56.676
 5235.00    1.24721   1.22968   57.374
 5236.00    1.26286   1.24130   56.870
 5237.00    1.27967   1.25250   55.493
 5238.00    1.28914   1.26069   54.355
 5239.00    1.29208   1.26524   53.927
 5240.00    1.28352   1.26730   53.963
 5241.00    1.28693   1.26820   54.075
 5242.00    1.28756   1.26868   53.904
 5243.00    1.28393   1.26850   53.680
 5244.00    1.28464   1.26654   53.733
 5245.00    1.28335   1.26187   53.618
 5246.00    1.27432   1.25484   53.837
 5247.00    1.26139   1.24710   55.138
 5248.00    1.26009   1.24051   56.787
 5249.00    1.25111   1.23642   57.775
 5250.00    1.24481   1.23513   57.851
 5251.00    1.24789   1.23598   58.029
 5252.00    1.25530   1.23813   58.246
 5253.00    1.26130   1.24103   57.795
 5254.00    1.26481   1.24481   57.026
 5255.00    1.26124   1.25052   56.624
 5256.00    1.26927   1.25797   56.554
 5257.00    1.28346   1.26511   55.881
 5258.00    1.28864   1.26842   54.474
 5259.00    1.29882   1.26452   53.250
 5260.00    1.28823   1.25245   53.081
 5261.00    1.27116   1.23406   53.871
 5262.00    1.25376   1.21295   55.606
 5263.00    1.23418   1.19352   58.087
 5264.00    1.21124   1.17893   60.681
 5265.00    1.20377   1.16993   62.523
 5266.00    1.20429   1.16465   63.481
 5267.00    1.20616   1.15956   63.265
 5268.00    1.20713   1.15417   -1.000
 5269.00    1.19634   1.15161   61.603
 5270.00    1.17927   1.15628   63.368
 5271.00    1.18103   1.16956   65.059
 5272.00    1.21086   1.18704   63.034
 5273.00    1.23701   1.20327   59.404
 5274.00    1.24745   1.21538   57.412
 5275.00    1.25570   1.22518   57.080
 5276.00    1.25963   1.23572   57.097
 5277.00    1.26623   1.24667   56.705
 5278.00    1.28131   1.25532   55.342
 5279.00    1.28676   1.25816   53.626
 5280.00    1.28623   1.25440   53.006
 5281.00    1.28608   1.24664   53.635
 5282.00    1.26862   1.23991   55.007
 5283.00    1.25079   1.23881   56.340
 5284.00    1.24871   1.24544   57.158
 5285.00    1.25772   1.25806   57.034
 5286.00    1.27656   1.27223   55.652
 5287.00    1.30118   1.28397   53.906
 5288.00    1.31301   1.29120   52.530
 5289.00    1.31228   1.29438   52.371
 5290.00    1.30571   1.29488   52.612
 5291.00    1.30626   1.29369   52.511
 5292.00    1.30840   1.29106   52.236
 5293.00    1.29890   1.28651   52.240
 5294.00    1.29838   1.27927   52.617
 5295.00    1.29190   1.26918   53.175
 5296.00    1.28122   1.25799   54.072
 5297.00    1.26729   1.24870   55.732
 5298.00    1.25211   1.24432   57.759
 5299.00    1.24900   1.24546   58.797
 5300.00    1.26837   1.25080   58.042
 5301.00    1.28459   1.25836   56.608
 5302.00    1.28277   1.26653   55.749
 5303.00    1.28499   1.27438   55.350
 5304.00    1.29433   1.28080   54.444
 5305.00    1.30360   1.28485   53.046
 5306.00    1.30343   1.28669   52.304
 5307.00    1.29737   1.28751   52.370
 5308.00    1.30070   1.28870   52.904
 5309.00    1.29800   1.29051   53.163
 5310.00    1.30397   1.29190   52.718
 5311.00    1.31256   1.29162   52.207
 5312.00    1.31237   1.28860   51.979
 5313.00    1.30857   1.28275   52.110
 5314.00    1.30247   1.27513   52.401
 5315.00    1.29765   1.26772   52.659
 5316.00    1.28156   1.26339   53.086
 5317.00    1.27316   1.26350   53.607
 5318.00    1.27938   1.26735   53.969
 5319.00    1.28746   1.27214   53.859
 5320.00    1.30133   1.27423   53.477
 5321.00    1.29995   1.27158   53.361
 5322.00    1.29250   1.26409   53.625
 5323.00    1.28230   1.25349   54.072
 5324.00    1.26784   1.24084   54.798
 5325.00    1.26189   1.22614   55.672
 5326.00    1.26064   1.21064   -1.000
 5327.00    1.24114   1.19776   56.340
 5328.00    1.21225   1.19351   58.465
 5329.00    1.20224   1.20107   61.941
 5330.00    1.23474   1.21781   62.733
 5331.00    1.27187   1.23757   59.734
 5332.00    1.28802   1.25354   56.491
 5333.00    1.28335   1.26300   55.058
 5334.00    1.28696   1.26694   54.555
 5335.00    1.29361   1.26705   54.006
 5336.00    1.29435   1.26462   53.463
 5337.00    1.28758   1.26016   53.390
 5338.00    1.28185   1.25445   53.768
 5339.00    1.27560   1.24909   54.170
 5340.00    1.26833   1.24672   54.957
 5341.00    1.26132   1.24872   56.303
 5342.00    1.26772   1.25409   56.923
 5343.00    1.28333   1.26032   56.113
 5344.00    1.29549   1.26423   54.654
 5345.00    1.30623   1.26469   53.933
 5346.00    1.29933   1.26292   54.069
 5347.00    1.28455   1.26068   54.440
 5348.00    1.28376   1.26009   54.770
 5349.00    1.28392   1.26262   55.085
 5350.00    1.28743   1.26805   55.515
 5351.00    1.30145   1.27564   55.394
 5352.00    1.30716   1.28374   54.377
 5353.00    1.30465   1.29120   53.223
 5354.00    1.30393   1.29767   52.710
 5355.00    1.31344   1.30281   52.514
 5356.00    1.32173   1.30643   52.023
 5357.00    1.32111   1.30795   51.404
 5358.00    1.31893   1.30683   51.135
 5359.00    1.32093   1.30298   51.214
 5360.00    1.32281   1.29666   51.318
 5361.00    1.31259   1.28888   51.605
 5362.00    1.29991   1.28101   52.298
 5363.00    1.29412   1.27435   53.168
 5364.00    1.29059   1.26976   53.848
 5365.00    1.29208   1.26670   54.186
 5366.00    1.29566   1.26373   54.500
 5367.00    1.29112   1.25891   54.719
 5368.00    1.29178   1.25093   -1.000
 5369.00    1.28000   1.24120   54.688
 5370.00    1.25844   1.23357   55.459
 5371.00    1.24260   1.23300   56.965
 5372.00    1.25155   1.24110   58.374
 5373.00    1.27167   1.25583   57.920
 5374.00    1.30515   1.27200   55.530
 5375.00    1.31920   1.28468   53.210
 5376.00    1.32707   1.29214   52.187
 5377.00    1.32718   1.29458   51.973
 5378.00    1.32067   1.29346   52.132
 5379.00    1.31420   1.29008   52.159
 5380.00    1.31288   1.28544   52.312
 5381.00    1.30714   1.28122   52.676
 5382.00    1.29020   1.27880   53.212
 5383.00    1.28437   1.27917   53.678
 5384.00    1.29609   1.28219   53.857
 5385.00    1.30236   1.28632   53.754
 5386.00    1.31229   1.28962   53.414
 5387.00    1.31549   1.29030   52.920
 5388.00    1.31812   1.28764   52.924
 5389.00    1.31971   1.28244   53.245
 5390.00    1.30803   1.27604   53.844
 5391.00    1.31143   1.26980   54.644
 5392.00    1.30119   1.26426   55.160
 5393.00    1.28907   1.25881   55.333
 5394.00    1.28750   1.25250   55.377
 5395.00    1.29233   1.24546   -1.000
 5396.00    1.27625   1.24024   56.108
 5397.00    1.25791   1.23940   56.958
 5398.00    1.26033   1.24381   57.906
 5399.00    1.27462   1.25172   57.477
 5400.00    1.29050   1.25871   55.662
 5401.00    1.29873   1.26054   54.343
 5402.00    1.29829   1.25539   -1.000
 5403.00    1.28574   1.24493   54.393
 5404.00    1.26658   1.23316   55.102
 5405.00    1.25074   1.22524   56.901
 5406.00    1.24435   1.22332   58.551
 5407.00    1.25507   1.22650   59.035
 5408.00    1.27294   1.23220   58.161
 5409.00    1.27729   1.23825   57.043
 5410.00    1.28059   1.24480   56.815
 5411.00    1.28405   1.25190   57.223
 5412.00    1.28989   1.25922   56.619
 5413.00    1.30053   1.26584   55.069
 5414.00    1.30510   1.27106   53.957
 5415.00    1.30369   1.27544   53.568
 5416.00    1.30423   1.27940   53.640
 5417.00    1.30655   1.28264   53.572
 5418.00    1.30929   1.28468   53.149
 5419.00    1.30177   1.28496   52.934
 5420.00    1.29469   1.28357   53.258
 5421.00    1.29921   1.28105   53.767
 5422.00    1.30660   1.27773   53.959
 5423.00    1.29970   1.27503   53.701
 5424.00    1.29247   1.27428   53.686
 5425.00    1.28474   1.27500   54.463
 5426.00    1.29094   1.27543   54.712
 5427.00    1.30922   1.27294   -1.000
 5428.00    1.30366   1.26735   53.260
 5429.00    1.28089   1.26097   53.777
 5430.00    1.26937   1.25569   55.417
 5431.00    1.27226   1.25270   56.870
 5432.00    1.28390   1.25068   56.604
 5433.00    1.29120   1.24926   -1.000
 5434.00    1.27919   1.25022   55.933
 5435.00    1.26396   1.25517   56.765
 5436.00    1.26788   1.26503   57.228
 5437.00    1.28627   1.27760   56.761
 5438.00    1.30456   1.28991   55.473
 5439.00    1.32035   1.29960   53.988
 5440.00    1.32258   1.30545   52.965
 5441.00    1.31764   1.30698   52.312
 5442.00    1.32298   1.30336   51.968
 5443.00    1.31866   1.29403   51.923
 5444.00    1.30700   1.27991   52.033
 5445.00    1.29190   1.26455   52.793
 5446.00    1.26634   1.25325   54.421
 5447.00    1.25515   1.24977   56.651
 5448.00    1.26372   1.25458   58.027
 5449.00    1.28475   1.26401   57.129
 5450.00    1.30729   1.27262   55.234
 5451.00    1.31575   1.27604   53.918
 5452.00    1.31485   1.27266   53.585
 5453.00    1.31476   1.26399   -1.000
 5454.00    1.30580   1.25490   -1.000
 5455.00    1.28462   1.25025   55.757
 5456.00    1.26957   1.25310   57.311
 5457.00    1.27826   1.26235   58.113
 5458.00    1.30980   1.27359   56.871
 5459.00    1.32529   1.28207   -1.000
 5460.00    1.31733   1.28488   53.669
 5461.00    1.31634   1.28291   53.638
 5462.00    1.31413   1.27924   54.414
 5463.00    1.30899   1.27685   55.414
 5464.00    1.30148   1.27715   56.051
 5465.00    1.30283   1.28006   56.129
 5466.00    1.31371   1.28416   55.357
 5467.00    1.30980   1.28793   54.796
 5468.00    1.31202   1.29047   54.501
 5469.00    1.32182   1.29113   53.932
 5470.00    1.33374   1.28982   -1.000
 5471.00    1.33145   1.28643   -1.000
 5472.00    1.31726   1.28088   54.958
 5473.00    1.31029   1.27331   55.136
 5474.00    1.30670   1.26439   55.483
 5475.00    1.29984   1.25591   -1.000
 5476.00    1.27909   1.25112   57.008
 5477.00    1.27261   1.25175   58.204
 5478.00    1.28303   1.25674   58.811
 5479.00    1.30081   1.26390   57.911
 5480.00    1.31443   1.27028   -1.000
 5481.00    1.30995   1.27487   55.439
 5482.00    1.30475   1.27908   56.037
 5483.00    1.30917   1.28353   56.599
 5484.00    1.31365   1.28789   56.253
 5485.00    1.31415   1.29075   55.166
 5486.00    1.31169   1.29123   54.147
 5487.00    1.30732   1.28996   53.914
 5488.00    1.30444   1.28831   54.569
 5489.00    1.30846   1.28773   55.286
 5490.00    1.31129   1.28857   55.507
 5491.00    1.31291   1.29007   55.420
 5492.00    1.32047   1.29115   54.993
 5493.00    1.32338   1.29085   54.630
 5494.00    1.32040   1.28870   54.504
 5495.00    1.31658   1.28501   54.635
 5496.00    1.31345   1.28114   54.639
 5497.00    1.29851   1.27841   54.702
 5498.00    1.29141   1.27676   55.139
 5499.00    1.30114   1.27564   55.399
 5500.00    1.30819   1.27440   54.978
 5501.00    1.30188   1.27286   54.518
 5502.00    1.30048   1.27174   55.134
 5503.00    1.30338   1.27077   55.917
 5504.00    1.30855   1.26949   55.836
 5505.00    1.31302   1.26787   -1.000
 5506.00    1.30398   1.26662   55.465
 5507.00    1.29320   1.26729   56.261
 5508.00    1.29812   1.26974   56.602
 5509.00    1.30665   1.27239   55.918
 5510.00    1.31079   1.27345   55.104
 5511.00    1.31342   1.27214   55.035
 5512.00    1.31154   1.27002   55.573
 5513.00    1.30975   1.26912   56.702
 5514.00    1.30633   1.27085   57.542
 5515.00    1.30216   1.27546   57.806
 5516.00    1.30771   1.28208   56.956
 5517.00    1.32161   1.28917   55.960
 5518.00    1.32192   1.29536   55.091
 5519.00    1.33380   1.29960   54.056
 5520.00    1.33257   1.30172   53.302
 5521.00    1.33177   1.30197   53.275
 5522.00    1.33174   1.30019   53.375
 5523.00    1.32945   1.29606   53.496
 5524.00    1.32382   1.28859   53.674
 5525.00    1.31436   1.27828   53.795
 5526.00    1.30724   1.26747   -1.000
 5527.00    1.29399   1.25982   55.071
 5528.00    1.27778   1.25838   56.418
 5529.00    1.28304   1.26294   57.699
 5530.00    1.30020   1.27073   57.649
 5531.00    1.31145   1.27760   56.220
 5532.00    1.31639   1.28096   54.841
 5533.00    1.30965   1.28122   54.337
 5534.00    1.30359   1.28088   54.585
 5535.00    1.30204   1.28204   55.091
 5536.00    1.30536   1.28539   55.258
 5537.00    1.32155   1.29031   54.984
 5538.00    1.32657   1.29522   54.562
 5539.00    1.32391   1.29898   54.443
 5540.00    1.32674   1.30102   54.143
 5541.00    1.33073   1.30122   53.604
 5542.00    1.33120   1.30000   53.264
 5543.00    1.32732   1.29835   53.416
 5544.00    1.31945   1.29729   54.014
 5545.00    1.31226   1.29760   54.490
 5546.00    1.32009   1.29968   54.545
 5547.00    1.32054   1.30307   54.372
 5548.00    1.32692   1.30669   54.219
 5549.00    1.33069   1.30957   53.824
 5550.00    1.32890   1.31086   53.285
 5551.00    1.33344   1.31041   52.901
 5552.00    1.33498   1.30866   52.873
 5553.00    1.32934   1.30662   53.221
 5554.00    1.32063   1.30501   53.724
 5555.00    1.32280   1.30410   54.299
 5556.00    1.32227   1.30393   54.470
 5557.00    1.32505   1.30416   54.345
 5558.00    1.32328   1.30445   54.179
 5559.00    1.33199   1.30422   54.099
 5560.00    1.33752   1.30312   54.034
 5561.00    1.33948   1.30132   54.004
 5562.00    1.33410   1.29907   54.162
 5563.00    1.32405   1.29680   54.498
 5564.00    1.31815   1.29470   55.055
 5565.00    1.31561   1.29274   55.384
 5566.00    1.32154   1.29071   55.514
 5567.00    1.31917   1.28839   55.616
 5568.00    1.30471   1.28636   55.641
 5569.00    1.30219   1.28459   55.508
 5570.00    1.30599   1.28272   55.435
 5571.00    1.30286   1.28150   55.593
 5572.00    1.30338   1.28119   55.537
 5573.00    1.27832   1.28212   55.574
 5574.00    1.22275   1.28477   55.692
 5575.00    1.07448   1.28850   -1.000
 5576.00    0.89423   1.29245   -1.000
 5577.00    1.07921   1.29597   -1.000
 5578.00    1.51833   1.29854   -1.000
 5579.00    1.68720   1.29979   -1.000
 5580.00    1.55351   1.29983   -1.000
 5581.00    1.36926   1.29859   -1.000
 5582.00    1.32134   1.29588   56.054
 5583.00    1.32525   1.29102   55.298
 5584.00    1.32177   1.28330   -1.000
 5585.00    1.31435   1.27325   -1.000
 5586.00    1.30191   1.26255   55.254
 5587.00    1.28757   1.25428   56.606
 5588.00    1.27696   1.25087   58.029
 5589.00    1.26627   1.25292   59.188
 5590.00    1.27336   1.25867   59.382
 5591.00    1.29201   1.26544   58.519
 5592.00    1.30574   1.27130   57.466
 5593.00    1.31020   1.27564   56.778
 5594.00    1.30502   1.27887   56.725
 5595.00    1.29730   1.28070   56.908
 5596.00    1.30691   1.28074   56.434
 5597.00    1.31575   1.27882   -1.000
 5598.00    1.31142   1.27479   55.342
 5599.00    1.30328   1.26987   56.030
 5600.00    1.31680   1.26630   -1.000
 5601.00    1.30732   1.26561   -1.000
 5602.00    1.29411   1.26891   57.420
 5603.00    1.29220   1.27651   57.784
 5604.00    1.29898   1.28681   57.879
 5605.00    1.31216   1.29747   56.712
 5606.00    1.33218   1.30633   55.138
 5607.00    1.33904   1.31231   53.993
 5608.00    1.34239   1.31576   53.480
 5609.00    1.33276   1.31722   53.441
 5610.00    1.33891   1.31664   53.543
 5611.00    1.34081   1.31318   53.632
 5612.00    1.34457   1.30611   -1.000
 5613.00    1.33950   1.29606   -1.000
 5614.00    1.32442   1.28631   53.840
 5615.00    1.30445   1.28013   55.147
 5616.00    1.29205   1.27948   57.067
 5617.00    1.29835   1.28399   58.067
 5618.00    1.31838   1.29069   57.284
 5619.00    1.32656   1.29666   55.905
 5620.00    1.32306   1.30026   55.290
 5621.00    1.33368   1.30100   55.205
 5622.00    1.34061   1.29949   -1.000
 5623.00    1.32844   1.29687   54.725
 5624.00    1.31510   1.29467   55.128
 5625.00    1.31016   1.29448   56.306
 5626.00    1.31901   1.29659   57.162
 5627.00    1.33334   1.30041   56.681
 5628.00    1.33761   1.30457   55.674
 5629.00    1.33345   1.30791   54.912
 5630.00    1.33758   1.31022   54.322
 5631.00    1.34450   1.31128   53.977
 5632.00    1.34430   1.31129   53.842
 5633.00    1.34145   1.31034   53.650
 5634.00    1.33490   1.30843   53.786
 5635.00    1.33734   1.30599   54.243
 5636.00    1.32740   1.30332   54.618
 5637.00    1.32811   1.30069   54.965
 5638.00    1.33058   1.29834   55.374
 5639.00    1.33731   1.29644   55.697
 5640.00    1.32486   1.29528   55.653
 5641.00    1.32175   1.29513   55.622
 5642.00    1.32148   1.29611   55.821
 5643.00    1.32544   1.29814   55.797
 5644.00    1.33863   1.30066   55.542
 5645.00    1.33034   1.30297   55.304
 5646.00    1.33650   1.30476   55.197
 5647.00    1.34613   1.30594   -1.000
 5648.00    1.33828   1.30664   54.681
 5649.00    1.34208   1.30732   54.545
 5650.00    1.34118   1.30799   54.498
 5651.00    1.33892   1.30845   54.639
 5652.00    1.33427   1.30817   54.563
 5653.00    1.34416   1.30617   -1.000
 5654.00    1.33973   1.30152   -1.000
 5655.00    1.32936   1.29392   54.327
 5656.00    1.33352   1.28489   -1.000
 5657.00    1.32168   1.27706   -1.000
 5658.00    1.30101   1.27263   56.606
 5659.00    1.28734   1.27275   58.332
 5660.00    1.28755   1.27641   58.953
 5661.00    1.30084   1.28185   57.855
 5662.00    1.31437   1.28767   56.680
 5663.00    1.31634   1.29254   56.622
 5664.00    1.31708   1.29617   56.652
 5665.00    1.32857   1.29803   55.911
 5666.00    1.32926   1.29771   55.172
 5667.00    1.32794   1.29645   55.080
 5668.00    1.33505   1.29589   55.433
 5669.00    1.33290   1.29709   55.733
 5670.00    1.32561   1.30019   55.745
 5671.00    1.32834   1.30423   55.555
 5672.00    1.33426   1.30824   55.155
 5673.00    1.33691   1.31163   54.654
 5674.00    1.34636   1.31416   54.100
 5675.00    1.34156   1.31583   53.644
 5676.00    1.33731   1.31660   53.741
 5677.00    1.34015   1.31630   53.894
 5678.00    1.33849   1.31465   53.689
 5679.00    1.33353   1.31139   53.661
 5680.00    1.33684   1.30674   53.972
 5681.00    1.34270   1.30158   -1.000
 5682.00    1.34122   1.29715   -1.000
 5683.00    1.33569   1.29446   -1.000
 5684.00    1.32860   1.29362   -1.000
 5685.00    1.32546   1.29412   55.843
 5686.00    1.32330   1.29512   55.478
 5687.00    1.33123   1.29613   -1.000
 5688.00    1.32658   1.29758   55.670
 5689.00    1.31538   1.30014   56.322
 5690.00    1.32969   1.30392   56.350
 5691.00    1.33841   1.30827   55.579
 5692.00    1.33867   1.31216   54.565
 5693.00    1.34291   1.31486   54.134
 5694.00    1.34522   1.31601   53.829
 5695.00    1.34318   1.31570   53.779
 5696.00    1.34389   1.31401   53.860
 5697.00    1.34000   1.31111   53.909
 5698.00    1.33042   1.30741   54.119
 5699.00    1.33749   1.30347   54.713
 5700.00    1.33559   1.30017   55.340
 5701.00    1.32251   1.29842   55.818
 5702.00    1.30991   1.29810   56.400
 5703.00    1.31085   1.29827   56.538
 5704.00    1.31741   1.29778   56.017
 5705.00    1.32278   1.29528   55.465
 5706.00    1.32881   1.29043   55.442
 5707.00    1.32137   1.28431   55.918
 5708.00    1.31234   1.27869   56.786
 5709.00    1.30304   1.27550   57.859
 5710.00    1.29251   1.27598   58.676
 5711.00    1.28559   1.28023   58.895
 5712.00    1.29752   1.28708   58.654
 5713.00    1.31387   1.29480   57.933
 5714.00    1.32081   1.30191   56.642
 5715.00    1.33125   1.30759   55.270
 5716.00    1.33712   1.31168   54.561
 5717.00    1.33425   1.31482   54.448
 5718.00    1.33485   1.31745   54.325
 5719.00    1.33734   1.31979   54.137
 5720.00    1.33940   1.32194   53.851
 5721.00    1.33849   1.32375   53.501
 5722.00    1.34335   1.32478   53.278
 5723.00    1.35554   1.32455   53.169
 5724.00    1.35132   1.32291   53.093
 5725.00    1.35195   1.32022   53.050
 5726.00    1.34265   1.31723   53.234
 5727.00    1.33126   1.31480   53.736
 5728.00    1.34232   1.31374   54.303
 5729.00    1.34660   1.31398   54.644
 5730.00    1.34976   1.31518   54.252
 5731.00    1.34296   1.31703   53.978
 5732.00    1.33474   1.31924   54.202
 5733.00    1.34061   1.32143   54.443
 5734.00    1.34120   1.32325   54.141
 5735.00    1.35055   1.32445   53.593
 5736.00    1.34809   1.32469   53.321
 5737.00    1.34613   1.32433   53.418
 5738.00    1.33892   1.32401   53.486
 5739.00    1.34281   1.32383   53.653
 5740.00    1.34370   1.32385   53.680
 5741.00    1.33506   1.32411   53.808
 5742.00    1.33588   1.32461   53.884
 5743.00    1.33782   1.32514   53.991
 5744.00    1.33919   1.32552   53.834
 5745.00    1.33841   1.32549   53.767
 5746.00    1.33824   1.32499   53.329
 5747.00    1.34375   1.32437   53.115
 5748.00    1.34798   1.32381   53.504
 5749.00    1.34829   1.32303   54.034
 5750.00    1.34970   1.32165   54.143
 5751.00    1.34064   1.31925   53.772
 5752.00    1.33555   1.31665   53.688
 5753.00    1.32341   1.31528   54.210
 5754.00    1.32030   1.31623   54.885
 5755.00    1.32828   1.31972   55.366
 5756.00    1.34388   1.32423   55.219
 5757.00    1.34335   1.32764   54.400
 5758.00    1.34443   1.32841   53.388
 5759.00    1.34912   1.32637   52.878
 5760.00    1.34267   1.32254   53.178
 5761.00    1.33787   1.31903   53.831
 5762.00    1.33357   1.31787   54.549
 5763.00    1.32795   1.31954   55.260
 5764.00    1.33784   1.32330   55.396
 5765.00    1.34533   1.32771   54.657
 5766.00    1.34091   1.33110   53.665
 5767.00    1.34254   1.33259   53.096
 5768.00    1.34922   1.33260   52.999
 5769.00    1.34825   1.33167   52.949
 5770.00    1.34165   1.33022   52.869
 5771.00    1.33921   1.32846   53.011
 5772.00    1.34116   1.32651   53.202
 5773.00    1.34559   1.32450   53.518
 5774.00    1.34091   1.32272   53.837
 5775.00    1.33797   1.32107   53.938
 5776.00    1.33295   1.31920   53.985
 5777.00    1.33014   1.31686   53.836
 5778.00    1.31868   1.31349   53.563
 5779.00    1.30104   1.30902   53.562
 5780.00    1.28740   1.30437   53.803
 5781.00    1.29963   1.30049   54.702
 5782.00    1.31299   1.29813   55.954
 5783.00    1.32104   1.29759   56.540
 5784.00    1.33163   1.29882   56.331
 5785.00    1.33293   1.30129   56.110
 5786.00    1.34618   1.30444   -1.000
 5787.00    1.33976   1.30782   55.675
 5788.00    1.33625   1.31094   54.989
 5789.00    1.33772   1.31351   54.271
 5790.00    1.34239   1.31596   53.931
 5791.00    1.34113   1.31873   54.061
 5792.00    1.33645   1.32212   54.300
 5793.00    1.34642   1.32583   54.147
 5794.00    1.34176   1.32890   53.662
 5795.00    1.34159   1.33068   53.314
 5796.00    1.34112   1.33124   53.015
 5797.00    1.33410   1.33149   53.040
 5798.00    1.33927   1.33234   53.402
 5799.00    1.34335   1.33429   53.700
 5800.00    1.35565   1.33673   53.338
 5801.00    1.36202   1.33844   52.607
 5802.00    1.35623   1.33891   51.923
 5803.00    1.35412   1.33829   51.916
 5804.00    1.35714   1.33728   52.413
 5805.00    1.34836   1.33669   52.810
 5806.00    1.34840   1.33703   53.235
 5807.00    1.35559   1.33799   53.421
 5808.00    1.34827   1.33914   53.251
 5809.00    1.34452   1.34004   53.048
 5810.00    1.35599   1.34036   52.906
 5811.00    1.35953   1.33991   52.920
 5812.00    1.35826   1.33863   52.850
 5813.00    1.36760   1.33672   52.635
 5814.00    1.36380   1.33482   52.505
 5815.00    1.35524   1.33377   52.663
 5816.00    1.35978   1.33417   53.130
 5817.00    1.35551   1.33590   53.311
 5818.00    1.35528   1.33848   52.970
 5819.00    1.36689   1.34096   52.606
 5820.00    1.37129   1.34261   52.331
 5821.00    1.36823   1.34339   52.080
 5822.00    1.36906   1.34358   51.932
 5823.00    1.37152   1.34362   52.055
 5824.00    1.36253   1.34381   52.232
 5825.00    1.36000   1.34443   52.101
 5826.00    1.36671   1.34541   52.031
 5827.00    1.36944   1.34662   51.932
 5828.00    1.36820   1.34766   51.894
 5829.00    1.37689   1.34830   -1.000
 5830.00    1.36606   1.34838   52.025
 5831.00    1.36308   1.34774   51.898
 5832.00    1.36208   1.34654   51.928
 5833.00    1.36445   1.34526   51.851
 5834.00    1.36963   1.34422   51.995
 5835.00    1.37878   1.34382   -1.000
 5836.00    1.37667   1.34418   -1.000
 5837.00    1.35559   1.34531   52.191
 5838.00    1.36297   1.34671   52.117
 5839.00    1.37332   1.34805   52.318
 5840.00    1.37385   1.34896   52.411
 5841.00    1.37723   1.34908   -1.000
 5842.00    1.37641   1.34816   -1.000
 5843.00    1.36782   1.34636   51.554
 5844.00    1.36064   1.34383   51.609
 5845.00    1.36520   1.34113   51.800
 5846.00    1.37397   1.33852   -1.000
 5847.00    1.37736   1.33613   -1.000
 5848.00    1.36614   1.33364   -1.000
 5849.00    1.35435   1.33060   52.867
 5850.00    1.36208   1.32658   -1.000
 5851.00    1.37056   1.32190   -1.000
 5852.00    1.35985   1.31722   -1.000
 5853.00    1.35530   1.31278   -1.000
 5854.00    1.35203   1.30870   -1.000
 5855.00    1.33842   1.30520   54.320
 5856.00    1.34642   1.30258   -1.000
 5857.00    1.33252   1.30128   54.474
 5858.00    1.32352   1.30207   55.105
 5859.00    1.34076   1.30528   -1.000
 5860.00    1.34249   1.30980   -1.000
 5861.00    1.35565   1.31423   -1.000
 5862.00    1.35822   1.31731   -1.000
 5863.00    1.35557   1.31874   -1.000
 5864.00    1.35515   1.31894   -1.000
 5865.00    1.35825   1.31866   -1.000
 5866.00    1.35117   1.31876   53.684
 5867.00    1.35494   1.31978   -1.000
 5868.00    1.35893   1.32184   -1.000
 5869.00    1.35578   1.32433   54.017
 5870.00    1.35961   1.32618   -1.000
 5871.00    1.36311   1.32669   -1.000
 5872.00    1.37289   1.32584   -1.000
 5873.00    1.37178   1.32397   -1.000
 5874.00    1.36774   1.32171   -1.000
 5875.00    1.37131   1.31931   -1.000
 5876.00    1.36574   1.31673   -1.000
 5877.00    1.36907   1.31395   -1.000
 5878.00    1.36107   1.31094   -1.000
 5879.00    1.34645   1.30767   -1.000
 5880.00    1.35182   1.30430   -1.000
 5881.00    1.34999   1.30079   -1.000
 5882.00    1.34413   1.29678   -1.000
 5883.00    1.34925   1.29154   -1.000
 5884.00    1.34994   1.28339   -1.000
 5885.00    1.33038   1.26996   -1.000
 5886.00    1.28976   1.24960   54.292
 5887.00    1.22476   1.22422   54.522
 5888.00    1.11582   1.19895   -1.000
 5889.00    1.02616   1.18015   -1.000
 5890.00    1.03903   1.17204   -1.000
 5891.00    1.13570   1.17423   65.285
 5892.00    1.20836   1.18035   66.033
 5893.00    1.20960   1.18434   63.877
 5894.00    1.14965   1.18533   61.231
 5895.00    1.09215   1.18653   -1.000
 5896.00    1.10201   1.19257   -1.000
 5897.00    1.17811   1.20579   63.120
 5898.00    1.26031   1.22488   -1.000
 5899.00    1.30806   1.24467   -1.000
 5900.00    1.32695   1.26171   -1.000
 5901.00    1.34104   1.27506   -1.000
 5902.00    1.35176   1.28474   -1.000
 5903.00    1.34982   1.29129   -1.000
 5904.00    1.34177   1.29554   -1.000
 5905.00    1.35187   1.29828   -1.000
 5906.00    1.34892   1.30025   -1.000
 5907.00    1.35273   1.30188   -1.000
 5908.00    1.35392   1.30307   -1.000
 5909.00    1.34129   1.30358   -1.000
 5910.00    1.35303   1.30288   -1.000
 5911.00    1.34733   1.30064   -1.000
 5912.00    1.34913   1.29711   -1.000
 5913.00    1.34453   1.29318   -1.000
 5914.00    1.34244   1.28982   -1.000
 5915.00    1.33032   1.28810   -1.000
 5916.00    1.34447   1.28847   -1.000
 5917.00    1.32467   1.29056   55.804
 5918.00    1.32240   1.29341   55.451
 5919.00    1.32135   1.29629   55.278
 5920.00    1.32690   1.29855   55.037
 5921.00    1.34053   1.30010   -1.000
 5922.00    1.33330   1.30139   54.707
 5923.00    1.33465   1.30279   54.767
 5924.00    1.34214   1.30443   -1.000
 5925.00    1.34977   1.30601   -1.000
 5926.00    1.35780   1.30686   -1.000
 5927.00    1.35355   1.30666   -1.000
 5928.00    1.34656   1.30589   -1.000
 5929.00    1.34686   1.30502   -1.000
 5930.00    1.35124   1.30459   -1.000
 5931.00    1.34394   1.30479   -1.000
 5932.00    1.34264   1.30533   -1.000
 5933.00    1.35146   1.30573   -1.000
 5934.00    1.34422   1.30599   -1.000
 5935.00    1.33776   1.30625   54.841
 5936.00    1.34447   1.30653   -1.000
 5937.00    1.35031   1.30652   -1.000
 5938.00    1.35218   1.30586   -1.000
 5939.00    1.35233   1.30430   -1.000
 5940.00    1.33461   1.30238   54.187
 5941.00    1.32139   1.30104   54.451
 5942.00    1.32684   1.30089   55.065
 5943.00    1.33710   1.30174   -1.000
 5944.00    1.33325   1.30298   55.219
 5945.00    1.33791   1.30395   -1.000
 5946.00    1.34194   1.30414   -1.000
 5947.00    1.34595   1.30382   -1.000
 5948.00    1.33269   1.30337   54.565
 5949.00    1.32960   1.30330   55.106
 5950.00    1.33917   1.30379   -1.000
 5951.00    1.34295   1.30453   -1.000
 5952.00    1.34193   1.30479   -1.000
 5953.00    1.33943   1.30447   55.212
 5954.00    1.34748   1.30371   -1.000
 5955.00    1.33737   1.30294   55.319
 5956.00    1.33060   1.30275   55.215
 5957.00    1.32751   1.30363   55.249
 5958.00    1.32373   1.30584   55.511
 5959.00    1.33602   1.30893   55.555
 5960.00    1.34516   1.31209   55.291
 5961.00    1.33804   1.31433   54.588
 5962.00    1.34862   1.31529   -1.000
 5963.00    1.35143   1.31494   -1.000
 5964.00    1.34560   1.31386   53.891
 5965.00    1.34297   1.31280   54.047
 5966.00    1.33836   1.31238   54.372
 5967.00    1.33232   1.31290   54.529
 5968.00    1.34110   1.31428   54.734
 5969.00    1.34507   1.31592   54.546
 5970.00    1.33443   1.31724   54.090
 5971.00    1.34802   1.31792   54.016
 5972.00    1.34681   1.31761   54.012
 5973.00    1.34160   1.31615   53.872
 5974.00    1.34168   1.31387   53.829
 5975.00    1.33236   1.31134   54.183
 5976.00    1.33378   1.30929   54.628
 5977.00    1.33143   1.30834   55.039
 5978.00    1.32741   1.30865   55.428
 5979.00    1.33674   1.30952   55.651
 5980.00    1.35397   1.31010   -1.000
 5981.00    1.34921   1.30967   -1.000
 5982.00    1.33709   1.30827   54.661
 5983.00    1.33416   1.30671   54.843
 5984.00    1.32748   1.30587   55.340
 5985.00    1.32459   1.30637   55.825
 5986.00    1.32939   1.30804   56.063
 5987.00    1.32820   1.31018   55.787
 5988.00    1.33207   1.31205   55.148
 5989.00    1.34126   1.31362   54.870
 5990.00    1.33549   1.31534   54.702
 5991.00    1.33085   1.31745   54.417
 5992.00    1.33232   1.31994   54.566
 5993.00    1.33328   1.32226   54.688
 5994.00    1.33594   1.32372   54.352
 5995.00    1.34055   1.32381   53.876
 5996.00    1.34032   1.32281   53.779
 5997.00    1.33129   1.32127   54.234
 5998.00    1.32449   1.31978   54.598
 5999.00    1.33087   1.31859   54.816
 6000.00    1.33962   1.31757   54.914
 6001.00    1.34080   1.31652   54.783
 6002.00    1.33866   1.31539   54.866
 6003.00    1.32518   1.31408   55.236
 6004.00    1.32795   1.31239   55.386
 6005.00    1.33116   1.31047   55.339
 6006.00    1.32550   1.30873   55.170
 6007.00    1.31895   1.30785   55.242
 6008.00    1.31521   1.30819   55.695
 6009.00    1.31528   1.30974   56.276
 6010.00    1.31232   1.31184   56.174
 6011.00    1.32772   1.31368   55.442
 6012.00    1.33089   1.31467   54.892
 6013.00    1.33023   1.31490   55.008
 6014.00    1.34326   1.31472   55.482
 6015.00    1.32409   1.31428   55.743
 6016.00    1.32875   1.31350   55.381
 6017.00    1.33613   1.31228   55.431
 6018.00    1.34095   1.31099   -1.000
 6019.00    1.31369   1.31008   55.788
 6020.00    1.31638   1.30968   55.607
 6021.00    1.31137   1.31002   55.834
 6022.00    1.31367   1.31124   56.211
 6023.00    1.32152   1.31327   55.902
 6024.00    1.30890   1.31591   55.512
 6025.00    1.31981   1.31903   55.435
 6026.00    1.32858   1.32223   55.364
 6027.00    1.31901   1.32502   54.989
 6028.00    1.32754   1.32724   54.860
 6029.00    1.32700   1.32894   54.477
 6030.00    1.33863   1.33021   54.263
 6031.00    1.33482   1.33124   54.209
 6032.00    1.34135   1.33233   54.234
 6033.00    1.33121   1.33338   54.377
 6034.00    1.32691   1.33407   54.241
 6035.00    1.32689   1.33414   53.982
 6036.00    1.32904   1.33336   53.865
 6037.00    1.32752   1.33164   53.855
 6038.00    1.32511   1.32925   53.739
 6039.00    1.32614   1.32636   53.825
 6040.00    1.32500   1.32323   54.168
 6041.00    1.33102   1.32106   54.241
 6042.00    1.33602   1.32071   54.430
 6043.00    1.32719   1.32232   54.267
 6044.00    1.33160   1.32566   54.208
 6045.00    1.33087   1.33027   53.896
 6046.00    1.32923   1.33400   53.449
 6047.00    1.32464   1.33575   53.550
 6048.00    1.32796   1.33594   53.548
 6049.00    1.33694   1.33522   53.448
 6050.00    1.33825   1.33405   53.523
 6051.00    1.33482   1.33276   53.728
 6052.00    1.33439   1.33145   53.835
 6053.00    1.33216   1.32982   53.875
 6054.00    1.32269   1.32807   53.988
 6055.00    1.32446   1.32648   54.225
 6056.00    1.31719   1.32545   54.380
 6057.00    1.32191   1.32517   54.705
 6058.00    1.32699   1.32546   54.846
 6059.00    1.32264   1.32563   54.722
 6060.00    1.32465   1.32478   54.408
 6061.00    1.33070   1.32247   54.134
 6062.00    1.32716   1.31884   54.245
 6063.00    1.29989   1.31522   54.368
 6064.00    1.37523   1.31314   -1.000
 6065.00    0.66624   1.31381   -1.000
 6066.00    0.45605   1.31724   -1.000
 6067.00    1.19141   1.32259   -1.000
 6068.00    1.29696   1.32829   16.477
 6069.00    1.28369   1.33303   58.456
 6070.00    1.37421   1.33633   -1.000
 6071.00    0.74376   1.33834   -1.000
 6072.00    0.49393   1.33922   -1.000
 6073.00    1.37473   1.33902   -1.000
 6074.00    1.32496   1.33778   53.486
 6075.00    1.32231   1.33564   53.726
 6076.00    1.32235   1.33299   53.761
 6077.00    1.32870   1.33023   53.961
 6078.00    1.32581   1.32765   54.252
 6079.00    1.31216   1.32538   54.564
 6080.00    1.31716   1.32349   55.004
 6081.00    1.31630   1.32208   55.326
 6082.00    1.31601   1.32125   55.321
 6083.00    1.31109   1.32116   55.380
 6084.00    1.30577   1.32189   55.552
 6085.00    1.30712   1.32311   55.526
 6086.00    1.31008   1.32424   55.484
 6087.00    1.31673   1.32478   55.423
 6088.00    1.31994   1.32457   55.250
 6089.00    1.31179   1.32386   55.021
 6090.00    1.31303   1.32316   55.169
 6091.00    1.30638   1.32307   55.526
 6092.00    1.30382   1.32401   55.746
 6093.00    1.30924   1.32603   55.690
 6094.00    1.31209   1.32860   55.298
 6095.00    1.31234   1.33108   55.037
 6096.00    1.31640   1.33273   54.718
 6097.00    1.31583   1.33270   54.491
 6098.00    1.31732   1.33026   54.537
 6099.00    1.31465   1.32518   54.683
 6100.00    1.31085   1.31842   54.706
 6101.00    1.31011   1.31184   54.708
 6102.00    1.29268   1.30755   55.435
 6103.00    1.28186   1.30691   56.867
 6104.00    1.28595   1.31014   57.718
 6105.00    1.30059   1.31585   57.173
 6106.00    1.31227   1.32197   56.026
 6107.00    1.30583   1.32699   55.213
 6108.00    1.29868   1.33043   55.083
 6109.00    1.30303   1.33242   55.327
 6110.00    1.29509   1.33340   55.450
 6111.00    1.29758   1.33371   55.413
 6112.00    1.30783   1.33380   55.285
 6113.00    1.30494   1.33385   55.029
 6114.00    1.29980   1.33378   55.044
 6115.00    1.30449   1.33290   54.718
 6116.00    1.29973   1.33028   54.607
 6117.00    1.30099   1.32535   54.850
 6118.00    1.30924   1.31811   55.225
 6119.00    1.31197   1.30958   55.272
 6120.00    1.29687   1.30191   55.564
 6121.00    1.28772   1.29761   56.422
 6122.00    1.27664   1.29774   57.139
 6123.00    1.26785   1.30187   57.667
 6124.00    1.27347   1.30822   57.668
 6125.00    1.28329   1.31384   56.646
 6126.00    1.28815   1.31750   55.947
 6127.00    1.28939   1.31990   55.991
 6128.00    1.29001   1.32217   56.343
 6129.00    1.29748   1.32487   56.230
 6130.00    1.30197   1.32769   56.109
 6131.00    1.29297   1.32893   55.618
 6132.00    1.29324   1.32610   55.090
 6133.00    1.30165   1.31842   55.013
 6134.00    1.30079   1.30761   55.134
 6135.00    1.28259   1.29672   55.694
 6136.00    1.26499   1.28872   57.021
 6137.00    1.24517   1.28532   58.745
 6138.00    1.23279   1.28653   60.194
 6139.00    1.24464   1.29094   60.258
 6140.00    1.25646   1.29649   58.616
 6141.00    1.26327   1.30215   56.956
 6142.00    1.26297   1.30779   56.411
 6143.00    1.26634   1.31340   56.562
 6144.00    1.27669   1.31779   56.646
 6145.00    1.27981   1.31964   56.017
 6146.00    1.28418   1.31895   55.343
 6147.00    1.29176   1.31681   55.310
 6148.00    1.28733   1.31472   55.588
 6149.00    1.28075   1.31366   55.948
 6150.00    1.27836   1.31394   56.357
 6151.00    1.27935   1.31495   56.678
 6152.00    1.27988   1.31569   56.656
 6153.00    1.27601   1.31538   56.433
 6154.00    1.28149   1.31362   56.023
 6155.00    1.28541   1.31043   55.985
 6156.00    1.27693   1.30566   56.505
 6157.00    1.27859   1.29879   56.772
 6158.00    1.28247   1.28929   56.795
 6159.00    1.26931   1.27775   57.051
 6160.00    1.26635   1.26612   57.688
 6161.00    1.25689   1.25687   58.829
 6162.00    1.24187   1.25233   60.670
 6163.00    1.22881   1.25323   62.418
 6164.00    1.23191   1.25824   62.922
 6165.00    1.24757   1.26422   61.880
 6166.00    1.25655   1.26868   60.115
 6167.00    1.26125   1.27097   59.265
 6168.00    1.25826   1.27207   59.053
 6169.00    1.24939   1.27335   59.235
 6170.00    1.23926   1.27589   60.059
 6171.00    1.24581   1.28008   60.644
 6172.00    1.25345   1.28526   60.115
 6173.00    1.26715   1.29028   58.899
 6174.00    1.26092   1.29431   58.111
 6175.00    1.26680   1.29731   58.233
 6176.00    1.26407   1.29954   58.267
 6177.00    1.25708   1.30121   58.110
 6178.00    1.26456   1.30262   58.004
 6179.00    1.26825   1.30394   57.842
 6180.00    1.27162   1.30506   57.545
 6181.00    1.27040   1.30580   57.345
 6182.00    1.26750   1.30592   57.163
 6183.00    1.27011   1.30505   56.889
 6184.00    1.27754   1.30297   56.757
 6185.00    1.27599   1.29958   56.891
 6186.00    1.26900   1.29480   57.096
 6187.00    1.26665   1.28871   57.574
 6188.00    1.26518   1.28206   58.217
 6189.00    1.26897   1.27621   58.814
 6190.00    1.26461   1.27264   59.370
 6191.00    1.24996   1.27249   59.787
 6192.00    1.23983   1.27597   60.608
 6193.00    1.23711   1.28215   60.954
 6194.00    1.24655   1.28891   60.194
 6195.00    1.25504   1.29423   58.637
 6196.00    1.26018   1.29713   57.733
 6197.00    1.26403   1.29803   57.417
 6198.00    1.26443   1.29795   57.348
 6199.00    1.25829   1.29811   57.759
 6200.00    1.25447   1.29937   58.453
 6201.00    1.25183   1.30199   58.908
 6202.00    1.24238   1.30537   58.813
 6203.00    1.24542   1.30854   58.177
 6204.00    1.25414   1.31093   57.440
 6205.00    1.26353   1.31233   57.327
 6206.00    1.26697   1.31279   57.337
 6207.00    1.27436   1.31233   57.230
 6208.00    1.27017   1.31076   57.238
 6209.00    1.27010   1.30780   57.478
 6210.00    1.26638   1.30337   57.450
 6211.00    1.26110   1.29779   57.730
 6212.00    1.25615   1.29178   58.280
 6213.00    1.25151   1.28622   58.724
 6214.00    1.25259   1.28181   59.313
 6215.00    1.23951   1.27895   60.245
 6216.00    1.24408   1.27740   60.821
 6217.00    1.25320   1.27677   60.951
 6218.00    1.24663   1.27675   60.081
 6219.00    1.24032   1.27725   59.844
 6220.00    1.24155   1.27825   60.351
 6221.00    1.24749   1.27973   60.065
 6222.00    1.25089   1.28142   59.613
 6223.00    1.28269   1.28286   60.048
 6224.00    1.27386   1.28346   64.865
 6225.00    1.25614   1.28278   62.193
 6226.00    1.25401   1.28033   59.315
 6227.00    1.25454   1.27602   59.350
 6228.00    1.25509   1.27062   59.369
 6229.00    1.24959   1.26564   59.730
 6230.00    1.24224   1.26288   60.577
 6231.00    1.22429   1.26352   61.594
 6232.00    1.21810   1.26740   62.361
 6233.00    1.23735   1.27289   62.028
 6234.00    1.24458   1.27775   61.104
 6235.00    1.25244   1.28032   59.933
 6236.00    1.25736   1.28020   58.971
 6237.00    1.25367   1.27805   58.741
 6238.00    1.24767   1.27507   59.172
 6239.00    1.24383   1.27220   59.780
 6240.00    1.24222   1.26971   60.386
 6241.00    1.23603   1.26735   61.033
 6242.00    1.23243   1.26486   61.261
 6243.00    1.22630   1.26253   61.225
 6244.00    1.22298   1.26116   61.707
 6245.00    1.22834   1.26169   62.105
 6246.00    1.22281   1.26438   62.041
 6247.00    1.22185   1.26836   61.628
 6248.00    1.23001   1.27202   61.006
 6249.00    1.24233   1.27375   60.220
 6250.00    1.24584   1.27285   59.602
 6251.00    1.22928   1.26984   59.570
 6252.00    1.22550   1.26603   60.152
 6253.00    1.21528   1.26271   61.295
 6254.00    1.20040   1.26074   62.026
 6255.00    1.20603   1.26016   62.437
 6256.00    1.20860   1.26077   62.600
 6257.00    1.20961   1.26252   62.566
 6258.00    1.20936   1.26557   63.167
 6259.00    1.21232   1.26996   63.725
 6260.00    1.21585   1.27516   63.415
 6261.00    1.21928   1.28026   62.433
 6262.00    1.22654   1.28441   61.500
 6263.00    1.22724   1.28726   60.669
 6264.00    1.23157   1.28881   59.722
 6265.00    1.23111   1.28932   59.453
 6266.00    1.22417   1.28913   59.954
 6267.00    1.22520   1.28850   60.345
 6268.00    1.22808   1.28750   60.050
 6269.00    1.22272   1.28601   59.608
 6270.00    1.21718   1.28396   59.845
 6271.00    1.21804   1.28113   60.149
 6272.00    1.22265   1.27716   60.056
 6273.00    1.22057   1.27170   59.845
 6274.00    1.21465   1.26492   59.707
 6275.00    1.21057   1.25762   59.875
 6276.00    1.19116   1.25105   60.320
 6277.00    1.16255   1.24651   -1.000
 6278.00    1.14278   1.24485   -1.000
 6279.00    1.15282   1.24638   -1.000
 6280.00    1.16399   1.25078   -1.000
 6281.00    1.15424   1.25734   -1.000
 6282.00    1.14633   1.26504   -1.000
 6283.00    1.15376   1.27281   -1.000
 6284.00    1.16707   1.27971   -1.000
 6285.00    1.18960   1.28501   -1.000
 6286.00    1.21364   1.28839   -1.000
 6287.00    1.21057   1.28981   -1.000
 6288.00    1.21280   1.28950   -1.000
 6289.00    1.21672   1.28785   59.342
 6290.00    1.21620   1.28537   59.232
 6291.00    1.20099   1.28262   -1.000
 6292.00    1.20334   1.27980   -1.000
 6293.00    1.20711   1.27693   60.514
 6294.00    1.20218   1.27398   -1.000
 6295.00    1.20395   1.27112   60.690
 6296.00    1.21364   1.26866   60.799
 6297.00    1.21453   1.26690   61.280
 6298.00    1.21752   1.26611   61.681
 6299.00    1.23458   1.26636   61.769
 6300.00    1.27845   1.26758   61.674
 6301.00    1.28906   1.26976   61.410
 6302.00    1.26621   1.27291   61.137
 6303.00    1.23678   1.27691   61.671
 6304.00    1.21558   1.28132   62.379
 6305.00    1.21096   1.28552   -1.000
 6306.00    1.21700   1.28908   60.853
 6307.00    1.22328   1.29182   60.110
 6308.00    1.21817   1.29360   59.600
 6309.00    1.21904   1.29428   59.056
 6310.00    1.21318   1.29383   -1.000
 6311.00    1.21789   1.29241   59.230
 6312.00    1.21738   1.29036   59.636
 6313.00    1.21281   1.28795   -1.000
 6314.00    1.20055   1.28544   -1.000
 6315.00    1.19790   1.28328   -1.000
 6316.00    1.20089   1.28198   -1.000
 6317.00    1.20588   1.28202   -1.000
 6318.00    1.19423   1.28368   -1.000
 6319.00    1.18887   1.28686   -1.000
 6320.00    1.20075   1.29115   -1.000
 6321.00    1.20891   1.29574   -1.000
 6322.00    1.21045   1.29987   -1.000
 6323.00    1.21353   1.30316   -1.000
 6324.00    1.21519   1.30553   -1.000
 6325.00    1.21005   1.30700   -1.000
 6326.00    1.22055   1.30773   -1.000
 6327.00    1.22911   1.30807   58.447
 6328.00    1.22442   1.30838   -1.000
 6329.00    1.22791   1.30863   58.122
 6330.00    1.23111   1.30845   58.177
 6331.00    1.23414   1.30726   58.218
 6332.00    1.23039   1.30479   58.259
 6333.00    1.23215   1.30130   58.047
 6334.00    1.21721   1.29763   57.951
 6335.00    1.19109   1.29508   -1.000
 6336.00    1.20549   1.29464   -1.000
 6337.00    1.20912   1.29647   -1.000
 6338.00    1.21411   1.29972   -1.000
 6339.00    1.22153   1.30291   -1.000
 6340.00    1.22302   1.30489   -1.000
 6341.00    1.23296   1.30525   58.010
 6342.00    1.22641   1.30421   57.724
 6343.00    1.22765   1.30254   57.442
 6344.00    1.22762   1.30126   57.483
 6345.00    1.22412   1.30127   58.002
 6346.00    1.22357   1.30304   58.091
 6347.00    1.23009   1.30628   57.932
 6348.00    1.23000   1.31014   57.619
 6349.00    1.22922   1.31350   -1.000
 6350.00    1.23384   1.31543   56.995
 6351.00    1.22940   1.31553   -1.000
 6352.00    1.22626   1.31401   -1.000
 6353.00    1.22587   1.31143   -1.000
 6354.00    1.22698   1.30836   -1.000
 6355.00    1.22092   1.30517   -1.000
 6356.00    1.21738   1.30201   -1.000
 6357.00    1.23027   1.29887   58.602
 6358.00    1.22453   1.29582   58.636
 6359.00    1.22163   1.29314   58.803
 6360.00    1.22118   1.29134   59.468
 6361.00    1.21349   1.29078   -1.000
 6362.00    1.22725   1.29165   59.501
 6363.00    1.23668   1.29385   59.308
 6364.00    1.25153   1.29701   59.250
 6365.00    1.25479   1.30047   59.048
 6366.00    1.24100   1.30350   58.661
 6367.00    1.23251   1.30560   58.286
 6368.00    1.23077   1.30682   57.972
 6369.00    1.21756   1.30757   -1.000
 6370.00    1.22084   1.30835   -1.000
 6371.00    1.21695   1.30957   -1.000
 6372.00    1.21613   1.31126   -1.000
 6373.00    1.22111   1.31293   -1.000
 6374.00    1.21510   1.31395   -1.000
 6375.00    1.21446   1.31386   -1.000
 6376.00    1.21533   1.31261   -1.000
 6377.00    1.21090   1.31061   -1.000
 6378.00    1.20659   1.30842   -1.000
 6379.00    1.20634   1.30654   -1.000
 6380.00    1.20951   1.30536   -1.000
 6381.00    1.20316   1.30502   -1.000
 6382.00    1.20413   1.30548   -1.000
 6383.00    1.19913   1.30656   -1.000
 6384.00    1.19821   1.30798   -1.000
 6385.00    1.19525   1.30944   -1.000
 6386.00    1.19475   1.31054   -1.000
 6387.00    1.18775   1.31080   -1.000
 6388.00    1.18171   1.30975   -1.000
 6389.00    1.17901   1.30717   -1.000
 6390.00    1.16911   1.30346   -1.000
 6391.00    1.16160   1.29964   -1.000
 6392.00    1.15227   1.29689   -1.000
 6393.00    1.14415   1.29606   -1.000
 6394.00    1.13405   1.29704   -1.000
 6395.00    1.12444   1.29880   -1.000
 6396.00    1.12337   1.29992   -1.000
 6397.00    1.12691   1.29968   -1.000
 6398.00    1.12990   1.29859   -1.000
 6399.00    1.12867   1.29811   -1.000
 6400.00    1.11049   1.29949   -1.000
 6401.00    1.08816   1.30283   -1.000
 6402.00    1.09006   1.30695   -1.000
 6403.00    1.11148   1.31003   -1.000
 6404.00    1.11233   1.31070   -1.000
 6405.00    1.10039   1.30886   -1.000
 6406.00    1.09911   1.30556   -1.000
 6407.00    1.08787   1.30218   -1.000
 6408.00    1.08417   1.29989   -1.000
 6409.00    1.07484   1.29909   -1.000
 6410.00    1.06158   1.29950   -1.000
 6411.00    1.05606   1.30054   -1.000
 6412.00    1.05091   1.30164   -1.000
 6413.00    1.03735   1.30265   -1.000
 6414.00    1.03094   1.30367   -1.000
 6415.00    1.03701   1.30439   -1.000
 6416.00    1.02976   1.30437   -1.000
 6417.00    1.02039   1.30351   -1.000
 6418.00    1.01450   1.30217   -1.000
 6419.00    1.00578   1.30109   -1.000
 6420.00    0.99827   1.30131   -1.000
 6421.00    0.98738   1.30352   -1.000
 6422.00    0.97469   1.30758   -1.000
 6423.00    0.96389   1.31250   -1.000
 6424.00    0.95629   1.31682   -1.000
 6425.00    0.96373   1.31920   -1.000
 6426.00    0.95587   1.31898   -1.000
 6427.00    0.94495   1.31624   -1.000
 6428.00    0.93359   1.31184   -1.000
