###################################################################
## OUTPUT of StarlightChains_v04.for    [Cid@UFSC - 01/Apr/2007] ##
###################################################################

## Some input info
NGC5927_c_1.cxt                          [arq_obs]
Base.BC03.S                              [arq_base]
NGC5927_c_1.msk                          [arq_masks]
StCv04.C99.config                        [arq_config]
  150                                    [N_base]
    0                                    [N_YAV_components = # of components with extra extinction!]
    0                                    [i_FitPowerLaw (1/0 = Yes/No)]
-9.99                                    [alpha_PowerLaw]
CCM                                      [red_law_option]
 1.458241                                [q_norm = A(l_norm)/A(V)]

## (Re)Sampling Parameters
 3359.00                                 [l_ini (A)]
 6428.00                                 [l_fin (A)]
    1.00                                 [dl    (A)]     (OBS: dl_cushion =    50.00 A)

## Normalization info
 4020.00                                 [l_norm (A) - for base]
 4010.00                                 [llow_norm (A) - window for f_obs]
 4060.00                                 [lupp_norm (A) - window for f_obs]
5.954027E-15                             [fobs_norm (in input units)]

## S/N
 4730.00                                 [llow_SN (A) - window for S/N]
 4780.00                                 [lupp_SN (A) - window for S/N]
  31.182                                 [S/N in S/N window]
  18.272                                 [S/N in norm. window]
 384.682                                 [S/N_err in S/N window]
 225.410                                 [S/N_err in norm. window]
  1.0000                                 [fscale_chi2]

## etc...
  2147483631                             [idum_orig]
  3063                                   [NOl_eff]
  1211                                   [Nl_eff]
  1852    NSIGMA                         [Ntot_cliped & clip_method]
  4218970                                [Nglobal_steps]
   7                                     [N_chains]
  23                                     [NEX0s_base = N_base in EX0s-fits]
 0   0   1      166   2.0   5.069E+02    [Clip-Bug, RC-Crash & Burn-In warning-flags, n_censored_weights, wei_nsig_threshold & wei_limit]
   169    168.740    168.711      0.028  [idt_all, wdt_TotTime, wdt_UsrTime & wdt_SysTime (sec)]

## Synthesis Results - Best model ##

 2.29658E+00                             [chi2/Nl_eff]
     1.88327                             [adev (%)]

   100.32387                             [sum-of-x (%)]
 2.80774E-14                             [Flux_tot (units of input spectrum!)]
 1.83517E-09                             [Mini_tot (???)]
 9.18915E-10                             [Mcor_tot (???)]

   6.03                                  [v0_min  (km/s)]
  54.20                                  [vd_min  (km/s)]
 1.1523                                  [AV_min  (mag)]
 0.0000                                  [YAV_min (mag)]

# j     x_j(%)      Mini_j(%)     Mcor_j(%)     age_j(yr)     Z_j      (L/M)_j    YAV?  Mstars   component_j        a/Fe...       SSP_chi2r SSP_adev(%)   SSP_AV   SSP_x(%)
  1      1.8411     3.4409E-03    6.8718E-03    1.000000E+06  0.00010  8.160E-03    0   1.0000   age020_m22            0.0000     2.8880E+03    34.2823   4.0000    92.2559
  2     10.2607     3.2880E-03    6.5666E-03    3.160000E+06  0.00010  4.759E-02    0   1.0000   age045_m22            0.0000     3.7468E+02    12.3604   3.5624   100.1314
  3      9.0185     7.1187E-03    1.3623E-02    5.010000E+06  0.00010  1.932E-02    0   0.9582   age055_m22            0.0000     5.4392E+02    19.8212   4.0000    88.0659
  4      0.0000     0.0000E+00    0.0000E+00    6.610000E+06  0.00010  9.973E-03    0   0.9297   age061_m22            0.0000     2.8396E+03    33.6364   4.0000    94.9794
  5      0.0000     0.0000E+00    0.0000E+00    8.710000E+06  0.00010  7.690E-03    0   0.9030   age067_m22            0.0000     2.7628E+03    33.3062   4.0000    95.4491
  6      0.4693     1.1227E-03    1.9959E-03    1.000000E+07  0.00010  6.375E-03    0   0.8902   age070_m22            0.0000     2.7371E+03    33.4319   4.0000    95.6313
  7      0.0000     0.0000E+00    0.0000E+00    1.445000E+07  0.00010  4.874E-03    0   0.8589   age078_m22            0.0000     2.1317E+03    28.8573   4.0000    98.5529
  8      0.0000     0.0000E+00    0.0000E+00    2.512000E+07  0.00010  4.103E-03    0   0.8174   age090_m22            0.0000     1.1583E+03    18.6922   4.0000   103.4928
  9      0.0000     0.0000E+00    0.0000E+00    4.000000E+07  0.00010  3.654E-03    0   0.7830   age104_m22            0.0000     8.0298E+02    12.2654   4.0000   105.6169
 10      0.0000     0.0000E+00    0.0000E+00    5.500000E+07  0.00010  3.093E-03    0   0.7597   age110_m22            0.0000     7.3188E+02    10.6242   4.0000   105.7150
 11      0.0000     0.0000E+00    0.0000E+00    1.015200E+08  0.00010  2.431E-03    0   0.7138   age116_m22            0.0000     6.9832E+02     9.5603   4.0000   104.0630
 12      0.0000     0.0000E+00    0.0000E+00    1.609000E+08  0.00010  1.319E-03    0   0.6775   age120_m22            0.0000     6.8367E+02    10.0123   3.6282   104.3505
 13      0.0000     0.0000E+00    0.0000E+00    2.861200E+08  0.00010  1.075E-03    0   0.6412   age125_m22            0.0000     1.1117E+03     9.6510   3.5825   107.7311
 14      0.0000     0.0000E+00    0.0000E+00    5.088000E+08  0.00010  7.183E-04    0   0.6083   age130_m22            0.0000     1.2475E+03    10.2177   3.3148   109.2374
 15      0.0000     0.0000E+00    0.0000E+00    9.047900E+08  0.00010  4.524E-04    0   0.5785   age135_m22            0.0000     1.2485E+03    10.3390   3.1054   110.4771
 16      0.0000     0.0000E+00    0.0000E+00    1.278050E+09  0.00010  3.018E-04    0   0.5588   age138_m22            0.0000     7.9026E+02     8.3176   2.6068   108.7121
 17      0.0000     0.0000E+00    0.0000E+00    1.434000E+09  0.00010  2.691E-04    0   0.5532   age139_m22            0.0000     7.0154E+02     7.9793   2.4574   108.0859
 18      0.0000     0.0000E+00    0.0000E+00    2.500000E+09  0.00010  1.582E-04    0   0.5296   age150_m22            0.0000     6.6577E+02     8.2101   2.3857   108.8049
 19      0.0000     0.0000E+00    0.0000E+00    4.250000E+09  0.00010  1.007E-04    0   0.5110   age158_m22            0.0000     5.0335E+02     7.9297   2.2624   107.1542
 20      0.0000     0.0000E+00    0.0000E+00    6.250000E+09  0.00010  6.869E-05    0   0.4985   age166_m22            0.0000     3.7222E+02     8.0666   2.2373   104.3370
 21      0.0000     0.0000E+00    0.0000E+00    7.500000E+09  0.00010  5.873E-05    0   0.4931   age171_m22            0.0000     3.6173E+02     8.4254   2.2418   103.7827
 22      0.0000     0.0000E+00    0.0000E+00    1.000000E+10  0.00010  4.481E-05    0   0.4854   age181_m22            0.0000     3.5319E+02     8.2567   2.1989   103.4035
 23      0.0000     0.0000E+00    0.0000E+00    1.300000E+10  0.00010  3.489E-05    0   0.4791   age193_m22            0.0000     3.3294E+02     8.0081   2.1368   102.8275
 24      0.0000     0.0000E+00    0.0000E+00    1.500000E+10  0.00010  3.035E-05    0   0.4766   age201_m22            0.0000     3.2093E+02     7.9077   2.0961   102.6577
 25      0.0000     0.0000E+00    0.0000E+00    1.800000E+10  0.00010  2.510E-05    0   0.4735   age213_m22            0.0000     2.9505E+02     7.7880   2.0289   102.0428
 26      0.8316     1.4994E-03    2.9945E-03    1.000000E+06  0.00040  8.458E-03    0   1.0000   age020_m32            0.0000     2.9150E+03    34.5778   4.0000    92.8784
 27      0.0000     0.0000E+00    0.0000E+00    3.160000E+06  0.00040  3.973E-02    0   1.0000   age045_m32            0.0000     1.0520E+03    16.4308   4.0000   103.0389
 28      0.0000     0.0000E+00    0.0000E+00    5.010000E+06  0.00040  1.935E-02    0   0.9532   age055_m32            0.0000     1.7319E+03    23.1187   4.0000    98.1005
 29      0.0000     0.0000E+00    0.0000E+00    6.610000E+06  0.00040  1.204E-02    0   0.9243   age061_m32            0.0000     2.3833E+03    30.1412   4.0000    97.0891
 30      0.0000     0.0000E+00    0.0000E+00    8.710000E+06  0.00040  9.433E-03    0   0.9001   age067_m32            0.0000     2.2393E+03    29.2503   4.0000    98.0513
 31      0.0000     0.0000E+00    0.0000E+00    1.000000E+07  0.00040  8.053E-03    0   0.8877   age070_m32            0.0000     2.1365E+03    28.3764   4.0000    98.4548
 32      0.0000     0.0000E+00    0.0000E+00    1.445000E+07  0.00040  7.027E-03    0   0.8578   age078_m32            0.0000     1.0993E+03    16.0640   4.0000   101.3793
 33      0.0000     0.0000E+00    0.0000E+00    2.512000E+07  0.00040  4.707E-03    0   0.8166   age090_m32            0.0000     7.1063E+02    10.4920   4.0000   102.3831
 34      0.0000     0.0000E+00    0.0000E+00    4.000000E+07  0.00040  3.714E-03    0   0.7827   age104_m32            0.0000     5.9859E+02     9.4896   4.0000   103.0569
 35      0.0000     0.0000E+00    0.0000E+00    5.500000E+07  0.00040  2.982E-03    0   0.7593   age110_m32            0.0000     6.0669E+02     9.5748   4.0000   103.1527
 36      0.0000     0.0000E+00    0.0000E+00    1.015200E+08  0.00040  2.188E-03    0   0.7143   age116_m32            0.0000     8.0688E+02    10.0339   3.8470   104.6272
 37      0.0000     0.0000E+00    0.0000E+00    1.609000E+08  0.00040  1.690E-03    0   0.6856   age120_m32            0.0000     9.8746E+02     9.6668   3.5971   107.1906
 38      0.0000     0.0000E+00    0.0000E+00    2.861200E+08  0.00040  1.152E-03    0   0.6509   age125_m32            0.0000     1.1417E+03     9.6915   3.3244   108.7070
 39      0.0000     0.0000E+00    0.0000E+00    5.088000E+08  0.00040  7.331E-04    0   0.6182   age130_m32            0.0000     1.1848E+03    10.0533   3.1285   109.4567
 40      0.0000     0.0000E+00    0.0000E+00    9.047900E+08  0.00040  3.960E-04    0   0.5890   age135_m32            0.0000     7.9136E+02     8.5140   2.6703   108.0951
 41      0.0000     0.0000E+00    0.0000E+00    1.278050E+09  0.00040  2.854E-04    0   0.5687   age138_m32            0.0000     7.1556E+02     8.2507   2.4346   109.9301
 42      0.0000     0.0000E+00    0.0000E+00    1.434000E+09  0.00040  2.531E-04    0   0.5632   age139_m32            0.0000     7.0329E+02     8.2008   2.3770   109.8460
 43      0.0000     0.0000E+00    0.0000E+00    2.500000E+09  0.00040  1.488E-04    0   0.5386   age150_m32            0.0000     5.6728E+02     7.6249   2.1226   108.0048
 44      0.0000     0.0000E+00    0.0000E+00    4.250000E+09  0.00040  9.082E-05    0   0.5199   age158_m32            0.0000     3.4820E+02     7.1926   2.0673   104.5853
 45      0.0000     0.0000E+00    0.0000E+00    6.250000E+09  0.00040  6.362E-05    0   0.5076   age166_m32            0.0000     2.4084E+02     7.9437   2.0806   101.1562
 46      0.0000     0.0000E+00    0.0000E+00    7.500000E+09  0.00040  5.289E-05    0   0.5027   age171_m32            0.0000     2.1759E+02     7.8181   2.0436    99.8378
 47      0.0000     0.0000E+00    0.0000E+00    1.000000E+10  0.00040  3.972E-05    0   0.4948   age181_m32            0.0000     1.9559E+02     7.3877   1.9691    98.4083
 48      0.0000     0.0000E+00    0.0000E+00    1.300000E+10  0.00040  3.283E-05    0   0.4870   age193_m32            0.0000     2.3479E+02     6.7456   1.8951   101.2410
 49      0.0000     0.0000E+00    0.0000E+00    1.500000E+10  0.00040  2.925E-05    0   0.4854   age201_m32            0.0000     2.6806E+02     6.5580   1.8604   102.9038
 50      0.0000     0.0000E+00    0.0000E+00    1.800000E+10  0.00040  2.469E-05    0   0.4819   age213_m32            0.0000     2.7770E+02     6.3656   1.8093   103.4440
 51      0.2923     4.0017E-04    7.9919E-04    1.000000E+06  0.00400  1.114E-02    0   1.0000   age020_m42            0.0000     2.7150E+03    32.9204   4.0000    93.3112
 52      0.0000     0.0000E+00    0.0000E+00    3.160000E+06  0.00400  4.073E-02    0   0.9999   age045_m42            0.0000     6.2166E+02    10.3523   4.0000   102.6175
 53      0.0000     0.0000E+00    0.0000E+00    5.010000E+06  0.00400  2.534E-02    0   0.9488   age055_m42            0.0000     1.2891E+03    19.2642   4.0000    99.9104
 54      0.0000     0.0000E+00    0.0000E+00    6.610000E+06  0.00400  2.583E-02    0   0.9220   age061_m42            0.0000     5.3594E+02     9.1375   4.0000   101.4585
 55      0.0000     0.0000E+00    0.0000E+00    8.710000E+06  0.00400  1.706E-02    0   0.8983   age067_m42            0.0000     4.8454E+02    11.6746   4.0000    98.2326
 56      0.0000     0.0000E+00    0.0000E+00    1.000000E+07  0.00400  1.271E-02    0   0.8862   age070_m42            0.0000     5.3133E+02    12.6949   4.0000    97.0514
 57      0.0000     0.0000E+00    0.0000E+00    1.445000E+07  0.00400  7.666E-03    0   0.8571   age078_m42            0.0000     8.9812E+02    12.2771   4.0000    97.7529
 58      0.0000     0.0000E+00    0.0000E+00    2.512000E+07  0.00400  5.070E-03    0   0.8174   age090_m42            0.0000     4.5028E+02    13.9844   4.0000    96.8451
 59      0.0000     0.0000E+00    0.0000E+00    4.000000E+07  0.00400  3.505E-03    0   0.7851   age104_m42            0.0000     3.7448E+02    13.2329   3.7547    97.8788
 60      0.0000     0.0000E+00    0.0000E+00    5.500000E+07  0.00400  3.059E-03    0   0.7629   age110_m42            0.0000     4.9559E+02     9.5479   3.6938   102.4945
 61      0.0000     0.0000E+00    0.0000E+00    1.015200E+08  0.00400  2.268E-03    0   0.7207   age116_m42            0.0000     8.6349E+02     8.5810   3.4811   108.0813
 62      0.0000     0.0000E+00    0.0000E+00    1.609000E+08  0.00400  1.720E-03    0   0.6930   age120_m42            0.0000     9.0688E+02     8.6126   3.3112   109.8043
 63      0.0000     0.0000E+00    0.0000E+00    2.861200E+08  0.00400  1.079E-03    0   0.6613   age125_m42            0.0000     8.9447E+02     8.3314   2.9453   109.7896
 64      0.0000     0.0000E+00    0.0000E+00    5.088000E+08  0.00400  6.261E-04    0   0.6313   age130_m42            0.0000     9.8103E+02     8.7899   2.7575   112.7559
 65      0.0000     0.0000E+00    0.0000E+00    9.047900E+08  0.00400  3.535E-04    0   0.6024   age135_m42            0.0000     6.7736E+02     7.5148   2.3637   113.0379
 66      0.0000     0.0000E+00    0.0000E+00    1.278050E+09  0.00400  2.677E-04    0   0.5837   age138_m42            0.0000     2.6280E+02     6.2048   1.5927   109.9895
 67      0.0000     0.0000E+00    0.0000E+00    1.434000E+09  0.00400  1.910E-04    0   0.5716   age139_m42            0.0000     3.5786E+02     6.2980   1.7768   111.1092
 68      0.0000     0.0000E+00    0.0000E+00    2.500000E+09  0.00400  9.818E-05    0   0.5463   age150_m42            0.0000     1.3177E+02     4.4583   1.5233   105.6514
 69      0.9110     2.5302E-01    2.6625E-01    4.250000E+09  0.00400  5.491E-05    0   0.5269   age158_m42            0.0000     6.5942E+01     3.4483   1.4214   102.4852
 70      0.0000     0.0000E+00    0.0000E+00    6.250000E+09  0.00400  3.857E-05    0   0.5151   age166_m42            0.0000     4.2021E+01     3.5824   1.2734   101.0088
 71      0.0000     0.0000E+00    0.0000E+00    7.500000E+09  0.00400  3.243E-05    0   0.5110   age171_m42            0.0000     3.4437E+01     3.8896   1.1780   100.3608
 72      0.0000     0.0000E+00    0.0000E+00    1.000000E+10  0.00400  2.424E-05    0   0.5028   age181_m42            0.0000     2.8181E+01     4.3011   1.0812    99.5968
 73      0.0000     0.0000E+00    0.0000E+00    1.300000E+10  0.00400  1.883E-05    0   0.4927   age193_m42            0.0000     2.5485E+01     4.5494   1.0349    99.1695
 74      0.0000     0.0000E+00    0.0000E+00    1.500000E+10  0.00400  1.685E-05    0   0.4919   age201_m42            0.0000     2.5240E+01     4.4269   1.0437    99.1992
 75      0.0000     0.0000E+00    0.0000E+00    1.800000E+10  0.00400  1.452E-05    0   0.4874   age213_m42            0.0000     2.5236E+01     4.2250   1.0665    99.4957
 76      0.0000     0.0000E+00    0.0000E+00    1.000000E+06  0.00800  1.286E-02    0   1.0000   age020_m52            0.0000     2.5366E+03    31.9870   4.0000    95.1944
 77      0.0000     0.0000E+00    0.0000E+00    3.160000E+06  0.00800  3.147E-02    0   0.9966   age045_m52            0.0000     2.3571E+03    30.1195   4.0000    96.7775
 78      0.0000     0.0000E+00    0.0000E+00    5.010000E+06  0.00800  2.664E-02    0   0.9443   age055_m52            0.0000     1.5532E+03    22.1505   4.0000    99.5458
 79      0.0000     0.0000E+00    0.0000E+00    6.610000E+06  0.00800  2.151E-02    0   0.9177   age061_m52            0.0000     3.5150E+02    15.6187   3.8493    95.0370
 80      0.0000     0.0000E+00    0.0000E+00    8.710000E+06  0.00800  1.628E-02    0   0.8948   age067_m52            0.0000     4.7946E+02    12.3500   4.0000    98.1902
 81      0.0000     0.0000E+00    0.0000E+00    1.000000E+07  0.00800  1.215E-02    0   0.8827   age070_m52            0.0000     7.3961E+02    10.8955   4.0000   100.0733
 82      0.0000     0.0000E+00    0.0000E+00    1.445000E+07  0.00800  8.739E-03    0   0.8552   age078_m52            0.0000     7.4964E+02    10.6891   4.0000   101.7300
 83      0.0000     0.0000E+00    0.0000E+00    2.512000E+07  0.00800  5.676E-03    0   0.8162   age090_m52            0.0000     5.4842E+02    11.2048   4.0000   101.4783
 84      0.0000     0.0000E+00    0.0000E+00    4.000000E+07  0.00800  3.939E-03    0   0.7841   age104_m52            0.0000     5.6776E+02    11.6067   3.9342   101.8430
 85      0.0000     0.0000E+00    0.0000E+00    5.500000E+07  0.00800  3.155E-03    0   0.7627   age110_m52            0.0000     6.2808E+02    10.4161   3.8566   103.6595
 86      0.0000     0.0000E+00    0.0000E+00    1.015200E+08  0.00800  2.206E-03    0   0.7226   age116_m52            0.0000     7.5878E+02     8.7989   3.5779   107.9797
 87      0.0000     0.0000E+00    0.0000E+00    1.609000E+08  0.00800  1.596E-03    0   0.6963   age120_m52            0.0000     8.2148E+02     8.4453   3.3281   109.6912
 88      0.0000     0.0000E+00    0.0000E+00    2.861200E+08  0.00800  1.002E-03    0   0.6665   age125_m52            0.0000     9.9650E+02     9.2501   2.9453   112.2821
 89      0.0000     0.0000E+00    0.0000E+00    5.088000E+08  0.00800  5.759E-04    0   0.6377   age130_m52            0.0000     9.9366E+02    10.1659   2.5374   116.4683
 90      0.0000     0.0000E+00    0.0000E+00    9.047900E+08  0.00800  2.972E-04    0   0.6086   age135_m52            0.0000     5.9302E+02     9.1122   1.9755   114.6330
 91      0.0000     0.0000E+00    0.0000E+00    1.278050E+09  0.00800  2.242E-04    0   0.5907   age138_m52            0.0000     2.2106E+02     7.0971   1.3711   112.5658
 92      0.0000     0.0000E+00    0.0000E+00    1.434000E+09  0.00800  1.645E-04    0   0.5787   age139_m52            0.0000     2.1679E+02     6.2355   1.5490   112.0057
 93      0.0000     0.0000E+00    0.0000E+00    2.500000E+09  0.00800  7.723E-05    0   0.5519   age150_m52            0.0000     7.9708E+01     4.9678   1.2241   107.7388
 94      0.4721     1.7345E-01    1.8428E-01    4.250000E+09  0.00800  4.151E-05    0   0.5320   age158_m52            0.0000     5.2144E+01     4.4389   1.1679   104.9674
 95      0.0000     0.0000E+00    0.0000E+00    6.250000E+09  0.00800  3.010E-05    0   0.5197   age166_m52            0.0000     3.2747E+01     4.8664   0.9496   103.3136
 96      1.2585     7.7796E-01    7.9843E-01    7.500000E+09  0.00800  2.467E-05    0   0.5139   age171_m52            0.0000     3.1638E+01     5.1178   0.8985   102.8768
 97     17.7639     1.4549E+01    1.4685E+01    1.000000E+10  0.00800  1.862E-05    0   0.5054   age181_m52            0.0000     3.5971E+01     6.1315   0.7362   102.4317
 98      9.8193     1.0450E+01    1.0410E+01    1.300000E+10  0.00800  1.433E-05    0   0.4988   age193_m52            0.0000     4.5620E+01     7.0757   0.6162   103.0146
 99     13.5596     1.6623E+01    1.6386E+01    1.500000E+10  0.00800  1.244E-05    0   0.4936   age201_m52            0.0000     5.1846E+01     7.4613   0.5790   103.4390
100      0.8875     1.2649E+00    1.2348E+00    1.800000E+10  0.00800  1.070E-05    0   0.4888   age213_m52            0.0000     5.7471E+01     7.8685   0.5324   103.3167
101      0.0000     0.0000E+00    0.0000E+00    1.000000E+06  0.02000  1.989E-02    0   1.0000   age020_m62            0.0000     2.6498E+03    31.9775   4.0000    94.0238
102      0.0000     0.0000E+00    0.0000E+00    3.160000E+06  0.02000  3.772E-02    0   0.9858   age045_m62            0.0000     2.2861E+03    28.8789   4.0000    96.3402
103      0.0000     0.0000E+00    0.0000E+00    5.010000E+06  0.02000  3.227E-02    0   0.9342   age055_m62            0.0000     1.0098E+03    15.6514   4.0000   102.0667
104      0.0000     0.0000E+00    0.0000E+00    6.610000E+06  0.02000  2.387E-02    0   0.9090   age061_m62            0.0000     8.8487E+02    11.9858   4.0000    99.7124
105      0.0000     0.0000E+00    0.0000E+00    8.710000E+06  0.02000  1.102E-02    0   0.8861   age067_m62            0.0000     1.0140E+03    16.6706   4.0000    92.8009
106      0.0000     0.0000E+00    0.0000E+00    1.000000E+07  0.02000  1.011E-02    0   0.8751   age070_m62            0.0000     7.9337E+02    14.7126   4.0000    94.7945
107      0.0000     0.0000E+00    0.0000E+00    1.445000E+07  0.02000  7.331E-03    0   0.8472   age078_m62            0.0000     6.5475E+02    13.3198   4.0000    95.9080
108      0.0000     0.0000E+00    0.0000E+00    2.512000E+07  0.02000  4.206E-03    0   0.8099   age090_m62            0.0000     6.1093E+02    14.5474   4.0000    94.4315
109      0.0000     0.0000E+00    0.0000E+00    4.000000E+07  0.02000  3.373E-03    0   0.7799   age104_m62            0.0000     4.7663E+02    13.2886   3.9551    99.5342
110      0.0000     0.0000E+00    0.0000E+00    5.500000E+07  0.02000  2.747E-03    0   0.7595   age110_m62            0.0000     5.6919E+02    10.7790   3.8145   103.0498
111      0.0000     0.0000E+00    0.0000E+00    1.015200E+08  0.02000  1.878E-03    0   0.7221   age116_m62            0.0000     8.2537E+02     8.9213   3.5720   108.1767
112      0.0000     0.0000E+00    0.0000E+00    1.609000E+08  0.02000  1.378E-03    0   0.6978   age120_m62            0.0000     1.0037E+03     8.7870   3.3614   110.8288
113      0.0000     0.0000E+00    0.0000E+00    2.861200E+08  0.02000  8.869E-04    0   0.6700   age125_m62            0.0000     1.2691E+03     9.8991   2.9165   115.1903
114      0.0000     0.0000E+00    0.0000E+00    5.088000E+08  0.02000  4.834E-04    0   0.6430   age130_m62            0.0000     1.0700E+03    10.5988   2.3962   117.8452
115      0.0000     0.0000E+00    0.0000E+00    9.047900E+08  0.02000  2.312E-04    0   0.6152   age135_m62            0.0000     5.2642E+02     8.6508   1.7791   116.8657
116      0.0000     0.0000E+00    0.0000E+00    1.278050E+09  0.02000  1.387E-04    0   0.5927   age138_m62            0.0000     2.2515E+02     6.3192   1.4273   111.6509
117      0.0000     0.0000E+00    0.0000E+00    1.434000E+09  0.02000  1.168E-04    0   0.5865   age139_m62            0.0000     1.7908E+02     5.8285   1.4104   109.8449
118      0.0000     0.0000E+00    0.0000E+00    2.500000E+09  0.02000  5.505E-05    0   0.5610   age150_m62            0.0000     6.6349E+01     5.6327   1.0168   106.3878
119      0.0000     0.0000E+00    0.0000E+00    4.250000E+09  0.02000  3.070E-05    0   0.5407   age158_m62            0.0000     6.2550E+01     7.6232   0.6563   106.0481
120      0.1304     9.4531E-02    9.9624E-02    6.250000E+09  0.02000  2.104E-05    0   0.5277   age166_m62            0.0000     7.6172E+01     8.7446   0.4954   106.3834
121      0.1060     9.1287E-02    9.5220E-02    7.500000E+09  0.02000  1.770E-05    0   0.5223   age171_m62            0.0000     8.8095E+01     9.4971   0.3847   106.7911
122      4.7715     5.6104E+00    5.7378E+00    1.000000E+10  0.02000  1.297E-05    0   0.5121   age181_m62            0.0000     1.1823E+02    11.0223   0.1817   107.3445
123      4.1874     6.5895E+00    6.6418E+00    1.300000E+10  0.02000  9.691E-06    0   0.5047   age193_m62            0.0000     1.4311E+02    12.1045   0.0683   107.7413
124      7.9127     1.4434E+01    1.4411E+01    1.500000E+10  0.02000  8.360E-06    0   0.4999   age201_m62            0.0000     1.6655E+02    13.0347  -0.0325   108.1129
125     11.5787     2.5550E+01    2.5238E+01    1.800000E+10  0.02000  6.911E-06    0   0.4946   age213_m62            0.0000     1.9739E+02    14.2043  -0.1488   108.6447
126      0.0000     0.0000E+00    0.0000E+00    1.000000E+06  0.05000  2.651E-02    0   0.9998   age020_m72            0.0000     2.5891E+03    31.5532   4.0000    95.1978
127      0.0000     0.0000E+00    0.0000E+00    3.160000E+06  0.05000  4.817E-02    0   0.9577   age045_m72            0.0000     1.8093E+03    24.5129   4.0000    99.9887
128      0.0000     0.0000E+00    0.0000E+00    5.010000E+06  0.05000  3.101E-02    0   0.9147   age055_m72            0.0000     1.2175E+03    16.4909   4.0000   100.8261
129      0.0000     0.0000E+00    0.0000E+00    6.610000E+06  0.05000  1.472E-02    0   0.8877   age061_m72            0.0000     1.0600E+03    14.1762   4.0000    95.9245
130      0.0000     0.0000E+00    0.0000E+00    8.710000E+06  0.05000  1.050E-02    0   0.8638   age067_m72            0.0000     1.3250E+03    16.3170   4.0000    98.8639
131      0.0000     0.0000E+00    0.0000E+00    1.000000E+07  0.05000  8.954E-03    0   0.8524   age070_m72            0.0000     1.5466E+03    21.6110   4.0000   100.4702
132      0.0000     0.0000E+00    0.0000E+00    1.445000E+07  0.05000  6.392E-03    0   0.8262   age078_m72            0.0000     1.3681E+03    20.1155   4.0000   101.2300
133      0.0000     0.0000E+00    0.0000E+00    2.512000E+07  0.05000  4.207E-03    0   0.7902   age090_m72            0.0000     7.5635E+02    11.6361   4.0000   102.7771
134      0.0000     0.0000E+00    0.0000E+00    4.000000E+07  0.05000  3.198E-03    0   0.7618   age104_m72            0.0000     6.3817E+02     9.4692   3.9828   103.8377
135      0.0000     0.0000E+00    0.0000E+00    5.500000E+07  0.05000  2.593E-03    0   0.7432   age110_m72            0.0000     7.3685E+02     8.9714   3.8622   105.8598
136      0.0000     0.0000E+00    0.0000E+00    1.015200E+08  0.05000  1.716E-03    0   0.7092   age116_m72            0.0000     9.2690E+02     8.7685   3.6327   108.5179
137      0.0000     0.0000E+00    0.0000E+00    1.609000E+08  0.05000  1.218E-03    0   0.6876   age120_m72            0.0000     1.0996E+03     8.8053   3.2979   111.5291
138      0.0000     0.0000E+00    0.0000E+00    2.861200E+08  0.05000  7.047E-04    0   0.6618   age125_m72            0.0000     1.1885E+03    10.4836   2.6401   116.0388
139      0.0000     0.0000E+00    0.0000E+00    5.088000E+08  0.05000  3.590E-04    0   0.6356   age130_m72            0.0000     8.7334E+02    11.1716   1.9696   119.1098
140      0.0029     2.9784E-04    3.6213E-04    9.047900E+08  0.05000  1.484E-04    0   0.6088   age135_m72            0.0000     2.5309E+02     8.3819   1.2511   111.1715
141      0.0000     0.0000E+00    0.0000E+00    1.278050E+09  0.05000  9.435E-05    0   0.5924   age138_m72            0.0000     1.2234E+02     8.6580   0.8043   107.8637
142      0.0000     0.0000E+00    0.0000E+00    1.434000E+09  0.05000  7.827E-05    0   0.5847   age139_m72            0.0000     1.0084E+02     7.9759   0.8395   107.0589
143      0.0000     0.0000E+00    0.0000E+00    2.500000E+09  0.05000  3.759E-05    0   0.5583   age150_m72            0.0000     8.0234E+01     8.8657   0.4942   105.8857
144      4.2403     3.5106E+00    3.7677E+00    4.250000E+09  0.05000  1.842E-05    0   0.5374   age158_m72            0.0000     1.1590E+02    11.2855   0.1123   105.2890
145      0.0067     8.4957E-03    8.8940E-03    6.250000E+09  0.05000  1.207E-05    0   0.5242   age166_m72            0.0000     1.6597E+02    13.7446  -0.2180   105.3619
146      0.0018     2.7589E-03    2.8557E-03    7.500000E+09  0.05000  9.993E-06    0   0.5183   age171_m72            0.0000     1.7521E+02    14.1798  -0.2806   105.4187
147      0.0000     0.0000E+00    0.0000E+00    1.000000E+10  0.05000  7.291E-06    0   0.5081   age181_m72            0.0000     2.2209E+02    16.1663  -0.4903   105.9353
148      0.0000     0.0000E+00    0.0000E+00    1.300000E+10  0.05000  5.316E-06    0   0.5018   age193_m72            0.0000     3.0258E+02    18.9980  -0.8103   107.0068
149      0.0000     0.0000E+00    0.0000E+00    1.500000E+10  0.05000  4.497E-06    0   0.4972   age201_m72            0.0000     3.4793E+02    20.4113  -0.9555   107.9731
150      0.0000     0.0000E+00    0.0000E+00    1.800000E+10  0.05000  3.739E-06    0   0.4924   age213_m72            0.0000     4.1371E+02    20.5071  -1.0000   106.9226


## Synthesis Results - Average & Chains ##

# j      x_j: min, <> & last-chain-values for 1 ...  7 chains
  1      1.8411      1.8189      2.0207      1.7741      1.9756      1.8582      1.8548      1.8578      1.9280
  2     10.2607      8.7059      9.0281      8.8968      9.1897      9.0018      9.4425      9.4413      9.0774
  3      9.0185      7.4757      8.0764      7.3771      7.7836      7.7005      7.9825      8.5060      7.5231
  4      0.0000      0.1935      0.1325      0.0414      0.1518      0.3074      0.2285      0.1716      0.1580
  5      0.0000      0.0458      0.0323      0.3429      0.0000      0.0000      0.0000      0.0000      0.0000
  6      0.4693      0.1344      0.0508      0.3397      0.2332      0.1225      0.1049      0.2416      0.0940
  7      0.0000      0.0399      0.0000      0.0000      0.0166      0.0000      0.0000      0.0000      0.0244
  8      0.0000      0.0225      0.0000      0.0000      0.0000      0.0000      0.0000      0.0000      0.0159
  9      0.0000      0.0174      0.0000      0.0000      0.0000      0.0000      0.0000      0.0000      0.0000
 10      0.0000      0.0127      0.0000      0.0000      0.0000      0.0441      0.0000      0.0000      0.0000
 11      0.0000      0.0134      0.0000      0.0000      0.0232      0.0173      0.0000      0.0000      0.0000
 12      0.0000      0.0074      0.0063      0.0000      0.0000      0.0062      0.0000      0.0000      0.0000
 13      0.0000      0.0040      0.0000      0.0000      0.0000      0.0000      0.0000      0.0000      0.0000
 14      0.0000      0.0045      0.0000      0.0000      0.0000      0.0000      0.0411      0.0000      0.0000
 15      0.0000      0.0045      0.0000      0.0000      0.0000      0.0000      0.0000      0.0000      0.0000
 16      0.0000      0.0088      0.0000      0.0000      0.0000      0.0000      0.0000      0.0000      0.0000
 17      0.0000      0.0095      0.0000      0.0000      0.0000      0.0000      0.0000      0.0000      0.0000
 18      0.0000      0.0136      0.0000      0.0000      0.0197      0.0000      0.0000      0.0000      0.0675
 19      0.0000      0.0289      0.0000      0.0000      0.0000      0.0462      0.0457      0.0000      0.0000
 20      0.0000      0.0521      0.4969      0.1054      0.1174      0.0740      0.1036      0.0500      0.0000
 21      0.0000      0.0752      0.2044      0.0989      0.0000      0.1152      0.0777      0.2155      0.0000
 22      0.0000      0.0676      0.1001      0.0000      0.0000      0.0218      0.0194      0.0000      0.0000
 23      0.0000      0.0655      0.0000      0.0000      0.1352      0.1717      0.0000      0.0000      0.0000
 24      0.0000      0.0685      0.0000      0.1011      0.1167      0.0777      0.1908      0.0000      0.4427
 25      0.0000      0.0723      0.0000      0.0000      0.0000      0.3889      0.0000      0.0000      0.0000
 26      0.8316      0.6744      0.6993      0.7333      0.6884      0.6295      0.7911      0.5753      0.9504
 27      0.0000      0.0243      0.0000      0.0432      0.0000      0.0000      0.0000      0.0000      0.0000
 28      0.0000      0.0723      0.0000      0.0740      0.0006      0.0582      0.0000      0.0000      0.0000
 29      0.0000      0.0604      0.0000      0.0000      0.0522      0.0000      0.1554      0.0000      0.0457
 30      0.0000      0.1966      0.1248      0.1825      0.3879      0.3678      0.0000      0.1543      0.0000
 31      0.0000      0.0369      0.0000      0.0000      0.0000      0.0000      0.0000      0.0000      0.1049
 32      0.0000      0.0248      0.0000      0.0000      0.0000      0.0005      0.0000      0.0000      0.0000
 33      0.0000      0.0179      0.0000      0.0000      0.0000      0.0000      0.0000      0.0000      0.1505
 34      0.0000      0.0230      0.0000      0.0000      0.0000      0.0000      0.0477      0.0000      0.0000
 35      0.0000      0.0146      0.0000      0.0000      0.0532      0.0000      0.0000      0.0000      0.0134
 36      0.0000      0.0119      0.0000      0.0000      0.0000      0.0000      0.0000      0.0000      0.0000
 37      0.0000      0.0050      0.0000      0.0000      0.0000      0.0000      0.0000      0.0000      0.0000
 38      0.0000      0.0056      0.0532      0.0000      0.0000      0.0000      0.0000      0.0000      0.0000
 39      0.0000      0.0045      0.0000      0.0000      0.0000      0.0000      0.0000      0.0000      0.0000
 40      0.0000      0.0065      0.0000      0.0000      0.0000      0.0000      0.0000      0.0000      0.0000
 41      0.0000      0.0138      0.0000      0.0389      0.0000      0.0000      0.0000      0.0000      0.0000
 42      0.0000      0.0139      0.0000      0.0000      0.0000      0.0000      0.0201      0.0000      0.1522
 43      0.0000      0.0225      0.0111      0.0000      0.0000      0.0000      0.0000      0.1599      0.0000
 44      0.0000      0.0630      0.0000      0.1022      0.1993      0.0000      0.2673      0.2170      0.0749
 45      0.0000      0.2964      0.6053      0.5288      0.0000      0.3367      0.0330      0.0000      0.2453
 46      0.0000      0.2928      0.0000      0.8268      0.2294      0.4764      0.0000      0.1567      0.8323
 47      0.0000      0.1642      0.0000      0.0602      0.2785      0.3621      0.4026      0.1638      0.0639
 48      0.0000      0.0805      0.0000      0.0913      0.0667      0.0000      0.1669      0.0000      0.0000
 49      0.0000      0.0476      0.0000      0.0000      0.0000      0.0000      0.0000      0.0119      0.0000
 50      0.0000      0.0507      0.0000      0.0550      0.0000      0.1296      0.0000      0.0000      0.0000
 51      0.2923      0.5469      0.5980      0.5077      0.5424      0.6106      0.4267      0.6255      0.5690
 52      0.0000      0.0352      0.1626      0.1740      0.0000      0.0000      0.0000      0.0000      0.0000
 53      0.0000      0.0649      0.0000      0.0000      0.0000      0.1177      0.0000      0.0984      0.0000
 54      0.0000      0.0412      0.0794      0.0000      0.0000      0.0000      0.0202      0.0000      0.1246
 55      0.0000      0.0309      0.0000      0.0000      0.0000      0.0000      0.0514      0.0277      0.0000
 56      0.0000      0.0197      0.0000      0.1899      0.0035      0.0000      0.0000      0.0033      0.0356
 57      0.0000      0.0565      0.1574      0.0136      0.0361      0.0000      0.0000      0.0000      0.0000
 58      0.0000      0.0203      0.0000      0.0353      0.0000      0.0000      0.0000      0.0028      0.0000
 59      0.0000      0.0118      0.0000      0.0000      0.0000      0.0000      0.0000      0.0000      0.0000
 60      0.0000      0.0077      0.0000      0.0000      0.0000      0.0000      0.0000      0.0000      0.0000
 61      0.0000      0.0045      0.0000      0.0000      0.0000      0.0000      0.0000      0.0000      0.0000
 62      0.0000      0.0056      0.0000      0.0000      0.0000      0.0000      0.0000      0.0000      0.0000
 63      0.0000      0.0068      0.0000      0.0000      0.0000      0.0000      0.0015      0.0000      0.0000
 64      0.0000      0.0080      0.0000      0.0000      0.0000      0.0000      0.0000      0.0000      0.0000
 65      0.0000      0.0179      0.0000      0.0696      0.0000      0.0150      0.0659      0.0000      0.0000
 66      0.0000      0.0252      0.0000      0.0000      0.0000      0.0000      0.0000      0.0000      0.0000
 67      0.0000      0.0210      0.0000      0.0735      0.0000      0.0000      0.0000      0.0000      0.0000
 68      0.0000      0.0483      0.0531      0.0000      0.0000      0.0000      0.0000      0.0000      0.1073
 69      0.9110      0.0846      0.0000      0.0000      0.0000      0.0000      0.0000      0.4737      0.0000
 70      0.0000      0.0771      0.0000      0.0000      0.0000      0.0000      0.0772      0.0000      0.0000
 71      0.0000      0.0582      0.0000      0.0000      0.0348      0.0000      0.0000      0.0000      0.0890
 72      0.0000      0.0655      0.0000      0.0000      0.0342      0.0000      0.1261      0.0000      0.0000
 73      0.0000      0.1135      0.0000      0.0000      0.0000      0.0000      0.0000      0.0000      0.1424
 74      0.0000      0.1049      0.0499      0.0000      0.0000      0.0000      0.0000      0.0252      0.0000
 75      0.0000      0.0976      0.0000      0.0000      0.2407      0.3516      0.0000      0.0000      0.0000
 76      0.0000      0.0263      0.0000      0.0000      0.0000      0.0000      0.0104      0.0000      0.0000
 77      0.0000      0.0298      0.0000      0.1085      0.1412      0.0000      0.0000      0.1024      0.0000
 78      0.0000      0.0244      0.0000      0.0000      0.0883      0.0000      0.0000      0.0000      0.0000
 79      0.0000      0.0189      0.0000      0.0000      0.0000      0.0000      0.0180      0.0000      0.0000
 80      0.0000      0.0161      0.0305      0.0000      0.0000      0.0000      0.0000      0.0000      0.0000
 81      0.0000      0.0117      0.0000      0.0000      0.0000      0.0000      0.0000      0.0000      0.0000
 82      0.0000      0.0179      0.0000      0.0000      0.0000      0.0000      0.0000      0.0000      0.0000
 83      0.0000      0.0098      0.0000      0.0000      0.0000      0.0000      0.0000      0.0000      0.0000
 84      0.0000      0.0064      0.0000      0.0000      0.0000      0.0000      0.0010      0.0000      0.0000
 85      0.0000      0.0073      0.0000      0.0000      0.0000      0.0000      0.0000      0.0000      0.0000
 86      0.0000      0.0081      0.0000      0.0000      0.0000      0.0000      0.0129      0.0000      0.0000
 87      0.0000      0.0065      0.0412      0.0000      0.0000      0.0000      0.0000      0.0000      0.0000
 88      0.0000      0.0054      0.0000      0.0000      0.0000      0.0000      0.0000      0.0000      0.0000
 89      0.0000      0.0067      0.0000      0.0000      0.0129      0.0000      0.0000      0.0000      0.0000
 90      0.0000      0.0129      0.0000      0.0000      0.1506      0.0000      0.0000      0.0123      0.0000
 91      0.0000      0.0345      0.0962      0.0000      0.0122      0.0000      0.0000      0.0000      0.0311
 92      0.0000      0.0333      0.0000      0.0000      0.0000      0.0000      0.0000      0.0000      0.0000
 93      0.0000      0.0845      0.0000      0.0000      0.2197      0.0000      0.0000      0.0218      0.0777
 94      0.4721      0.1787      0.1086      0.6956      0.1467      0.0716      0.0000      0.6311      0.0000
 95      0.0000      0.3682      0.8842      0.1364      0.8114      0.0000      0.2720      0.0000      0.0000
 96      1.2585      0.3364      0.1328      0.3752      0.8725      0.0000      0.0000      0.2608      1.2560
 97     17.7639     19.2072     18.8407     19.1285     18.8933     19.5165     19.3236     19.1930     18.1164
 98      9.8193     10.9297     10.8232     11.2849     10.1901     11.0973     10.7196     11.7157     11.9313
 99     13.5596     11.2127     11.9649     11.3292     11.5534     11.7128     12.1083     11.2987     11.2490
100      0.8875      1.6246      1.5431      1.6287      1.6855      1.9504      1.8411      1.2250      1.6113
101      0.0000      0.0230      0.0000      0.0000      0.0000      0.0833      0.0000      0.0000      0.0473
102      0.0000      0.0398      0.0000      0.0000      0.0000      0.0000      0.0000      0.0000      0.1008
103      0.0000      0.0257      0.0298      0.0000      0.0000      0.0362      0.0539      0.0000      0.0178
104      0.0000      0.0225      0.0000      0.0000      0.0000      0.0000      0.0000      0.0000      0.0000
105      0.0000      0.1831      0.0320      0.1372      0.0398      0.0000      0.1708      0.0000      0.2160
106      0.0000      0.0596      0.0000      0.0000      0.1107      0.0000      0.2184      0.0000      0.1718
107      0.0000      0.0223      0.0000      0.0000      0.0000      0.0000      0.0000      0.0000      0.0076
108      0.0000      0.0154      0.0000      0.0094      0.0000      0.0000      0.0000      0.0029      0.0000
109      0.0000      0.0066      0.0000      0.0000      0.0000      0.0281      0.0420      0.0000      0.0000
110      0.0000      0.0063      0.0000      0.0000      0.0000      0.0000      0.0000      0.0000      0.0000
111      0.0000      0.0052      0.0000      0.0000      0.0000      0.0000      0.0000      0.0000      0.0000
112      0.0000      0.0042      0.0000      0.0000      0.0000      0.0000      0.0000      0.0000      0.0000
113      0.0000      0.0052      0.0000      0.0000      0.0000      0.0000      0.0000      0.0000      0.0000
114      0.0000      0.0056      0.0000      0.0000      0.0000      0.0000      0.0000      0.0045      0.0304
115      0.0000      0.0136      0.0000      0.0000      0.1446      0.0000      0.0000      0.0000      0.0000
116      0.0000      0.0326      0.0000      0.0000      0.0178      0.0000      0.0000      0.0000      0.0000
117      0.0000      0.0327      0.0000      0.2170      0.0000      0.0191      0.0767      0.0000      0.1914
118      0.0000      0.0683      0.0000      0.0000      0.0000      0.0000      0.0000      0.0000      0.0000
119      0.0000      0.0976      0.0000      0.0000      0.0000      0.0000      0.0000      0.0000      0.0000
120      0.1304      0.2649      0.1768      0.0000      0.4326      0.2872      0.0000      0.6384      0.3599
121      0.1060      0.2855      0.0000      0.1117      0.1401      0.6892      0.0324      0.3547      0.0000
122      4.7715      3.8659      4.2659      4.0080      4.5641      3.4846      4.9828      3.8224      4.0461
123      4.1874      2.7964      2.9856      2.7580      3.0085      4.3134      2.6321      3.0411      2.8283
124      7.9127      7.4093      7.3060      7.7586      7.2776      7.4812      7.4765      7.4292      7.5497
125     11.5787     12.1016     12.4867     11.7288     12.4039     11.8169     12.0518     13.2723     12.2949
126      0.0000      0.0281      0.0000      0.0000      0.0000      0.1133      0.0000      0.0000      0.0000
127      0.0000      0.0303      0.0000      0.0000      0.0000      0.0000      0.0559      0.0000      0.0000
128      0.0000      0.0324      0.0240      0.0000      0.0000      0.0000      0.1771      0.0321      0.0943
129      0.0000      0.1289      0.3982      0.1115      0.0000      0.1460      0.1459      0.0749      0.0000
130      0.0000      0.0228      0.0000      0.0000      0.0864      0.0000      0.0000      0.0000      0.0000
131      0.0000      0.0403      0.0000      0.2131      0.0000      0.0000      0.0000      0.0637      0.0000
132      0.0000      0.0194      0.0000      0.0683      0.0000      0.0000      0.0000      0.0000      0.0000
133      0.0000      0.0105      0.0000      0.0000      0.0000      0.0000      0.0000      0.0000      0.0029
134      0.0000      0.0033      0.1347      0.0000      0.0000      0.0000      0.0221      0.0000      0.0000
135      0.0000      0.0045      0.0000      0.0000      0.0000      0.0000      0.0000      0.0000      0.0000
136      0.0000      0.0043      0.0000      0.0000      0.0000      0.0000      0.0000      0.0000      0.0000
137      0.0000      0.0033      0.0000      0.0000      0.0000      0.0000      0.0315      0.0000      0.0000
138      0.0000      0.0038      0.0000      0.0000      0.0000      0.0000      0.0000      0.0000      0.0000
139      0.0000      0.0079      0.0000      0.0000      0.0000      0.0000      0.0000      0.0046      0.0000
140      0.0029      0.0306      0.0000      0.1077      0.0000      0.0000      0.0336      0.2180      0.0000
141      0.0000      0.0302      0.0000      0.0000      0.0000      0.0000      0.0000      0.0000      0.0000
142      0.0000      0.0467      0.2319      0.0683      0.0933      0.0000      0.0000      0.0871      0.0298
143      0.0000      0.1325      0.2309      0.2513      0.0000      0.0000      0.0000      0.0447      0.0000
144      4.2403      0.1981      0.1910      0.3005      0.5740      0.0020      0.4943      0.3865      0.6378
145      0.0067      1.5968      1.6082      1.5868      1.2698      0.9857      0.8795      1.0551      1.2132
146      0.0018      3.4627      2.9345      3.3477      2.7969      3.0695      3.7149      2.1927      3.1858
147      0.0000      0.0470      0.0948      0.0000      0.0000      0.0000      0.0000      0.0000      0.0000
148      0.0000      0.0279      0.0000      0.0000      0.0000      0.0000      0.0000      0.0000      0.0000
149      0.0000      0.0238      0.0000      0.0000      0.0000      0.0139      0.0000      0.0000      0.0000
150      0.0000      0.0506      0.0000      0.0000      0.0000      0.0000      0.0000      0.0000      0.0118

# j      m_j: min, <> & last-chain-values for 1 ...  7 chains
  1  6.8718E-03  6.6217E-03  7.3580E-03  6.5073E-03  7.2171E-03  6.7030E-03  6.7329E-03  6.7685E-03  7.0196E-03
  2  6.5666E-03  5.4345E-03  5.6368E-03  5.5953E-03  5.7563E-03  5.5677E-03  5.8770E-03  5.8979E-03  5.6668E-03
  3  1.3623E-02  1.1014E-02  1.1902E-02  1.0951E-02  1.1508E-02  1.1242E-02  1.1727E-02  1.2542E-02  1.1085E-02
  4  0.0000E+00  5.3577E-04  3.6695E-04  1.1541E-04  4.2179E-04  8.4361E-04  6.3085E-04  4.7558E-04  4.3767E-04
  5  0.0000E+00  1.5968E-04  1.1263E-04  1.2051E-03  0.0000E+00  0.0000E+00  0.0000E+00  0.0000E+00  0.0000E+00
  6  1.9959E-03  5.5745E-04  2.1068E-04  1.4197E-03  9.7080E-04  5.0339E-04  4.3391E-04  1.0028E-03  3.9017E-04
  7  0.0000E+00  2.0907E-04  0.0000E+00  0.0000E+00  8.7267E-05  0.0000E+00  0.0000E+00  0.0000E+00  1.2774E-04
  8  0.0000E+00  1.3302E-04  0.0000E+00  0.0000E+00  0.0000E+00  0.0000E+00  0.0000E+00  0.0000E+00  9.4180E-05
  9  0.0000E+00  1.1050E-04  0.0000E+00  0.0000E+00  0.0000E+00  0.0000E+00  0.0000E+00  0.0000E+00  0.0000E+00
 10  0.0000E+00  9.2941E-05  0.0000E+00  0.0000E+00  0.0000E+00  3.1856E-04  0.0000E+00  0.0000E+00  0.0000E+00
 11  0.0000E+00  1.1675E-04  0.0000E+00  0.0000E+00  2.0308E-04  1.4927E-04  0.0000E+00  0.0000E+00  0.0000E+00
 12  0.0000E+00  1.1274E-04  9.5520E-05  0.0000E+00  0.0000E+00  9.3449E-05  0.0000E+00  0.0000E+00  0.0000E+00
 13  0.0000E+00  7.0825E-05  0.0000E+00  0.0000E+00  0.0000E+00  0.0000E+00  0.0000E+00  0.0000E+00  0.0000E+00
 14  0.0000E+00  1.1436E-04  0.0000E+00  0.0000E+00  0.0000E+00  0.0000E+00  1.0308E-03  0.0000E+00  0.0000E+00
 15  0.0000E+00  1.7180E-04  0.0000E+00  0.0000E+00  0.0000E+00  0.0000E+00  0.0000E+00  0.0000E+00  0.0000E+00
 16  0.0000E+00  4.8439E-04  0.0000E+00  0.0000E+00  0.0000E+00  0.0000E+00  0.0000E+00  0.0000E+00  0.0000E+00
 17  0.0000E+00  5.7995E-04  0.0000E+00  0.0000E+00  0.0000E+00  0.0000E+00  0.0000E+00  0.0000E+00  0.0000E+00
 18  0.0000E+00  1.3508E-03  0.0000E+00  0.0000E+00  1.9640E-03  0.0000E+00  0.0000E+00  0.0000E+00  6.7150E-03
 19  0.0000E+00  4.3589E-03  0.0000E+00  0.0000E+00  0.0000E+00  6.8994E-03  6.8740E-03  0.0000E+00  0.0000E+00
 20  0.0000E+00  1.1227E-02  1.0715E-01  2.2891E-02  2.5395E-02  1.5802E-02  2.2271E-02  1.0796E-02  0.0000E+00
 21  0.0000E+00  1.8761E-02  5.0985E-02  2.4856E-02  0.0000E+00  2.8462E-02  1.9334E-02  5.3780E-02  0.0000E+00
 22  0.0000E+00  2.1750E-02  3.2218E-02  0.0000E+00  0.0000E+00  6.9515E-03  6.2134E-03  0.0000E+00  0.0000E+00
 23  0.0000E+00  2.6734E-02  0.0000E+00  0.0000E+00  5.5346E-02  6.9397E-02  0.0000E+00  0.0000E+00  0.0000E+00
 24  0.0000E+00  3.1972E-02  0.0000E+00  4.7533E-02  5.4652E-02  3.5904E-02  8.8770E-02  0.0000E+00  2.0653E-01
 25  0.0000E+00  4.0514E-02  0.0000E+00  0.0000E+00  0.0000E+00  2.1595E-01  0.0000E+00  0.0000E+00  0.0000E+00
 26  2.9945E-03  2.3688E-03  2.4567E-03  2.5948E-03  2.4263E-03  2.1908E-03  2.7703E-03  2.0221E-03  3.3383E-03
 27  0.0000E+00  1.8137E-05  0.0000E+00  3.2550E-05  0.0000E+00  0.0000E+00  0.0000E+00  9.8607E-09  0.0000E+00
 28  0.0000E+00  1.0577E-04  0.0000E+00  1.0913E-04  8.3205E-07  8.4418E-05  0.0000E+00  0.0000E+00  0.0000E+00
 29  0.0000E+00  1.3766E-04  0.0000E+00  0.0000E+00  1.1939E-04  0.0000E+00  3.5347E-04  0.0000E+00  1.0422E-04
 30  0.0000E+00  5.5717E-04  3.5371E-04  5.2108E-04  1.1034E-03  1.0331E-03  0.0000E+00  4.3770E-04  0.0000E+00
 31  0.0000E+00  1.2076E-04  0.0000E+00  0.0000E+00  0.0000E+00  0.0000E+00  0.0000E+00  0.0000E+00  3.4348E-04
 32  0.0000E+00  8.9962E-05  0.0000E+00  0.0000E+00  0.0000E+00  1.9726E-06  0.0000E+00  0.0000E+00  0.0000E+00
 33  0.0000E+00  9.2308E-05  0.0000E+00  0.0000E+00  0.0000E+00  0.0000E+00  0.0000E+00  0.0000E+00  7.7562E-04
 34  0.0000E+00  1.4381E-04  0.0000E+00  0.0000E+00  0.0000E+00  0.0000E+00  2.9799E-04  0.0000E+00  0.0000E+00
 35  0.0000E+00  1.1022E-04  0.0000E+00  0.0000E+00  4.0369E-04  0.0000E+00  0.0000E+00  0.0000E+00  1.0130E-04
 36  0.0000E+00  1.1497E-04  0.0000E+00  0.0000E+00  0.0000E+00  0.0000E+00  0.0000E+00  0.0000E+00  0.0000E+00
 37  0.0000E+00  6.0336E-05  0.0000E+00  0.0000E+00  0.0000E+00  0.0000E+00  0.0000E+00  0.0000E+00  0.0000E+00
 38  0.0000E+00  9.3271E-05  8.9327E-04  0.0000E+00  0.0000E+00  0.0000E+00  0.0000E+00  0.0000E+00  0.0000E+00
 39  0.0000E+00  1.1206E-04  0.0000E+00  0.0000E+00  0.0000E+00  0.0000E+00  0.0000E+00  0.0000E+00  0.0000E+00
 40  0.0000E+00  2.8742E-04  0.0000E+00  0.0000E+00  0.0000E+00  0.0000E+00  0.0000E+00  0.0000E+00  0.0000E+00
 41  0.0000E+00  8.1544E-04  0.0000E+00  2.3179E-03  0.0000E+00  0.0000E+00  0.0000E+00  0.0000E+00  0.0000E+00
 42  0.0000E+00  9.1628E-04  0.0000E+00  0.0000E+00  0.0000E+00  0.0000E+00  1.3233E-03  0.0000E+00  1.0064E-02
 43  0.0000E+00  2.4189E-03  1.1941E-03  0.0000E+00  0.0000E+00  0.0000E+00  0.0000E+00  1.7207E-02  0.0000E+00
 44  0.0000E+00  1.0717E-02  0.0000E+00  1.7506E-02  3.4004E-02  0.0000E+00  4.5331E-02  3.6929E-02  1.2734E-02
 45  0.0000E+00  7.0265E-02  1.4351E-01  1.2627E-01  0.0000E+00  7.9073E-02  7.7911E-03  0.0000E+00  5.8139E-02
 46  0.0000E+00  8.2674E-02  0.0000E+00  2.3520E-01  6.4998E-02  1.3329E-01  0.0000E+00  4.4272E-02  2.3501E-01
 47  0.0000E+00  6.0759E-02  0.0000E+00  2.2434E-02  1.0341E-01  1.3276E-01  1.4855E-01  6.0657E-02  2.3649E-02
 48  0.0000E+00  3.5470E-02  0.0000E+00  4.0553E-02  2.9509E-02  0.0000E+00  7.3334E-02  0.0000E+00  0.0000E+00
 49  0.0000E+00  2.3449E-02  0.0000E+00  0.0000E+00  0.0000E+00  0.0000E+00  0.0000E+00  5.8580E-03  0.0000E+00
 50  0.0000E+00  2.9391E-02  0.0000E+00  3.2130E-02  0.0000E+00  7.4471E-02  0.0000E+00  0.0000E+00  0.0000E+00
 51  7.9919E-04  1.4585E-03  1.5951E-03  1.3641E-03  1.4514E-03  1.6133E-03  1.1346E-03  1.6691E-03  1.5175E-03
 52  0.0000E+00  2.5690E-05  1.1863E-04  1.2784E-04  0.0000E+00  0.0000E+00  0.0000E+00  0.0000E+00  0.0000E+00
 53  0.0000E+00  7.2159E-05  0.0000E+00  0.0000E+00  0.0000E+00  1.2975E-04  0.0000E+00  1.0959E-04  0.0000E+00
 54  0.0000E+00  4.3676E-05  8.4261E-05  0.0000E+00  0.0000E+00  0.0000E+00  2.1328E-05  0.0000E+00  1.3217E-04
 55  0.0000E+00  4.8396E-05  0.0000E+00  0.0000E+00  0.0000E+00  0.0000E+00  8.0093E-05  4.3324E-05  0.0000E+00
 56  0.0000E+00  4.0897E-05  0.0000E+00  3.9635E-04  7.2176E-06  0.0000E+00  0.0000E+00  6.8902E-06  7.3748E-05
 57  0.0000E+00  1.8758E-04  5.2286E-04  4.5433E-05  1.2026E-04  0.0000E+00  0.0000E+00  0.0000E+00  0.0000E+00
 58  0.0000E+00  9.7050E-05  0.0000E+00  1.7013E-04  0.0000E+00  0.0000E+00  0.0000E+00  1.3574E-05  0.0000E+00
 59  0.0000E+00  7.8360E-05  0.0000E+00  0.0000E+00  0.0000E+00  0.0000E+00  0.0000E+00  0.0000E+00  0.0000E+00
 60  0.0000E+00  5.6966E-05  0.0000E+00  0.0000E+00  0.0000E+00  0.0000E+00  0.0000E+00  0.0000E+00  0.0000E+00
 61  0.0000E+00  4.2900E-05  0.0000E+00  0.0000E+00  0.0000E+00  0.0000E+00  0.0000E+00  0.0000E+00  0.0000E+00
 62  0.0000E+00  6.7009E-05  0.0000E+00  0.0000E+00  0.0000E+00  0.0000E+00  0.0000E+00  0.0000E+00  0.0000E+00
 63  0.0000E+00  1.2294E-04  0.0000E+00  0.0000E+00  0.0000E+00  0.0000E+00  2.6708E-05  0.0000E+00  0.0000E+00
 64  0.0000E+00  2.4083E-04  0.0000E+00  0.0000E+00  0.0000E+00  0.0000E+00  0.0000E+00  0.0000E+00  0.0000E+00
 65  0.0000E+00  9.0615E-04  0.0000E+00  3.5481E-03  0.0000E+00  7.5101E-04  3.3278E-03  0.0000E+00  0.0000E+00
 66  0.0000E+00  1.6304E-03  0.0000E+00  0.0000E+00  0.0000E+00  0.0000E+00  0.0000E+00  0.0000E+00  0.0000E+00
 67  0.0000E+00  1.8695E-03  0.0000E+00  6.5815E-03  0.0000E+00  0.0000E+00  0.0000E+00  0.0000E+00  0.0000E+00
 68  0.0000E+00  7.9782E-03  8.7737E-03  0.0000E+00  0.0000E+00  0.0000E+00  0.0000E+00  0.0000E+00  1.7732E-02
 69  2.6625E-01  2.4111E-02  0.0000E+00  0.0000E+00  0.0000E+00  0.0000E+00  0.0000E+00  1.3513E-01  0.0000E+00
 70  0.0000E+00  3.0575E-02  0.0000E+00  0.0000E+00  0.0000E+00  0.0000E+00  3.0532E-02  0.0000E+00  0.0000E+00
 71  0.0000E+00  2.7254E-02  0.0000E+00  0.0000E+00  1.6347E-02  0.0000E+00  0.0000E+00  0.0000E+00  4.1671E-02
 72  0.0000E+00  4.0376E-02  0.0000E+00  0.0000E+00  2.1164E-02  0.0000E+00  7.7470E-02  0.0000E+00  0.0000E+00
 73  0.0000E+00  8.8233E-02  0.0000E+00  0.0000E+00  0.0000E+00  0.0000E+00  0.0000E+00  0.0000E+00  1.1073E-01
 74  0.0000E+00  9.1014E-02  4.3264E-02  0.0000E+00  0.0000E+00  0.0000E+00  0.0000E+00  2.1880E-02  0.0000E+00
 75  0.0000E+00  9.7373E-02  0.0000E+00  0.0000E+00  2.4082E-01  3.4741E-01  0.0000E+00  0.0000E+00  0.0000E+00
 76  0.0000E+00  6.0740E-05  0.0000E+00  0.0000E+00  0.0000E+00  0.0000E+00  2.4058E-05  0.0000E+00  0.0000E+00
 77  0.0000E+00  2.7998E-05  0.0000E+00  1.0286E-04  1.3334E-04  0.0000E+00  0.0000E+00  9.6377E-05  0.0000E+00
 78  0.0000E+00  2.5676E-05  0.0000E+00  0.0000E+00  9.3284E-05  0.0000E+00  0.0000E+00  0.0000E+00  0.0000E+00
 79  0.0000E+00  2.3977E-05  0.0000E+00  0.0000E+00  0.0000E+00  0.0000E+00  2.2761E-05  0.0000E+00  0.0000E+00
 80  0.0000E+00  2.6210E-05  4.9734E-05  0.0000E+00  0.0000E+00  0.0000E+00  0.0000E+00  0.0000E+00  0.0000E+00
 81  0.0000E+00  2.5238E-05  0.0000E+00  0.0000E+00  0.0000E+00  0.0000E+00  0.0000E+00  0.0000E+00  0.0000E+00
 82  0.0000E+00  5.2010E-05  0.0000E+00  0.0000E+00  0.0000E+00  0.0000E+00  0.0000E+00  0.0000E+00  0.0000E+00
 83  0.0000E+00  4.1837E-05  0.0000E+00  0.0000E+00  0.0000E+00  0.0000E+00  0.0000E+00  0.0000E+00  0.0000E+00
 84  0.0000E+00  3.8071E-05  0.0000E+00  0.0000E+00  0.0000E+00  0.0000E+00  6.0065E-06  0.0000E+00  0.0000E+00
 85  0.0000E+00  5.2560E-05  0.0000E+00  0.0000E+00  0.0000E+00  0.0000E+00  0.0000E+00  0.0000E+00  0.0000E+00
 86  0.0000E+00  7.9224E-05  0.0000E+00  0.0000E+00  0.0000E+00  0.0000E+00  1.2527E-04  0.0000E+00  0.0000E+00
 87  0.0000E+00  8.3605E-05  5.3352E-04  0.0000E+00  0.0000E+00  0.0000E+00  0.0000E+00  0.0000E+00  0.0000E+00
 88  0.0000E+00  1.0590E-04  0.0000E+00  0.0000E+00  0.0000E+00  0.0000E+00  0.0000E+00  0.0000E+00  0.0000E+00
 89  0.0000E+00  2.2157E-04  0.0000E+00  0.0000E+00  4.2731E-04  0.0000E+00  0.0000E+00  0.0000E+00  0.0000E+00
 90  0.0000E+00  7.8436E-04  0.0000E+00  0.0000E+00  9.1935E-03  0.0000E+00  0.0000E+00  7.5011E-04  0.0000E+00
 91  0.0000E+00  2.6974E-03  7.5340E-03  0.0000E+00  9.5863E-04  0.0000E+00  0.0000E+00  0.0000E+00  2.4346E-03
 92  0.0000E+00  3.4771E-03  0.0000E+00  0.0000E+00  0.0000E+00  0.0000E+00  0.0000E+00  0.0000E+00  0.0000E+00
 93  0.0000E+00  1.7933E-02  0.0000E+00  0.0000E+00  4.6812E-02  0.0000E+00  0.0000E+00  4.6217E-03  1.6507E-02
 94  1.8428E-01  6.8049E-02  4.1361E-02  2.6681E-01  5.6064E-02  2.6996E-02  0.0000E+00  2.4044E-01  0.0000E+00
 95  0.0000E+00  1.8884E-01  4.5363E-01  7.0482E-02  4.1762E-01  0.0000E+00  1.3910E-01  0.0000E+00  0.0000E+00
 96  7.9843E-01  2.0820E-01  8.2197E-02  2.3390E-01  5.4180E-01  0.0000E+00  0.0000E+00  1.6150E-01  7.7730E-01
 97  1.4685E+01  1.5487E+01  1.5195E+01  1.5540E+01  1.5287E+01  1.5593E+01  1.5536E+01  1.5487E+01  1.4609E+01
 98  1.0410E+01  1.1302E+01  1.1194E+01  1.1757E+01  1.0573E+01  1.1370E+01  1.1052E+01  1.2124E+01  1.2338E+01
 99  1.6386E+01  1.3217E+01  1.4106E+01  1.3454E+01  1.3665E+01  1.3680E+01  1.4231E+01  1.3328E+01  1.3261E+01
100  1.2348E+00  2.2047E+00  2.0946E+00  2.2269E+00  2.2952E+00  2.6227E+00  2.4912E+00  1.6637E+00  2.1868E+00
101  0.0000E+00  3.4335E-05  0.0000E+00  0.0000E+00  0.0000E+00  1.2322E-04  0.0000E+00  0.0000E+00  7.0632E-05
102  0.0000E+00  3.0912E-05  0.0000E+00  0.0000E+00  0.0000E+00  0.0000E+00  0.0000E+00  0.0000E+00  7.8259E-05
103  0.0000E+00  2.2130E-05  2.5646E-05  0.0000E+00  0.0000E+00  3.0862E-05  4.6181E-05  0.0000E+00  1.5296E-05
104  0.0000E+00  2.5473E-05  0.0000E+00  0.0000E+00  0.0000E+00  0.0000E+00  0.0000E+00  0.0000E+00  0.0000E+00
105  0.0000E+00  4.3744E-04  7.6482E-05  3.3018E-04  9.5471E-05  0.0000E+00  4.0688E-04  0.0000E+00  5.1611E-04
106  0.0000E+00  1.5322E-04  0.0000E+00  0.0000E+00  2.8561E-04  0.0000E+00  5.5985E-04  0.0000E+00  4.4172E-04
107  0.0000E+00  7.6590E-05  0.0000E+00  0.0000E+00  0.0000E+00  0.0000E+00  0.0000E+00  0.0000E+00  2.6013E-05
108  0.0000E+00  8.7836E-05  0.0000E+00  5.4082E-05  0.0000E+00  0.0000E+00  0.0000E+00  1.6427E-05  0.0000E+00
109  0.0000E+00  4.5664E-05  0.0000E+00  0.0000E+00  0.0000E+00  1.9138E-04  2.8761E-04  0.0000E+00  0.0000E+00
110  0.0000E+00  5.1491E-05  0.0000E+00  0.0000E+00  0.0000E+00  0.0000E+00  0.0000E+00  0.0000E+00  0.0000E+00
111  0.0000E+00  5.9700E-05  0.0000E+00  0.0000E+00  0.0000E+00  0.0000E+00  0.0000E+00  0.0000E+00  0.0000E+00
112  0.0000E+00  6.2944E-05  0.0000E+00  0.0000E+00  0.0000E+00  0.0000E+00  0.0000E+00  0.0000E+00  0.0000E+00
113  0.0000E+00  1.1570E-04  0.0000E+00  0.0000E+00  0.0000E+00  0.0000E+00  0.0000E+00  0.0000E+00  0.0000E+00
114  0.0000E+00  2.2145E-04  0.0000E+00  0.0000E+00  0.0000E+00  0.0000E+00  0.0000E+00  1.7731E-04  1.1994E-03
115  0.0000E+00  1.0736E-03  0.0000E+00  0.0000E+00  1.1469E-02  0.0000E+00  0.0000E+00  0.0000E+00  0.0000E+00
116  0.0000E+00  4.1372E-03  0.0000E+00  0.0000E+00  2.2639E-03  0.0000E+00  0.0000E+00  0.0000E+00  0.0000E+00
117  0.0000E+00  4.8760E-03  0.0000E+00  3.2607E-02  0.0000E+00  2.8275E-03  1.1412E-02  0.0000E+00  2.8548E-02
118  0.0000E+00  2.0666E-02  0.0000E+00  0.0000E+00  0.0000E+00  0.0000E+00  0.0000E+00  0.0000E+00  0.0000E+00
119  0.0000E+00  5.1058E-02  0.0000E+00  0.0000E+00  0.0000E+00  0.0000E+00  0.0000E+00  0.0000E+00  0.0000E+00
120  9.9624E-02  1.9734E-01  1.3178E-01  0.0000E+00  3.2341E-01  2.1203E-01  0.0000E+00  4.7604E-01  2.6818E-01
121  9.5220E-02  2.5023E-01  0.0000E+00  9.8672E-02  1.2320E-01  5.9859E-01  2.8319E-02  3.1117E-01  0.0000E+00
122  5.7378E+00  4.5345E+00  5.0047E+00  4.7364E+00  5.3719E+00  4.0497E+00  5.8274E+00  4.4867E+00  4.7461E+00
123  6.6418E+00  4.3264E+00  4.6201E+00  4.2990E+00  4.6705E+00  6.6122E+00  4.0602E+00  4.7084E+00  4.3761E+00
124  1.4411E+01  1.3162E+01  1.2981E+01  1.3885E+01  1.2972E+01  1.3168E+01  1.3242E+01  1.3207E+01  1.3412E+01
125  2.5238E+01  2.5728E+01  2.6553E+01  2.5123E+01  2.6462E+01  2.4893E+01  2.5547E+01  2.8238E+01  2.6141E+01
126  0.0000E+00  3.1443E-05  0.0000E+00  0.0000E+00  0.0000E+00  1.2582E-04  0.0000E+00  0.0000E+00  0.0000E+00
127  0.0000E+00  1.7868E-05  0.0000E+00  0.0000E+00  0.0000E+00  0.0000E+00  3.2910E-05  0.0000E+00  0.0000E+00
128  0.0000E+00  2.8386E-05  2.1008E-05  0.0000E+00  0.0000E+00  0.0000E+00  1.5476E-04  2.8137E-05  8.2677E-05
129  0.0000E+00  2.3087E-04  7.1358E-04  2.0127E-04  0.0000E+00  2.5925E-04  2.6054E-04  1.3434E-04  0.0000E+00
130  0.0000E+00  5.5791E-05  0.0000E+00  0.0000E+00  2.1199E-04  0.0000E+00  0.0000E+00  0.0000E+00  0.0000E+00
131  0.0000E+00  1.1392E-04  0.0000E+00  6.0728E-04  0.0000E+00  0.0000E+00  0.0000E+00  1.8015E-04  0.0000E+00
132  0.0000E+00  7.4306E-05  0.0000E+00  2.6410E-04  0.0000E+00  0.0000E+00  0.0000E+00  0.0000E+00  0.0000E+00
133  0.0000E+00  5.8855E-05  0.0000E+00  0.0000E+00  0.0000E+00  0.0000E+00  0.0000E+00  0.0000E+00  1.6097E-05
134  0.0000E+00  2.3218E-05  9.5366E-04  0.0000E+00  0.0000E+00  0.0000E+00  1.5562E-04  0.0000E+00  0.0000E+00
135  0.0000E+00  3.8430E-05  0.0000E+00  0.0000E+00  0.0000E+00  0.0000E+00  0.0000E+00  0.0000E+00  0.0000E+00
136  0.0000E+00  5.2859E-05  0.0000E+00  0.0000E+00  0.0000E+00  0.0000E+00  0.0000E+00  0.0000E+00  0.0000E+00
137  0.0000E+00  5.4715E-05  0.0000E+00  0.0000E+00  0.0000E+00  0.0000E+00  5.2611E-04  0.0000E+00  0.0000E+00
138  0.0000E+00  1.0653E-04  0.0000E+00  0.0000E+00  0.0000E+00  0.0000E+00  0.0000E+00  0.0000E+00  0.0000E+00
139  0.0000E+00  4.1552E-04  0.0000E+00  0.0000E+00  0.0000E+00  0.0000E+00  0.0000E+00  2.4369E-04  0.0000E+00
140  3.6213E-04  3.7236E-03  0.0000E+00  1.3219E-02  0.0000E+00  0.0000E+00  4.0867E-03  2.6586E-02  0.0000E+00
141  0.0000E+00  5.6250E-03  0.0000E+00  0.0000E+00  0.0000E+00  0.0000E+00  0.0000E+00  0.0000E+00  0.0000E+00
142  0.0000E+00  1.0361E-02  5.1469E-02  1.5263E-02  2.0781E-02  0.0000E+00  0.0000E+00  1.9334E-02  6.6100E-03
143  0.0000E+00  5.8459E-02  1.0188E-01  1.1169E-01  0.0000E+00  0.0000E+00  0.0000E+00  1.9740E-02  0.0000E+00
144  3.7677E+00  1.7165E-01  1.6555E-01  2.6237E-01  4.9920E-01  1.7390E-03  4.2714E-01  3.3526E-01  5.5286E-01
145  8.8940E-03  2.0602E+00  2.0753E+00  2.0626E+00  1.6439E+00  1.2600E+00  1.1314E+00  1.3622E+00  1.5653E+00
146  2.8557E-03  5.3352E+00  4.5224E+00  5.1968E+00  4.3243E+00  4.6861E+00  5.7070E+00  3.3809E+00  4.9090E+00
147  0.0000E+00  9.7365E-02  1.9627E-01  0.0000E+00  0.0000E+00  0.0000E+00  0.0000E+00  0.0000E+00  0.0000E+00
148  0.0000E+00  7.8160E-02  0.0000E+00  0.0000E+00  0.0000E+00  0.0000E+00  0.0000E+00  0.0000E+00  0.0000E+00
149  0.0000E+00  7.8244E-02  0.0000E+00  0.0000E+00  0.0000E+00  4.5116E-02  0.0000E+00  0.0000E+00  0.0000E+00
150  0.0000E+00  1.9793E-01  0.0000E+00  0.0000E+00  0.0000E+00  0.0000E+00  0.0000E+00  0.0000E+00  4.6107E-02

# AV, chi2 & Mass for <> & i_chain = 1 ...  7 solutions
AV       1.1523      1.1274      1.1340      1.1362      1.1337      1.1293      1.1318      1.1384      1.1326
chi2 2.2966E+00  2.3661E+00  2.3425E+00  2.3452E+00  2.3413E+00  2.3412E+00  2.3456E+00  2.3320E+00  2.3435E+00
Mass 9.1891E-10  9.1110E-10  9.1895E-10  9.1507E-10  9.1563E-10  9.2185E-10  9.1915E-10  9.2395E-10  9.1737E-10
   5.96                                  [v0_min (km/s) before EX0s...]
  54.37                                  [vd_min (km/s) before EX0s...]


## Synthetic spectrum (Best Model) ##l_obs f_obs f_syn wei
 3070    [Nl_obs]
 3359.00    0.00000   0.42328   -2.000
 3360.00    0.00000   0.39358   -2.000
 3361.00    0.19294   0.39345   -1.000
 3362.00    0.28834   0.42083   -1.000
 3363.00    0.27569   0.45983   -1.000
 3364.00    0.29677   0.48937   -1.000
 3365.00    0.31174   0.49557   -1.000
 3366.00    0.30632   0.47907   -1.000
 3367.00    0.30890   0.45401   -1.000
 3368.00    0.30454   0.43074   -1.000
 3369.00    0.30817   0.41590   -1.000
 3370.00    0.27804   0.40818   -1.000
 3371.00    0.26039   0.40516   -1.000
 3372.00    0.24927   0.41051   -1.000
 3373.00    0.27245   0.42950   -1.000
 3374.00    0.31184   0.45962   -1.000
 3375.00    0.31428   0.49207   -1.000
 3376.00    0.33075   0.51377   -1.000
 3377.00    0.33804   0.51312   -1.000
 3378.00    0.31181   0.49125   -1.000
 3379.00    0.30866   0.46523   -1.000
 3380.00    0.31278   0.45097   -1.000
 3381.00    0.31025   0.45571   -1.000
 3382.00    0.32576   0.47152   -1.000
 3383.00    0.33404   0.48791   -1.000
 3384.00    0.34323   0.50028   -1.000
 3385.00    0.34268   0.51034   -1.000
 3386.00    0.35963   0.51559   -1.000
 3387.00    0.36594   0.51638   -1.000
 3388.00    0.34337   0.51587   -1.000
 3389.00    0.35527   0.51443   -1.000
 3390.00    0.37520   0.50838   -1.000
 3391.00    0.36327   0.49379   -1.000
 3392.00    0.35157   0.47751   -1.000
 3393.00    0.35561   0.47224   -1.000
 3394.00    0.36963   0.48296   -1.000
 3395.00    0.37746   0.50495   -1.000
 3396.00    0.39294   0.52687   -1.000
 3397.00    0.41787   0.54594   -1.000
 3398.00    0.43186   0.56141   -1.000
 3399.00    0.44602   0.56832   -1.000
 3400.00    0.45125   0.56493   -1.000
 3401.00    0.46269   0.55381   -1.000
 3402.00    0.46741   0.53778   -1.000
 3403.00    0.45382   0.52338   -1.000
 3404.00    0.45693   0.51366   -1.000
 3405.00    0.44401   0.50617   -1.000
 3406.00    0.41599   0.49836   -1.000
 3407.00    0.41331   0.49153   -1.000
 3408.00    0.42619   0.49007   -1.000
 3409.00    0.42162   0.49494   -1.000
 3410.00    0.40120   0.50307   -1.000
 3411.00    0.40545   0.50337   -1.000
 3412.00    0.41271   0.49056   -1.000
 3413.00    0.40521   0.47209   -1.000
 3414.00    0.42063   0.45958   70.458
 3415.00    0.41589   0.46369   -1.000
 3416.00    0.40321   0.48173   -1.000
 3417.00    0.41897   0.50761   -1.000
 3418.00    0.44814   0.53305   -1.000
 3419.00    0.47196   0.55361   -1.000
 3420.00    0.47119   0.56193   -1.000
 3421.00    0.46338   0.55391   -1.000
 3422.00    0.45989   0.53429   -1.000
 3423.00    0.46824   0.51990   -1.000
 3424.00    0.47458   0.51676   62.165
 3425.00    0.47890   0.51990   63.721
 3426.00    0.47277   0.52445   -1.000
 3427.00    0.46946   0.53243   -1.000
 3428.00    0.46077   0.54935   -1.000
 3429.00    0.47955   0.57004   -1.000
 3430.00    0.50064   0.57508   -1.000
 3431.00    0.49046   0.55996   -1.000
 3432.00    0.49036   0.53616   -1.000
 3433.00    0.48847   0.52208   -1.000
 3434.00    0.50022   0.52589   87.434
 3435.00    0.51155   0.53497   60.335
 3436.00    0.49155   0.53516   -1.000
 3437.00    0.47201   0.52174   -1.000
 3438.00    0.45234   0.49630   -1.000
 3439.00    0.44299   0.46138   62.020
 3440.00    0.41868   0.42716   65.480
 3441.00    0.39204   0.40400   70.258
 3442.00    0.40490   0.39956   74.054
 3443.00    0.41609   0.41048   75.130
 3444.00    0.39288   0.42798   74.948
 3445.00    0.40122   0.44591   72.841
 3446.00    0.42691   0.46556   69.198
 3447.00    0.44541   0.48760   65.376
 3448.00    0.47845   0.51222   62.658
 3449.00    0.50937   0.53401   -1.000
 3450.00    0.50891   0.54064   -1.000
 3451.00    0.50755   0.52879   -1.000
 3452.00    0.49105   0.51419   -1.000
 3453.00    0.48188   0.51019   -1.000
 3454.00    0.48266   0.51834   -1.000
 3455.00    0.51227   0.52622   -1.000
 3456.00    0.51832   0.52156  506.938
 3457.00    0.49963   0.50434  506.938
 3458.00    0.48340   0.48165  506.938
 3459.00    0.48393   0.46433   -1.000
 3460.00    0.46395   0.45551   88.151
 3461.00    0.45978   0.45911   60.888
 3462.00    0.49159   0.47754   60.907
 3463.00    0.50627   0.50263  144.566
 3464.00    0.50359   0.51279   -1.000
 3465.00    0.52615   0.50893   -1.000
 3466.00    0.53272   0.50539   -1.000
 3467.00    0.51636   0.51174   -1.000
 3468.00    0.53898   0.52863   -1.000
 3469.00    0.54771   0.54532  506.938
 3470.00    0.53708   0.55089   -1.000
 3471.00    0.53585   0.53969  506.938
 3472.00    0.52671   0.51683   -1.000
 3473.00    0.49582   0.48841   -1.000
 3474.00    0.47479   0.46075   -1.000
 3475.00    0.46358   0.44075   -1.000
 3476.00    0.44871   0.43872   89.583
 3477.00    0.45267   0.45450   62.322
 3478.00    0.46849   0.47904   62.248
 3479.00    0.48030   0.50142  144.088
 3480.00    0.48887   0.51520   -1.000
 3481.00    0.52453   0.51716   -1.000
 3482.00    0.54101   0.50840   -1.000
 3483.00    0.52866   0.49732   -1.000
 3484.00    0.54489   0.49600   -1.000
 3485.00    0.55406   0.51073   -1.000
 3486.00    0.53121   0.53054  506.938
 3487.00    0.52456   0.53952   -1.000
 3488.00    0.53284   0.52716   -1.000
 3489.00    0.51536   0.49994   -1.000
 3490.00    0.49375   0.47466   -1.000
 3491.00    0.50809   0.46497   -1.000
 3492.00    0.49620   0.47189   -1.000
 3493.00    0.47080   0.48518   -1.000
 3494.00    0.48033   0.49345   -1.000
 3495.00    0.52149   0.48902   -1.000
 3496.00    0.52678   0.47944   -1.000
 3497.00    0.49941   0.48231   -1.000
 3498.00    0.50253   0.50619  506.938
 3499.00    0.53026   0.53829  506.938
 3500.00    0.54963   0.55788   -1.000
 3501.00    0.58228   0.56622   -1.000
 3502.00    0.59722   0.57375   -1.000
 3503.00    0.58502   0.57815   -1.000
 3504.00    0.57602   0.57297  468.692
 3505.00    0.56825   0.55975   -1.000
 3506.00    0.54717   0.54803  484.813
 3507.00    0.55728   0.54449   -1.000
 3508.00    0.56765   0.54224   -1.000
 3509.00    0.56039   0.53282   -1.000
 3510.00    0.55217   0.51941   -1.000
 3511.00    0.54947   0.50533   -1.000
 3512.00    0.51228   0.49084   -1.000
 3513.00    0.49665   0.47752   -1.000
 3514.00    0.49458   0.47419   -1.000
 3515.00    0.48819   0.49254  506.938
 3516.00    0.52443   0.52865  506.938
 3517.00    0.56277   0.56146  506.938
 3518.00    0.58260   0.57453   -1.000
 3519.00    0.57527   0.56255   -1.000
 3520.00    0.54694   0.53630   -1.000
 3521.00    0.53421   0.50762   -1.000
 3522.00    0.52423   0.48426   -1.000
 3523.00    0.50260   0.46338   -1.000
 3524.00    0.47759   0.44428   -1.000
 3525.00    0.46500   0.43516   -1.000
 3526.00    0.46888   0.44724   61.675
 3527.00    0.47612   0.47838   62.249
 3528.00    0.49909   0.51665  139.514
 3529.00    0.52103   0.54448   -1.000
 3530.00    0.51299   0.55309   -1.000
 3531.00    0.51204   0.54689   -1.000
 3532.00    0.52880   0.54259   -1.000
 3533.00    0.53943   0.54864   -1.000
 3534.00    0.53486   0.56049   -1.000
 3535.00    0.54093   0.56983   -1.000
 3536.00    0.56544   0.57273   -1.000
 3537.00    0.57982   0.57627  485.311
 3538.00    0.56869   0.58546   -1.000
 3539.00    0.58565   0.59203   -1.000
 3540.00    0.57464   0.58924   -1.000
 3541.00    0.54504   0.57986   -1.000
 3542.00    0.53823   0.57563   -1.000
 3543.00    0.53742   0.58235   -1.000
 3544.00    0.54586   0.59217   -1.000
 3545.00    0.56570   0.59610   -1.000
 3546.00    0.56584   0.59098   -1.000
 3547.00    0.53682   0.58419   -1.000
 3548.00    0.54904   0.58249   -1.000
 3549.00    0.56094   0.58429   -1.000
 3550.00    0.55884   0.58325   -1.000
 3551.00    0.54252   0.57432   -1.000
 3552.00    0.52039   0.55879   -1.000
 3553.00    0.52898   0.54352   -1.000
 3554.00    0.51929   0.53733   -1.000
 3555.00    0.50388   0.54124   -1.000
 3556.00    0.51315   0.54664   -1.000
 3557.00    0.50735   0.54753   -1.000
 3558.00    0.50494   0.54358   -1.000
 3559.00    0.50003   0.54202   -1.000
 3560.00    0.49252   0.54902   -1.000
 3561.00    0.51778   0.56223   -1.000
 3562.00    0.53226   0.57068   -1.000
 3563.00    0.52667   0.55764   -1.000
 3564.00    0.52270   0.52206  506.938
 3565.00    0.48561   0.48161   -1.000
 3566.00    0.44700   0.46021   93.862
 3567.00    0.43495   0.45807   62.443
 3568.00    0.44051   0.45655   62.988
 3569.00    0.43600   0.44694   62.478
 3570.00    0.41441   0.43770   63.637
 3571.00    0.41514   0.44061   65.216
 3572.00    0.43831   0.45713   64.402
 3573.00    0.46188   0.47478   61.829
 3574.00    0.47159   0.48732  132.201
 3575.00    0.49481   0.49491  506.938
 3576.00    0.51095   0.49630   -1.000
 3577.00    0.50020   0.48742   -1.000
 3578.00    0.46354   0.46752  506.938
 3579.00    0.42589   0.43847   -1.000
 3580.00    0.40972   0.41112   97.911
 3581.00    0.39934   0.39513   65.933
 3582.00    0.38851   0.39509   70.227
 3583.00    0.38833   0.40223   72.013
 3584.00    0.39147   0.40304   72.361
 3585.00    0.38749   0.39561   73.581
 3586.00    0.37400   0.38998   75.794
 3587.00    0.38279   0.39612   77.437
 3588.00    0.39550   0.41575   75.427
 3589.00    0.41919   0.44688   71.461
 3590.00    0.45113   0.48218   67.870
 3591.00    0.47896   0.51109   62.838
 3592.00    0.50595   0.52404  129.285
 3593.00    0.50937   0.52735   -1.000
 3594.00    0.51179   0.53452   -1.000
 3595.00    0.52923   0.55220   -1.000
 3596.00    0.54228   0.57494   -1.000
 3597.00    0.55444   0.59183   -1.000
 3598.00    0.57088   0.60394   -1.000
 3599.00    0.58531   0.61382   -1.000
 3600.00    0.59905   0.61309   -1.000
 3601.00    0.60064   0.59384  455.806
 3602.00    0.57193   0.56225   -1.000
 3603.00    0.53323   0.53015  496.318
 3604.00    0.51125   0.50954  506.938
 3605.00    0.50973   0.50251   -1.000
 3606.00    0.51278   0.49978   -1.000
 3607.00    0.50069   0.49028   -1.000
 3608.00    0.47354   0.47508  506.938
 3609.00    0.46413   0.46741  506.938
 3610.00    0.47820   0.47621  506.938
 3611.00    0.49788   0.49772  506.938
 3612.00    0.51903   0.51744  506.938
 3613.00    0.52690   0.53235  506.938
 3614.00    0.54734   0.54731  506.938
 3615.00    0.55770   0.55852  506.938
 3616.00    0.55099   0.55126  499.035
 3617.00    0.54479   0.51869   -1.000
 3618.00    0.51289   0.47640   -1.000
 3619.00    0.48491   0.45901   -1.000
 3620.00    0.48589   0.47696   95.631
 3621.00    0.51916   0.51759  125.765
 3622.00    0.55965   0.55704  506.938
 3623.00    0.57617   0.58283   -1.000
 3624.00    0.58716   0.60358   -1.000
 3625.00    0.61120   0.63097   -1.000
 3626.00    0.64276   0.66010   -1.000
 3627.00    0.65425   0.67604   -1.000
 3628.00    0.64311   0.66417   -1.000
 3629.00    0.60863   0.62035   -1.000
 3630.00    0.56806   0.55832   -1.000
 3631.00    0.52329   0.51081   -1.000
 3632.00    0.49938   0.49392   -1.000
 3633.00    0.50529   0.50576  506.938
 3634.00    0.52321   0.53033  506.938
 3635.00    0.54678   0.55341  506.938
 3636.00    0.55738   0.57020   -1.000
 3637.00    0.57635   0.58868   -1.000
 3638.00    0.60126   0.61303   -1.000
 3639.00    0.62341   0.63508   -1.000
 3640.00    0.65374   0.64515  442.231
 3641.00    0.64770   0.63755   -1.000
 3642.00    0.61984   0.61558  442.127
 3643.00    0.58607   0.58893  455.585
 3644.00    0.56853   0.56418  476.449
 3645.00    0.55062   0.54350   -1.000
 3646.00    0.52391   0.52530  506.444
 3647.00    0.52666   0.51057   -1.000
 3648.00    0.51672   0.50852   -1.000
 3649.00    0.51623   0.52303  506.938
 3650.00    0.55697   0.55248  506.938
 3651.00    0.59767   0.58867   -1.000
 3652.00    0.61902   0.62268  478.143
 3653.00    0.63342   0.64383   -1.000
 3654.00    0.66157   0.65491  442.285
 3655.00    0.67658   0.66393   -1.000
 3656.00    0.65772   0.67643   -1.000
 3657.00    0.66168   0.69225   -1.000
 3658.00    0.68947   0.70390   -1.000
 3659.00    0.69618   0.70819   -1.000
 3660.00    0.68626   0.70457   -1.000
 3661.00    0.68341   0.69315   -1.000
 3662.00    0.68202   0.67640  416.813
 3663.00    0.67097   0.66288  421.397
 3664.00    0.66449   0.65749  427.492
 3665.00    0.66906   0.65845   -1.000
 3666.00    0.65795   0.65798  430.777
 3667.00    0.63850   0.64916   -1.000
 3668.00    0.61676   0.63415   -1.000
 3669.00    0.60893   0.62370   -1.000
 3670.00    0.62730   0.63007  449.078
 3671.00    0.65651   0.64998  452.168
 3672.00    0.67527   0.66877  440.840
 3673.00    0.66538   0.67811   -1.000
 3674.00    0.65359   0.67763   -1.000
 3675.00    0.65360   0.66751   -1.000
 3676.00    0.64637   0.64697  424.069
 3677.00    0.64060   0.61920   -1.000
 3678.00    0.60924   0.59128   -1.000
 3679.00    0.58703   0.57285   -1.000
 3680.00    0.58507   0.57217   -1.000
 3681.00    0.58360   0.58762  476.262
 3682.00    0.61084   0.60730  468.349
 3683.00    0.63021   0.61806   -1.000
 3684.00    0.61324   0.61039  447.179
 3685.00    0.58972   0.58571  451.651
 3686.00    0.56865   0.55611   -1.000
 3687.00    0.55396   0.54305   -1.000
 3688.00    0.58036   0.55742   -1.000
 3689.00    0.61808   0.59622   -1.000
 3690.00    0.64850   0.64198  470.352
 3691.00    0.66975   0.67331  439.008
 3692.00    0.66448   0.67683   -1.000
 3693.00    0.65238   0.66117   -1.000
 3694.00    0.63755   0.64577   -1.000
 3695.00    0.63967   0.63979  432.027
 3696.00    0.65165   0.64474  433.430
 3697.00    0.65045   0.66006   -1.000
 3698.00    0.67392   0.68421   -1.000
 3699.00    0.70406   0.70660  415.371
 3700.00    0.71014   0.71645   -1.000
 3701.00    0.70653   0.70480  395.965
 3702.00    0.66843   0.66780  397.953
 3703.00    0.62763   0.61060   -1.000
 3704.00    0.59841   0.55346   -1.000
 3705.00    0.55741   0.51349   -1.000
 3706.00    0.54164   0.50038   -1.000
 3707.00    0.54310   0.50529   -1.000
 3708.00    0.54021   0.51765   -1.000
 3709.00    0.56248   0.53848   -1.000
 3710.00    0.60691   0.57072   -1.000
 3711.00    0.63015   0.60979   -1.000
 3712.00    0.64248   0.65051   -1.000
 3713.00    0.68184   0.68438  432.293
 3714.00    0.71170   0.70165  409.859
 3715.00    0.71569   0.69820   -1.000
 3716.00    0.69903   0.67638   -1.000
 3717.00    0.65478   0.63621   -1.000
 3718.00    0.58337   0.57837  410.697
 3719.00    0.52139   0.51114   -1.000
 3720.00    0.49118   0.45400   -1.000
 3721.00    0.47345   0.43239   -1.000
 3722.00    0.46894   0.45194  103.393
 3723.00    0.51332   0.49996  119.266
 3724.00    0.57004   0.55676   -1.000
 3725.00    0.61120   0.59647   -1.000
 3726.00    0.63161   0.60386   -1.000
 3727.00    0.62606   0.59345   -1.000
 3728.00    0.62233   0.58953   -1.000
 3729.00    0.61751   0.59292   -1.000
 3730.00    0.60946   0.58786   -1.000
 3731.00    0.59630   0.55917   -1.000
 3732.00    0.54511   0.50556   -1.000
 3733.00    0.47876   0.44642   -1.000
 3734.00    0.43345   0.39895   -1.000
 3735.00    0.40340   0.37744   63.871
 3736.00    0.40607   0.38843   68.758
 3737.00    0.44311   0.42957   67.953
 3738.00    0.50371   0.48833   62.817
 3739.00    0.55096   0.54981  115.045
 3740.00    0.57059   0.59220   -1.000
 3741.00    0.58104   0.60203   -1.000
 3742.00    0.57351   0.58031  448.869
 3743.00    0.55310   0.54318   -1.000
 3744.00    0.51786   0.50576   -1.000
 3745.00    0.49100   0.47864   -1.000
 3746.00    0.48104   0.45668   -1.000
 3747.00    0.45542   0.43185   -1.000
 3748.00    0.42898   0.40947  104.457
 3749.00    0.42682   0.40452   63.046
 3750.00    0.45624   0.43089   65.315
 3751.00    0.50925   0.48558   -1.000
 3752.00    0.56667   0.54815   -1.000
 3753.00    0.62138   0.60476   -1.000
 3754.00    0.66660   0.64701   -1.000
 3755.00    0.68777   0.65799   -1.000
 3756.00    0.65594   0.62963   -1.000
 3757.00    0.58026   0.57580  412.251
 3758.00    0.53469   0.52740   -1.000
 3759.00    0.53166   0.51162   -1.000
 3760.00    0.53887   0.52338   -1.000
 3761.00    0.55748   0.54170   -1.000
 3762.00    0.56625   0.55146   -1.000
 3763.00    0.55585   0.55342  469.465
 3764.00    0.55372   0.55389  463.049
 3765.00    0.56778   0.55145   -1.000
 3766.00    0.56745   0.54509   -1.000
 3767.00    0.56322   0.54230   -1.000
 3768.00    0.57395   0.54702   -1.000
 3769.00    0.59055   0.55503   -1.000
 3770.00    0.60783   0.56528   -1.000
 3771.00    0.62217   0.58326   -1.000
 3772.00    0.64193   0.60842   -1.000
 3773.00    0.66588   0.63172   -1.000
 3774.00    0.66362   0.64416   -1.000
 3775.00    0.65480   0.64798  417.454
 3776.00    0.65615   0.65160  416.653
 3777.00    0.65315   0.66009   -1.000
 3778.00    0.66080   0.67435   -1.000
 3779.00    0.67447   0.69124   -1.000
 3780.00    0.69329   0.70694   -1.000
 3781.00    0.71611   0.71777  389.562
 3782.00    0.73132   0.72342  383.984
 3783.00    0.72319   0.72271  381.598
 3784.00    0.69370   0.70750   -1.000
 3785.00    0.65374   0.67326   -1.000
 3786.00    0.61456   0.62940   -1.000
 3787.00    0.60097   0.58995   -1.000
 3788.00    0.58056   0.56606   -1.000
 3789.00    0.55290   0.56297   -1.000
 3790.00    0.55227   0.57434   -1.000
 3791.00    0.56530   0.58601   -1.000
 3792.00    0.57428   0.58590   -1.000
 3793.00    0.57045   0.56935  462.374
 3794.00    0.54996   0.54543   -1.000
 3795.00    0.52882   0.52220   -1.000
 3796.00    0.52153   0.49900   -1.000
 3797.00    0.51301   0.47519   -1.000
 3798.00    0.49354   0.46236   -1.000
 3799.00    0.50519   0.47694   -1.000
 3800.00    0.55791   0.52065   -1.000
 3801.00    0.59886   0.57525   -1.000
 3802.00    0.62438   0.62338  473.088
 3803.00    0.64499   0.65400   -1.000
 3804.00    0.64629   0.66341   -1.000
 3805.00    0.62695   0.65184   -1.000
 3806.00    0.59335   0.63110   -1.000
 3807.00    0.56828   0.61979   -1.000
 3808.00    0.57421   0.62859   -1.000
 3809.00    0.60266   0.64963   -1.000
 3810.00    0.62328   0.66444   -1.000
 3811.00    0.61701   0.65744   -1.000
 3812.00    0.60309   0.62556   -1.000
 3813.00    0.58213   0.58174  441.495
 3814.00    0.53398   0.54148  467.486
 3815.00    0.49209   0.51967   -1.000
 3816.00    0.49314   0.51925   -1.000
 3817.00    0.50665   0.52724   -1.000
 3818.00    0.50093   0.52298   -1.000
 3819.00    0.47222   0.50060   -1.000
 3820.00    0.44080   0.47996   -1.000
 3821.00    0.44288   0.47887   -1.000
 3822.00    0.46255   0.49228   -1.000
 3823.00    0.46843   0.49531   -1.000
 3824.00    0.45848   0.47572   -1.000
 3825.00    0.42602   0.44952   -1.000
 3826.00    0.39490   0.43390   -1.000
 3827.00    0.39811   0.43376   63.714
 3828.00    0.40375   0.44348   64.080
 3829.00    0.41492   0.45395   63.254
 3830.00    0.42458   0.45516   62.216
 3831.00    0.41892   0.44164   62.114
 3832.00    0.40252   0.41765   63.957
 3833.00    0.38981   0.39510   68.019
 3834.00    0.39831   0.38565   71.812
 3835.00    0.40996   0.38891   72.091
 3836.00    0.41941   0.39777   69.837
 3837.00    0.41685   0.40392   67.662
 3838.00    0.40497   0.40594   67.684
 3839.00    0.39827   0.41222   69.270
 3840.00    0.41612   0.43288   69.448
 3841.00    0.44522   0.47112   66.731
 3842.00    0.48596   0.51637  116.419
 3843.00    0.52786   0.55589   -1.000
 3844.00    0.53948   0.57980   -1.000
 3845.00    0.54520   0.58993   -1.000
 3846.00    0.53210   0.59397   -1.000
 3847.00    0.52446   0.59385   -1.000
 3848.00    0.53315   0.58559   -1.000
 3849.00    0.51357   0.57277   -1.000
 3850.00    0.50112   0.56638   -1.000
 3851.00    0.51660   0.57293   -1.000
 3852.00    0.53038   0.58363   -1.000
 3853.00    0.52514   0.58573   -1.000
 3854.00    0.50685   0.57562   -1.000
 3855.00    0.49781   0.55923   -1.000
 3856.00    0.49406   0.54218   -1.000
 3857.00    0.48161   0.52277   -1.000
 3858.00    0.45927   0.50113   -1.000
 3859.00    0.43357   0.48831   -1.000
 3860.00    0.43254   0.49720   -1.000
 3861.00    0.45816   0.53016   -1.000
 3862.00    0.50336   0.56962   -1.000
 3863.00    0.54798   0.59350   -1.000
 3864.00    0.56518   0.59540   -1.000
 3865.00    0.55059   0.58644   -1.000
 3866.00    0.53954   0.57960   -1.000
 3867.00    0.52986   0.57674   -1.000
 3868.00    0.50496   0.57145   -1.000
 3869.00    0.48417   0.55781   -1.000
 3870.00    0.46044   0.53584   -1.000
 3871.00    0.44842   0.51729   -1.000
 3872.00    0.46387   0.51433   -1.000
 3873.00    0.49785   0.53463   -1.000
 3874.00    0.54256   0.56929   -1.000
 3875.00    0.56844   0.59505   -1.000
 3876.00    0.55626   0.59081   -1.000
 3877.00    0.52627   0.56407   -1.000
 3878.00    0.49448   0.54206   -1.000
 3879.00    0.48348   0.53681   -1.000
 3880.00    0.49163   0.54148   -1.000
 3881.00    0.49573   0.54685   -1.000
 3882.00    0.50468   0.55217   -1.000
 3883.00    0.54041   0.56082   -1.000
 3884.00    0.57341   0.56176   -1.000
 3885.00    0.56817   0.54108   -1.000
 3886.00    0.54403   0.50753   -1.000
 3887.00    0.52784   0.48025   -1.000
 3888.00    0.54028   0.47529   -1.000
 3889.00    0.56773   0.49817   -1.000
 3890.00    0.60711   0.54367   -1.000
 3891.00    0.66625   0.59762   -1.000
 3892.00    0.70209   0.63984   -1.000
 3893.00    0.69966   0.65571   -1.000
 3894.00    0.68978   0.65266   -1.000
 3895.00    0.68612   0.64953   -1.000
 3896.00    0.68875   0.65385   -1.000
 3897.00    0.69714   0.65996   -1.000
 3898.00    0.69811   0.65986   -1.000
 3899.00    0.69404   0.65530   -1.000
 3900.00    0.69039   0.65551   -1.000
 3901.00    0.69611   0.66021   -1.000
 3902.00    0.69523   0.66027   -1.000
 3903.00    0.67992   0.65046   -1.000
 3904.00    0.66014   0.63424   -1.000
 3905.00    0.64268   0.62332   -1.000
 3906.00    0.64585   0.62936   -1.000
 3907.00    0.68042   0.65634   -1.000
 3908.00    0.71667   0.69283   -1.000
 3909.00    0.73879   0.72301   -1.000
 3910.00    0.75627   0.74076   -1.000
 3911.00    0.77339   0.75031   -1.000
 3912.00    0.77833   0.75318   -1.000
 3913.00    0.76436   0.74834   -1.000
 3914.00    0.76206   0.73754   -1.000
 3915.00    0.75887   0.72561   -1.000
 3916.00    0.73979   0.71394   -1.000
 3917.00    0.71500   0.69984   -1.000
 3918.00    0.69302   0.67869   -1.000
 3919.00    0.65148   0.64949  400.612
 3920.00    0.61304   0.62121  415.319
 3921.00    0.60380   0.60469  434.575
 3922.00    0.60939   0.60490   -1.000
 3923.00    0.61603   0.61380  452.426
 3924.00    0.61359   0.61716  446.060
 3925.00    0.59608   0.60513  443.359
 3926.00    0.55701   0.57363   -1.000
 3927.00    0.50713   0.52869   -1.000
 3928.00    0.46105   0.47911   -1.000
 3929.00    0.39987   0.43302   -1.000
 3930.00    0.34078   0.39149   -1.000
 3931.00    0.29644   0.35026   -1.000
 3932.00    0.27382   0.30941   98.667
 3933.00    0.25743   0.27973  116.201
 3934.00    0.23936   0.27764   -1.000
 3935.00    0.24592   0.30533   -1.000
 3936.00    0.29491   0.35063   -1.000
 3937.00    0.36552   0.40345   -1.000
 3938.00    0.43090   0.45887   86.057
 3939.00    0.48103   0.50781   71.516
 3940.00    0.50968   0.54443   -1.000
 3941.00    0.51930   0.56414   -1.000
 3942.00    0.52512   0.56837   -1.000
 3943.00    0.53404   0.57086   -1.000
 3944.00    0.55540   0.58628   -1.000
 3945.00    0.60164   0.61485   -1.000
 3946.00    0.64930   0.64433   -1.000
 3947.00    0.66684   0.66482  428.475
 3948.00    0.67967   0.67873  413.290
 3949.00    0.70731   0.69518   -1.000
 3950.00    0.73443   0.71228   -1.000
 3951.00    0.74697   0.71895   -1.000
 3952.00    0.74277   0.71972   -1.000
 3953.00    0.74875   0.72555   -1.000
 3954.00    0.76361   0.73237   -1.000
 3955.00    0.76102   0.73050   -1.000
 3956.00    0.74691   0.71970   -1.000
 3957.00    0.72889   0.70939   -1.000
 3958.00    0.72075   0.70416   -1.000
 3959.00    0.71250   0.68824   -1.000
 3960.00    0.66479   0.64544   -1.000
 3961.00    0.59124   0.58891  416.370
 3962.00    0.52443   0.53970   -1.000
 3963.00    0.48873   0.50656   -1.000
 3964.00    0.47057   0.47818  506.938
 3965.00    0.43114   0.43715  123.103
 3966.00    0.37471   0.38101   67.298
 3967.00    0.31666   0.32147   80.673
 3968.00    0.28008   0.28059   99.255
 3969.00    0.28869   0.27429  116.327
 3970.00    0.32345   0.30262  118.676
 3971.00    0.37889   0.35470  103.823
 3972.00    0.44127   0.41833   85.368
 3973.00    0.50213   0.48352   70.775
 3974.00    0.56207   0.54630  106.429
 3975.00    0.61159   0.60321   -1.000
 3976.00    0.67566   0.65443   -1.000
 3977.00    0.74232   0.70198   -1.000
 3978.00    0.78467   0.74576   -1.000
 3979.00    0.82333   0.78232   -1.000
 3980.00    0.85135   0.80167   -1.000
 3981.00    0.84852   0.80266   -1.000
 3982.00    0.83627   0.79399   -1.000
 3983.00    0.83712   0.79005   -1.000
 3984.00    0.84040   0.79957   -1.000
 3985.00    0.84578   0.81704   -1.000
 3986.00    0.86983   0.83529   -1.000
 3987.00    0.89173   0.85233   -1.000
 3988.00    0.89978   0.86462   -1.000
 3989.00    0.90348   0.86941   -1.000
 3990.00    0.89249   0.87296   -1.000
 3991.00    0.90420   0.88226   -1.000
 3992.00    0.94215   0.89563   -1.000
 3993.00    0.94820   0.90350   -1.000
 3994.00    0.93304   0.89759   -1.000
 3995.00    0.91807   0.87884   -1.000
 3996.00    0.88387   0.85855   -1.000
 3997.00    0.86793   0.85284   -1.000
 3998.00    0.89458   0.86782   -1.000
 3999.00    0.93648   0.89652   -1.000
 4000.00    0.97397   0.92461   -1.000
 4001.00    0.98083   0.94380   -1.000
 4002.00    0.99039   0.94776   -1.000
 4003.00    0.99391   0.92866   -1.000
 4004.00    0.94518   0.88740   -1.000
 4005.00    0.88747   0.84894   -1.000
 4006.00    0.87158   0.84229   -1.000
 4007.00    0.90352   0.87110   -1.000
 4008.00    0.94813   0.91302   -1.000
 4009.00    0.98220   0.94265   -1.000
 4010.00    0.99677   0.95688   -1.000
 4011.00    1.00155   0.96247   -1.000
 4012.00    1.00491   0.96487   -1.000
 4013.00    0.99537   0.96960   -1.000
 4014.00    0.99824   0.97667   -1.000
 4015.00    1.03514   0.98013   -1.000
 4016.00    1.02304   0.97814   -1.000
 4017.00    0.99583   0.97708   -1.000
 4018.00    0.99817   0.98312  289.846
 4019.00    1.00393   0.99291  291.250
 4020.00    1.01773   0.99842   -1.000
 4021.00    1.02017   0.99466   -1.000
 4022.00    1.01419   0.98450   -1.000
 4023.00    0.99710   0.97225   -1.000
 4024.00    0.98612   0.96308   -1.000
 4025.00    1.00632   0.96630   -1.000
 4026.00    1.03660   0.98705   -1.000
 4027.00    1.07448   1.01149   -1.000
 4028.00    1.08512   1.01378   -1.000
 4029.00    1.04287   0.97891   -1.000
 4030.00    0.96955   0.91946   -1.000
 4031.00    0.91329   0.86621   -1.000
 4032.00    0.88242   0.83743   -1.000
 4033.00    0.88321   0.83758   -1.000
 4034.00    0.91277   0.86545   -1.000
 4035.00    0.97494   0.91622   -1.000
 4036.00    1.02327   0.97582   -1.000
 4037.00    1.05630   1.02612   -1.000
 4038.00    1.07621   1.04859   -1.000
 4039.00    1.07438   1.04252   -1.000
 4040.00    1.07073   1.02469   -1.000
 4041.00    1.05023   1.00952   -1.000
 4042.00    1.02976   0.98659   -1.000
 4043.00    0.98938   0.93402   -1.000
 4044.00    0.89826   0.85612   -1.000
 4045.00    0.81856   0.79483   -1.000
 4046.00    0.81611   0.79659   -1.000
 4047.00    0.89733   0.86001   -1.000
 4048.00    0.98901   0.93907   -1.000
 4049.00    1.04077   0.99862   -1.000
 4050.00    1.06210   1.02589   -1.000
 4051.00    1.06660   1.02676   -1.000
 4052.00    1.05044   1.01112   -1.000
 4053.00    1.02262   0.98748   -1.000
 4054.00    1.00000   0.96466   -1.000
 4055.00    0.97931   0.94637   -1.000
 4056.00    0.96198   0.93061   -1.000
 4057.00    0.95676   0.92095   -1.000
 4058.00    0.96586   0.92908   -1.000
 4059.00    0.98520   0.95287   -1.000
 4060.00    0.99515   0.96819   -1.000
 4061.00    0.98439   0.94852   -1.000
 4062.00    0.94525   0.89509   -1.000
 4063.00    0.89400   0.84655   -1.000
 4064.00    0.87767   0.83191   -1.000
 4065.00    0.90753   0.84879   -1.000
 4066.00    0.95052   0.88257   -1.000
 4067.00    0.98745   0.91852   -1.000
 4068.00    1.01690   0.94610   -1.000
 4069.00    1.02228   0.95296   -1.000
 4070.00    1.00096   0.93014   -1.000
 4071.00    0.97071   0.89778   -1.000
 4072.00    0.96346   0.89163   -1.000
 4073.00    0.98497   0.91322   -1.000
 4074.00    0.99508   0.93050   -1.000
 4075.00    0.97218   0.91313   -1.000
 4076.00    0.92468   0.87020   -1.000
 4077.00    0.88170   0.84271   -1.000
 4078.00    0.88850   0.85729   -1.000
 4079.00    0.95201   0.91192   -1.000
 4080.00    1.02017   0.97553   -1.000
 4081.00    1.06334   1.01504   -1.000
 4082.00    1.07301   1.01664   -1.000
 4083.00    1.04088   0.99395   -1.000
 4084.00    1.01218   0.97480   -1.000
 4085.00    1.01664   0.97972   -1.000
 4086.00    1.05453   1.01088   -1.000
 4087.00    1.09281   1.05178   -1.000
 4088.00    1.11954   1.08318   -1.000
 4089.00    1.13228   1.09181   -1.000
 4090.00    1.12962   1.07926   -1.000
 4091.00    1.11489   1.05978   -1.000
 4092.00    1.09395   1.04571   -1.000
 4093.00    1.08498   1.03318   -1.000
 4094.00    1.07883   1.01200   -1.000
 4095.00    1.04417   0.97980   -1.000
 4096.00    0.99337   0.94562   -1.000
 4097.00    0.97291   0.92040   -1.000
 4098.00    0.96155   0.89709   -1.000
 4099.00    0.93093   0.85873   -1.000
 4100.00    0.88760   0.80700   -1.000
 4101.00    0.84435   0.76690   -1.000
 4102.00    0.82844   0.76474   -1.000
 4103.00    0.86907   0.80805   -1.000
 4104.00    0.93508   0.87518   -1.000
 4105.00    0.99585   0.93757   -1.000
 4106.00    1.04354   0.97870   -1.000
 4107.00    1.05037   0.99637   -1.000
 4108.00    1.03370   0.99500   -1.000
 4109.00    1.00700   0.98343   -1.000
 4110.00    0.99362   0.97326   -1.000
 4111.00    0.99482   0.97475   -1.000
 4112.00    1.00478   0.98966   -1.000
 4113.00    1.03172   1.01309   -1.000
 4114.00    1.06864   1.03659   -1.000
 4115.00    1.08345   1.05099   -1.000
 4116.00    1.06406   1.04842   -1.000
 4117.00    1.02525   1.02870  283.697
 4118.00    1.00606   1.00291  287.065
 4119.00    0.99476   0.98639  294.763
 4120.00    1.01296   0.98606   -1.000
 4121.00    1.03484   0.99386   -1.000
 4122.00    1.02779   1.00114   -1.000
 4123.00    1.01947   1.00955  297.250
 4124.00    1.04316   1.02081   -1.000
 4125.00    1.06256   1.02834   -1.000
 4126.00    1.04462   1.02365   -1.000
 4127.00    1.03033   1.00803   -1.000
 4128.00    1.02538   0.99186   -1.000
 4129.00    1.00266   0.97868   -1.000
 4130.00    0.98520   0.96015   -1.000
 4131.00    0.96488   0.93291   -1.000
 4132.00    0.92009   0.90863  310.023
 4133.00    0.90488   0.90790  319.998
 4134.00    0.93967   0.93714  326.441
 4135.00    0.98809   0.98211  322.378
 4136.00    1.03940   1.02447   -1.000
 4137.00    1.06444   1.05466  295.623
 4138.00    1.06007   1.07205   -1.000
 4139.00    1.06373   1.07633   -1.000
 4140.00    1.05137   1.05823  280.448
 4141.00    1.00661   1.00920  282.105
 4142.00    0.94132   0.94207  291.570
 4143.00    0.88196   0.89448   -1.000
 4144.00    0.87368   0.89433   -1.000
 4145.00    0.93683   0.93571  339.042
 4146.00    0.99683   0.98591   -1.000
 4147.00    1.02568   1.01264   -1.000
 4148.00    1.01727   1.01172  298.017
 4149.00    0.99553   0.99879  298.515
 4150.00    0.97890   0.98921   -1.000
 4151.00    0.96096   0.98586   -1.000
 4152.00    0.96101   0.98229   -1.000
 4153.00    0.96250   0.97406   -1.000
 4154.00    0.96002   0.96463  311.439
 4155.00    0.94718   0.96196   -1.000
 4156.00    0.93962   0.97161   -1.000
 4157.00    0.96292   0.99245   -1.000
 4158.00    1.12026   1.01981   -1.000
 4159.00    1.33233   1.04622   -1.000
 4160.00    1.11072   1.06577   -1.000
 4161.00    0.74552   1.07940   -1.000
 4162.00    0.94805   1.08867   -1.000
 4163.00    1.10764   1.09091   -1.000
 4164.00    1.05084   1.08217   -1.000
 4165.00    1.02546   1.06311   -1.000
 4166.00    1.00108   1.04059   -1.000
 4167.00    0.98397   1.02770   -1.000
 4168.00    0.98963   1.02931   -1.000
 4169.00    1.00275   1.03395   -1.000
 4170.00    0.99741   1.02083   -1.000
 4171.00    0.96474   0.98240   -1.000
 4172.00    0.92169   0.93965   -1.000
 4173.00    0.89697   0.91916   -1.000
 4174.00    0.89810   0.92875   -1.000
 4175.00    0.93542   0.95210   -1.000
 4176.00    0.95501   0.96881   -1.000
 4177.00    0.94576   0.97719   -1.000
 4178.00    0.94090   0.98623   -1.000
 4179.00    0.95099   0.99735   -1.000
 4180.00    0.96837   1.00424   -1.000
 4181.00    0.97974   1.00368   -1.000
 4182.00    0.97762   1.00532   -1.000
 4183.00    0.99567   1.01992   -1.000
 4184.00    1.03103   1.03730  305.828
 4185.00    1.03788   1.03909  299.877
 4186.00    1.01588   1.02026  296.762
 4187.00    0.97865   0.99876   -1.000
 4188.00    0.95481   0.99655   -1.000
 4189.00    0.98332   1.01107   -1.000
 4190.00    1.00754   1.02748   -1.000
 4191.00    1.02053   1.04165   -1.000
 4192.00    1.03453   1.05588   -1.000
 4193.00    1.04018   1.06375   -1.000
 4194.00    1.03124   1.05033   -1.000
 4195.00    0.99208   1.01196   -1.000
 4196.00    0.95912   0.96777   -1.000
 4197.00    0.92878   0.93612   -1.000
 4198.00    0.92668   0.92227  326.979
 4199.00    0.93006   0.92074  330.715
 4200.00    0.93557   0.92550  329.654
 4201.00    0.94148   0.93338  325.273
 4202.00    0.94725   0.94655  321.620
 4203.00    0.97288   0.97075  320.423
 4204.00    0.99838   1.00472  317.181
 4205.00    1.01428   1.03899   -1.000
 4206.00    1.03627   1.06781   -1.000
 4207.00    1.05167   1.08878   -1.000
 4208.00    1.07573   1.09630   -1.000
 4209.00    1.09088   1.09216  291.577
 4210.00    1.07916   1.08745   -1.000
 4211.00    1.06927   1.08917   -1.000
 4212.00    1.07663   1.08875   -1.000
 4213.00    1.05335   1.06857   -1.000
 4214.00    1.00229   1.03079   -1.000
 4215.00    0.96268   1.00350   -1.000
 4216.00    0.98451   1.01257   -1.000
 4217.00    1.05729   1.05948  319.378
 4218.00    1.12220   1.11452  304.319
 4219.00    1.16260   1.15230  286.859
 4220.00    1.18028   1.16318   -1.000
 4221.00    1.17439   1.14549   -1.000
 4222.00    1.13048   1.09740   -1.000
 4223.00    1.06147   1.01920   -1.000
 4224.00    0.96911   0.91897   -1.000
 4225.00    0.84911   0.82394   -1.000
 4226.00    0.75332   0.77206   -1.000
 4227.00    0.75515   0.79557   -1.000
 4228.00    0.85968   0.88807   -1.000
 4229.00    1.00245   1.00183  361.384
 4230.00    1.10273   1.07924   -1.000
 4231.00    1.12998   1.10293   -1.000
 4232.00    1.10475   1.08930   -1.000
 4233.00    1.08744   1.06054   -1.000
 4234.00    1.06346   1.03275   -1.000
 4235.00    1.04050   1.01519   -1.000
 4236.00    1.02499   1.00926   -1.000
 4237.00    1.03703   1.01589   -1.000
 4238.00    1.05135   1.03528   -1.000
 4239.00    1.06443   1.06181  303.536
 4240.00    1.08388   1.08905  297.283
 4241.00    1.12006   1.11440  292.603
 4242.00    1.13541   1.13777  287.517
 4243.00    1.15165   1.16183   -1.000
 4244.00    1.18680   1.18190  282.156
 4245.00    1.18642   1.18072  276.768
 4246.00    1.15564   1.14771  273.989
 4247.00    1.10525   1.09474  280.586
 4248.00    1.05789   1.04370   -1.000
 4249.00    1.02627   1.01346   -1.000
 4250.00    1.01216   1.00982  308.807
 4251.00    1.03588   1.02634  310.331
 4252.00    1.06255   1.04225   -1.000
 4253.00    1.07509   1.04167   -1.000
 4254.00    1.05045   1.03520   -1.000
 4255.00    1.05092   1.04672  297.101
 4256.00    1.09020   1.07766   -1.000
 4257.00    1.10954   1.09360   -1.000
 4258.00    1.08847   1.06808   -1.000
 4259.00    1.01947   1.01980  288.030
 4260.00    0.97627   0.99242   -1.000
 4261.00    0.99488   1.01633   -1.000
 4262.00    1.06552   1.08224   -1.000
 4263.00    1.14925   1.15511  300.514
 4264.00    1.19222   1.20159   -1.000
 4265.00    1.19987   1.21319   -1.000
 4266.00    1.19262   1.19873  268.101
 4267.00    1.15934   1.16434  269.384
 4268.00    1.11843   1.11165  275.555
 4269.00    1.06320   1.04448   -1.000
 4270.00    0.99178   0.97150   -1.000
 4271.00    0.91939   0.91388  308.221
 4272.00    0.88171   0.88938  328.524
 4273.00    0.88855   0.90102   -1.000
 4274.00    0.92532   0.93914   -1.000
 4275.00    0.98196   0.99566   -1.000
 4276.00    1.05843   1.06379  322.872
 4277.00    1.12590   1.12390  305.811
 4278.00    1.15191   1.14763  287.699
 4279.00    1.12685   1.13244  279.049
 4280.00    1.08999   1.10391   -1.000
 4281.00    1.07398   1.09129   -1.000
 4282.00    1.08050   1.09729   -1.000
 4283.00    1.09647   1.10186  301.473
 4284.00    1.08224   1.09357   -1.000
 4285.00    1.04426   1.07605   -1.000
 4286.00    1.01264   1.05654   -1.000
 4287.00    1.00162   1.03268   -1.000
 4288.00    0.98314   0.99653   -1.000
 4289.00    0.93343   0.95654   -1.000
 4290.00    0.91299   0.94039   -1.000
 4291.00    0.95158   0.96422   -1.000
 4292.00    1.00819   1.01001  344.694
 4293.00    1.04410   1.04129  325.064
 4294.00    1.05485   1.04338   -1.000
 4295.00    1.04873   1.02605   -1.000
 4296.00    1.03101   0.99573   -1.000
 4297.00    0.98132   0.94810   -1.000
 4298.00    0.90256   0.88711   -1.000
 4299.00    0.83305   0.83148  347.491
 4300.00    0.80068   0.80250  376.909
 4301.00    0.80584   0.80308   -1.000
 4302.00    0.82226   0.81897   -1.000
 4303.00    0.85161   0.83525   -1.000
 4304.00    0.86233   0.84427   -1.000
 4305.00    0.83963   0.83794  374.006
 4306.00    0.81357   0.81143   -1.000
 4307.00    0.78284   0.77630   -1.000
 4308.00    0.75922   0.75624   -1.000
 4309.00    0.76607   0.76869  410.942
 4310.00    0.79734   0.81195   -1.000
 4311.00    0.84676   0.87171   -1.000
 4312.00    0.91406   0.93447   -1.000
 4313.00    0.97754   1.00237   -1.000
 4314.00    1.05482   1.08529   -1.000
 4315.00    1.15677   1.18085   -1.000
 4316.00    1.26033   1.27227   -1.000
 4317.00    1.33054   1.33110  274.629
 4318.00    1.34950   1.34502  257.775
 4319.00    1.33029   1.32609  252.058
 4320.00    1.29351   1.28982  253.670
 4321.00    1.24835   1.23740  258.391
 4322.00    1.18558   1.16305   -1.000
 4323.00    1.09921   1.06773   -1.000
 4324.00    0.99339   0.97922   -1.000
 4325.00    0.93027   0.94371   -1.000
 4326.00    0.95391   0.98872   -1.000
 4327.00    1.07495   1.09339   -1.000
 4328.00    1.20503   1.20241  311.553
 4329.00    1.26695   1.26664  281.643
 4330.00    1.28197   1.28540  266.677
 4331.00    1.28130   1.28776  264.144
 4332.00    1.29461   1.29712  264.671
 4333.00    1.32167   1.31336  262.027
 4334.00    1.32898   1.31916  257.919
 4335.00    1.31962   1.29432   -1.000
 4336.00    1.25522   1.22574   -1.000
 4337.00    1.17100   1.12097   -1.000
 4338.00    1.07612   1.01112   -1.000
 4339.00    0.98683   0.93895   -1.000
 4340.00    0.95212   0.92650   -1.000
 4341.00    0.98374   0.97164  363.989
 4342.00    1.08394   1.05219   -1.000
 4343.00    1.17603   1.13461   -1.000
 4344.00    1.22533   1.19600   -1.000
 4345.00    1.25705   1.23733   -1.000
 4346.00    1.27002   1.26906  276.874
 4347.00    1.27842   1.29802   -1.000
 4348.00    1.31638   1.31717  266.400
 4349.00    1.32962   1.30302   -1.000
 4350.00    1.26183   1.24506   -1.000
 4351.00    1.16618   1.17210  265.558
 4352.00    1.10591   1.13103   -1.000
 4353.00    1.13730   1.14642   -1.000
 4354.00    1.18667   1.19752   -1.000
 4355.00    1.23280   1.24864   -1.000
 4356.00    1.26891   1.27967   -1.000
 4357.00    1.28698   1.28745  264.597
 4358.00    1.27584   1.27837  260.975
 4359.00    1.25284   1.27176   -1.000
 4360.00    1.26548   1.28565   -1.000
 4361.00    1.30426   1.31592   -1.000
 4362.00    1.34012   1.34697  262.253
 4363.00    1.35889   1.36994   -1.000
 4364.00    1.36648   1.38315   -1.000
 4365.00    1.36347   1.37943   -1.000
 4366.00    1.33206   1.35004   -1.000
 4367.00    1.28439   1.30591   -1.000
 4368.00    1.25524   1.27384   -1.000
 4369.00    1.26121   1.26357  268.655
 4370.00    1.27061   1.26284  269.537
 4371.00    1.28050   1.25424   -1.000
 4372.00    1.25734   1.22765   -1.000
 4373.00    1.21317   1.18486   -1.000
 4374.00    1.16614   1.14466   -1.000
 4375.00    1.14581   1.13665  283.315
 4376.00    1.19006   1.17125   -1.000
 4377.00    1.25869   1.22618   -1.000
 4378.00    1.30541   1.26349   -1.000
 4379.00    1.29549   1.26233   -1.000
 4380.00    1.25809   1.21896   -1.000
 4381.00    1.21102   1.13323   -1.000
 4382.00    1.09901   1.02084   -1.000
 4383.00    0.97201   0.92965   -1.000
 4384.00    0.92189   0.90905   -1.000
 4385.00    0.99072   0.96841   -1.000
 4386.00    1.09849   1.06370   -1.000
 4387.00    1.17701   1.13413   -1.000
 4388.00    1.20300   1.15971   -1.000
 4389.00    1.20914   1.16010   -1.000
 4390.00    1.19970   1.16147   -1.000
 4391.00    1.20410   1.17459   -1.000
 4392.00    1.21951   1.19250   -1.000
 4393.00    1.23859   1.20281   -1.000
 4394.00    1.22718   1.20692   -1.000
 4395.00    1.22246   1.22391  273.602
 4396.00    1.28169   1.26101   -1.000
 4397.00    1.33306   1.29414   -1.000
 4398.00    1.33941   1.29453   -1.000
 4399.00    1.29803   1.26337   -1.000
 4400.00    1.25100   1.23165   -1.000
 4401.00    1.23334   1.21550   -1.000
 4402.00    1.23863   1.19702   -1.000
 4403.00    1.21410   1.15451   -1.000
 4404.00    1.13586   1.10022   -1.000
 4405.00    1.09016   1.07396   -1.000
 4406.00    1.10780   1.09274   -1.000
 4407.00    1.15902   1.13445   -1.000
 4408.00    1.18220   1.18100  286.034
 4409.00    1.21700   1.23568   -1.000
 4410.00    1.30090   1.29996  277.667
 4411.00    1.37260   1.35163   -1.000
 4412.00    1.38993   1.35874   -1.000
 4413.00    1.36612   1.31607   -1.000
 4414.00    1.29475   1.25044   -1.000
 4415.00    1.21689   1.20210   -1.000
 4416.00    1.20632   1.20511  271.957
 4417.00    1.25710   1.25673  278.097
 4418.00    1.31641   1.32302  273.492
 4419.00    1.36628   1.36759  262.991
 4420.00    1.38414   1.37326  253.024
 4421.00    1.34430   1.34592  248.562
 4422.00    1.29727   1.31206   -1.000
 4423.00    1.28060   1.29687   -1.000
 4424.00    1.28310   1.30212   -1.000
 4425.00    1.28698   1.31323   -1.000
 4426.00    1.28332   1.32104   -1.000
 4427.00    1.28130   1.32696   -1.000
 4428.00    1.29180   1.32967   -1.000
 4429.00    1.29028   1.32591   -1.000
 4430.00    1.27553   1.31919   -1.000
 4431.00    1.26588   1.31670   -1.000
 4432.00    1.27210   1.31213   -1.000
 4433.00    1.25583   1.28854   -1.000
 4434.00    1.20919   1.25218   -1.000
 4435.00    1.18973   1.23720   -1.000
 4436.00    1.22491   1.27071   -1.000
 4437.00    1.30228   1.34157   -1.000
 4438.00    1.37661   1.40488   -1.000
 4439.00    1.41210   1.42442   -1.000
 4440.00    1.38690   1.39382  241.660
 4441.00    1.31593   1.33834   -1.000
 4442.00    1.26649   1.29579   -1.000
 4443.00    1.25819   1.29481   -1.000
 4444.00    1.30518   1.33648   -1.000
 4445.00    1.37563   1.39409   -1.000
 4446.00    1.42642   1.43608  259.403
 4447.00    1.43460   1.45066   -1.000
 4448.00    1.42821   1.44925   -1.000
 4449.00    1.41926   1.44414   -1.000
 4450.00    1.41095   1.43579   -1.000
 4451.00    1.41531   1.42130  251.330
 4452.00    1.40580   1.39517  252.557
 4453.00    1.35814   1.35038  251.412
 4454.00    1.29958   1.29375  255.392
 4455.00    1.25058   1.25247  265.925
 4456.00    1.23867   1.24241  276.514
 4457.00    1.26210   1.25137   -1.000
 4458.00    1.28632   1.25801   -1.000
 4459.00    1.26336   1.25344  270.155
 4460.00    1.23582   1.24603  270.929
 4461.00    1.23404   1.25072   -1.000
 4462.00    1.26755   1.27772  275.614
 4463.00    1.31342   1.32141  275.843
 4464.00    1.36295   1.36122  268.445
 4465.00    1.38175   1.38126  258.774
 4466.00    1.38792   1.38156  254.466
 4467.00    1.38283   1.37095  254.530
 4468.00    1.35916   1.35843  255.460
 4469.00    1.33805   1.35349   -1.000
 4470.00    1.34273   1.36789   -1.000
 4471.00    1.38303   1.40484   -1.000
 4472.00    1.44193   1.45031  258.008
 4473.00    1.47769   1.48839   -1.000
 4474.00    1.50114   1.51277   -1.000
 4475.00    1.50169   1.52956   -1.000
 4476.00    1.52202   1.54696   -1.000
 4477.00    1.55102   1.55551  234.794
 4478.00    1.54564   1.53398  232.778
 4479.00    1.48735   1.47673  232.381
 4480.00    1.40129   1.40891  236.370
 4481.00    1.35303   1.37104   -1.000
 4482.00    1.35013   1.38535   -1.000
 4483.00    1.40954   1.44288   -1.000
 4484.00    1.49298   1.51105   -1.000
 4485.00    1.55344   1.55828  244.033
 4486.00    1.55700   1.56588  235.954
 4487.00    1.53052   1.53299  232.527
 4488.00    1.48355   1.47888  234.439
 4489.00    1.42780   1.43775   -1.000
 4490.00    1.40599   1.43235   -1.000
 4491.00    1.43427   1.45521   -1.000
 4492.00    1.46846   1.47420  248.587
 4493.00    1.46217   1.46272  242.433
 4494.00    1.42438   1.43047  240.659
 4495.00    1.38027   1.41006   -1.000
 4496.00    1.39259   1.42354   -1.000
 4497.00    1.43603   1.46379   -1.000
 4498.00    1.47391   1.50444   -1.000
 4499.00    1.50842   1.52518   -1.000
 4500.00    1.50619   1.52592   -1.000
 4501.00    1.50141   1.52662   -1.000
 4502.00    1.51934   1.54626   -1.000
 4503.00    1.55884   1.58410   -1.000
 4504.00    1.59795   1.62342   -1.000
 4505.00    1.60715   1.64430   -1.000
 4506.00    1.59586   1.63960   -1.000
 4507.00    1.59429   1.62150   -1.000
 4508.00    1.60085   1.60822  228.332
 4509.00    1.60776   1.60733  229.909
 4510.00    1.61303   1.61167  229.491
 4511.00    1.59502   1.60703   -1.000
 4512.00    1.57797   1.58594  226.980
 4513.00    1.55041   1.55653  229.748
 4514.00    1.52689   1.53303  234.338
 4515.00    1.51765   1.52245  237.810
 4516.00    1.52493   1.52120  238.474
 4517.00    1.51687   1.52127  237.411
 4518.00    1.50928   1.52378   -1.000
 4519.00    1.53569   1.53683  240.766
 4520.00    1.57009   1.55730  240.693
 4521.00    1.58772   1.56934   -1.000
 4522.00    1.55868   1.56074  232.791
 4523.00    1.51748   1.53447   -1.000
 4524.00    1.49412   1.50133  240.611
 4525.00    1.46887   1.46401  244.745
 4526.00    1.41390   1.41868  247.185
 4527.00    1.35235   1.36933   -1.000
 4528.00    1.31546   1.33128   -1.000
 4529.00    1.32756   1.31996  266.361
 4530.00    1.36434   1.33697   -1.000
 4531.00    1.39003   1.36751   -1.000
 4532.00    1.37965   1.38947  260.325
 4533.00    1.37048   1.38923   -1.000
 4534.00    1.34411   1.37601   -1.000
 4535.00    1.34096   1.37784   -1.000
 4536.00    1.39028   1.41668   -1.000
 4537.00    1.48807   1.48097  264.254
 4538.00    1.56190   1.53411   -1.000
 4539.00    1.56329   1.55033   -1.000
 4540.00    1.54167   1.53629  231.866
 4541.00    1.52397   1.51914  235.340
 4542.00    1.52606   1.51614  239.783
 4543.00    1.53080   1.52139  238.857
 4544.00    1.50344   1.52089   -1.000
 4545.00    1.49615   1.51109   -1.000
 4546.00    1.47725   1.49981   -2.000
 4547.00    1.17142   1.49047   -2.000
 4548.00    0.20125   1.47809   -2.000
 4549.00   -0.00183   1.46492    0.000
 4550.00    0.31992   1.46292   -1.000
 4551.00    0.99227   1.47506   -1.000
 4552.00    0.52245   1.48509   -1.000
 4553.00    1.19669   1.47872   -1.000
 4554.00    1.51121   1.46536   -1.000
 4555.00    1.46335   1.46734  252.738
 4556.00    1.49980   1.49814  253.536
 4557.00    1.55501   1.54910  248.118
 4558.00    1.60668   1.59619  238.566
 4559.00    1.63200   1.62414  230.187
 4560.00    1.62266   1.63476  227.630
 4561.00    1.62505   1.63144  228.823
 4562.00    1.60588   1.61220  228.656
 4563.00    1.55554   1.57737   -1.000
 4564.00    1.51606   1.54135   -1.000
 4565.00    1.49299   1.52619   -1.000
 4566.00    1.51756   1.54279   -1.000
 4567.00    1.58710   1.58075  239.796
 4568.00    1.62249   1.61485  233.480
 4569.00    1.62502   1.62315  228.171
 4570.00    1.58954   1.60443   -1.000
 4571.00    1.54250   1.57654   -1.000
 4572.00    1.53663   1.56426   -1.000
 4573.00    1.57160   1.57973  241.133
 4574.00    1.61524   1.60861  237.712
 4575.00    1.63533   1.62775  231.130
 4576.00    1.63725   1.62884  228.790
 4577.00    1.61634   1.61487  229.287
 4578.00    1.58133   1.58664  230.447
 4579.00    1.52875   1.54672   -1.000
 4580.00    1.47954   1.50865   -1.000
 4581.00    1.48565   1.48963  243.949
 4582.00    1.51069   1.49251   -1.000
 4583.00    1.51943   1.50425   -1.000
 4584.00    1.52225   1.51153  242.770
 4585.00    1.52726   1.51360   -1.000
 4586.00    1.53361   1.52277  242.634
 4587.00    1.55711   1.54966  243.115
 4588.00    1.59368   1.58654  238.836
 4589.00    1.63049   1.61299   -1.000
 4590.00    1.61604   1.61539  228.809
 4591.00    1.58019   1.59535   -1.000
 4592.00    1.55925   1.56603  233.224
 4593.00    1.53341   1.54268  237.571
 4594.00    1.52204   1.53104  240.871
 4595.00    1.52415   1.52711  240.412
 4596.00    1.52560   1.52870  238.293
 4597.00    1.54782   1.53655  236.698
 4598.00    1.56757   1.54678   -1.000
 4599.00    1.56084   1.55310  235.655
 4600.00    1.54275   1.55369  235.679
 4601.00    1.53307   1.55257   -1.000
 4602.00    1.54068   1.55423   -1.000
 4603.00    1.55637   1.55754  239.630
 4604.00    1.56448   1.55938  236.902
 4605.00    1.56197   1.56388  234.884
 4606.00    1.57532   1.58112  235.256
 4607.00    1.62622   1.61554  234.357
 4608.00    1.67534   1.65836   -1.000
 4609.00    1.69577   1.69171  226.498
 4610.00    1.68518   1.70045   -1.000
 4611.00    1.67991   1.68581  220.332
 4612.00    1.64919   1.66300   -1.000
 4613.00    1.63720   1.64806  224.957
 4614.00    1.64107   1.64905  227.206
 4615.00    1.65590   1.66167  228.086
 4616.00    1.67940   1.67429  226.642
 4617.00    1.67450   1.67990  224.811
 4618.00    1.66551   1.67890   -1.000
 4619.00    1.66590   1.67620  226.120
 4620.00    1.67334   1.67813  227.416
 4621.00    1.70216   1.68639   -1.000
 4622.00    1.70007   1.69478  224.137
 4623.00    1.69562   1.69591  221.215
 4624.00    1.70526   1.68998   -1.000
 4625.00    1.69302   1.68253  222.010
 4626.00    1.67657   1.67680  222.767
 4627.00    1.67267   1.67394  224.598
 4628.00    1.66824   1.67401  224.931
 4629.00    1.67066   1.67645  225.100
 4630.00    1.68008   1.68144  226.445
 4631.00    1.69693   1.68661  226.548
 4632.00    1.68754   1.68462  225.030
 4633.00    1.65516   1.67147   -1.000
 4634.00    1.62680   1.65313   -1.000
 4635.00    1.62332   1.63777   -1.000
 4636.00    1.60526   1.62406   -1.000
 4637.00    1.58762   1.60733   -1.000
 4638.00    1.58493   1.59002  232.163
 4639.00    1.57551   1.58036  234.887
 4640.00    1.59469   1.58604  235.481
 4641.00    1.65343   1.60638   -1.000
 4642.00    1.68821   1.62846   -1.000
 4643.00    1.67687   1.63462   -1.000
 4644.00    1.65293   1.61558   -1.000
 4645.00    1.61707   1.57629   -1.000
 4646.00    1.56221   1.53123   -1.000
 4647.00    1.51762   1.50212   -1.000
 4648.00    1.52890   1.50509   -1.000
 4649.00    1.57628   1.53795   -1.000
 4650.00    1.61995   1.58465   -1.000
 4651.00    1.64392   1.62550   -1.000
 4652.00    1.65173   1.64602  228.189
 4653.00    1.63912   1.64238  227.912
 4654.00    1.62713   1.62155  228.037
 4655.00    1.60382   1.60089  231.416
 4656.00    1.59073   1.60059  236.425
 4657.00    1.62100   1.63049  238.081
 4658.00    1.69523   1.68249   -1.000
 4659.00    1.77179   1.73238   -1.000
 4660.00    1.77866   1.75544   -1.000
 4661.00    1.74734   1.74346  214.751
 4662.00    1.70020   1.70816  215.306
 4663.00    1.66318   1.66658  218.623
 4664.00    1.64457   1.62619   -1.000
 4665.00    1.61738   1.58034   -1.000
 4666.00    1.56434   1.52525   -1.000
 4667.00    1.48051   1.47688  233.540
 4668.00    1.45472   1.46161  243.901
 4669.00    1.49077   1.49128  252.191
 4670.00    1.56921   1.54829   -1.000
 4671.00    1.64960   1.60133   -1.000
 4672.00    1.66074   1.63142   -1.000
 4673.00    1.65109   1.64082   -1.000
 4674.00    1.65971   1.64588   -1.000
 4675.00    1.66802   1.65797   -1.000
 4676.00    1.71145   1.67193   -1.000
 4677.00    1.70244   1.67227   -1.000
 4678.00    1.69035   1.65158   -1.000
 4679.00    1.65175   1.61875   -1.000
 4680.00    1.61067   1.58879   -1.000
 4681.00    1.59614   1.57443   -1.000
 4682.00    1.60548   1.58073   -1.000
 4683.00    1.63899   1.60236   -1.000
 4684.00    1.66629   1.62586   -1.000
 4685.00    1.67896   1.63958   -1.000
 4686.00    1.67230   1.64116   -1.000
 4687.00    1.66482   1.63526   -1.000
 4688.00    1.67191   1.62865   -1.000
 4689.00    1.67336   1.62471   -1.000
 4690.00    1.65308   1.62267   -1.000
 4691.00    1.64178   1.62188   -1.000
 4692.00    1.65202   1.62594   -1.000
 4693.00    1.69158   1.63948   -1.000
 4694.00    1.73041   1.66031   -1.000
 4695.00    1.75335   1.67908   -1.000
 4696.00    1.75609   1.68375   -1.000
 4697.00    1.72418   1.66587   -1.000
 4698.00    1.66417   1.63036   -1.000
 4699.00    1.61250   1.59455   -1.000
 4700.00    1.60288   1.57114   -1.000
 4701.00    1.61350   1.55712   -1.000
 4702.00    1.59720   1.54827   -1.000
 4703.00    1.58746   1.54974   -1.000
 4704.00    1.61919   1.56500   -1.000
 4705.00    1.64489   1.58428   -1.000
 4706.00    1.64876   1.59153   -1.000
 4707.00    1.62269   1.58226   -1.000
 4708.00    1.58572   1.56907   -1.000
 4709.00    1.58096   1.56946   -1.000
 4710.00    1.61665   1.58924   -1.000
 4711.00    1.67585   1.61743   -1.000
 4712.00    1.71819   1.63557   -1.000
 4713.00    1.69975   1.63383   -1.000
 4714.00    1.65094   1.62333   -1.000
 4715.00    1.64811   1.62653   -1.000
 4716.00    1.67952   1.65295   -1.000
 4717.00    1.71186   1.69294   -1.000
 4718.00    1.75571   1.73065   -1.000
 4719.00    1.77405   1.75655   -1.000
 4720.00    1.78252   1.76857   -1.000
 4721.00    1.77311   1.76730  217.497
 4722.00    1.74599   1.75840  217.178
 4723.00    1.74691   1.75394  219.128
 4724.00    1.75830   1.75731  220.197
 4725.00    1.77631   1.75329   -1.000
 4726.00    1.73507   1.72430   -1.000
 4727.00    1.65023   1.67017   -1.000
 4728.00    1.59507   1.61231  223.909
 4729.00    1.58735   1.57768   -1.000
 4730.00    1.59349   1.57597   -1.000
 4731.00    1.59618   1.59847  234.634
 4732.00    1.63920   1.63022   -1.000
 4733.00    1.68382   1.65932   -1.000
 4734.00    1.70590   1.67745   -1.000
 4735.00    1.73803   1.68190   -1.000
 4736.00    1.70348   1.67926   -1.000
 4737.00    1.68579   1.68066  223.851
 4738.00    1.71035   1.69213   -1.000
 4739.00    1.73390   1.70772   -1.000
 4740.00    1.71329   1.71596  223.159
 4741.00    1.70070   1.71601  223.617
 4742.00    1.70310   1.71719  224.826
 4743.00    1.71700   1.72266  224.734
 4744.00    1.74179   1.72999   -1.000
 4745.00    1.75210   1.74041   -1.000
 4746.00    1.78044   1.75490   -1.000
 4747.00    1.77327   1.77070  221.149
 4748.00    1.76931   1.78359  219.302
 4749.00    1.78021   1.79159  217.319
 4750.00    1.77181   1.79423   -1.000
 4751.00    1.76348   1.78910   -1.000
 4752.00    1.74809   1.77387   -1.000
 4753.00    1.73038   1.75136   -1.000
 4754.00    1.71267   1.72922  222.026
 4755.00    1.69088   1.71516   -1.000
 4756.00    1.69155   1.71308   -1.000
 4757.00    1.69385   1.72157   -1.000
 4758.00    1.69971   1.73633   -1.000
 4759.00    1.72020   1.75120   -1.000
 4760.00    1.71399   1.75644   -1.000
 4761.00    1.68494   1.74256   -1.000
 4762.00    1.65213   1.71036   -1.000
 4763.00    1.61384   1.67254   -1.000
 4764.00    1.58526   1.64291   -1.000
 4765.00    1.59274   1.62501   -1.000
 4766.00    1.59247   1.61899   -1.000
 4767.00    1.61556   1.63210  236.999
 4768.00    1.66432   1.66897  235.030
 4769.00    1.71203   1.71677  231.382
 4770.00    1.73053   1.75123  226.306
 4771.00    1.70964   1.75958   -1.000
 4772.00    1.69477   1.75467   -1.000
 4773.00    1.71549   1.75991   -1.000
 4774.00    1.74363   1.78323   -1.000
 4775.00    1.76235   1.81218   -1.000
 4776.00    1.77341   1.83155   -1.000
 4777.00    1.77181   1.83899   -1.000
 4778.00    1.75920   1.83813   -1.000
 4779.00    1.76424   1.82915   -1.000
 4780.00    1.73962   1.81345   -1.000
 4781.00    1.73333   1.79496   -1.000
 4782.00    1.70807   1.77491   -1.000
 4783.00    1.68717   1.75495   -1.000
 4784.00    1.70251   1.74064   -1.000
 4785.00    1.70075   1.73364   -1.000
 4786.00    1.68125   1.72788   -1.000
 4787.00    1.66884   1.72080   -1.000
 4788.00    1.68700   1.71719   -1.000
 4789.00    1.68707   1.71918   -1.000
 4790.00    1.69182   1.72665   -1.000
 4791.00    1.71595   1.74348   -1.000
 4792.00    1.74676   1.77447   -1.000
 4793.00    1.76961   1.81811   -1.000
 4794.00    1.80322   1.86381   -1.000
 4795.00    1.82932   1.89547   -1.000
 4796.00    1.82926   1.90033   -1.000
 4797.00    1.78292   1.87620   -1.000
 4798.00    1.73881   1.83433   -1.000
 4799.00    1.72675   1.79637   -1.000
 4800.00    1.73367   1.78298   -1.000
 4801.00    1.75061   1.79986   -1.000
 4802.00    1.80089   1.83414   -1.000
 4803.00    1.82362   1.86104   -1.000
 4804.00    1.79799   1.86112   -1.000
 4805.00    1.75178   1.83749   -1.000
 4806.00    1.72426   1.80806   -1.000
 4807.00    1.72667   1.78739   -1.000
 4808.00    1.72206   1.78033   -1.000
 4809.00    1.73167   1.78692   -1.000
 4810.00    1.74831   1.80318   -1.000
 4811.00    1.76639   1.82037   -1.000
 4812.00    1.78046   1.83100   -1.000
 4813.00    1.77595   1.83539   -1.000
 4814.00    1.78481   1.83989   -1.000
 4815.00    1.80048   1.85013   -1.000
 4816.00    1.81259   1.86692   -1.000
 4817.00    1.82245   1.88698   -1.000
 4818.00    1.85144   1.90553   -1.000
 4819.00    1.84747   1.91790   -1.000
 4820.00    1.84903   1.91933   -1.000
 4821.00    1.83349   1.90338   -1.000
 4822.00    1.80187   1.86741   -1.000
 4823.00    1.77265   1.82244   -1.000
 4824.00    1.75452   1.79142   -1.000
 4825.00    1.75403   1.79110   -1.000
 4826.00    1.79683   1.81449  225.644
 4827.00    1.79904   1.83558   -1.000
 4828.00    1.77247   1.83791   -1.000
 4829.00    1.77691   1.82680   -1.000
 4830.00    1.75946   1.81232   -1.000
 4831.00    1.75783   1.79690   -1.000
 4832.00    1.74523   1.78430   -1.000
 4833.00    1.75588   1.78468   -1.000
 4834.00    1.79258   1.80222  225.613
 4835.00    1.81903   1.82712  221.864
 4836.00    1.82279   1.84370  219.203
 4837.00    1.80037   1.84491   -1.000
 4838.00    1.78796   1.83191   -1.000
 4839.00    1.76831   1.80931   -1.000
 4840.00    1.73651   1.78720   -1.000
 4841.00    1.74188   1.77536   -1.000
 4842.00    1.75593   1.77417  227.151
 4843.00    1.74416   1.77984   -1.000
 4844.00    1.75609   1.79473   -1.000
 4845.00    1.80734   1.82012  223.559
 4846.00    1.82807   1.84311  221.149
 4847.00    1.81530   1.84616   -1.000
 4848.00    1.79352   1.82905   -1.000
 4849.00    1.78597   1.81273   -1.000
 4850.00    1.79077   1.81398   -1.000
 4851.00    1.80027   1.82634   -1.000
 4852.00    1.80544   1.83177   -1.000
 4853.00    1.78845   1.81570   -1.000
 4854.00    1.74961   1.77541   -1.000
 4855.00    1.69686   1.72581   -1.000
 4856.00    1.66649   1.69132   -1.000
 4857.00    1.66858   1.67857  237.797
 4858.00    1.66032   1.66113  236.717
 4859.00    1.57012   1.60041   -1.000
 4860.00    1.43339   1.49198   -1.000
 4861.00    1.35825   1.38849   -1.000
 4862.00    1.37703   1.35484   -1.000
 4863.00    1.48175   1.40957   -1.000
 4864.00    1.59037   1.51135   -1.000
 4865.00    1.65604   1.60733   -1.000
 4866.00    1.68229   1.67648   -1.000
 4867.00    1.70587   1.72006  237.513
 4868.00    1.72114   1.73995  232.923
 4869.00    1.71254   1.73313  231.035
 4870.00    1.65694   1.69675   -1.000
 4871.00    1.61619   1.64334   -1.000
 4872.00    1.59999   1.60723  239.703
 4873.00    1.62965   1.61870   -1.000
 4874.00    1.68613   1.66801   -1.000
 4875.00    1.69581   1.71904  234.952
 4876.00    1.72265   1.75346   -1.000
 4877.00    1.73551   1.77872   -1.000
 4878.00    1.76312   1.80658   -1.000
 4879.00    1.78549   1.83482   -1.000
 4880.00    1.77812   1.84996   -1.000
 4881.00    1.75350   1.84298   -1.000
 4882.00    1.72575   1.82149   -1.000
 4883.00    1.72334   1.80112   -1.000
 4884.00    1.73758   1.78335   -1.000
 4885.00    1.71584   1.75850   -1.000
 4886.00    1.66942   1.73070   -1.000
 4887.00    1.66775   1.71503   -1.000
 4888.00    1.67885   1.71040   -1.000
 4889.00    1.67084   1.69827   -1.000
 4890.00    1.62966   1.66962   -1.000
 4891.00    1.61923   1.64614   -1.000
 4892.00    1.67374   1.66649  134.462
 4893.00    1.77667   1.74338   23.894
 4894.00    1.86911   1.84816   22.889
 4895.00    1.91149   1.93688   21.852
 4896.00    1.93008   1.98511   21.243
 4897.00    1.93445   1.99553   20.880
 4898.00    1.90319   1.98079   20.803
 4899.00    1.86227   1.95215   20.889
 4900.00    1.83195   1.92158   21.364
 4901.00    1.81435   1.89908   21.850
 4902.00    1.80924   1.88401   22.050
 4903.00    1.80299   1.87288   21.940
 4904.00    1.81987   1.87308   21.998
 4905.00    1.86170   1.89454   22.236
 4906.00    1.88873   1.92649   21.953
 4907.00    1.87665   1.93837   21.498
 4908.00    1.84189   1.91253   21.373
 4909.00    1.80589   1.86034   21.611
 4910.00    1.75704   1.80974   22.157
 4911.00    1.74411   1.78736   22.775
 4912.00    1.78819   1.80184   23.001
 4913.00    1.81879   1.84064   22.667
 4914.00    1.85026   1.88349   22.260
 4915.00    1.89338   1.91490   21.959
 4916.00    1.89305   1.91903   21.681
 4917.00    1.83077   1.87651   21.517
 4918.00    1.72575   1.78332   21.681
 4919.00    1.62470   1.66959   22.500
 4920.00    1.58618   1.58609   23.744
 4921.00    1.61202   1.57121   24.806
 4922.00    1.69063   1.61910   24.972
 4923.00    1.74432   1.68698   24.114
 4924.00    1.77342   1.73885   23.275
 4925.00    1.77916   1.77554   22.972
 4926.00    1.81027   1.81686   22.940
 4927.00    1.86230   1.86722   22.613
 4928.00    1.90498   1.91593   22.024
 4929.00    1.92610   1.95545   21.651
 4930.00    1.94533   1.97936   21.458
 4931.00    1.93779   1.97753   21.314
 4932.00    1.89481   1.94530   21.211
 4933.00    1.83042   1.89432   21.460
 4934.00    1.80540   1.85151   22.074
 4935.00    1.83017   1.83544   22.834
 4936.00    1.83327   1.83039   22.830
 4937.00    1.78258   1.80579   22.431
 4938.00    1.72440   1.76096   22.478
 4939.00    1.70447   1.73315   23.164
 4940.00    1.75694   1.75665   23.743
 4941.00    1.84468   1.82472   23.464
 4942.00    1.90963   1.90033   22.646
 4943.00    1.93433   1.95116   21.942
 4944.00    1.92803   1.96987   21.561
 4945.00    1.92662   1.96675   21.385
 4946.00    1.93835   1.95853   21.417
 4947.00    1.92476   1.96062   21.568
 4948.00    1.93802   1.97715   21.595
 4949.00    1.97050   1.99889   21.387
 4950.00    1.98382   2.01401   21.144
 4951.00    1.98245   2.01779   21.085
 4952.00    1.95788   2.01062   21.008
 4953.00    1.93459   1.99461   21.127
 4954.00    1.91655   1.96702   21.280
 4955.00    1.87650   1.91478   21.532
 4956.00    1.77319   1.82815   21.821
 4957.00    1.66255   1.73072   22.450
 4958.00    1.66606   1.68304   23.618
 4959.00    1.75731   1.72248   24.472
 4960.00    1.86548   1.81774   23.873
 4961.00    1.91280   1.90674   22.509
 4962.00    1.91038   1.95140   21.787
 4963.00    1.90704   1.95288   21.654
 4964.00    1.86821   1.92697   21.768
 4965.00    1.81477   1.88633   21.949
 4966.00    1.79084   1.84686   22.225
 4967.00    1.78602   1.82454   22.695
 4968.00    1.79823   1.82150   22.966
 4969.00    1.80224   1.83141   22.958
 4970.00    1.82391   1.85119   22.883
 4971.00    1.85171   1.87990   22.706
 4972.00    1.87931   1.91414   22.460
 4973.00    1.89042   1.94550   22.218
 4974.00    1.92660   1.96445   21.954
 4975.00    1.91266   1.96704   21.755
 4976.00    1.89747   1.95329   21.684
 4977.00    1.86703   1.92512   21.847
 4978.00    1.83176   1.88986   22.084
 4979.00    1.78320   1.85625   22.390
 4980.00    1.75553   1.82279   22.753
 4981.00    1.72999   1.77820   23.033
 4982.00    1.65751   1.71884   23.384
 4983.00    1.62949   1.66495   24.171
 4984.00    1.65750   1.64781   24.914
 4985.00    1.70951   1.67864   24.865
 4986.00    1.77544   1.74266   24.371
 4987.00    1.82256   1.81317   23.674
 4988.00    1.84923   1.86421   22.927
 4989.00    1.83430   1.88069   22.394
 4990.00    1.83141   1.87066   22.446
 4991.00    1.82551   1.85763   22.783
 4992.00    1.82859   1.85658   23.004
 4993.00    1.83647   1.86530   22.996
 4994.00    1.83409   1.87533   22.789
 4995.00    1.84478   1.88518   22.701
 4996.00    1.85727   1.89615   22.687
 4997.00    1.84806   1.89926   22.567
 4998.00    1.82251   1.88114   22.467
 4999.00    1.79881   1.84007   22.619
 5000.00    1.75570   1.79153   22.935
 5001.00    1.74233   1.75858   23.396
 5002.00    1.76636   1.74881   23.672
 5003.00    1.77819   1.74859   23.669
 5004.00    1.77182   1.73807   23.440
 5005.00    1.70858   1.71080   23.309
 5006.00    1.68585   1.68470   23.670
 5007.00    1.71169   1.68910   24.265
 5008.00    1.77338   1.73307   24.353
 5009.00    1.83560   1.78884   23.729
 5010.00    1.82324   1.81693   23.019
 5011.00    1.77068   1.79906   22.811
 5012.00    1.72867   1.74668   23.142
 5013.00    1.66785   1.68873   23.859
 5014.00    1.63091   1.65411   24.749
 5015.00    1.65595   1.65504   25.287
 5016.00    1.72381   1.67829   25.126
 5017.00    1.72809   1.70103   24.557
 5018.00    1.74437   1.71448   24.060
 5019.00    1.75358   1.72705   23.975
 5020.00    1.77855   1.74368   23.973
 5021.00    1.76096   1.75576   23.694
 5022.00    1.74765   1.76040   23.513
 5023.00    1.74463   1.76983   23.625
 5024.00    1.78521   1.79263   23.669
 5025.00    1.81133   1.81835   23.523
 5026.00    1.80380   1.82850   23.273
 5027.00    1.78344   1.82078   23.130
 5028.00    1.78559   1.81449   23.249
 5029.00    1.82099   1.82807   23.349
 5030.00    1.85974   1.86199   23.117
 5031.00    1.89134   1.90486   22.677
 5032.00    1.91147   1.94448   22.356
 5033.00    1.93577   1.96734   21.994
 5034.00    1.91536   1.95794   21.753
 5035.00    1.83988   1.91405   21.820
 5036.00    1.76707   1.85831   22.549
 5037.00    1.75791   1.81706   23.438
 5038.00    1.75938   1.78643   23.799
 5039.00    1.70831   1.74124   23.879
 5040.00    1.60796   1.67606   24.202
 5041.00    1.57353   1.62578   25.180
 5042.00    1.65259   1.63684   26.179
 5043.00    1.75903   1.71766   26.117
 5044.00    1.86397   1.83129   24.802
 5045.00    1.93518   1.92916   23.270
 5046.00    1.95411   1.98060   22.351
 5047.00    1.92089   1.97758   21.884
 5048.00    1.95331   1.93003   21.071
 5049.00    1.08375   1.86454   -1.000
 5050.00   -0.15885   1.81346    0.000
 5051.00    0.00228   1.79457   -1.000
 5052.00    0.55271   1.80752   -1.000
 5053.00    1.91512   1.84591   23.477
 5054.00    1.91824   1.89751   22.933
 5055.00    1.92793   1.94327   22.355
 5056.00    1.96805   1.97134   21.958
 5057.00    1.97544   1.98516   21.759
 5058.00    1.96778   1.99465   21.696
 5059.00    1.97146   2.00769   21.740
 5060.00    1.97671   2.02609   21.779
 5061.00    1.98545   2.04250   21.766
 5062.00    1.97806   2.04008   21.615
 5063.00    1.94754   2.00396   21.640
 5064.00    1.86885   1.93958   21.949
 5065.00    1.81592   1.87618   22.608
 5066.00    1.81170   1.84249   23.411
 5067.00    1.82771   1.83992   23.648
 5068.00    1.84089   1.85237   23.338
 5069.00    1.87073   1.86936   22.987
 5070.00    1.88738   1.88599   22.924
 5071.00    1.88568   1.89359   22.813
 5072.00    1.86569   1.88802   22.666
 5073.00    1.89267   1.87998   22.864
 5074.00    1.89787   1.88207   23.036
 5075.00    1.89748   1.89261   22.735
 5076.00    1.91041   1.90029   22.564
 5077.00    1.89449   1.89225   22.540
 5078.00    1.84026   1.85623   22.527
 5079.00    1.77574   1.79393   22.764
 5080.00    1.71895   1.73550   23.589
 5081.00    1.69824   1.71652   24.718
 5082.00    1.74535   1.73808   24.956
 5083.00    1.79615   1.77618   24.397
 5084.00    1.83112   1.81590   23.879
 5085.00    1.87822   1.85466   23.564
 5086.00    1.91638   1.88923   23.113
 5087.00    1.91559   1.91419   22.722
 5088.00    1.92209   1.92929   22.570
 5089.00    1.94196   1.94016   22.544
 5090.00    1.93953   1.95206   22.426
 5091.00    1.94881   1.96842   22.262
 5092.00    1.98261   1.99049   22.141
 5093.00    2.00371   2.01222   22.025
 5094.00    1.98678   2.01917   21.765
 5095.00    1.96843   1.99804   21.575
 5096.00    1.92438   1.94867   21.792
 5097.00    1.87022   1.88485   22.260
 5098.00    1.80634   1.82663   22.742
 5099.00    1.79738   1.79613   23.296
 5100.00    1.83531   1.80926   23.779
 5101.00    1.88805   1.85758   23.831
 5102.00    1.92638   1.90892   23.217
 5103.00    1.91075   1.93368   22.541
 5104.00    1.90206   1.92843   22.366
 5105.00    1.87276   1.90739   22.513
 5106.00    1.85677   1.88124   22.818
 5107.00    1.82702   1.85437   23.106
 5108.00    1.82558   1.83127   23.388
 5109.00    1.83488   1.81884   23.681
 5110.00    1.83402   1.82447   23.630
 5111.00    1.86221   1.85012   23.473
 5112.00    1.90508   1.88820   23.303
 5113.00    1.92624   1.92503   22.960
 5114.00    1.93961   1.95316   22.681
 5115.00    1.94198   1.97604   22.405
 5116.00    1.96381   1.99853   22.206
 5117.00    2.00256   2.01943   22.091
 5118.00    2.01483   2.03124   21.852
 5119.00    2.01077   2.02532   21.671
 5120.00    1.98178   1.99918   21.747
 5121.00    1.91672   1.95713   22.043
 5122.00    1.86643   1.90503   22.377
 5123.00    1.80617   1.85082   22.748
 5124.00    1.78569   1.80838   23.345
 5125.00    1.80280   1.78971   24.055
 5126.00    1.80850   1.79270   24.198
 5127.00    1.81939   1.80294   23.966
 5128.00    1.82074   1.81007   23.853
 5129.00    1.81574   1.81679   23.709
 5130.00    1.81858   1.83162   23.752
 5131.00    1.86272   1.85750   23.728
 5132.00    1.91235   1.88769   23.405
 5133.00    1.91833   1.91429   23.001
 5134.00    1.93626   1.93522   22.824
 5135.00    1.95549   1.94877   22.604
 5136.00    1.94677   1.94560   22.406
 5137.00    1.90844   1.91564   22.354
 5138.00    1.86656   1.86951   22.777
 5139.00    1.84999   1.83568   23.340
 5140.00    1.85678   1.82763   23.703
 5141.00    1.83908   1.83241   23.722
 5142.00    1.82847   1.83336   23.499
 5143.00    1.82597   1.83247   23.690
 5144.00    1.84500   1.84010   24.086
 5145.00    1.85935   1.84879   23.924
 5146.00    1.85047   1.84310   23.510
 5147.00    1.83066   1.82931   23.441
 5148.00    1.83920   1.82623   23.673
 5149.00    1.86835   1.83660   23.725
 5150.00    1.86809   1.84448   23.419
 5151.00    1.83986   1.83737   23.294
 5152.00    1.79435   1.82158   23.600
 5153.00    1.79547   1.81209   24.037
 5154.00    1.83654   1.81975   24.185
 5155.00    1.85200   1.84949   24.052
 5156.00    1.92224   1.89717   23.579
 5157.00    1.98268   1.94786   22.974
 5158.00    1.99258   1.98554   22.390
 5159.00    2.01888   2.00388   21.976
 5160.00    2.02317   2.00468   21.823
 5161.00    2.00393   1.99026   21.825
 5162.00    1.96956   1.96079   21.901
 5163.00    1.94236   1.91486   22.029
 5164.00    1.87853   1.84714   22.282
 5165.00    1.73489   1.74671   22.631
 5166.00    1.56393   1.61115   23.516
 5167.00    1.41715   1.47810   25.502
 5168.00    1.39542   1.41194   28.198
 5169.00    1.49753   1.43244   30.062
 5170.00    1.56963   1.48207   -1.000
 5171.00    1.50584   1.48115   27.639
 5172.00    1.37398   1.42538   27.310
 5173.00    1.35071   1.39650   29.148
 5174.00    1.50215   1.46223   31.147
 5175.00    1.69578   1.60476   -1.000
 5176.00    1.81565   1.74774   26.467
 5177.00    1.86235   1.83776   24.304
 5178.00    1.87344   1.87509   23.425
 5179.00    1.87004   1.87561   23.175
 5180.00    1.81661   1.83751   23.135
 5181.00    1.70103   1.74366   23.373
 5182.00    1.52829   1.59745   24.211
 5183.00    1.36272   1.45298   25.996
 5184.00    1.34889   1.39194   29.069
 5185.00    1.51362   1.46007   31.317
 5186.00    1.72610   1.61519   -1.000
 5187.00    1.86029   1.76718   -1.000
 5188.00    1.89247   1.86269   24.109
 5189.00    1.92899   1.90199   23.386
 5190.00    1.94337   1.89783   23.196
 5191.00    1.87423   1.85600   23.102
 5192.00    1.80227   1.79684   23.362
 5193.00    1.78885   1.76066   24.121
 5194.00    1.83309   1.76675   24.786
 5195.00    1.86451   1.79625   24.574
 5196.00    1.90254   1.83085   24.143
 5197.00    1.93658   1.87025   23.788
 5198.00    1.97434   1.91473   23.441
 5199.00    2.02037   1.95567   22.965
 5200.00    2.03693   1.98153   22.577
 5201.00    2.01839   1.98478   22.397
 5202.00    1.99394   1.96260   22.380
 5203.00    1.94819   1.91411   22.566
 5204.00    1.87386   1.84287   22.983
 5205.00    1.78035   1.76480   23.512
 5206.00    1.74707   1.70305   24.259
 5207.00    1.73285   1.67070   25.006
 5208.00    1.72769   1.66497   25.080
 5209.00    1.73974   1.68388   25.215
 5210.00    1.80915   1.73566   25.368
 5211.00    1.90447   1.81883   24.985
 5212.00    1.98840   1.90903   24.158
 5213.00    2.04548   1.97329   23.180
 5214.00    2.05336   1.98980   22.274
 5215.00    2.00001   1.96452   21.822
 5216.00    1.95077   1.92978   22.081
 5217.00    1.96874   1.92181   22.612
 5218.00    2.00339   1.95194   22.882
 5219.00    2.03771   2.00223   22.681
 5220.00    2.09823   2.04707   22.183
 5221.00    2.11701   2.06906   21.850
 5222.00    2.07564   2.05953   21.686
 5223.00    2.01873   2.01494   21.600
 5224.00    1.93866   1.93701   21.889
 5225.00    1.86143   1.83857   22.567
 5226.00    1.78235   1.75167   23.507
 5227.00    1.78083   1.71864   24.613
 5228.00    1.86384   1.76127   -1.000
 5229.00    1.99196   1.85783   -1.000
 5230.00    2.07036   1.95282   -1.000
 5231.00    2.06707   1.99603   22.381
 5232.00    2.02992   1.97990   21.993
 5233.00    1.99415   1.93752   21.965
 5234.00    1.98461   1.91535   22.421
 5235.00    2.01767   1.93803   22.820
 5236.00    2.06871   1.99445   22.762
 5237.00    2.11091   2.05583   22.230
 5238.00    2.13304   2.09727   21.698
 5239.00    2.12406   2.11251   21.459
 5240.00    2.13719   2.11116   21.444
 5241.00    2.13974   2.10473   21.514
 5242.00    2.14381   2.10099   21.474
 5243.00    2.14860   2.10446   21.345
 5244.00    2.14090   2.11057   21.380
 5245.00    2.12013   2.10242   21.335
 5246.00    2.06819   2.06622   21.301
 5247.00    1.99650   2.01274   21.737
 5248.00    1.98648   1.96865   22.425
 5249.00    1.98223   1.94564   22.945
 5250.00    1.97051   1.93779   22.996
 5251.00    1.98308   1.94245   23.038
 5252.00    2.02218   1.95947   23.188
 5253.00    2.02714   1.97769   23.075
 5254.00    2.02780   1.98646   22.751
 5255.00    2.04165   1.99512   22.527
 5256.00    2.07764   2.02662   22.534
 5257.00    2.14216   2.08487   22.369
 5258.00    2.18875   2.14066   21.841
 5259.00    2.20723   2.16053   21.248
 5260.00    2.15396   2.13069   21.066
 5261.00    2.03501   2.05608   21.268
 5262.00    1.94402   1.95401   21.858
 5263.00    1.87411   1.84730   22.791
 5264.00    1.79907   1.75817   23.880
 5265.00    1.76064   1.70479   24.703
 5266.00    1.78121   1.69287   25.209
 5267.00    1.82596   1.70399   -1.000
 5268.00    1.81472   1.69966   -1.000
 5269.00    1.74014   1.66492   24.385
 5270.00    1.72078   1.63998   24.925
 5271.00    1.81817   1.67803   -1.000
 5272.00    1.95040   1.77791   -1.000
 5273.00    2.01800   1.87671   -1.000
 5274.00    2.01953   1.92585   22.934
 5275.00    2.00949   1.94403   22.706
 5276.00    2.05317   1.97613   22.720
 5277.00    2.13887   2.03828   22.667
 5278.00    2.21155   2.10457   -1.000
 5279.00    2.20099   2.13547   21.464
 5280.00    2.17000   2.11661   21.066
 5281.00    2.09562   2.06426   21.197
 5282.00    2.04000   2.00659   21.711
 5283.00    2.01406   1.97140   22.278
 5284.00    2.04394   1.98198   22.685
 5285.00    2.12861   2.04310   22.796
 5286.00    2.23632   2.12758   -1.000
 5287.00    2.25574   2.19278   21.646
 5288.00    2.24142   2.22193   20.964
 5289.00    2.26073   2.23069   20.807
 5290.00    2.27733   2.23698   20.919
 5291.00    2.29059   2.24170   20.916
 5292.00    2.29361   2.23651   20.792
 5293.00    2.25951   2.22001   20.748
 5294.00    2.22935   2.19439   20.871
 5295.00    2.20179   2.15069   21.069
 5296.00    2.10251   2.07997   21.349
 5297.00    2.00251   1.99898   21.930
 5298.00    1.97461   1.94704   22.776
 5299.00    2.01576   1.95020   23.388
 5300.00    2.08160   1.99235   23.242
 5301.00    2.11549   2.03871   22.651
 5302.00    2.14043   2.07915   22.229
 5303.00    2.19502   2.12636   22.087
 5304.00    2.26356   2.18382   21.815
 5305.00    2.29901   2.23172   21.226
 5306.00    2.28856   2.24894   20.835
 5307.00    2.27151   2.24166   20.781
 5308.00    2.26901   2.23495   20.984
 5309.00    2.30089   2.24409   21.167
 5310.00    2.32880   2.26182   21.030
 5311.00    2.32403   2.27039   20.808
 5312.00    2.31495   2.26294   20.675
 5313.00    2.28883   2.24551   20.695
 5314.00    2.27636   2.22434   20.812
 5315.00    2.24681   2.20153   20.902
 5316.00    2.22591   2.17972   21.053
 5317.00    2.22525   2.16639   21.262
 5318.00    2.23346   2.16723   21.451
 5319.00    2.25182   2.17580   21.459
 5320.00    2.25777   2.18013   21.300
 5321.00    2.24650   2.17298   21.209
 5322.00    2.22826   2.15011   21.286
 5323.00    2.17580   2.11145   21.436
 5324.00    2.14171   2.06608   21.688
 5325.00    2.11651   2.02033   22.068
 5326.00    2.07215   1.96089   -1.000
 5327.00    1.96776   1.87678   22.267
 5328.00    1.85217   1.79840   22.874
 5329.00    1.87976   1.78534   24.347
 5330.00    2.00143   1.86287   -1.000
 5331.00    2.13276   1.98252   -1.000
 5332.00    2.17355   2.07708   -1.000
 5333.00    2.21138   2.12940   21.995
 5334.00    2.25987   2.16229   21.759
 5335.00    2.27586   2.19216   21.552
 5336.00    2.26755   2.21189   21.301
 5337.00    2.25330   2.20828   21.207
 5338.00    2.22344   2.17687   21.342
 5339.00    2.16868   2.12191   21.480
 5340.00    2.10863   2.06243   21.715
 5341.00    2.08980   2.03308   22.261
 5342.00    2.14266   2.05414   22.655
 5343.00    2.20200   2.10339   22.477
 5344.00    2.22405   2.14120   21.872
 5345.00    2.22349   2.15024   21.476
 5346.00    2.21448   2.13868   21.469
 5347.00    2.20847   2.11996   21.609
 5348.00    2.18895   2.10142   21.748
 5349.00    2.17500   2.09257   21.855
 5350.00    2.21534   2.10788   -1.000
 5351.00    2.26942   2.14876   -1.000
 5352.00    2.28945   2.19812   21.771
 5353.00    2.31337   2.24001   21.266
 5354.00    2.34568   2.27261   20.997
 5355.00    2.36120   2.30215   20.927
 5356.00    2.38605   2.32754   20.764
 5357.00    2.39631   2.34124   20.500
 5358.00    2.39700   2.34178   20.344
 5359.00    2.38816   2.33152   20.359
 5360.00    2.36470   2.30982   20.390
 5361.00    2.33132   2.27792   20.464
 5362.00    2.28282   2.24330   20.702
 5363.00    2.26440   2.21284   21.048
 5364.00    2.23203   2.18801   21.358
 5365.00    2.19358   2.16783   21.511
 5366.00    2.21053   2.15342   21.636
 5367.00    2.22497   2.14377   21.767
 5368.00    2.21122   2.12483   21.704
 5369.00    2.15980   2.07887   21.701
 5370.00    2.07855   2.01290   21.917
 5371.00    2.05337   1.96572   22.459
 5372.00    2.10555   1.97924   -1.000
 5373.00    2.22374   2.05679   -1.000
 5374.00    2.32061   2.15695   -1.000
 5375.00    2.36561   2.23266   -1.000
 5376.00    2.35533   2.26489   20.828
 5377.00    2.33918   2.26714   20.667
 5378.00    2.33687   2.26241   20.725
 5379.00    2.33368   2.25953   20.735
 5380.00    2.31501   2.25226   20.775
 5381.00    2.28659   2.23440   20.894
 5382.00    2.26736   2.21173   21.099
 5383.00    2.26579   2.19775   21.308
 5384.00    2.28715   2.20114   21.414
 5385.00    2.32612   2.21832   -1.000
 5386.00    2.33559   2.23576   21.303
 5387.00    2.32336   2.23881   21.076
 5388.00    2.29925   2.22104   21.030
 5389.00    2.25474   2.18736   21.123
 5390.00    2.23316   2.14984   21.325
 5391.00    2.21514   2.12071   21.650
 5392.00    2.19617   2.10496   21.895
 5393.00    2.20192   2.09920   -1.000
 5394.00    2.20778   2.09354   -1.000
 5395.00    2.18104   2.07553   -1.000
 5396.00    2.12576   2.04257   22.237
 5397.00    2.11489   2.01405   -1.000
 5398.00    2.15176   2.01820   -1.000
 5399.00    2.19733   2.05959   -1.000
 5400.00    2.24881   2.11334   -1.000
 5401.00    2.25680   2.15086   -1.000
 5402.00    2.24457   2.15572   21.554
 5403.00    2.18614   2.12016   21.591
 5404.00    2.10444   2.04862   21.760
 5405.00    2.04092   1.97118   22.410
 5406.00    2.03589   1.93406   -1.000
 5407.00    2.09209   1.95345   -1.000
 5408.00    2.13235   1.99630   -1.000
 5409.00    2.12339   2.02480   -1.000
 5410.00    2.13492   2.03883   22.571
 5411.00    2.19507   2.06737   -1.000
 5412.00    2.25075   2.12057   -1.000
 5413.00    2.29641   2.17283   -1.000
 5414.00    2.31267   2.20301   -1.000
 5415.00    2.29846   2.21935   21.321
 5416.00    2.31691   2.23995   21.328
 5417.00    2.33533   2.26482   21.339
 5418.00    2.32427   2.27579   21.183
 5419.00    2.31008   2.26432   21.047
 5420.00    2.28864   2.24276   21.127
 5421.00    2.29226   2.22661   21.335
 5422.00    2.30742   2.21746   21.466
 5423.00    2.29553   2.20575   21.386
 5424.00    2.26386   2.19437   21.299
 5425.00    2.26724   2.20357   21.586
 5426.00    2.31704   2.23626   21.788
 5427.00    2.34035   2.25934   21.570
 5428.00    2.28549   2.23506   21.206
 5429.00    2.20111   2.16881   21.259
 5430.00    2.17199   2.11082   21.832
 5431.00    2.20530   2.09611   -1.000
 5432.00    2.22862   2.10765   -1.000
 5433.00    2.19995   2.10726   22.204
 5434.00    2.16009   2.08506   22.178
 5435.00    2.14397   2.06933   22.487
 5436.00    2.17189   2.08980   22.750
 5437.00    2.25739   2.14928   -1.000
 5438.00    2.33673   2.22683   -1.000
 5439.00    2.37517   2.29576   21.628
 5440.00    2.40257   2.34085   21.170
 5441.00    2.42193   2.36187   20.869
 5442.00    2.40421   2.36521   20.693
 5443.00    2.38938   2.34947   20.653
 5444.00    2.32592   2.30341   20.651
 5445.00    2.25094   2.22382   20.861
 5446.00    2.15505   2.13486   21.407
 5447.00    2.12291   2.08218   22.282
 5448.00    2.18541   2.09446   23.029
 5449.00    2.27116   2.15718   -1.000
 5450.00    2.31554   2.22537   22.176
 5451.00    2.34338   2.26062   21.550
 5452.00    2.30810   2.25498   21.329
 5453.00    2.25869   2.21609   21.326
 5454.00    2.18957   2.15381   21.502
 5455.00    2.13804   2.09323   21.992
 5456.00    2.16596   2.07386   22.624
 5457.00    2.24258   2.11680   -1.000
 5458.00    2.32333   2.19607   -1.000
 5459.00    2.35014   2.25683   -1.000
 5460.00    2.33634   2.26699   21.433
 5461.00    2.27930   2.23465   21.293
 5462.00    2.24480   2.18800   21.530
 5463.00    2.23067   2.15691   21.932
 5464.00    2.24744   2.15778   22.235
 5465.00    2.27701   2.18409   22.364
 5466.00    2.30226   2.21562   22.102
 5467.00    2.32009   2.23882   21.842
 5468.00    2.33212   2.25057   21.732
 5469.00    2.31465   2.24964   21.497
 5470.00    2.28806   2.23707   21.399
 5471.00    2.29999   2.21881   21.589
 5472.00    2.28673   2.20086   21.815
 5473.00    2.26325   2.18253   21.900
 5474.00    2.24386   2.15589   22.010
 5475.00    2.19229   2.11518   22.230
 5476.00    2.13906   2.07031   22.543
 5477.00    2.13113   2.04984   23.019
 5478.00    2.20988   2.07564   -1.000
 5479.00    2.26160   2.12630   -1.000
 5480.00    2.24892   2.15556   -1.000
 5481.00    2.22886   2.14879   22.066
 5482.00    2.22432   2.13601   22.207
 5483.00    2.25115   2.15427   -1.000
 5484.00    2.31009   2.20348   -1.000
 5485.00    2.35449   2.24852   -1.000
 5486.00    2.33576   2.25913   21.626
 5487.00    2.28141   2.23631   21.425
 5488.00    2.25642   2.20739   21.614
 5489.00    2.26338   2.19792   21.924
 5490.00    2.28334   2.21161   22.061
 5491.00    2.31646   2.23306   22.071
 5492.00    2.32994   2.24582   21.922
 5493.00    2.32770   2.24665   21.762
 5494.00    2.33288   2.24289   21.677
 5495.00    2.34172   2.24028   -1.000
 5496.00    2.32819   2.23605   21.731
 5497.00    2.30517   2.23022   21.728
 5498.00    2.31821   2.23325   21.878
 5499.00    2.35643   2.24646   -1.000
 5500.00    2.35803   2.25122   -1.000
 5501.00    2.31487   2.23358   21.686
 5502.00    2.29116   2.20448   21.835
 5503.00    2.29315   2.18611   -1.000
 5504.00    2.30521   2.18250   -1.000
 5505.00    2.29625   2.17712   -1.000
 5506.00    2.26204   2.16419   -1.000
 5507.00    2.25272   2.15981   22.291
 5508.00    2.28519   2.17739   -1.000
 5509.00    2.30534   2.20522   -1.000
 5510.00    2.30156   2.21443   21.982
 5511.00    2.26927   2.19118   21.871
 5512.00    2.22475   2.14991   22.004
 5513.00    2.20676   2.11744   22.422
 5514.00    2.21786   2.11226   -1.000
 5515.00    2.26000   2.13363   -1.000
 5516.00    2.31090   2.17012   -1.000
 5517.00    2.36028   2.21293   -1.000
 5518.00    2.39549   2.25689   -1.000
 5519.00    2.41391   2.29439   -1.000
 5520.00    2.43098   2.31548   -1.000
 5521.00    2.42729   2.31846   -1.000
 5522.00    2.41942   2.31347   -1.000
 5523.00    2.40794   2.30897   -1.000
 5524.00    2.38913   2.30144   21.330
 5525.00    2.36098   2.27956   21.369
 5526.00    2.31765   2.23629   21.491
 5527.00    2.24794   2.18070   21.774
 5528.00    2.22033   2.13926   22.265
 5529.00    2.24808   2.13946   -1.000
 5530.00    2.31155   2.18112   -1.000
 5531.00    2.35133   2.23323   -1.000
 5532.00    2.35978   2.26398   -1.000
 5533.00    2.36018   2.26592   21.639
 5534.00    2.35372   2.25292   -1.000
 5535.00    2.34312   2.24055   -1.000
 5536.00    2.34733   2.23672   -1.000
 5537.00    2.36752   2.24322   -1.000
 5538.00    2.36728   2.25838   -1.000
 5539.00    2.38725   2.28028   -1.000
 5540.00    2.42960   2.30516   -1.000
 5541.00    2.43373   2.32222   -1.000
 5542.00    2.42960   2.32087   -1.000
 5543.00    2.39568   2.30410   21.204
 5544.00    2.38890   2.28654   -1.000
 5545.00    2.39393   2.27944   -1.000
 5546.00    2.39129   2.28421   -1.000
 5547.00    2.41092   2.29979   -1.000
 5548.00    2.43608   2.32524   -1.000
 5549.00    2.46317   2.35325   -1.000
 5550.00    2.48120   2.37187   -1.000
 5551.00    2.47408   2.37424   -1.000
 5552.00    2.45379   2.36059   21.015
 5553.00    2.42467   2.33663   21.117
 5554.00    2.40255   2.31375   21.298
 5555.00    2.40829   2.30282   -1.000
 5556.00    2.41687   2.30422   -1.000
 5557.00    2.41750   2.30952   -1.000
 5558.00    2.42060   2.31215   -1.000
 5559.00    2.42168   2.31288   -1.000
 5560.00    2.42107   2.31238   -1.000
 5561.00    2.40556   2.30536   -1.000
 5562.00    2.39672   2.28928   -1.000
 5563.00    2.38139   2.27090   -1.000
 5564.00    2.34199   2.25798   21.835
 5565.00    2.34104   2.25088   21.994
 5566.00    2.35181   2.24516   -1.000
 5567.00    2.35171   2.23942   -1.000
 5568.00    2.36429   2.23678   -1.000
 5569.00    2.37061   2.23943   -1.000
 5570.00    2.37459   2.24551   -1.000
 5571.00    2.37609   2.24986   -1.000
 5572.00    2.36469   2.24891   -1.000
 5573.00    2.35908   2.24680   -1.000
 5574.00    2.37744   2.25383   -1.000
 5575.00    2.38504   2.27365   -1.000
 5576.00    2.29318   2.29530   21.843
 5577.00    1.89914   2.30833   -1.000
 5578.00    1.19255   2.31667   -1.000
 5579.00    0.92074   2.32589   -1.000
 5580.00    1.28278   2.33266   -1.000
 5581.00    1.99142   2.33190   -1.000
 5582.00    2.46944   2.32285   -1.000
 5583.00    2.47579   2.30872   -1.000
 5584.00    2.41448   2.28809   -1.000
 5585.00    2.36042   2.25003   -1.000
 5586.00    2.28920   2.19018   -1.000
 5587.00    2.22549   2.12469   -1.000
 5588.00    2.20081   2.08122   -1.000
 5589.00    2.21698   2.07771   -1.000
 5590.00    2.26363   2.10856   -1.000
 5591.00    2.30288   2.15146   -1.000
 5592.00    2.30686   2.18444   -1.000
 5593.00    2.30588   2.20202   -1.000
 5594.00    2.33116   2.21735   -1.000
 5595.00    2.35217   2.24395   -1.000
 5596.00    2.38663   2.27524   -1.000
 5597.00    2.38123   2.28702   -1.000
 5598.00    2.34143   2.26696   22.009
 5599.00    2.32184   2.22814   -1.000
 5600.00    2.29991   2.19019   -1.000
 5601.00    2.27917   2.16336   -1.000
 5602.00    2.28322   2.15402   -1.000
 5603.00    2.30759   2.17363   -1.000
 5604.00    2.34972   2.22817   -1.000
 5605.00    2.42176   2.30119   -1.000
 5606.00    2.47818   2.36323   -1.000
 5607.00    2.49352   2.39782   -1.000
 5608.00    2.49770   2.40826   21.316
 5609.00    2.50180   2.40746   -1.000
 5610.00    2.50088   2.40796   21.281
 5611.00    2.49779   2.41277   21.325
 5612.00    2.49671   2.40880   21.310
 5613.00    2.45082   2.37391   21.246
 5614.00    2.37194   2.30040   21.330
 5615.00    2.28907   2.21547   21.742
 5616.00    2.27723   2.16740   -1.000
 5617.00    2.32027   2.17845   -1.000
 5618.00    2.37453   2.22470   -1.000
 5619.00    2.38239   2.26699   -1.000
 5620.00    2.39449   2.29222   -1.000
 5621.00    2.40762   2.30923   -1.000
 5622.00    2.42021   2.31389   -1.000
 5623.00    2.38393   2.29190   -1.000
 5624.00    2.32270   2.24922   21.846
 5625.00    2.31376   2.21608   -1.000
 5626.00    2.35317   2.21975   -1.000
 5627.00    2.39221   2.25726   -1.000
 5628.00    2.42875   2.30363   -1.000
 5629.00    2.46278   2.34268   -1.000
 5630.00    2.48815   2.37065   -1.000
 5631.00    2.49529   2.38489   -1.000
 5632.00    2.50234   2.38415   -1.000
 5633.00    2.48210   2.37105   -1.000
 5634.00    2.45973   2.34961   -1.000
 5635.00    2.42612   2.32381   -1.000
 5636.00    2.40016   2.29848   -1.000
 5637.00    2.39096   2.28013   -1.000
 5638.00    2.39426   2.27381   -1.000
 5639.00    2.39443   2.27628   -1.000
 5640.00    2.39346   2.27731   -1.000
 5641.00    2.38592   2.27174   -1.000
 5642.00    2.38621   2.26660   -1.000
 5643.00    2.39576   2.27188   -1.000
 5644.00    2.40796   2.28699   -1.000
 5645.00    2.41652   2.30374   -1.000
 5646.00    2.43451   2.31731   -1.000
 5647.00    2.45079   2.32538   -1.000
 5648.00    2.45994   2.32536   -1.000
 5649.00    2.45873   2.31970   -1.000
 5650.00    2.45847   2.31775   -1.000
 5651.00    2.46986   2.32655   -1.000
 5652.00    2.47182   2.34012   -1.000
 5653.00    2.47166   2.34345   -1.000
 5654.00    2.45326   2.33062   -1.000
 5655.00    2.42132   2.30870   -1.000
 5656.00    2.39943   2.28051   -1.000
 5657.00    2.33966   2.24127   -1.000
 5658.00    2.27361   2.19688   22.339
 5659.00    2.27985   2.17115   -1.000
 5660.00    2.34300   2.18162   -1.000
 5661.00    2.37497   2.21211   -1.000
 5662.00    2.36636   2.23482   -1.000
 5663.00    2.38087   2.25167   -1.000
 5664.00    2.42541   2.27810   -1.000
 5665.00    2.45189   2.30706   -1.000
 5666.00    2.45350   2.31981   -1.000
 5667.00    2.43228   2.31223   -1.000
 5668.00    2.40153   2.29824   -1.000
 5669.00    2.40595   2.29391   -1.000
 5670.00    2.42231   2.30360   -1.000
 5671.00    2.44655   2.32479   -1.000
 5672.00    2.47095   2.35445   -1.000
 5673.00    2.50545   2.38449   -1.000
 5674.00    2.51403   2.40391   -1.000
 5675.00    2.51332   2.41011   -1.000
 5676.00    2.52554   2.40976   -1.000
 5677.00    2.52016   2.40830   -1.000
 5678.00    2.51261   2.40335   -1.000
 5679.00    2.49469   2.39006   -1.000
 5680.00    2.49111   2.36935   -1.000
 5681.00    2.46853   2.34420   -1.000
 5682.00    2.42298   2.31671   -1.000
 5683.00    2.40703   2.29555   -1.000
 5684.00    2.43070   2.29161   -1.000
 5685.00    2.43759   2.29939   -1.000
 5686.00    2.42337   2.30150   -1.000
 5687.00    2.39161   2.29339   -1.000
 5688.00    2.38451   2.28801   -1.000
 5689.00    2.41648   2.29942   -1.000
 5690.00    2.46628   2.32825   -1.000
 5691.00    2.51100   2.36235   -1.000
 5692.00    2.53670   2.38945   -1.000
 5693.00    2.54394   2.40363   -1.000
 5694.00    2.54198   2.40522   -1.000
 5695.00    2.52715   2.39927   -1.000
 5696.00    2.51379   2.38945   -1.000
 5697.00    2.49074   2.37406   -1.000
 5698.00    2.46545   2.35160   -1.000
 5699.00    2.43211   2.32613   -1.000
 5700.00    2.39623   2.30260   -1.000
 5701.00    2.38591   2.28420   -1.000
 5702.00    2.38878   2.27766   -1.000
 5703.00    2.39951   2.28771   -1.000
 5704.00    2.41382   2.30306   -1.000
 5705.00    2.40934   2.30384   -1.000
 5706.00    2.36212   2.28127   22.040
 5707.00    2.30876   2.24354   22.168
 5708.00    2.28257   2.20698   22.467
 5709.00    2.28556   2.18231   -1.000
 5710.00    2.28322   2.17388   -1.000
 5711.00    2.29861   2.18542   -1.000
 5712.00    2.34724   2.21868   -1.000
 5713.00    2.40565   2.26991   -1.000
 5714.00    2.46813   2.32476   -1.000
 5715.00    2.50162   2.36563   -1.000
 5716.00    2.51582   2.38926   -1.000
 5717.00    2.53417   2.40357   -1.000
 5718.00    2.54617   2.41480   -1.000
 5719.00    2.55180   2.42727   -1.000
 5720.00    2.56383   2.44334   -1.000
 5721.00    2.56950   2.46144   -1.000
 5722.00    2.58041   2.47770   -1.000
 5723.00    2.59200   2.48808   -1.000
 5724.00    2.59133   2.48769   -1.000
 5725.00    2.57881   2.47217   -1.000
 5726.00    2.53744   2.44500   -1.000
 5727.00    2.50896   2.42095   21.305
 5728.00    2.52084   2.41466   -1.000
 5729.00    2.54548   2.42333   -1.000
 5730.00    2.54287   2.42915   -1.000
 5731.00    2.53743   2.42418   -1.000
 5732.00    2.53445   2.42076   -1.000
 5733.00    2.57039   2.43315   -1.000
 5734.00    2.59988   2.45745   -1.000
 5735.00    2.58789   2.47475   -1.000
 5736.00    2.58085   2.47447   -1.000
 5737.00    2.56750   2.46348   -1.000
 5738.00    2.55545   2.45366   -1.000
 5739.00    2.55264   2.45038   -1.000
 5740.00    2.54806   2.45016   -1.000
 5741.00    2.55163   2.44814   -1.000
 5742.00    2.55994   2.44539   -1.000
 5743.00    2.56452   2.44850   -1.000
 5744.00    2.58183   2.46152   -1.000
 5745.00    2.57901   2.47644   -1.000
 5746.00    2.57478   2.47814   -1.000
 5747.00    2.55928   2.46232   -1.000
 5748.00    2.53667   2.44449   -1.000
 5749.00    2.54968   2.44328   -1.000
 5750.00    2.56974   2.45402   -1.000
 5751.00    2.55486   2.45194   -1.000
 5752.00    2.50786   2.42162   21.350
 5753.00    2.47132   2.37814   -1.000
 5754.00    2.47166   2.35641   -1.000
 5755.00    2.51727   2.37633   -1.000
 5756.00    2.56683   2.42588   -1.000
 5757.00    2.60608   2.47337   -1.000
 5758.00    2.60599   2.49300   -1.000
 5759.00    2.57224   2.47919   -1.000
 5760.00    2.55070   2.44142   -1.000
 5761.00    2.51222   2.39763   -1.000
 5762.00    2.47875   2.36869   -1.000
 5763.00    2.48785   2.37184   -1.000
 5764.00    2.53646   2.40982   -1.000
 5765.00    2.59050   2.46295   -1.000
 5766.00    2.62638   2.50353   -1.000
 5767.00    2.60900   2.52159   -1.000
 5768.00    2.61383   2.52409   -1.000
 5769.00    2.61261   2.51797   -1.000
 5770.00    2.60414   2.50711   -1.000
 5771.00    2.57981   2.49441   21.064
 5772.00    2.55820   2.48148   21.132
 5773.00    2.55415   2.46957   21.243
 5774.00    2.53838   2.46140   21.374
 5775.00    2.54805   2.46032   -1.000
 5776.00    2.55931   2.46684   -1.000
 5777.00    2.56957   2.47297   -1.000
 5778.00    2.54849   2.46381   21.333
 5779.00    2.49421   2.42926   21.298
 5780.00    2.39840   2.37389   21.355
 5781.00    2.32020   2.31724   21.631
 5782.00    2.28662   2.28054   22.101
 5783.00    2.28908   2.26951   22.425
 5784.00    2.31977   2.27282   22.431
 5785.00    2.35662   2.28266   22.344
 5786.00    2.41651   2.30747   -1.000
 5787.00    2.50318   2.35023   -1.000
 5788.00    2.54894   2.39378   -1.000
 5789.00    2.55501   2.41954   -1.000
 5790.00    2.53754   2.42496   -1.000
 5791.00    2.53373   2.42297   -1.000
 5792.00    2.55294   2.43115   -1.000
 5793.00    2.58350   2.45640   -1.000
 5794.00    2.60738   2.48835   -1.000
 5795.00    2.60129   2.50806   -1.000
 5796.00    2.57940   2.50464   21.118
 5797.00    2.55173   2.48567   21.085
 5798.00    2.53841   2.47411   21.192
 5799.00    2.57966   2.48804   -1.000
 5800.00    2.64044   2.52261   -1.000
 5801.00    2.67471   2.55517   -1.000
 5802.00    2.65955   2.56466   -1.000
 5803.00    2.62466   2.54693   20.640
 5804.00    2.60841   2.51481   -1.000
 5805.00    2.59476   2.48818   -1.000
 5806.00    2.60320   2.47933   -1.000
 5807.00    2.62038   2.48614   -1.000
 5808.00    2.63059   2.49980   -1.000
 5809.00    2.63080   2.51395   -1.000
 5810.00    2.64014   2.52639   -1.000
 5811.00    2.64362   2.53503   -1.000
 5812.00    2.63796   2.53602   -1.000
 5813.00    2.63987   2.52600   -1.000
 5814.00    2.61705   2.50496   -1.000
 5815.00    2.59718   2.47964   -1.000
 5816.00    2.59146   2.46481   -1.000
 5817.00    2.59961   2.47427   -1.000
 5818.00    2.63363   2.50591   -1.000
 5819.00    2.66644   2.54118   -1.000
 5820.00    2.68603   2.56251   -1.000
 5821.00    2.69496   2.56558   -1.000
 5822.00    2.69655   2.55757   -1.000
 5823.00    2.67970   2.54867   -1.000
 5824.00    2.68717   2.54554   -1.000
 5825.00    2.69019   2.54838   -1.000
 5826.00    2.68854   2.55352   -1.000
 5827.00    2.69408   2.55863   -1.000
 5828.00    2.69680   2.56403   -1.000
 5829.00    2.70435   2.56998   -1.000
 5830.00    2.71173   2.57399   -1.000
 5831.00    2.69976   2.57314   -1.000
 5832.00    2.69030   2.56700   -1.000
 5833.00    2.68831   2.55654   -1.000
 5834.00    2.68482   2.54437   -1.000
 5835.00    2.68200   2.53590   -1.000
 5836.00    2.68437   2.53458   -1.000
 5837.00    2.67790   2.53683   -1.000
 5838.00    2.67471   2.53924   -1.000
 5839.00    2.67519   2.54609   -1.000
 5840.00    2.67352   2.56098   -1.000
 5841.00    2.70045   2.57883   -1.000
 5842.00    2.71338   2.59052   -1.000
 5843.00    2.71241   2.59024   -1.000
 5844.00    2.69639   2.57762   -1.000
 5845.00    2.66559   2.55592   -1.000
 5846.00    2.63267   2.53067   -1.000
 5847.00    2.62806   2.50966   -1.000
 5848.00    2.63527   2.49940   -1.000
 5849.00    2.63538   2.49936   -1.000
 5850.00    2.62453   2.49934   -1.000
 5851.00    2.60216   2.48746   -1.000
 5852.00    2.57825   2.46348   -1.000
 5853.00    2.55869   2.44006   -1.000
 5854.00    2.56242   2.42733   -1.000
 5855.00    2.56931   2.41926   -1.000
 5856.00    2.54741   2.40070   -1.000
 5857.00    2.51539   2.37163   -1.000
 5858.00    2.50798   2.35376   -1.000
 5859.00    2.54413   2.36560   -1.000
 5860.00    2.58292   2.40079   -1.000
 5861.00    2.58965   2.43590   -1.000
 5862.00    2.59787   2.45603   -1.000
 5863.00    2.62309   2.46410   -1.000
 5864.00    2.62011   2.46670   -1.000
 5865.00    2.60656   2.46424   -1.000
 5866.00    2.59534   2.45605   -1.000
 5867.00    2.58324   2.45137   -1.000
 5868.00    2.61176   2.46286   -1.000
 5869.00    2.64396   2.48821   -1.000
 5870.00    2.68953   2.51137   -1.000
 5871.00    2.68289   2.52113   -1.000
 5872.00    2.66290   2.51848   -1.000
 5873.00    2.65853   2.51170   -1.000
 5874.00    2.66420   2.50784   -1.000
 5875.00    2.66295   2.50673   -1.000
 5876.00    2.66177   2.50235   -1.000
 5877.00    2.64240   2.48901   -1.000
 5878.00    2.62111   2.46738   -1.000
 5879.00    2.60041   2.44372   -1.000
 5880.00    2.59419   2.42619   -1.000
 5881.00    2.59758   2.42015   -1.000
 5882.00    2.60060   2.42237   -1.000
 5883.00    2.59787   2.42313   -1.000
 5884.00    2.59284   2.41839   -1.000
 5885.00    2.58837   2.40928   -1.000
 5886.00    2.53552   2.38062   -1.000
 5887.00    2.40063   2.29882   -1.000
 5888.00    2.14280   2.14830   21.877
 5889.00    1.74130   1.96848   -1.000
 5890.00    1.36209   1.84418   -1.000
 5891.00    1.17402   1.83699   -1.000
 5892.00    1.35204   1.92380   -1.000
 5893.00    1.73593   2.01529   -1.000
 5894.00    1.95300   2.03621   24.680
 5895.00    1.86074   1.99207   24.093
 5896.00    1.62696   1.95504   -1.000
 5897.00    1.53863   1.99277   -1.000
 5898.00    1.73838   2.09936   -1.000
 5899.00    2.07769   2.21531   24.341
 5900.00    2.35767   2.30341   23.480
 5901.00    2.51307   2.36235   -1.000
 5902.00    2.56528   2.39904   -1.000
 5903.00    2.58334   2.41826   -1.000
 5904.00    2.59305   2.42544   -1.000
 5905.00    2.58257   2.42648   -1.000
 5906.00    2.58218   2.42830   -1.000
 5907.00    2.59985   2.43637   -1.000
 5908.00    2.60562   2.44956   -1.000
 5909.00    2.60709   2.46211   -1.000
 5910.00    2.60943   2.47068   -1.000
 5911.00    2.60927   2.47228   -1.000
 5912.00    2.59654   2.46058   -1.000
 5913.00    2.55935   2.43305   -1.000
 5914.00    2.52685   2.39923   -1.000
 5915.00    2.51575   2.37702   -1.000
 5916.00    2.53386   2.37780   -1.000
 5917.00    2.57416   2.39788   -1.000
 5918.00    2.60197   2.42577   -1.000
 5919.00    2.61853   2.45032   -1.000
 5920.00    2.61867   2.46394   -1.000
 5921.00    2.60320   2.46603   -1.000
 5922.00    2.60378   2.46241   -1.000
 5923.00    2.60916   2.46213   -1.000
 5924.00    2.62160   2.47010   -1.000
 5925.00    2.62945   2.48277   -1.000
 5926.00    2.63002   2.49150   -1.000
 5927.00    2.62575   2.48838   -1.000
 5928.00    2.60520   2.47153   -1.000
 5929.00    2.59291   2.44974   -1.000
 5930.00    2.58729   2.43881   -1.000
 5931.00    2.60822   2.44677   -1.000
 5932.00    2.63970   2.46263   -1.000
 5933.00    2.63587   2.46739   -1.000
 5934.00    2.63022   2.45841   -1.000
 5935.00    2.61299   2.45175   -1.000
 5936.00    2.61941   2.46135   -1.000
 5937.00    2.65080   2.48263   -1.000
 5938.00    2.65277   2.49866   -1.000
 5939.00    2.63904   2.49877   -1.000
 5940.00    2.62414   2.48348   -1.000
 5941.00    2.61327   2.46162   -1.000
 5942.00    2.60232   2.44788   -1.000
 5943.00    2.61787   2.45238   -1.000
 5944.00    2.64026   2.47120   -1.000
 5945.00    2.64318   2.49026   -1.000
 5946.00    2.63409   2.49665   -1.000
 5947.00    2.62967   2.48539   -1.000
 5948.00    2.62201   2.46427   -1.000
 5949.00    2.60394   2.44977   -1.000
 5950.00    2.59012   2.45008   -1.000
 5951.00    2.60577   2.45560   -1.000
 5952.00    2.59163   2.45465   -1.000
 5953.00    2.56991   2.45058   -1.000
 5954.00    2.58905   2.45168   -1.000
 5955.00    2.60143   2.45557   -1.000
 5956.00    2.60440   2.45363   -1.000
 5957.00    2.60270   2.44780   -1.000
 5958.00    2.60219   2.45132   -1.000
 5959.00    2.60900   2.47068   -1.000
 5960.00    2.63518   2.49804   -1.000
 5961.00    2.66738   2.52151   -1.000
 5962.00    2.66880   2.53369   -1.000
 5963.00    2.66386   2.53323   -1.000
 5964.00    2.66401   2.52345   -1.000
 5965.00    2.64973   2.51075   -1.000
 5966.00    2.64946   2.50413   -1.000
 5967.00    2.65941   2.50943   -1.000
 5968.00    2.67073   2.52323   -1.000
 5969.00    2.68197   2.53749   -1.000
 5970.00    2.68472   2.54878   -1.000
 5971.00    2.68051   2.55647   -1.000
 5972.00    2.67265   2.55820   -1.000
 5973.00    2.66556   2.55079   -1.000
 5974.00    2.65128   2.53207   -1.000
 5975.00    2.62741   2.50345   -1.000
 5976.00    2.61196   2.47353   -1.000
 5977.00    2.60029   2.45523   -1.000
 5978.00    2.59526   2.45628   -1.000
 5979.00    2.62562   2.47390   -1.000
 5980.00    2.65756   2.49611   -1.000
 5981.00    2.66039   2.50598   -1.000
 5982.00    2.62732   2.49241   -1.000
 5983.00    2.59004   2.46060   -1.000
 5984.00    2.58638   2.43151   -1.000
 5985.00    2.59029   2.42535   -1.000
 5986.00    2.60194   2.44426   -1.000
 5987.00    2.63297   2.47258   -1.000
 5988.00    2.65071   2.49559   -1.000
 5989.00    2.65984   2.50969   -1.000
 5990.00    2.66216   2.51551   -1.000
 5991.00    2.65574   2.51748   -1.000
 5992.00    2.65289   2.52467   -1.000
 5993.00    2.67172   2.54093   -1.000
 5994.00    2.68688   2.55609   -1.000
 5995.00    2.68232   2.55551   -1.000
 5996.00    2.65498   2.53621   -1.000
 5997.00    2.63852   2.51025   -1.000
 5998.00    2.64202   2.49426   -1.000
 5999.00    2.63665   2.49511   -1.000
 6000.00    2.63075   2.50509   -1.000
 6001.00    2.63787   2.51064   -1.000
 6002.00    2.63230   2.50658   -1.000
 6003.00    2.61611   2.49960   -1.000
 6004.00    2.63193   2.49745   -1.000
 6005.00    2.62812   2.49515   -1.000
 6006.00    2.61107   2.47994   -1.000
 6007.00    2.58128   2.45423   -1.000
 6008.00    2.56586   2.43926   -1.000
 6009.00    2.57639   2.45201   -1.000
 6010.00    2.59165   2.48296   -1.000
 6011.00    2.60032   2.50352   -1.000
 6012.00    2.58444   2.49934   -1.000
 6013.00    2.58882   2.48345   -1.000
 6014.00    2.60408   2.47400   -1.000
 6015.00    2.60188   2.47442   -1.000
 6016.00    2.59959   2.47610   -1.000
 6017.00    2.60193   2.47456   -1.000
 6018.00    2.59855   2.47156   -1.000
 6019.00    2.58942   2.46501   -1.000
 6020.00    2.58252   2.45476   -1.000
 6021.00    2.58262   2.45000   -1.000
 6022.00    2.58989   2.45752   -1.000
 6023.00    2.61729   2.47402   -1.000
 6024.00    2.64544   2.49403   -1.000
 6025.00    2.64498   2.51426   -1.000
 6026.00    2.65775   2.53231   -1.000
 6027.00    2.68446   2.54763   -1.000
 6028.00    2.69292   2.56238   -1.000
 6029.00    2.69758   2.57668   -1.000
 6030.00    2.70023   2.58712   -1.000
 6031.00    2.71087   2.59390   -1.000
 6032.00    2.72711   2.60157   -1.000
 6033.00    2.73721   2.61222   -1.000
 6034.00    2.73697   2.62392   -1.000
 6035.00    2.73009   2.63264   -1.000
 6036.00    2.71682   2.63438   -1.000
 6037.00    2.71412   2.62829   -1.000
 6038.00    2.70796   2.61694   -1.000
 6039.00    2.68150   2.60423   -1.000
 6040.00    2.66537   2.59444   21.496
 6041.00    2.67606   2.59042   -1.000
 6042.00    2.70574   2.59302   -1.000
 6043.00    2.71918   2.60258   -1.000
 6044.00    2.71443   2.61788   -1.000
 6045.00    2.72563   2.63309   -1.000
 6046.00    2.74121   2.64268   -1.000
 6047.00    2.73184   2.64726   -1.000
 6048.00    2.71585   2.64923   21.297
 6049.00    2.71934   2.64995   21.271
 6050.00    2.73020   2.64903   -1.000
 6051.00    2.73657   2.64411   -1.000
 6052.00    2.72660   2.63212   -1.000
 6053.00    2.70833   2.61378   -1.000
 6054.00    2.70257   2.59363   -1.000
 6055.00    2.70014   2.57617   -1.000
 6056.00    2.69165   2.56589   -1.000
 6057.00    2.69418   2.56733   -1.000
 6058.00    2.71200   2.58012   -1.000
 6059.00    2.71956   2.59665   -1.000
 6060.00    2.73021   2.60707   -1.000
 6061.00    2.73498   2.60396   -1.000
 6062.00    2.70067   2.58505   -1.000
 6063.00    2.67247   2.55491   -1.000
 6064.00    2.64986   2.52572   -1.000
 6065.00    2.64322   2.51475   -1.000
 6066.00    2.66944   2.53328   -1.000
 6067.00    2.62294   2.57503   -1.000
 6068.00    2.30712   2.61905    9.246
 6069.00    2.38234   2.64869   12.044
 6070.00    2.67170   2.66310   22.815
 6071.00    2.76211   2.66911   -1.000
 6072.00    2.80555   2.66936   -1.000
 6073.00    2.56765   2.66518   20.813
 6074.00    1.24318   2.65987   -1.000
 6075.00    1.76366   2.65212   -1.000
 6076.00    2.67649   2.63510   21.377
 6077.00    2.72679   2.60942   -1.000
 6078.00    2.67465   2.58399   -1.000
 6079.00    2.65518   2.56647   -1.000
 6080.00    2.63571   2.55639   -1.000
 6081.00    2.63520   2.54799   -1.000
 6082.00    2.65294   2.54103   -1.000
 6083.00    2.65597   2.53991   -1.000
 6084.00    2.66004   2.54489   -1.000
 6085.00    2.65926   2.55266   -1.000
 6086.00    2.66703   2.56175   -1.000
 6087.00    2.66789   2.56974   -1.000
 6088.00    2.66823   2.57053   -1.000
 6089.00    2.65511   2.56018   -1.000
 6090.00    2.63542   2.54384   -1.000
 6091.00    2.63752   2.53332   -1.000
 6092.00    2.65136   2.53633   -1.000
 6093.00    2.66453   2.55163   -1.000
 6094.00    2.69668   2.57281   -1.000
 6095.00    2.72738   2.59146   -1.000
 6096.00    2.72844   2.60214   -1.000
 6097.00    2.71588   2.60737   -1.000
 6098.00    2.71154   2.61186   -1.000
 6099.00    2.69604   2.60952   -1.000
 6100.00    2.66539   2.58474   -1.000
 6101.00    2.61262   2.53275   -1.000
 6102.00    2.56180   2.47613   -1.000
 6103.00    2.55166   2.45204   -1.000
 6104.00    2.59320   2.47560   -1.000
 6105.00    2.65640   2.52379   -1.000
 6106.00    2.69632   2.56483   -1.000
 6107.00    2.70039   2.58700   -1.000
 6108.00    2.68393   2.59858   -1.000
 6109.00    2.69221   2.60726   -1.000
 6110.00    2.70958   2.61181   -1.000
 6111.00    2.69636   2.61242   -1.000
 6112.00    2.68156   2.61596   22.005
 6113.00    2.70519   2.62564   -1.000
 6114.00    2.72128   2.63427   -1.000
 6115.00    2.70637   2.63355   -1.000
 6116.00    2.68923   2.62490   21.732
 6117.00    2.67043   2.61441   21.779
 6118.00    2.65870   2.59927   21.911
 6119.00    2.64381   2.56975   -1.000
 6120.00    2.60606   2.52481   -1.000
 6121.00    2.56749   2.47996   -1.000
 6122.00    2.56816   2.45986   -1.000
 6123.00    2.60371   2.47773   -1.000
 6124.00    2.64166   2.51892   -1.000
 6125.00    2.66236   2.55309   -1.000
 6126.00    2.65250   2.56431   -1.000
 6127.00    2.63514   2.56047   -1.000
 6128.00    2.63625   2.55818   -1.000
 6129.00    2.64563   2.57000   -1.000
 6130.00    2.67307   2.59614   -1.000
 6131.00    2.69767   2.62354   -1.000
 6132.00    2.70066   2.63510   21.982
 6133.00    2.68396   2.61685   -1.000
 6134.00    2.62915   2.56136   -1.000
 6135.00    2.55065   2.47670   -1.000
 6136.00    2.47714   2.39642   -1.000
 6137.00    2.46594   2.36435   -1.000
 6138.00    2.51534   2.39689   -1.000
 6139.00    2.56926   2.46373   -1.000
 6140.00    2.60651   2.51802   -1.000
 6141.00    2.62491   2.54172   -1.000
 6142.00    2.64177   2.55473   -1.000
 6143.00    2.65929   2.57795   -1.000
 6144.00    2.67886   2.60670   -1.000
 6145.00    2.68078   2.62478   22.370
 6146.00    2.68053   2.62407   22.103
 6147.00    2.67932   2.60777   -1.000
 6148.00    2.65841   2.58459   -1.000
 6149.00    2.62378   2.56432   22.200
 6150.00    2.62638   2.55512   -1.000
 6151.00    2.63741   2.55897   -1.000
 6152.00    2.65920   2.56869   -1.000
 6153.00    2.65014   2.57182   -1.000
 6154.00    2.62058   2.56269   22.339
 6155.00    2.60830   2.54796   22.268
 6156.00    2.60918   2.53704   -1.000
 6157.00    2.59788   2.52854   -1.000
 6158.00    2.56335   2.50924   22.587
 6159.00    2.52998   2.46365   -1.000
 6160.00    2.46738   2.38783   -1.000
 6161.00    2.36988   2.30268   23.233
 6162.00    2.31447   2.24750   -1.000
 6163.00    2.33467   2.24920   -1.000
 6164.00    2.40431   2.29923   -1.000
 6165.00    2.46411   2.36361   -1.000
 6166.00    2.49283   2.41015   -1.000
 6167.00    2.47962   2.42205   -1.000
 6168.00    2.43402   2.40302   23.510
 6169.00    2.40838   2.37607   23.530
 6170.00    2.42461   2.37158   23.765
 6171.00    2.46782   2.40060   -1.000
 6172.00    2.51138   2.44474   -1.000
 6173.00    2.52689   2.47848   23.597
 6174.00    2.52150   2.49421   23.215
 6175.00    2.53047   2.49932   23.135
 6176.00    2.54440   2.50204   23.170
 6177.00    2.54373   2.50837   23.134
 6178.00    2.54873   2.52002   23.083
 6179.00    2.56033   2.53342   23.028
 6180.00    2.57277   2.54563   22.929
 6181.00    2.57674   2.55769   22.834
 6182.00    2.58085   2.56826   22.760
 6183.00    2.58746   2.57106   22.664
 6184.00    2.58126   2.56169   22.590
 6185.00    2.55733   2.54101   22.605
 6186.00    2.52459   2.51371   22.679
 6187.00    2.50093   2.48619   22.828
 6188.00    2.47728   2.46074   23.062
 6189.00    2.46079   2.43302   23.308
 6190.00    2.44802   2.40262   23.535
 6191.00    2.43503   2.38439   23.721
 6192.00    2.45250   2.39675   23.985
 6193.00    2.49978   2.43902   -1.000
 6194.00    2.54535   2.49023   -1.000
 6195.00    2.56637   2.52913   23.541
 6196.00    2.58402   2.54678   23.079
 6197.00    2.58200   2.54287   22.874
 6198.00    2.54830   2.52198   22.815
 6199.00    2.52116   2.49867   22.909
 6200.00    2.51322   2.49226   23.147
 6201.00    2.53620   2.50968   23.368
 6202.00    2.56225   2.53933   23.409
 6203.00    2.56315   2.56514   23.231
 6204.00    2.56603   2.58004   22.947
 6205.00    2.57313   2.58682   22.808
 6206.00    2.57531   2.59114   22.801
 6207.00    2.58235   2.59428   22.777
 6208.00    2.58248   2.59302   22.761
 6209.00    2.57547   2.58361   22.823
 6210.00    2.56644   2.56408   22.856
 6211.00    2.54501   2.53282   22.917
 6212.00    2.50910   2.48961   23.099
 6213.00    2.46844   2.44163   23.294
 6214.00    2.43149   2.40442   23.505
 6215.00    2.42491   2.39083   23.825
 6216.00    2.44840   2.39953   24.113
 6217.00    2.46974   2.41563   -1.000
 6218.00    2.47424   2.42297   24.026
 6219.00    2.46598   2.41870   23.825
 6220.00    2.46545   2.41477   23.923
 6221.00    2.46978   2.42249   23.939
 6222.00    2.49339   2.43925   -1.000
 6223.00    2.52421   2.45524   -1.000
 6224.00    2.52603   2.46595   -1.000
 6225.00    2.49189   2.47283   25.197
 6226.00    2.46942   2.47501   23.977
 6227.00    2.49918   2.46511   23.565
 6228.00    2.49507   2.43545   -1.000
 6229.00    2.43923   2.38906   23.700
 6230.00    2.39148   2.34529   23.967
 6231.00    2.39406   2.32920   -1.000
 6232.00    2.43457   2.35179   -1.000
 6233.00    2.47598   2.40263   -1.000
 6234.00    2.51929   2.45916   -1.000
 6235.00    2.55701   2.49869   -1.000
 6236.00    2.56973   2.50843   -1.000
 6237.00    2.55327   2.49074   -1.000
 6238.00    2.52694   2.45914   -1.000
 6239.00    2.48988   2.42809   -1.000
 6240.00    2.46767   2.40598   -1.000
 6241.00    2.45817   2.39193   -1.000
 6242.00    2.43439   2.37926   -1.000
 6243.00    2.42640   2.36570   -1.000
 6244.00    2.43123   2.35778   -1.000
 6245.00    2.42951   2.36372   -1.000
 6246.00    2.44782   2.38673   -1.000
 6247.00    2.48951   2.42298   -1.000
 6248.00    2.52519   2.45971   -1.000
 6249.00    2.53469   2.47963   -1.000
 6250.00    2.51555   2.47203   23.788
 6251.00    2.47850   2.43976   23.688
 6252.00    2.43205   2.39869   23.833
 6253.00    2.40314   2.36729   24.209
 6254.00    2.40298   2.35165   24.572
 6255.00    2.40462   2.34269   -1.000
 6256.00    2.39164   2.33034   -1.000
 6257.00    2.36760   2.31744   24.890
 6258.00    2.36803   2.31800   25.028
 6259.00    2.40116   2.34212   -1.000
 6260.00    2.44556   2.38622   -1.000
 6261.00    2.50132   2.43674   -1.000
 6262.00    2.53977   2.47845   -1.000
 6263.00    2.54666   2.50079   24.243
 6264.00    2.53437   2.50311   23.886
 6265.00    2.52566   2.49651   23.673
 6266.00    2.52929   2.49442   23.763
 6267.00    2.53223   2.49901   23.947
 6268.00    2.54145   2.50226   23.934
 6269.00    2.54138   2.50080   23.770
 6270.00    2.52985   2.50114   23.757
 6271.00    2.53021   2.50859   23.879
 6272.00    2.53751   2.51935   23.904
 6273.00    2.54391   2.52440   23.832
 6274.00    2.54449   2.51778   23.764
 6275.00    2.54303   2.50026   23.785
 6276.00    2.53879   2.47601   -1.000
 6277.00    2.51914   2.44856   -1.000
 6278.00    2.48042   2.42088   -1.000
 6279.00    2.42461   2.39812   24.975
 6280.00    2.35886   2.38829   25.508
 6281.00    2.32315   2.39824   25.769
 6282.00    2.32209   2.42680   25.754
 6283.00    2.33702   2.46421   25.450
 6284.00    2.34377   2.49938   25.010
 6285.00    2.34105   2.52763   24.607
 6286.00    2.35831   2.55056   24.282
 6287.00    2.41082   2.56907   24.052
 6288.00    2.48109   2.57857   23.844
 6289.00    2.51647   2.57333   23.657
 6290.00    2.52269   2.55461   23.568
 6291.00    2.53241   2.53197   23.634
 6292.00    2.52785   2.51572   23.815
 6293.00    2.51693   2.50832   24.006
 6294.00    2.50854   2.50267   24.101
 6295.00    2.50847   2.48957   24.128
 6296.00    2.50463   2.46905   24.164
 6297.00    2.49363   2.45201   24.297
 6298.00    2.51348   2.44665   -1.000
 6299.00    2.55833   2.44749   -1.000
 6300.00    2.59072   2.44397   -1.000
 6301.00    2.66029   2.43648   -1.000
 6302.00    2.80284   2.43674   -1.000
 6303.00    2.89588   2.45263   -1.000
 6304.00    2.84625   2.47992   -1.000
 6305.00    2.72312   2.51052   -1.000
 6306.00    2.64596   2.54011   -1.000
 6307.00    2.63150   2.56556   -1.000
 6308.00    2.61472   2.58051   23.772
 6309.00    2.59682   2.57955   23.565
 6310.00    2.58952   2.56557   23.456
 6311.00    2.56513   2.54759   23.514
 6312.00    2.54914   2.53159   23.658
 6313.00    2.55076   2.51605   23.779
 6314.00    2.52577   2.49736   23.870
 6315.00    2.50143   2.47727   23.924
 6316.00    2.49436   2.46067   24.062
 6317.00    2.48997   2.45018   24.214
 6318.00    2.48851   2.44994   24.230
 6319.00    2.50704   2.46586   24.205
 6320.00    2.53881   2.49488   24.216
 6321.00    2.55288   2.52521   24.179
 6322.00    2.57495   2.55042   23.960
 6323.00    2.60968   2.57237   23.694
 6324.00    2.63651   2.59160   23.551
 6325.00    2.64812   2.60463   23.474
 6326.00    2.64329   2.60982   23.366
 6327.00    2.64277   2.61059   23.268
 6328.00    2.64624   2.61091   23.235
 6329.00    2.65223   2.61168   23.162
 6330.00    2.65920   2.61397   23.123
 6331.00    2.65583   2.61957   23.149
 6332.00    2.65432   2.62321   23.164
 6333.00    2.65012   2.61221   23.121
 6334.00    2.62540   2.58077   23.058
 6335.00    2.58423   2.54129   23.083
 6336.00    2.56272   2.51621   23.148
 6337.00    2.57494   2.51811   23.489
 6338.00    2.60145   2.54145   -1.000
 6339.00    2.63080   2.57228   -1.000
 6340.00    2.66126   2.59713   -1.000
 6341.00    2.67665   2.60561   -1.000
 6342.00    2.66301   2.59532   -1.000
 6343.00    2.63931   2.57644   -1.000
 6344.00    2.63522   2.56586   -1.000
 6345.00    2.65275   2.57387   -1.000
 6346.00    2.68506   2.59683   -1.000
 6347.00    2.70872   2.62402   -1.000
 6348.00    2.71493   2.64758   -1.000
 6349.00    2.72283   2.66412   -1.000
 6350.00    2.72135   2.67213   22.695
 6351.00    2.71584   2.67036   22.666
 6352.00    2.70557   2.65736   22.643
 6353.00    2.68689   2.63425   22.631
 6354.00    2.66015   2.60794   22.701
 6355.00    2.63667   2.58686   22.806
 6356.00    2.63344   2.57101   -1.000
 6357.00    2.62307   2.55242   -1.000
 6358.00    2.60056   2.52769   -1.000
 6359.00    2.58506   2.50267   -1.000
 6360.00    2.57850   2.48373   -1.000
 6361.00    2.58385   2.47285   -1.000
 6362.00    2.59890   2.47183   -1.000
 6363.00    2.63272   2.48376   -1.000
 6364.00    2.68842   2.50854   -1.000
 6365.00    2.74391   2.54146   -1.000
 6366.00    2.79907   2.57639   -1.000
 6367.00    2.83089   2.60776   -1.000
 6368.00    2.81100   2.63059   -1.000
 6369.00    2.77215   2.64342   -1.000
 6370.00    2.73957   2.65133   -1.000
 6371.00    2.72320   2.66157   -1.000
 6372.00    2.73912   2.67562   -1.000
 6373.00    2.75350   2.68825   -1.000
 6374.00    2.74519   2.69411   22.579
 6375.00    2.73519   2.69261   22.574
 6376.00    2.72820   2.68515   22.618
 6377.00    2.72196   2.67222   22.650
 6378.00    2.71186   2.65631   22.721
 6379.00    2.69024   2.64309   22.825
 6380.00    2.67948   2.63725   22.965
 6381.00    2.69605   2.63927   -1.000
 6382.00    2.70536   2.64573   -1.000
 6383.00    2.70407   2.65204   23.157
 6384.00    2.70740   2.65683   23.175
 6385.00    2.70047   2.66274   23.134
 6386.00    2.70086   2.67125   23.165
 6387.00    2.71632   2.67955   23.251
 6388.00    2.70524   2.68383   23.260
 6389.00    2.68116   2.68108   23.288
 6390.00    2.66750   2.66669   23.366
 6391.00    2.64063   2.63720   23.507
 6392.00    2.60135   2.59966   23.702
 6393.00    2.56604   2.57432   23.935
 6394.00    2.55004   2.57962   24.264
 6395.00    2.56886   2.61207   24.549
 6396.00    2.59174   2.64573   24.591
 6397.00    2.59036   2.65358   24.339
 6398.00    2.57322   2.62828   24.140
 6399.00    2.53488   2.58925   24.221
 6400.00    2.49881   2.57043   24.499
 6401.00    2.50702   2.59175   24.987
 6402.00    2.54582   2.64055   25.358
 6403.00    2.57574   2.68624   25.278
 6404.00    2.58515   2.70736   24.917
 6405.00    2.57443   2.70059   24.663
 6406.00    2.54342   2.67570   24.659
 6407.00    2.49752   2.64925   24.772
 6408.00    2.46805   2.63493   25.032
 6409.00    2.45883   2.63319   25.420
 6410.00    2.44534   2.63388   25.741
 6411.00    2.42744   2.63116   -1.000
 6412.00    2.40706   2.62982   -1.000
 6413.00    2.39663   2.63551   -1.000
 6414.00    2.39218   2.64694   -1.000
 6415.00    2.38401   2.65910   -1.000
 6416.00    2.37823   2.66645   -1.000
 6417.00    2.36607   2.66240   -1.000
 6418.00    2.34453   2.64299   -1.000
 6419.00    2.31863   2.61404   -1.000
 6420.00    2.27829   2.59251   -1.000
 6421.00    2.24781   2.59565   -1.000
 6422.00    2.25614   2.62523   -1.000
 6423.00    2.26936   2.66516   -1.000
 6424.00    2.26243   2.69792   -1.000
 6425.00    2.25361   2.71837   -1.000
 6426.00    2.25203   2.72868   -1.000
 6427.00    2.24733   2.72646   -1.000
 6428.00    2.21881   2.70499   -1.000
