###################################################################
## OUTPUT of StarlightChains_v04.for    [Cid@UFSC - 01/Apr/2007] ##
###################################################################

## Some input info
NGC5927_b_1.cxt                          [arq_obs]
Base.BC03.S                              [arq_base]
NGC5927_b_1.msk                          [arq_masks]
StCv04.C99.config                        [arq_config]
  150                                    [N_base]
    0                                    [N_YAV_components = # of components with extra extinction!]
    0                                    [i_FitPowerLaw (1/0 = Yes/No)]
-9.99                                    [alpha_PowerLaw]
CCM                                      [red_law_option]
 1.458241                                [q_norm = A(l_norm)/A(V)]

## (Re)Sampling Parameters
 3359.00                                 [l_ini (A)]
 6428.00                                 [l_fin (A)]
    1.00                                 [dl    (A)]     (OBS: dl_cushion =    50.00 A)

## Normalization info
 4020.00                                 [l_norm (A) - for base]
 4010.00                                 [llow_norm (A) - window for f_obs]
 4060.00                                 [lupp_norm (A) - window for f_obs]
5.211403E-15                             [fobs_norm (in input units)]

## S/N
 4730.00                                 [llow_SN (A) - window for S/N]
 4780.00                                 [lupp_SN (A) - window for S/N]
  32.308                                 [S/N in S/N window]
  18.819                                 [S/N in norm. window]
 338.726                                 [S/N_err in S/N window]
 197.303                                 [S/N_err in norm. window]
  1.0000                                 [fscale_chi2]

## etc...
  2147483632                             [idum_orig]
  3064                                   [NOl_eff]
  1289                                   [Nl_eff]
  1775    NSIGMA                         [Ntot_cliped & clip_method]
  4167450                                [Nglobal_steps]
   7                                     [N_chains]
  24                                     [NEX0s_base = N_base in EX0s-fits]
 0   0   1      139   2.0   4.522E+02    [Clip-Bug, RC-Crash & Burn-In warning-flags, n_censored_weights, wei_nsig_threshold & wei_limit]
   164    163.847    163.835      0.012  [idt_all, wdt_TotTime, wdt_UsrTime & wdt_SysTime (sec)]

## Synthesis Results - Best model ##

 3.07885E+00                             [chi2/Nl_eff]
     2.30083                             [adev (%)]

    99.74208                             [sum-of-x (%)]
 2.75208E-14                             [Flux_tot (units of input spectrum!)]
 1.75439E-09                             [Mini_tot (???)]
 8.77085E-10                             [Mcor_tot (???)]

  -7.11                                  [v0_min  (km/s)]
  13.72                                  [vd_min  (km/s)]
 1.2409                                  [AV_min  (mag)]
 0.0000                                  [YAV_min (mag)]

# j     x_j(%)      Mini_j(%)     Mcor_j(%)     age_j(yr)     Z_j      (L/M)_j    YAV?  Mstars   component_j        a/Fe...       SSP_chi2r SSP_adev(%)   SSP_AV   SSP_x(%)
  1      1.7860     3.4423E-03    6.8855E-03    1.000000E+06  0.00010  8.160E-03    0   1.0000   age020_m22            0.0000     2.9201E+03    35.2899   4.0000    98.5688
  2     12.0983     3.9982E-03    7.9974E-03    3.160000E+06  0.00010  4.759E-02    0   1.0000   age045_m22            0.0000     4.2651E+02     8.7905   3.5003    97.6678
  3      9.7640     7.9483E-03    1.5234E-02    5.010000E+06  0.00010  1.932E-02    0   0.9582   age055_m22            0.0000     5.8915E+02    16.8251   3.9018    86.4817
  4      0.0000     0.0000E+00    0.0000E+00    6.610000E+06  0.00010  9.973E-03    0   0.9297   age061_m22            0.0000     2.9872E+03    34.4689   4.0000   101.4331
  5      0.4715     9.6426E-04    1.7417E-03    8.710000E+06  0.00010  7.690E-03    0   0.9030   age067_m22            0.0000     2.9225E+03    34.2451   4.0000   101.7800
  6      0.6257     1.5436E-03    2.7486E-03    1.000000E+07  0.00010  6.375E-03    0   0.8902   age070_m22            0.0000     2.9214E+03    34.4594   4.0000   101.9799
  7      0.0000     0.0000E+00    0.0000E+00    1.445000E+07  0.00010  4.874E-03    0   0.8589   age078_m22            0.0000     2.2863E+03    30.4208   4.0000   103.4064
  8      0.0000     0.0000E+00    0.0000E+00    2.512000E+07  0.00010  4.103E-03    0   0.8174   age090_m22            0.0000     1.3177E+03    21.4089   4.0000   104.9340
  9      0.0000     0.0000E+00    0.0000E+00    4.000000E+07  0.00010  3.654E-03    0   0.7830   age104_m22            0.0000     9.4782E+02    15.2991   4.0000   104.6542
 10      0.0000     0.0000E+00    0.0000E+00    5.500000E+07  0.00010  3.093E-03    0   0.7597   age110_m22            0.0000     8.5586E+02    13.5112   4.0000   104.2017
 11      0.0000     0.0000E+00    0.0000E+00    1.015200E+08  0.00010  2.431E-03    0   0.7138   age116_m22            0.0000     7.3436E+02     9.3378   4.0000   100.7938
 12      0.0000     0.0000E+00    0.0000E+00    1.609000E+08  0.00010  1.319E-03    0   0.6775   age120_m22            0.0000     6.8149E+02     9.3345   3.6938    99.7886
 13      0.0000     0.0000E+00    0.0000E+00    2.861200E+08  0.00010  1.075E-03    0   0.6412   age125_m22            0.0000     9.8098E+02    10.1780   3.7583   101.6941
 14      0.0000     0.0000E+00    0.0000E+00    5.088000E+08  0.00010  7.183E-04    0   0.6083   age130_m22            0.0000     1.0575E+03    10.4393   3.5218   103.0413
 15      0.0000     0.0000E+00    0.0000E+00    9.047900E+08  0.00010  4.524E-04    0   0.5785   age135_m22            0.0000     1.0440E+03    10.4945   3.3126   104.2915
 16      0.0000     0.0000E+00    0.0000E+00    1.278050E+09  0.00010  3.018E-04    0   0.5588   age138_m22            0.0000     6.9100E+02     8.9849   2.7717   103.5968
 17      0.0000     0.0000E+00    0.0000E+00    1.434000E+09  0.00010  2.691E-04    0   0.5532   age139_m22            0.0000     6.2152E+02     8.6632   2.6119   103.2484
 18      0.0006     5.5673E-05    5.8976E-05    2.500000E+09  0.00010  1.582E-04    0   0.5296   age150_m22            0.0000     5.9929E+02     8.7379   2.5049   104.2656
 19      0.0000     0.0000E+00    0.0000E+00    4.250000E+09  0.00010  1.007E-04    0   0.5110   age158_m22            0.0000     4.7066E+02     7.8965   2.3304   103.4473
 20      0.0000     0.0000E+00    0.0000E+00    6.250000E+09  0.00010  6.869E-05    0   0.4985   age166_m22            0.0000     3.7232E+02     7.2340   2.2564   101.4255
 21      0.0000     0.0000E+00    0.0000E+00    7.500000E+09  0.00010  5.873E-05    0   0.4931   age171_m22            0.0000     3.6704E+02     7.3251   2.2514   100.9810
 22      0.0000     0.0000E+00    0.0000E+00    1.000000E+10  0.00010  4.481E-05    0   0.4854   age181_m22            0.0000     3.5717E+02     7.2494   2.2113   100.6355
 23      0.0000     0.0000E+00    0.0000E+00    1.300000E+10  0.00010  3.489E-05    0   0.4791   age193_m22            0.0000     3.3730E+02     7.0638   2.1486   100.1674
 24      0.0000     0.0000E+00    0.0000E+00    1.500000E+10  0.00010  3.035E-05    0   0.4766   age201_m22            0.0000     3.2573E+02     6.9743   2.1071   100.0493
 25      0.0000     0.0000E+00    0.0000E+00    1.800000E+10  0.00010  2.510E-05    0   0.4735   age213_m22            0.0000     3.0191E+02     6.7832   2.0349    99.5744
 26      0.0000     0.0000E+00    0.0000E+00    1.000000E+06  0.00040  8.458E-03    0   1.0000   age020_m32            0.0000     2.9953E+03    35.5532   4.0000    99.3732
 27      0.0000     0.0000E+00    0.0000E+00    3.160000E+06  0.00040  3.973E-02    0   1.0000   age045_m32            0.0000     1.1712E+03    18.9040   4.0000   103.9235
 28      0.0000     0.0000E+00    0.0000E+00    5.010000E+06  0.00040  1.935E-02    0   0.9532   age055_m32            0.0000     1.7876E+03    24.2300   4.0000   101.5070
 29      0.0000     0.0000E+00    0.0000E+00    6.610000E+06  0.00040  1.204E-02    0   0.9243   age061_m32            0.0000     2.5086E+03    31.3344   4.0000   102.4027
 30      0.0000     0.0000E+00    0.0000E+00    8.710000E+06  0.00040  9.433E-03    0   0.9001   age067_m32            0.0000     2.3838E+03    30.6606   4.0000   103.0200
 31      0.0000     0.0000E+00    0.0000E+00    1.000000E+07  0.00040  8.053E-03    0   0.8877   age070_m32            0.0000     2.2743E+03    29.8588   4.0000   103.1546
 32      0.0000     0.0000E+00    0.0000E+00    1.445000E+07  0.00040  7.027E-03    0   0.8578   age078_m32            0.0000     1.1886E+03    18.1044   4.0000   102.3400
 33      0.0000     0.0000E+00    0.0000E+00    2.512000E+07  0.00040  4.707E-03    0   0.8166   age090_m32            0.0000     7.9728E+02    11.9854   4.0000   101.3420
 34      0.0000     0.0000E+00    0.0000E+00    4.000000E+07  0.00040  3.714E-03    0   0.7827   age104_m32            0.0000     6.7656E+02     9.5065   4.0000   100.5460
 35      0.0000     0.0000E+00    0.0000E+00    5.500000E+07  0.00040  2.982E-03    0   0.7593   age110_m32            0.0000     6.7386E+02     9.2771   4.0000   100.2509
 36      0.0000     0.0000E+00    0.0000E+00    1.015200E+08  0.00040  2.188E-03    0   0.7143   age116_m32            0.0000     7.7881E+02     9.6334   3.9379    99.4013
 37      0.0000     0.0000E+00    0.0000E+00    1.609000E+08  0.00040  1.690E-03    0   0.6856   age120_m32            0.0000     8.8904E+02    10.0356   3.7465   101.3071
 38      0.0000     0.0000E+00    0.0000E+00    2.861200E+08  0.00040  1.152E-03    0   0.6509   age125_m32            0.0000     9.8299E+02    10.1064   3.5085   102.7292
 39      0.0000     0.0000E+00    0.0000E+00    5.088000E+08  0.00040  7.331E-04    0   0.6182   age130_m32            0.0000     9.9734E+02    10.1954   3.3304   103.4195
 40      0.0000     0.0000E+00    0.0000E+00    9.047900E+08  0.00040  3.960E-04    0   0.5890   age135_m32            0.0000     6.9661E+02     8.9208   2.8352   103.0086
 41      0.0000     0.0000E+00    0.0000E+00    1.278050E+09  0.00040  2.854E-04    0   0.5687   age138_m32            0.0000     6.3292E+02     8.7836   2.5543   105.2637
 42      0.0000     0.0000E+00    0.0000E+00    1.434000E+09  0.00040  2.531E-04    0   0.5632   age139_m32            0.0000     6.1925E+02     8.7407   2.5004   105.1943
 43      0.0000     0.0000E+00    0.0000E+00    2.500000E+09  0.00040  1.488E-04    0   0.5386   age150_m32            0.0000     5.0205E+02     7.9552   2.2299   103.8937
 44      0.0000     0.0000E+00    0.0000E+00    4.250000E+09  0.00040  9.082E-05    0   0.5199   age158_m32            0.0000     3.3428E+02     6.7731   2.1071   101.6661
 45      0.0000     0.0000E+00    0.0000E+00    6.250000E+09  0.00040  6.362E-05    0   0.5076   age166_m32            0.0000     2.5338E+02     6.2374   2.0540    99.2266
 46      0.0000     0.0000E+00    0.0000E+00    7.500000E+09  0.00040  5.289E-05    0   0.5027   age171_m32            0.0000     2.3166E+02     6.0259   2.0097    98.1208
 47      0.0000     0.0000E+00    0.0000E+00    1.000000E+10  0.00040  3.972E-05    0   0.4948   age181_m32            0.0000     2.1030E+02     5.8042   1.9380    96.8125
 48      0.0000     0.0000E+00    0.0000E+00    1.300000E+10  0.00040  3.283E-05    0   0.4870   age193_m32            0.0000     2.3760E+02     5.9641   1.9002    99.1339
 49      0.0000     0.0000E+00    0.0000E+00    1.500000E+10  0.00040  2.925E-05    0   0.4854   age201_m32            0.0000     2.6161E+02     6.1813   1.8878   100.4506
 50      0.0000     0.0000E+00    0.0000E+00    1.800000E+10  0.00040  2.469E-05    0   0.4819   age213_m32            0.0000     2.6652E+02     6.2265   1.8499   100.8553
 51      0.0005     6.8250E-07    1.3652E-06    1.000000E+06  0.00400  1.114E-02    0   1.0000   age020_m42            0.0000     2.7482E+03    33.9993   4.0000    99.3296
 52      0.0000     0.0000E+00    0.0000E+00    3.160000E+06  0.00400  4.073E-02    0   0.9999   age045_m42            0.0000     7.0091E+02    12.0257   4.0000   101.8115
 53      0.0000     0.0000E+00    0.0000E+00    5.010000E+06  0.00400  2.534E-02    0   0.9488   age055_m42            0.0000     1.3440E+03    21.2776   4.0000   101.8343
 54      0.0000     0.0000E+00    0.0000E+00    6.610000E+06  0.00400  2.583E-02    0   0.9220   age061_m42            0.0000     6.1215E+02     9.3318   4.0000    99.3213
 55      0.0000     0.0000E+00    0.0000E+00    8.710000E+06  0.00400  1.706E-02    0   0.8983   age067_m42            0.0000     5.3824E+02    10.1860   4.0000    95.6298
 56      0.0000     0.0000E+00    0.0000E+00    1.000000E+07  0.00400  1.271E-02    0   0.8862   age070_m42            0.0000     5.6851E+02    11.7198   4.0000    94.7395
 57      0.0000     0.0000E+00    0.0000E+00    1.445000E+07  0.00400  7.666E-03    0   0.8571   age078_m42            0.0000     8.8467E+02    13.2268   4.0000    97.8139
 58      0.0000     0.0000E+00    0.0000E+00    2.512000E+07  0.00400  5.070E-03    0   0.8174   age090_m42            0.0000     4.9489E+02    12.4288   4.0000    93.8609
 59      0.0000     0.0000E+00    0.0000E+00    4.000000E+07  0.00400  3.505E-03    0   0.7851   age104_m42            0.0000     4.1143E+02    10.8354   3.7062    95.5722
 60      0.0000     0.0000E+00    0.0000E+00    5.500000E+07  0.00400  3.059E-03    0   0.7629   age110_m42            0.0000     5.0602E+02     8.7889   3.7465    98.6499
 61      0.0000     0.0000E+00    0.0000E+00    1.015200E+08  0.00400  2.268E-03    0   0.7207   age116_m42            0.0000     7.6830E+02     9.2502   3.6393   102.3581
 62      0.0000     0.0000E+00    0.0000E+00    1.609000E+08  0.00400  1.720E-03    0   0.6930   age120_m42            0.0000     7.8560E+02     9.1061   3.4738   104.0973
 63      0.0000     0.0000E+00    0.0000E+00    2.861200E+08  0.00400  1.079E-03    0   0.6613   age125_m42            0.0000     7.5919E+02     8.9843   3.1314   104.3528
 64      0.0000     0.0000E+00    0.0000E+00    5.088000E+08  0.00400  6.261E-04    0   0.6313   age130_m42            0.0000     8.0695E+02     9.4040   2.9298   107.3687
 65      0.0000     0.0000E+00    0.0000E+00    9.047900E+08  0.00400  3.535E-04    0   0.6024   age135_m42            0.0000     5.5737E+02     8.1589   2.4944   108.6277
 66      0.0038     2.2262E-04    2.5992E-04    1.278050E+09  0.00400  2.677E-04    0   0.5837   age138_m42            0.0000     2.1103E+02     6.0502   1.7531   106.7909
 67      0.0000     0.0000E+00    0.0000E+00    1.434000E+09  0.00400  1.910E-04    0   0.5716   age139_m42            0.0000     2.8937E+02     6.4909   1.9253   107.5027
 68      0.0000     0.0000E+00    0.0000E+00    2.500000E+09  0.00400  9.818E-05    0   0.5463   age150_m42            0.0000     1.0796E+02     5.0832   1.6091   103.6220
 69      0.0000     0.0000E+00    0.0000E+00    4.250000E+09  0.00400  5.491E-05    0   0.5269   age158_m42            0.0000     5.3871E+01     4.0526   1.4826   101.1738
 70      0.0000     0.0000E+00    0.0000E+00    6.250000E+09  0.00400  3.857E-05    0   0.5151   age166_m42            0.0000     3.5383E+01     4.2046   1.3370    99.9902
 71      0.0000     0.0000E+00    0.0000E+00    7.500000E+09  0.00400  3.243E-05    0   0.5110   age171_m42            0.0000     3.1451E+01     4.3971   1.2511    99.4380
 72      0.0039     2.5033E-03    2.5177E-03    1.000000E+10  0.00400  2.424E-05    0   0.5028   age181_m42            0.0000     3.1168E+01     4.7164   1.1633    98.8381
 73      3.5640     2.9767E+00    2.9336E+00    1.300000E+10  0.00400  1.883E-05    0   0.4927   age193_m42            0.0000     3.4286E+01     4.8988   1.1218    98.5623
 74      3.5582     3.3211E+00    3.2678E+00    1.500000E+10  0.00400  1.685E-05    0   0.4919   age201_m42            0.0000     3.2807E+01     4.6900   1.1318    98.5508
 75      2.6437     2.8636E+00    2.7918E+00    1.800000E+10  0.00400  1.452E-05    0   0.4874   age213_m42            0.0000     3.0914E+01     4.3451   1.1560    98.7679
 76      0.0000     0.0000E+00    0.0000E+00    1.000000E+06  0.00800  1.286E-02    0   1.0000   age020_m52            0.0000     2.6433E+03    33.3363   4.0000   100.9310
 77      0.0000     0.0000E+00    0.0000E+00    3.160000E+06  0.00800  3.147E-02    0   0.9966   age045_m52            0.0000     2.4550E+03    31.5291   4.0000   101.9560
 78      0.0000     0.0000E+00    0.0000E+00    5.010000E+06  0.00800  2.664E-02    0   0.9443   age055_m52            0.0000     1.6013E+03    24.1553   4.0000   102.2084
 79      0.0000     0.0000E+00    0.0000E+00    6.610000E+06  0.00800  2.151E-02    0   0.9177   age061_m52            0.0000     4.0210E+02    11.4117   3.7250    93.5076
 80      0.0000     0.0000E+00    0.0000E+00    8.710000E+06  0.00800  1.628E-02    0   0.8948   age067_m52            0.0000     5.2411E+02    10.8555   4.0000    95.5200
 81      0.0000     0.0000E+00    0.0000E+00    1.000000E+07  0.00800  1.215E-02    0   0.8827   age070_m52            0.0000     7.8231E+02    11.7578   4.0000    99.3823
 82      0.0000     0.0000E+00    0.0000E+00    1.445000E+07  0.00800  8.739E-03    0   0.8552   age078_m52            0.0000     8.2308E+02    12.1651   4.0000   100.8855
 83      0.0000     0.0000E+00    0.0000E+00    2.512000E+07  0.00800  5.676E-03    0   0.8162   age090_m52            0.0000     6.0673E+02     9.8965   4.0000    98.4500
 84      0.0000     0.0000E+00    0.0000E+00    4.000000E+07  0.00800  3.939E-03    0   0.7841   age104_m52            0.0000     5.9666E+02    10.2015   3.9689    97.6663
 85      0.0000     0.0000E+00    0.0000E+00    5.500000E+07  0.00800  3.155E-03    0   0.7627   age110_m52            0.0000     6.3540E+02     9.3869   3.9150    99.0837
 86      0.0000     0.0000E+00    0.0000E+00    1.015200E+08  0.00800  2.206E-03    0   0.7226   age116_m52            0.0000     7.0396E+02     8.9328   3.6813   102.7542
 87      0.0000     0.0000E+00    0.0000E+00    1.609000E+08  0.00800  1.596E-03    0   0.6963   age120_m52            0.0000     7.3340E+02     9.0190   3.4582   104.3108
 88      0.0000     0.0000E+00    0.0000E+00    2.861200E+08  0.00800  1.002E-03    0   0.6665   age125_m52            0.0000     8.2737E+02     9.4699   3.1544   106.3629
 89      0.0000     0.0000E+00    0.0000E+00    5.088000E+08  0.00800  5.759E-04    0   0.6377   age130_m52            0.0000     7.9870E+02     9.9909   2.7717   110.4267
 90      0.0000     0.0000E+00    0.0000E+00    9.047900E+08  0.00800  2.972E-04    0   0.6086   age135_m52            0.0000     4.8147E+02     9.1926   2.1760   110.0136
 91      0.0000     0.0000E+00    0.0000E+00    1.278050E+09  0.00800  2.242E-04    0   0.5907   age138_m52            0.0000     1.7999E+02     7.0051   1.5366   109.4528
 92      0.0000     0.0000E+00    0.0000E+00    1.434000E+09  0.00800  1.645E-04    0   0.5787   age139_m52            0.0000     1.7706E+02     6.5463   1.6887   109.0413
 93      0.0000     0.0000E+00    0.0000E+00    2.500000E+09  0.00800  7.723E-05    0   0.5519   age150_m52            0.0000     6.6489E+01     5.9236   1.3090   106.0599
 94      0.0000     0.0000E+00    0.0000E+00    4.250000E+09  0.00800  4.151E-05    0   0.5320   age158_m52            0.0000     4.3030E+01     5.5773   1.2305   103.7922
 95      0.4000     2.0900E-01    2.1727E-01    6.250000E+09  0.00800  3.010E-05    0   0.5197   age166_m52            0.0000     3.2279E+01     6.0882   1.0157   102.4938
 96      0.3888     2.4784E-01    2.5477E-01    7.500000E+09  0.00800  2.467E-05    0   0.5139   age171_m52            0.0000     3.3519E+01     6.3719   0.9679   102.1112
 97     32.0108     2.7038E+01    2.7333E+01    1.000000E+10  0.00800  1.862E-05    0   0.5054   age181_m52            0.0000     4.4995E+01     7.3921   0.8181   101.7531
 98      1.4452     1.5862E+00    1.5825E+00    1.300000E+10  0.00800  1.433E-05    0   0.4988   age193_m52            0.0000     6.4098E+01     8.2955   0.7043   102.4854
 99      0.0000     0.0000E+00    0.0000E+00    1.500000E+10  0.00800  1.244E-05    0   0.4936   age201_m52            0.0000     7.4439E+01     8.5746   0.6720   102.9464
100      0.0000     0.0000E+00    0.0000E+00    1.800000E+10  0.00800  1.070E-05    0   0.4888   age213_m52            0.0000     8.3906E+01     8.8590   0.6335   102.8034
101      0.0000     0.0000E+00    0.0000E+00    1.000000E+06  0.02000  1.989E-02    0   1.0000   age020_m62            0.0000     2.6594E+03    33.0615   4.0000    99.8880
102      0.0000     0.0000E+00    0.0000E+00    3.160000E+06  0.02000  3.772E-02    0   0.9858   age045_m62            0.0000     2.2953E+03    30.1520   4.0000   101.1700
103      0.0000     0.0000E+00    0.0000E+00    5.010000E+06  0.02000  3.227E-02    0   0.9342   age055_m62            0.0000     1.0985E+03    18.2216   4.0000   102.5206
104      0.0000     0.0000E+00    0.0000E+00    6.610000E+06  0.02000  2.387E-02    0   0.9090   age061_m62            0.0000     9.0113E+02    12.9491   4.0000    99.4765
105      0.0000     0.0000E+00    0.0000E+00    8.710000E+06  0.02000  1.102E-02    0   0.8861   age067_m62            0.0000     8.7768E+02    18.1163   4.0000    92.4535
106      0.0000     0.0000E+00    0.0000E+00    1.000000E+07  0.02000  1.011E-02    0   0.8751   age070_m62            0.0000     7.1753E+02    15.2677   4.0000    93.9275
107      0.0000     0.0000E+00    0.0000E+00    1.445000E+07  0.02000  7.331E-03    0   0.8472   age078_m62            0.0000     6.1952E+02    12.9610   4.0000    94.4800
108      0.0000     0.0000E+00    0.0000E+00    2.512000E+07  0.02000  4.206E-03    0   0.8099   age090_m62            0.0000     5.8314E+02    13.8785   4.0000    92.4788
109      0.0000     0.0000E+00    0.0000E+00    4.000000E+07  0.02000  3.373E-03    0   0.7799   age104_m62            0.0000     5.1825E+02    10.7419   3.9246    96.5891
110      0.0000     0.0000E+00    0.0000E+00    5.500000E+07  0.02000  2.747E-03    0   0.7595   age110_m62            0.0000     5.8870E+02     9.5142   3.8493    99.1052
111      0.0000     0.0000E+00    0.0000E+00    1.015200E+08  0.02000  1.878E-03    0   0.7221   age116_m62            0.0000     7.6687E+02     9.4325   3.6985   102.7570
112      0.0000     0.0000E+00    0.0000E+00    1.609000E+08  0.02000  1.378E-03    0   0.6978   age120_m62            0.0000     8.7719E+02     9.6830   3.5336   104.8603
113      0.0000     0.0000E+00    0.0000E+00    2.861200E+08  0.02000  8.869E-04    0   0.6700   age125_m62            0.0000     1.0252E+03    10.1783   3.1504   108.6224
114      0.0000     0.0000E+00    0.0000E+00    5.088000E+08  0.02000  4.834E-04    0   0.6430   age130_m62            0.0000     8.5039E+02    10.2811   2.6415   111.6282
115      0.0000     0.0000E+00    0.0000E+00    9.047900E+08  0.02000  2.312E-04    0   0.6152   age135_m62            0.0000     4.1991E+02     8.6879   1.9741   112.2003
116      0.0000     0.0000E+00    0.0000E+00    1.278050E+09  0.02000  1.387E-04    0   0.5927   age138_m62            0.0000     1.8277E+02     6.8548   1.5617   108.6844
117      0.0000     0.0000E+00    0.0000E+00    1.434000E+09  0.02000  1.168E-04    0   0.5865   age139_m62            0.0000     1.4701E+02     6.6088   1.5247   107.3118
118      0.0000     0.0000E+00    0.0000E+00    2.500000E+09  0.02000  5.505E-05    0   0.5610   age150_m62            0.0000     5.8905E+01     6.6355   1.1080   104.9585
119      0.0000     0.0000E+00    0.0000E+00    4.250000E+09  0.02000  3.070E-05    0   0.5407   age158_m62            0.0000     7.2988E+01     8.4700   0.7751   104.9239
120      0.0000     0.0000E+00    0.0000E+00    6.250000E+09  0.02000  2.104E-05    0   0.5277   age166_m62            0.0000     9.7584E+01     9.3788   0.6279   105.3609
121      0.0000     0.0000E+00    0.0000E+00    7.500000E+09  0.02000  1.770E-05    0   0.5223   age171_m62            0.0000     1.1458E+02     9.9440   0.5307   105.7236
122      0.0000     0.0000E+00    0.0000E+00    1.000000E+10  0.02000  1.297E-05    0   0.5121   age181_m62            0.0000     1.5679E+02    11.0337   0.3564   106.1804
123      3.5739     5.8000E+00    5.8552E+00    1.300000E+10  0.02000  9.691E-06    0   0.5047   age193_m62            0.0000     1.9195E+02    11.6456   0.2686   106.4598
124     12.5801     2.3667E+01    2.3665E+01    1.500000E+10  0.02000  8.360E-06    0   0.4999   age201_m62            0.0000     2.2354E+02    12.2938   0.1877   106.7190
125     13.0251     2.9641E+01    2.9325E+01    1.800000E+10  0.02000  6.911E-06    0   0.4946   age213_m62            0.0000     2.6491E+02    13.1511   0.0985   107.0349
126      0.0000     0.0000E+00    0.0000E+00    1.000000E+06  0.05000  2.651E-02    0   0.9998   age020_m72            0.0000     2.5873E+03    32.9496   4.0000   100.8461
127      0.0000     0.0000E+00    0.0000E+00    3.160000E+06  0.05000  4.817E-02    0   0.9577   age045_m72            0.0000     1.8400E+03    26.7654   4.0000   103.0472
128      0.0000     0.0000E+00    0.0000E+00    5.010000E+06  0.05000  3.101E-02    0   0.9147   age055_m72            0.0000     1.2156E+03    18.5079   4.0000   101.9282
129      0.0000     0.0000E+00    0.0000E+00    6.610000E+06  0.05000  1.472E-02    0   0.8877   age061_m72            0.0000     9.3875E+02    14.5392   4.0000    95.9511
130      0.0000     0.0000E+00    0.0000E+00    8.710000E+06  0.05000  1.050E-02    0   0.8638   age067_m72            0.0000     1.2495E+03    17.4600   4.0000   100.5512
131      0.0000     0.0000E+00    0.0000E+00    1.000000E+07  0.05000  8.954E-03    0   0.8524   age070_m72            0.0000     1.5357E+03    23.7744   4.0000   103.1622
132      0.0000     0.0000E+00    0.0000E+00    1.445000E+07  0.05000  6.392E-03    0   0.8262   age078_m72            0.0000     1.3758E+03    22.5128   4.0000   103.4338
133      0.0000     0.0000E+00    0.0000E+00    2.512000E+07  0.05000  4.207E-03    0   0.7902   age090_m72            0.0000     8.0329E+02    13.9642   4.0000   102.4502
134      0.0000     0.0000E+00    0.0000E+00    4.000000E+07  0.05000  3.198E-03    0   0.7618   age104_m72            0.0000     6.4745E+02     8.4226   4.0000   100.1708
135      0.0000     0.0000E+00    0.0000E+00    5.500000E+07  0.05000  2.593E-03    0   0.7432   age110_m72            0.0000     7.1364E+02     8.9969   3.9616   100.8546
136      0.0000     0.0000E+00    0.0000E+00    1.015200E+08  0.05000  1.716E-03    0   0.7092   age116_m72            0.0000     8.4280E+02     9.4644   3.7835   102.7736
137      0.0000     0.0000E+00    0.0000E+00    1.609000E+08  0.05000  1.218E-03    0   0.6876   age120_m72            0.0000     9.3858E+02     9.6267   3.4930   105.2565
138      0.0000     0.0000E+00    0.0000E+00    2.861200E+08  0.05000  7.047E-04    0   0.6618   age125_m72            0.0000     9.4134E+02     9.9795   2.9092   109.1923
139      0.0000     0.0000E+00    0.0000E+00    5.088000E+08  0.05000  3.590E-04    0   0.6356   age130_m72            0.0000     6.7155E+02    10.0782   2.2587   112.7147
140      0.0000     0.0000E+00    0.0000E+00    9.047900E+08  0.05000  1.484E-04    0   0.6088   age135_m72            0.0000     2.0045E+02     8.1997   1.4425   107.8737
141      0.0000     0.0000E+00    0.0000E+00    1.278050E+09  0.05000  9.435E-05    0   0.5924   age138_m72            0.0000     1.0980E+02     8.9125   0.9751   105.6278
142      0.0000     0.0000E+00    0.0000E+00    1.434000E+09  0.05000  7.827E-05    0   0.5847   age139_m72            0.0000     9.3537E+01     8.5080   0.9903   105.1273
143      0.0000     0.0000E+00    0.0000E+00    2.500000E+09  0.05000  3.759E-05    0   0.5583   age150_m72            0.0000     9.9666E+01     9.5642   0.6363   104.6021
144      0.0000     0.0000E+00    0.0000E+00    4.250000E+09  0.05000  1.842E-05    0   0.5374   age158_m72            0.0000     1.6855E+02    10.3877   0.3302   103.7271
145      0.8803     1.1471E+00    1.2027E+00    6.250000E+09  0.05000  1.207E-05    0   0.5242   age166_m72            0.0000     2.4700E+02    12.0549   0.0615   103.4366
146      0.8576     1.3497E+00    1.3992E+00    7.500000E+09  0.05000  9.993E-06    0   0.5183   age171_m72            0.0000     2.6263E+02    12.2691   0.0147   103.3625
147      0.0582     1.2559E-01    1.2764E-01    1.000000E+10  0.05000  7.291E-06    0   0.5081   age181_m72            0.0000     3.3362E+02    13.6111  -0.1351   103.3401
148      0.0006     1.6892E-03    1.6955E-03    1.300000E+10  0.05000  5.316E-06    0   0.5018   age193_m72            0.0000     4.5202E+02    15.5764  -0.3631   103.4667
149      0.0015     5.2331E-03    5.2045E-03    1.500000E+10  0.05000  4.497E-06    0   0.4972   age201_m72            0.0000     5.1594E+02    16.5496  -0.4578   103.8440
150      0.0000     0.0000E+00    0.0000E+00    1.800000E+10  0.05000  3.739E-06    0   0.4924   age213_m72            0.0000     5.9476E+02    17.8652  -0.5994   104.3127


## Synthesis Results - Average & Chains ##

# j      x_j: min, <> & last-chain-values for 1 ...  7 chains
  1      1.7860      2.2400      2.3812      2.1682      2.2257      2.2016      2.3258      2.1118      2.2165
  2     12.0983     10.8475     11.0616     10.8064     11.3357     11.0503     11.3420     11.0703     11.3609
  3      9.7640      8.5427      8.6417      8.3877      8.9471      9.0552      8.7917      8.7110      8.2587
  4      0.0000      0.1311      0.0000      0.3051      0.0874      0.0699      0.0637      0.1602      0.2971
  5      0.4715      0.1906      0.2718      0.2106      0.3686      0.2658      0.1351      0.1784      0.2789
  6      0.6257      0.1226      0.0877      0.1394      0.2749      0.1741      0.1022      0.4404      0.1675
  7      0.0000      0.0220      0.0000      0.0000      0.0000      0.0149      0.0000      0.0000      0.0000
  8      0.0000      0.0192      0.0000      0.0000      0.0000      0.0235      0.0000      0.0175      0.0000
  9      0.0000      0.0144      0.0000      0.0000      0.0000      0.0878      0.0000      0.0000      0.0000
 10      0.0000      0.0163      0.0000      0.0000      0.0000      0.0000      0.0000      0.0000      0.0000
 11      0.0000      0.0128      0.0000      0.0017      0.0000      0.0000      0.0000      0.0444      0.0000
 12      0.0000      0.0081      0.0000      0.0000      0.0000      0.0000      0.0009      0.0000      0.0000
 13      0.0000      0.0064      0.0000      0.0000      0.0000      0.0000      0.0000      0.0000      0.0000
 14      0.0000      0.0054      0.0000      0.0000      0.0000      0.0000      0.0000      0.0000      0.0000
 15      0.0000      0.0063      0.0000      0.0000      0.0000      0.0000      0.0000      0.0000      0.0720
 16      0.0000      0.0080      0.0000      0.0000      0.0000      0.0042      0.0000      0.0000      0.0000
 17      0.0000      0.0122      0.1864      0.1853      0.0000      0.0000      0.0000      0.0188      0.0000
 18      0.0006      0.0115      0.0000      0.0000      0.1689      0.0000      0.0000      0.0747      0.0000
 19      0.0000      0.0209      0.0000      0.0000      0.0000      0.0000      0.0000      0.0000      0.0000
 20      0.0000      0.0320      0.0000      0.0000      0.0000      0.1404      0.0000      0.0294      0.0000
 21      0.0000      0.0385      0.1089      0.0000      0.0000      0.0000      0.0000      0.0005      0.2311
 22      0.0000      0.0371      0.0000      0.0000      0.0000      0.0000      0.0000      0.0000      0.0000
 23      0.0000      0.0424      0.0000      0.2507      0.0000      0.1819      0.0000      0.0000      0.0107
 24      0.0000      0.0402      0.0000      0.0874      0.0180      0.0000      0.0000      0.0000      0.0000
 25      0.0000      0.0490      0.0000      0.0000      0.1491      0.0000      0.0000      0.0000      0.0000
 26      0.0000      0.1632      0.1026      0.1912      0.0495      0.1737      0.2459      0.4027      0.2115
 27      0.0000      0.0223      0.0000      0.0000      0.0000      0.0000      0.0000      0.0000      0.0000
 28      0.0000      0.1922      0.4125      0.4193      0.0996      0.1608      0.2137      0.0000      0.1934
 29      0.0000      0.1051      0.0445      0.0000      0.0000      0.0361      0.0198      0.2026      0.0491
 30      0.0000      0.0634      0.0955      0.1029      0.0000      0.0808      0.1748      0.0936      0.1354
 31      0.0000      0.0286      0.1685      0.0000      0.0000      0.0000      0.0000      0.0000      0.0000
 32      0.0000      0.0299      0.0077      0.0000      0.1204      0.1318      0.0000      0.0000      0.0000
 33      0.0000      0.0188      0.0000      0.0000      0.0120      0.0000      0.0000      0.0000      0.0000
 34      0.0000      0.0165      0.0000      0.0000      0.0000      0.0000      0.0000      0.0035      0.0000
 35      0.0000      0.0130      0.0000      0.0000      0.0133      0.0000      0.0000      0.0000      0.0000
 36      0.0000      0.0087      0.0000      0.0000      0.0000      0.0000      0.0000      0.0000      0.0000
 37      0.0000      0.0096      0.0000      0.0000      0.0000      0.0000      0.0276      0.0000      0.0000
 38      0.0000      0.0102      0.0000      0.0000      0.0132      0.0000      0.0000      0.0000      0.0000
 39      0.0000      0.0051      0.0000      0.0000      0.0000      0.0000      0.0011      0.0000      0.0000
 40      0.0000      0.0059      0.0000      0.0000      0.0000      0.0000      0.0602      0.0000      0.0000
 41      0.0000      0.0145      0.0000      0.0000      0.0000      0.0000      0.0067      0.0000      0.0320
 42      0.0000      0.0134      0.0000      0.0000      0.0000      0.0000      0.0000      0.0000      0.0000
 43      0.0000      0.0239      0.0000      0.0000      0.0000      0.0000      0.0000      0.2946      0.0000
 44      0.0000      0.0468      0.0857      0.0000      0.0429      0.0000      0.0994      0.0000      0.0000
 45      0.0000      0.0884      0.0000      0.0000      0.0000      0.1748      0.4992      0.1224      0.0000
 46      0.0000      0.0855      0.1619      0.4120      0.0000      0.1521      0.2159      0.0000      0.0000
 47      0.0000      0.0471      0.0000      0.0000      0.0000      0.0101      0.0000      0.2327      0.0000
 48      0.0000      0.0530      0.0000      0.0000      0.0000      0.0000      0.0000      0.0000      0.0241
 49      0.0000      0.0494      0.0000      0.0000      0.0000      0.0000      0.0000      0.0000      0.1104
 50      0.0000      0.0488      0.0000      0.0000      0.0000      0.0603      0.0157      0.0000      0.0000
 51      0.0005      0.2570      0.2534      0.1506      0.2528      0.2986      0.2468      0.2428      0.3173
 52      0.0000      0.0317      0.0000      0.0000      0.1060      0.1164      0.0170      0.1038      0.0000
 53      0.0000      0.0402      0.0691      0.1061      0.0000      0.0000      0.0000      0.0000      0.0000
 54      0.0000      0.0297      0.0501      0.0924      0.0000      0.0248      0.0029      0.0000      0.0000
 55      0.0000      0.0199      0.0000      0.1415      0.0000      0.0000      0.0000      0.0000      0.0000
 56      0.0000      0.0186      0.0615      0.0000      0.0000      0.0000      0.1182      0.0186      0.0000
 57      0.0000      0.0203      0.0000      0.0000      0.0000      0.0000      0.0763      0.0099      0.0000
 58      0.0000      0.0182      0.0000      0.0000      0.1046      0.0085      0.0103      0.0000      0.0000
 59      0.0000      0.0110      0.0000      0.0000      0.0000      0.0000      0.0005      0.0000      0.0000
 60      0.0000      0.0084      0.0000      0.0000      0.0000      0.0014      0.0128      0.0000      0.0000
 61      0.0000      0.0055      0.0000      0.0000      0.0000      0.0000      0.0000      0.0000      0.0000
 62      0.0000      0.0083      0.0000      0.0817      0.0000      0.0000      0.0000      0.0199      0.0000
 63      0.0000      0.0086      0.0000      0.0000      0.0000      0.0000      0.0000      0.0348      0.0000
 64      0.0000      0.0113      0.0000      0.0000      0.0000      0.0000      0.0000      0.0161      0.0000
 65      0.0000      0.0170      0.0000      0.0000      0.0000      0.1020      0.0000      0.0000      0.1005
 66      0.0038      0.0467      0.0000      0.0685      0.2232      0.0000      0.0430      0.0000      0.0000
 67      0.0000      0.0233      0.0000      0.0000      0.0067      0.0000      0.0000      0.0000      0.1307
 68      0.0000      0.0372      0.4666      0.0274      0.0000      0.0517      0.0000      0.0000      0.1122
 69      0.0000      0.0780      0.1617      0.0000      0.0000      0.0304      0.0000      0.0000      0.0182
 70      0.0000      0.0830      0.0000      0.0000      0.0631      0.0350      0.0000      0.0351      0.0000
 71      0.0000      0.1120      0.0700      0.0000      0.1211      0.1150      0.0000      0.0000      0.0000
 72      0.0039      1.5204      1.4195      1.4845      1.9257      0.5499      1.5302      1.3601      0.6732
 73      3.5640      1.0334      1.3225      1.1803      1.5885      1.2636      1.1817      1.9632      1.3908
 74      3.5582      1.1436      1.2386      1.8818      1.5952      2.3615      1.0458      1.3029      2.6548
 75      2.6437      0.9212      1.5293      1.1718      0.5063      0.6387      1.0494      1.0459      1.2961
 76      0.0000      0.0493      0.0000      0.1895      0.0000      0.0000      0.0445      0.0000      0.0000
 77      0.0000      0.0236      0.0000      0.0521      0.0630      0.0000      0.0000      0.0000      0.0000
 78      0.0000      0.0114      0.0000      0.0000      0.0000      0.0000      0.0000      0.0000      0.0037
 79      0.0000      0.0159      0.0000      0.0000      0.0000      0.0000      0.0585      0.0000      0.0000
 80      0.0000      0.0105      0.0000      0.0000      0.0000      0.0000      0.0091      0.0000      0.0000
 81      0.0000      0.0125      0.0000      0.0000      0.0000      0.0110      0.0090      0.0000      0.0000
 82      0.0000      0.0138      0.0000      0.0000      0.0000      0.0000      0.0000      0.0000      0.0000
 83      0.0000      0.0143      0.0000      0.0000      0.0000      0.0000      0.0000      0.0000      0.0000
 84      0.0000      0.0087      0.0000      0.0000      0.0059      0.0000      0.1364      0.0000      0.0000
 85      0.0000      0.0075      0.0000      0.0000      0.0000      0.0000      0.0000      0.0000      0.0000
 86      0.0000      0.0080      0.0000      0.0308      0.0023      0.0000      0.0000      0.0010      0.0000
 87      0.0000      0.0079      0.0000      0.0000      0.0000      0.0000      0.0000      0.0000      0.0000
 88      0.0000      0.0053      0.0000      0.0000      0.0000      0.0000      0.0000      0.0000      0.0000
 89      0.0000      0.0065      0.0000      0.0000      0.0000      0.0000      0.0000      0.0000      0.0000
 90      0.0000      0.0095      0.0000      0.0000      0.0920      0.0713      0.0000      0.0000      0.0000
 91      0.0000      0.0322      0.0292      0.0000      0.0000      0.0000      0.0000      0.0000      0.1172
 92      0.0000      0.0248      0.0000      0.0000      0.0000      0.1004      0.0000      0.0000      0.0000
 93      0.0000      0.0493      0.0000      0.0171      0.0545      0.2700      0.0252      0.0000      0.0000
 94      0.0000      0.1206      0.2195      0.2851      0.1362      0.0000      0.0000      0.1009      0.4480
 95      0.4000      0.2192      0.3747      0.0000      0.2858      0.0000      0.2051      0.5210      0.1022
 96      0.3888      0.2146      0.4020      0.0000      0.1523      0.6898      0.1871      0.3084      0.1403
 97     32.0108     33.3722     32.9876     33.3632     33.6787     32.9770     33.6082     32.8712     33.1348
 98      1.4452      5.4102      5.2229      4.9201      4.0836      4.9110      4.9529      5.3101      4.3853
 99      0.0000      0.1489      0.0000      0.0000      0.0529      0.0192      0.1537      0.0000      0.0000
100      0.0000      0.1535      0.0000      0.0000      0.0734      0.5818      0.0000      0.0490      0.3456
101      0.0000      0.0446      0.0000      0.0000      0.0000      0.0595      0.0000      0.0000      0.1045
102      0.0000      0.0257      0.0000      0.0408      0.0388      0.0255      0.0000      0.0000      0.0000
103      0.0000      0.0180      0.0149      0.0000      0.0336      0.0000      0.0000      0.0000      0.0800
104      0.0000      0.0258      0.0875      0.0000      0.0000      0.0000      0.0000      0.0000      0.0000
105      0.0000      0.0482      0.0000      0.0564      0.0268      0.0000      0.0000      0.0000      0.1515
106      0.0000      0.0315      0.0419      0.0086      0.0000      0.0000      0.0000      0.0000      0.0000
107      0.0000      0.0162      0.0159      0.0482      0.0079      0.0000      0.0000      0.0000      0.0000
108      0.0000      0.0117      0.0000      0.0000      0.0000      0.0000      0.0478      0.0000      0.0000
109      0.0000      0.0071      0.0000      0.0000      0.0000      0.0000      0.0000      0.0801      0.0000
110      0.0000      0.0066      0.0260      0.0000      0.0000      0.0000      0.0000      0.0000      0.0000
111      0.0000      0.0069      0.0000      0.0000      0.0050      0.0000      0.0000      0.0000      0.0018
112      0.0000      0.0083      0.0000      0.0000      0.0000      0.0000      0.0000      0.0120      0.0000
113      0.0000      0.0058      0.0000      0.0000      0.0376      0.0000      0.0000      0.0504      0.0000
114      0.0000      0.0069      0.0211      0.0000      0.0000      0.0549      0.0000      0.0176      0.0000
115      0.0000      0.0151      0.0000      0.0000      0.0000      0.0676      0.0453      0.0000      0.0746
116      0.0000      0.0198      0.0000      0.0000      0.0000      0.0135      0.0000      0.0000      0.0000
117      0.0000      0.0174      0.0000      0.0000      0.0000      0.0514      0.0000      0.0000      0.0000
118      0.0000      0.0341      0.0000      0.0324      0.0000      0.0000      0.0000      0.0000      0.0000
119      0.0000      0.0431      0.0000      0.0000      0.0000      0.0000      0.0000      0.2592      0.0000
120      0.0000      0.0611      0.0000      0.2389      0.0000      0.0000      0.0000      0.0000      0.0260
121      0.0000      0.0742      0.1396      0.1646      0.0000      0.0706      0.0000      0.1605      0.0000
122      0.0000      0.1371      0.0000      0.0214      0.0000      0.0000      0.1763      0.5168      0.1300
123      3.5739      3.0714      3.0632      3.3327      3.5551      3.0263      3.2992      2.7925      3.7877
124     12.5801     11.5338     11.4475     11.6496     11.6144     11.5170     11.8875     11.6318     11.4605
125     13.0251     12.4495     12.4413     12.5337     12.9077     12.3677     12.4197     12.4463     12.4537
126      0.0000      0.0202      0.0000      0.0593      0.0000      0.0033      0.0000      0.0186      0.0000
127      0.0000      0.0204      0.0000      0.0000      0.0000      0.0000      0.0000      0.0000      0.0000
128      0.0000      0.0210      0.0548      0.0000      0.0000      0.0000      0.0000      0.0000      0.0000
129      0.0000      0.0240      0.0000      0.0000      0.0000      0.0261      0.0000      0.0000      0.0100
130      0.0000      0.0139      0.0000      0.0000      0.0000      0.0000      0.0000      0.0000      0.0000
131      0.0000      0.0110      0.0000      0.0000      0.0822      0.0000      0.0129      0.0000      0.0000
132      0.0000      0.0124      0.0000      0.0000      0.0000      0.0000      0.0000      0.0000      0.0000
133      0.0000      0.0056      0.0000      0.0000      0.0000      0.0000      0.0000      0.0000      0.0328
134      0.0000      0.0046      0.0102      0.0198      0.0000      0.0234      0.0000      0.0028      0.0000
135      0.0000      0.0045      0.0000      0.0000      0.0000      0.0000      0.0000      0.0000      0.0000
136      0.0000      0.0051      0.0000      0.0000      0.0000      0.0000      0.0000      0.0000      0.0000
137      0.0000      0.0054      0.0000      0.0000      0.0000      0.0054      0.0000      0.0000      0.0000
138      0.0000      0.0055      0.0000      0.0000      0.0000      0.0000      0.0000      0.0016      0.0000
139      0.0000      0.0079      0.0000      0.0000      0.0655      0.0000      0.0000      0.0000      0.0000
140      0.0000      0.0198      0.0000      0.1525      0.0000      0.0000      0.0000      0.0000      0.0018
141      0.0000      0.0127      0.0000      0.0000      0.0000      0.0000      0.0000      0.0000      0.0000
142      0.0000      0.0176      0.0000      0.0000      0.0000      0.0000      0.0000      0.0000      0.0000
143      0.0000      0.0247      0.0000      0.0000      0.0000      0.0000      0.0000      0.0000      0.0000
144      0.0000      0.3319      0.1472      0.3229      0.1038      0.3599      0.3699      0.0000      0.1078
145      0.8803      0.3456      0.4096      0.6214      0.3507      0.4047      0.4067      0.2002      0.2515
146      0.8576      0.4850      0.5780      0.4679      0.5164      0.6081      0.8152      0.5973      0.6733
147      0.0582      0.6003      0.5937      0.4674      0.5573      0.5950      0.5867      0.4474      0.6253
148      0.0006      0.4829      0.3543      0.4713      0.5228      0.6268      0.5002      0.5038      0.3587
149      0.0015      0.4039      0.4554      0.2233      0.3467      0.4832      0.2411      0.4169      0.5176
150      0.0000      0.2139      0.2604      0.0000      0.0000      0.0000      0.0183      0.1614      0.0000

# j      m_j: min, <> & last-chain-values for 1 ...  7 chains
  1  6.8855E-03  8.5364E-03  9.1014E-03  8.3311E-03  8.5219E-03  8.4192E-03  8.9027E-03  8.0796E-03  8.4349E-03
  2  7.9974E-03  7.0881E-03  7.2494E-03  7.1198E-03  7.4421E-03  7.2458E-03  7.4442E-03  7.2623E-03  7.4131E-03
  3  1.5234E-02  1.3175E-02  1.3368E-02  1.3043E-02  1.3864E-02  1.4014E-02  1.3620E-02  1.3488E-02  1.2719E-02
  4  0.0000E+00  3.8005E-04  0.0000E+00  8.9176E-04  2.5446E-04  2.0322E-04  1.8548E-04  4.6628E-04  8.6011E-04
  5  1.7417E-03  6.9596E-04  9.9553E-04  7.7544E-04  1.3523E-03  9.7379E-04  4.9535E-04  6.5411E-04  1.0170E-03
  6  2.7486E-03  5.3256E-04  3.8175E-04  6.1044E-04  1.1995E-03  7.5883E-04  4.4564E-04  1.9201E-03  7.2626E-04
  7  0.0000E+00  1.2034E-04  0.0000E+00  0.0000E+00  0.0000E+00  8.2105E-05  0.0000E+00  0.0000E+00  0.0000E+00
  8  0.0000E+00  1.1897E-04  0.0000E+00  0.0000E+00  0.0000E+00  1.4584E-04  0.0000E+00  1.0909E-04  0.0000E+00
  9  0.0000E+00  9.6226E-05  0.0000E+00  0.0000E+00  0.0000E+00  5.8726E-04  0.0000E+00  0.0000E+00  0.0000E+00
 10  0.0000E+00  1.2442E-04  0.0000E+00  0.0000E+00  0.0000E+00  0.0000E+00  0.0000E+00  0.0000E+00  0.0000E+00
 11  0.0000E+00  1.1643E-04  0.0000E+00  1.5401E-05  0.0000E+00  0.0000E+00  0.0000E+00  4.0704E-04  0.0000E+00
 12  0.0000E+00  1.2865E-04  0.0000E+00  0.0000E+00  0.0000E+00  0.0000E+00  1.4213E-05  0.0000E+00  0.0000E+00
 13  0.0000E+00  1.1866E-04  0.0000E+00  0.0000E+00  0.0000E+00  0.0000E+00  0.0000E+00  0.0000E+00  0.0000E+00
 14  0.0000E+00  1.4336E-04  0.0000E+00  0.0000E+00  0.0000E+00  0.0000E+00  0.0000E+00  0.0000E+00  0.0000E+00
 15  0.0000E+00  2.4905E-04  0.0000E+00  0.0000E+00  0.0000E+00  0.0000E+00  0.0000E+00  0.0000E+00  2.8605E-03
 16  0.0000E+00  4.6237E-04  0.0000E+00  0.0000E+00  0.0000E+00  2.4209E-04  0.0000E+00  0.0000E+00  0.0000E+00
 17  0.0000E+00  7.8151E-04  1.1951E-02  1.1944E-02  0.0000E+00  0.0000E+00  0.0000E+00  1.2059E-03  0.0000E+00
 18  5.8976E-05  1.1977E-03  0.0000E+00  0.0000E+00  1.7666E-02  0.0000E+00  0.0000E+00  7.8080E-03  0.0000E+00
 19  0.0000E+00  3.3009E-03  0.0000E+00  0.0000E+00  0.0000E+00  0.0000E+00  0.0000E+00  0.0000E+00  0.0000E+00
 20  0.0000E+00  7.2132E-03  0.0000E+00  0.0000E+00  0.0000E+00  3.1798E-02  0.0000E+00  6.6700E-03  0.0000E+00
 21  0.0000E+00  1.0065E-02  2.8516E-02  0.0000E+00  0.0000E+00  0.0000E+00  0.0000E+00  1.3320E-04  6.0264E-02
 22  0.0000E+00  1.2508E-02  0.0000E+00  0.0000E+00  0.0000E+00  0.0000E+00  0.0000E+00  0.0000E+00  0.0000E+00
 23  0.0000E+00  1.8100E-02  0.0000E+00  1.0793E-01  0.0000E+00  7.7959E-02  0.0000E+00  0.0000E+00  4.5550E-03
 24  0.0000E+00  1.9646E-02  0.0000E+00  4.3054E-02  8.8556E-03  0.0000E+00  0.0000E+00  0.0000E+00  0.0000E+00
 25  0.0000E+00  2.8720E-02  0.0000E+00  0.0000E+00  8.7906E-02  0.0000E+00  0.0000E+00  0.0000E+00  0.0000E+00
 26  0.0000E+00  6.0009E-04  3.7817E-04  7.0871E-04  1.8286E-04  6.4085E-04  9.0829E-04  1.4865E-03  7.7648E-04
 27  0.0000E+00  1.7436E-05  0.0000E+00  0.0000E+00  0.0000E+00  0.0000E+00  0.0000E+00  0.0000E+00  0.0000E+00
 28  0.0000E+00  2.9436E-04  6.3374E-04  6.4764E-04  1.5331E-04  2.4725E-04  3.2879E-04  0.0000E+00  2.9578E-04
 29  0.0000E+00  2.5091E-04  1.0663E-04  0.0000E+00  0.0000E+00  8.6393E-05  4.7526E-05  4.8564E-04  1.1717E-04
 30  0.0000E+00  1.8805E-04  2.8415E-04  3.0784E-04  0.0000E+00  2.4055E-04  5.2087E-04  2.7881E-04  4.0109E-04
 31  0.0000E+00  9.7966E-05  5.7940E-04  0.0000E+00  0.0000E+00  0.0000E+00  0.0000E+00  0.0000E+00  0.0000E+00
 32  0.0000E+00  1.1348E-04  2.9435E-05  0.0000E+00  4.5909E-04  5.0197E-04  0.0000E+00  0.0000E+00  0.0000E+00
 33  0.0000E+00  1.0149E-04  0.0000E+00  0.0000E+00  6.4864E-05  0.0000E+00  0.0000E+00  0.0000E+00  0.0000E+00
 34  0.0000E+00  1.0821E-04  0.0000E+00  0.0000E+00  0.0000E+00  0.0000E+00  0.0000E+00  2.3273E-05  0.0000E+00
 35  0.0000E+00  1.0274E-04  0.0000E+00  0.0000E+00  1.0598E-04  0.0000E+00  0.0000E+00  0.0000E+00  0.0000E+00
 36  0.0000E+00  8.8523E-05  0.0000E+00  0.0000E+00  0.0000E+00  0.0000E+00  0.0000E+00  0.0000E+00  0.0000E+00
 37  0.0000E+00  1.2125E-04  0.0000E+00  0.0000E+00  0.0000E+00  0.0000E+00  3.5025E-04  0.0000E+00  0.0000E+00
 38  0.0000E+00  1.7890E-04  0.0000E+00  0.0000E+00  2.3386E-04  0.0000E+00  0.0000E+00  0.0000E+00  0.0000E+00
 39  0.0000E+00  1.3309E-04  0.0000E+00  0.0000E+00  0.0000E+00  0.0000E+00  2.7893E-05  0.0000E+00  0.0000E+00
 40  0.0000E+00  2.7380E-04  0.0000E+00  0.0000E+00  0.0000E+00  0.0000E+00  2.7975E-03  0.0000E+00  0.0000E+00
 41  0.0000E+00  8.9836E-04  0.0000E+00  0.0000E+00  0.0000E+00  0.0000E+00  4.1887E-04  0.0000E+00  1.9793E-03
 42  0.0000E+00  9.2649E-04  0.0000E+00  0.0000E+00  0.0000E+00  0.0000E+00  0.0000E+00  0.0000E+00  0.0000E+00
 43  0.0000E+00  2.6871E-03  0.0000E+00  0.0000E+00  0.0000E+00  0.0000E+00  0.0000E+00  3.3296E-02  0.0000E+00
 44  0.0000E+00  8.3337E-03  1.5302E-02  0.0000E+00  7.6810E-03  0.0000E+00  1.7778E-02  0.0000E+00  0.0000E+00
 45  0.0000E+00  2.1943E-02  0.0000E+00  0.0000E+00  0.0000E+00  4.3526E-02  1.2442E-01  3.0488E-02  0.0000E+00
 46  0.0000E+00  2.5276E-02  4.7985E-02  1.2277E-01  0.0000E+00  4.5099E-02  6.4097E-02  0.0000E+00  0.0000E+00
 47  0.0000E+00  1.8233E-02  0.0000E+00  0.0000E+00  0.0000E+00  3.9267E-03  0.0000E+00  9.0503E-02  0.0000E+00
 48  0.0000E+00  2.4443E-02  0.0000E+00  0.0000E+00  0.0000E+00  0.0000E+00  0.0000E+00  0.0000E+00  1.1101E-02
 49  0.0000E+00  2.5479E-02  0.0000E+00  0.0000E+00  0.0000E+00  0.0000E+00  0.0000E+00  0.0000E+00  5.6900E-02
 50  0.0000E+00  2.9607E-02  0.0000E+00  0.0000E+00  0.0000E+00  3.6745E-02  9.5860E-03  0.0000E+00  0.0000E+00
 51  1.3652E-06  7.1747E-04  7.0936E-04  4.2381E-04  7.0901E-04  8.3635E-04  6.9187E-04  6.8057E-04  8.8448E-04
 52  0.0000E+00  2.4193E-05  0.0000E+00  0.0000E+00  8.1279E-05  8.9167E-05  1.3048E-05  7.9577E-05  0.0000E+00
 53  0.0000E+00  4.6777E-05  8.0643E-05  1.2451E-04  0.0000E+00  0.0000E+00  0.0000E+00  0.0000E+00  0.0000E+00
 54  0.0000E+00  3.3002E-05  5.5753E-05  1.0340E-04  0.0000E+00  2.7570E-05  3.2018E-06  0.0000E+00  0.0000E+00
 55  0.0000E+00  3.2549E-05  0.0000E+00  2.3365E-04  0.0000E+00  0.0000E+00  0.0000E+00  0.0000E+00  0.0000E+00
 56  0.0000E+00  4.0377E-05  1.3372E-04  0.0000E+00  0.0000E+00  0.0000E+00  2.5741E-04  4.0544E-05  0.0000E+00
 57  0.0000E+00  7.0713E-05  0.0000E+00  0.0000E+00  0.0000E+00  0.0000E+00  2.6645E-04  3.4686E-05  0.0000E+00
 58  0.0000E+00  9.1126E-05  0.0000E+00  0.0000E+00  5.2682E-04  4.2558E-05  5.1934E-05  0.0000E+00  0.0000E+00
 59  0.0000E+00  7.6508E-05  0.0000E+00  0.0000E+00  0.0000E+00  0.0000E+00  3.3097E-06  0.0000E+00  0.0000E+00
 60  0.0000E+00  6.5251E-05  0.0000E+00  0.0000E+00  0.0000E+00  1.0830E-05  9.9940E-05  0.0000E+00  0.0000E+00
 61  0.0000E+00  5.3878E-05  0.0000E+00  0.0000E+00  0.0000E+00  0.0000E+00  0.0000E+00  0.0000E+00  0.0000E+00
 62  0.0000E+00  1.0451E-04  0.0000E+00  1.0324E-03  0.0000E+00  0.0000E+00  0.0000E+00  2.5086E-04  0.0000E+00
 63  0.0000E+00  1.6403E-04  0.0000E+00  0.0000E+00  0.0000E+00  0.0000E+00  0.0000E+00  6.6662E-04  0.0000E+00
 64  0.0000E+00  3.5390E-04  0.0000E+00  0.0000E+00  0.0000E+00  0.0000E+00  0.0000E+00  5.0748E-04  0.0000E+00
 65  0.0000E+00  9.0195E-04  0.0000E+00  0.0000E+00  0.0000E+00  5.4223E-03  0.0000E+00  0.0000E+00  5.3186E-03
 66  2.5992E-04  3.1636E-03  0.0000E+00  4.6807E-03  1.5207E-02  0.0000E+00  2.9316E-03  0.0000E+00  0.0000E+00
 67  0.0000E+00  2.1647E-03  0.0000E+00  0.0000E+00  6.2525E-04  0.0000E+00  0.0000E+00  0.0000E+00  1.2142E-02
 68  0.0000E+00  6.4315E-03  8.0985E-02  4.7782E-03  0.0000E+00  8.9790E-03  0.0000E+00  0.0000E+00  1.9378E-02
 69  0.0000E+00  2.3261E-02  4.8390E-02  0.0000E+00  0.0000E+00  9.1170E-03  0.0000E+00  0.0000E+00  5.4362E-03
 70  0.0000E+00  3.4460E-02  0.0000E+00  0.0000E+00  2.6311E-02  1.4573E-02  0.0000E+00  1.4651E-02  0.0000E+00
 71  0.0000E+00  5.4890E-02  3.4396E-02  0.0000E+00  5.9603E-02  5.6538E-02  0.0000E+00  0.0000E+00  0.0000E+00
 72  2.5177E-03  9.8072E-01  9.1834E-01  9.6547E-01  1.2480E+00  3.5596E-01  9.9142E-01  8.8077E-01  4.3363E-01
 73  2.9336E+00  8.4088E-01  1.0793E+00  9.6836E-01  1.2986E+00  1.0317E+00  9.6580E-01  1.6037E+00  1.1301E+00
 74  3.2678E+00  1.0382E+00  1.1278E+00  1.7225E+00  1.4550E+00  2.1513E+00  9.5364E-01  1.1874E+00  2.4066E+00
 75  2.7918E+00  9.6154E-01  1.6011E+00  1.2333E+00  5.3094E-01  6.6905E-01  1.1002E+00  1.0961E+00  1.3511E+00
 76  0.0000E+00  1.1915E-04  0.0000E+00  4.6212E-04  0.0000E+00  0.0000E+00  1.0809E-04  0.0000E+00  0.0000E+00
 77  0.0000E+00  2.3277E-05  0.0000E+00  5.1741E-05  6.2295E-05  0.0000E+00  0.0000E+00  0.0000E+00  0.0000E+00
 78  0.0000E+00  1.2557E-05  0.0000E+00  0.0000E+00  0.0000E+00  0.0000E+00  0.0000E+00  0.0000E+00  4.1131E-06
 79  0.0000E+00  2.1048E-05  0.0000E+00  0.0000E+00  0.0000E+00  0.0000E+00  7.7941E-05  0.0000E+00  0.0000E+00
 80  0.0000E+00  1.7922E-05  0.0000E+00  0.0000E+00  0.0000E+00  0.0000E+00  1.5677E-05  0.0000E+00  0.0000E+00
 81  0.0000E+00  2.8229E-05  0.0000E+00  0.0000E+00  0.0000E+00  2.5024E-05  2.0440E-05  0.0000E+00  0.0000E+00
 82  0.0000E+00  4.1971E-05  0.0000E+00  0.0000E+00  0.0000E+00  0.0000E+00  0.0000E+00  0.0000E+00  0.0000E+00
 83  0.0000E+00  6.4104E-05  0.0000E+00  0.0000E+00  0.0000E+00  0.0000E+00  0.0000E+00  0.0000E+00  0.0000E+00
 84  0.0000E+00  5.3789E-05  0.0000E+00  0.0000E+00  3.6832E-05  0.0000E+00  8.4780E-04  0.0000E+00  0.0000E+00
 85  0.0000E+00  5.6066E-05  0.0000E+00  0.0000E+00  0.0000E+00  0.0000E+00  0.0000E+00  0.0000E+00  0.0000E+00
 86  0.0000E+00  8.1556E-05  0.0000E+00  3.1597E-04  2.3431E-05  0.0000E+00  0.0000E+00  1.0628E-05  0.0000E+00
 87  0.0000E+00  1.0673E-04  0.0000E+00  0.0000E+00  0.0000E+00  0.0000E+00  0.0000E+00  0.0000E+00  0.0000E+00
 88  0.0000E+00  1.1000E-04  0.0000E+00  0.0000E+00  0.0000E+00  0.0000E+00  0.0000E+00  0.0000E+00  0.0000E+00
 89  0.0000E+00  2.2535E-04  0.0000E+00  0.0000E+00  0.0000E+00  0.0000E+00  0.0000E+00  0.0000E+00  0.0000E+00
 90  0.0000E+00  6.0609E-04  0.0000E+00  0.0000E+00  5.8852E-03  4.5540E-03  0.0000E+00  0.0000E+00  0.0000E+00
 91  0.0000E+00  2.6398E-03  2.3960E-03  0.0000E+00  0.0000E+00  0.0000E+00  0.0000E+00  0.0000E+00  9.5854E-03
 92  0.0000E+00  2.7102E-03  0.0000E+00  0.0000E+00  0.0000E+00  1.1021E-02  0.0000E+00  0.0000E+00  0.0000E+00
 93  0.0000E+00  1.0962E-02  0.0000E+00  3.8218E-03  1.2163E-02  6.0207E-02  5.6233E-03  0.0000E+00  0.0000E+00
 94  0.0000E+00  4.8070E-02  8.7751E-02  1.1455E-01  5.4524E-02  0.0000E+00  0.0000E+00  4.0379E-02  1.7830E-01
 95  2.1727E-01  1.1771E-01  2.0176E-01  0.0000E+00  1.5415E-01  0.0000E+00  1.1059E-01  2.8083E-01  5.4810E-02
 96  2.5477E-01  1.3901E-01  2.6115E-01  0.0000E+00  9.9121E-02  4.4840E-01  1.2174E-01  2.0059E-01  9.0765E-02
 97  2.7333E+01  2.8168E+01  2.7926E+01  2.8394E+01  2.8561E+01  2.7931E+01  2.8494E+01  2.7855E+01  2.7928E+01
 98  1.5825E+00  5.8562E+00  5.6702E+00  5.3697E+00  4.4410E+00  5.3343E+00  5.3850E+00  5.7705E+00  4.7401E+00
 99  0.0000E+00  1.8371E-01  0.0000E+00  0.0000E+00  6.5578E-02  2.3720E-02  1.9044E-01  0.0000E+00  0.0000E+00
100  0.0000E+00  2.1810E-01  0.0000E+00  0.0000E+00  1.0480E-01  8.2941E-01  0.0000E+00  6.9840E-02  4.9028E-01
101  0.0000E+00  6.9655E-05  0.0000E+00  0.0000E+00  0.0000E+00  9.3376E-05  0.0000E+00  0.0000E+00  1.6312E-04
102  0.0000E+00  2.0857E-05  0.0000E+00  3.3446E-05  3.1671E-05  2.0779E-05  0.0000E+00  0.0000E+00  0.0000E+00
103  0.0000E+00  1.6226E-05  1.3475E-05  0.0000E+00  3.0350E-05  0.0000E+00  0.0000E+00  0.0000E+00  7.1941E-05
104  0.0000E+00  3.0595E-05  1.0397E-04  0.0000E+00  0.0000E+00  0.0000E+00  0.0000E+00  0.0000E+00  0.0000E+00
105  0.0000E+00  1.2062E-04  0.0000E+00  1.4231E-04  6.7395E-05  0.0000E+00  0.0000E+00  0.0000E+00  3.7837E-04
106  0.0000E+00  8.4808E-05  1.1315E-04  2.3317E-05  0.0000E+00  0.0000E+00  0.0000E+00  0.0000E+00  0.0000E+00
107  0.0000E+00  5.8107E-05  5.7193E-05  1.7449E-04  2.8603E-05  0.0000E+00  0.0000E+00  0.0000E+00  0.0000E+00
108  0.0000E+00  7.0107E-05  0.0000E+00  0.0000E+00  0.0000E+00  0.0000E+00  2.8776E-04  0.0000E+00  0.0000E+00
109  0.0000E+00  5.1358E-05  0.0000E+00  0.0000E+00  0.0000E+00  0.0000E+00  0.0000E+00  5.7852E-04  0.0000E+00
110  0.0000E+00  5.7073E-05  2.2394E-04  0.0000E+00  0.0000E+00  0.0000E+00  0.0000E+00  0.0000E+00  0.0000E+00
111  0.0000E+00  8.3010E-05  0.0000E+00  0.0000E+00  6.0638E-05  0.0000E+00  0.0000E+00  0.0000E+00  2.1594E-05
112  0.0000E+00  1.3060E-04  0.0000E+00  0.0000E+00  0.0000E+00  0.0000E+00  0.0000E+00  1.9033E-04  0.0000E+00
113  0.0000E+00  1.3631E-04  0.0000E+00  0.0000E+00  8.8790E-04  0.0000E+00  0.0000E+00  1.1884E-03  0.0000E+00
114  0.0000E+00  2.8440E-04  8.7484E-04  0.0000E+00  0.0000E+00  2.2801E-03  0.0000E+00  7.3126E-04  0.0000E+00
115  0.0000E+00  1.2517E-03  0.0000E+00  0.0000E+00  0.0000E+00  5.6105E-03  3.7662E-03  0.0000E+00  6.1621E-03
116  0.0000E+00  2.6278E-03  0.0000E+00  0.0000E+00  0.0000E+00  1.7971E-03  0.0000E+00  0.0000E+00  0.0000E+00
117  0.0000E+00  2.7098E-03  0.0000E+00  0.0000E+00  0.0000E+00  8.0501E-03  0.0000E+00  0.0000E+00  0.0000E+00
118  0.0000E+00  1.0814E-02  0.0000E+00  1.0348E-02  0.0000E+00  0.0000E+00  0.0000E+00  0.0000E+00  0.0000E+00
119  0.0000E+00  2.3630E-02  0.0000E+00  0.0000E+00  0.0000E+00  0.0000E+00  0.0000E+00  1.4253E-01  0.0000E+00
120  0.0000E+00  4.7668E-02  0.0000E+00  1.8784E-01  0.0000E+00  0.0000E+00  0.0000E+00  0.0000E+00  2.0276E-02
121  0.0000E+00  6.8098E-02  1.2848E-01  1.5231E-01  0.0000E+00  6.5016E-02  0.0000E+00  1.4788E-01  0.0000E+00
122  0.0000E+00  1.6836E-01  0.0000E+00  2.6507E-02  0.0000E+00  0.0000E+00  2.1737E-01  6.3707E-01  1.5938E-01
123  5.8552E+00  4.9742E+00  4.9756E+00  5.4420E+00  5.7847E+00  4.9182E+00  5.3668E+00  4.5403E+00  6.1256E+00
124  2.3665E+01  2.1447E+01  2.1350E+01  2.1842E+01  2.1699E+01  2.1490E+01  2.2203E+01  2.1715E+01  2.1281E+01
125  2.9325E+01  2.7707E+01  2.7770E+01  2.8125E+01  2.8862E+01  2.7620E+01  2.7763E+01  2.7809E+01  2.7677E+01
126  0.0000E+00  2.3633E-05  0.0000E+00  7.0179E-05  0.0000E+00  3.9021E-06  0.0000E+00  2.1858E-05  0.0000E+00
127  0.0000E+00  1.2611E-05  0.0000E+00  0.0000E+00  0.0000E+00  0.0000E+00  0.0000E+00  0.0000E+00  0.0000E+00
128  0.0000E+00  1.9293E-05  5.0435E-05  0.0000E+00  0.0000E+00  0.0000E+00  0.0000E+00  0.0000E+00  0.0000E+00
129  0.0000E+00  4.5021E-05  0.0000E+00  0.0000E+00  0.0000E+00  4.9194E-05  0.0000E+00  0.0000E+00  1.8792E-05
130  0.0000E+00  3.5553E-05  0.0000E+00  0.0000E+00  0.0000E+00  0.0000E+00  0.0000E+00  0.0000E+00  0.0000E+00
131  0.0000E+00  3.2687E-05  0.0000E+00  0.0000E+00  2.4437E-04  0.0000E+00  3.8493E-05  0.0000E+00  0.0000E+00
132  0.0000E+00  4.9996E-05  0.0000E+00  0.0000E+00  0.0000E+00  0.0000E+00  0.0000E+00  0.0000E+00  0.0000E+00
133  0.0000E+00  3.2451E-05  0.0000E+00  0.0000E+00  0.0000E+00  0.0000E+00  0.0000E+00  0.0000E+00  1.9134E-04
134  0.0000E+00  3.4152E-05  7.6013E-05  1.4786E-04  0.0000E+00  1.7424E-04  0.0000E+00  2.0761E-05  0.0000E+00
135  0.0000E+00  3.9810E-05  0.0000E+00  0.0000E+00  0.0000E+00  0.0000E+00  0.0000E+00  0.0000E+00  0.0000E+00
136  0.0000E+00  6.5664E-05  0.0000E+00  0.0000E+00  0.0000E+00  0.0000E+00  0.0000E+00  0.0000E+00  0.0000E+00
137  0.0000E+00  9.4788E-05  0.0000E+00  0.0000E+00  0.0000E+00  9.4385E-05  0.0000E+00  0.0000E+00  0.0000E+00
138  0.0000E+00  1.6207E-04  0.0000E+00  0.0000E+00  0.0000E+00  0.0000E+00  0.0000E+00  4.5571E-05  0.0000E+00
139  0.0000E+00  4.3554E-04  0.0000E+00  0.0000E+00  3.6256E-03  0.0000E+00  0.0000E+00  0.0000E+00  0.0000E+00
140  0.0000E+00  2.5267E-03  0.0000E+00  1.9611E-02  0.0000E+00  0.0000E+00  0.0000E+00  0.0000E+00  2.3353E-04
141  0.0000E+00  2.4878E-03  0.0000E+00  0.0000E+00  0.0000E+00  0.0000E+00  0.0000E+00  0.0000E+00  0.0000E+00
142  0.0000E+00  4.0773E-03  0.0000E+00  0.0000E+00  0.0000E+00  0.0000E+00  0.0000E+00  0.0000E+00  0.0000E+00
143  0.0000E+00  1.1411E-02  0.0000E+00  0.0000E+00  0.0000E+00  0.0000E+00  0.0000E+00  0.0000E+00  0.0000E+00
144  0.0000E+00  3.0109E-01  1.3392E-01  2.9539E-01  9.4625E-02  3.2761E-01  3.3710E-01  0.0000E+00  9.7708E-02
145  1.2027E+00  4.6668E-01  5.5477E-01  8.4618E-01  4.7580E-01  5.4841E-01  5.5170E-01  2.7141E-01  3.3921E-01
146  1.3992E+00  7.8225E-01  9.3503E-01  7.6089E-01  8.3681E-01  9.8427E-01  1.3207E+00  9.6721E-01  1.0844E+00
147  1.2764E-01  1.3008E+00  1.2905E+00  1.0214E+00  1.2134E+00  1.2940E+00  1.2771E+00  9.7348E-01  1.3531E+00
148  1.6955E-03  1.4174E+00  1.0430E+00  1.3948E+00  1.5419E+00  1.8462E+00  1.4749E+00  1.4847E+00  1.0513E+00
149  5.2045E-03  1.3887E+00  1.5703E+00  7.7395E-01  1.1978E+00  1.6672E+00  8.3259E-01  1.4391E+00  1.7772E+00
150  0.0000E+00  8.7581E-01  1.0694E+00  0.0000E+00  0.0000E+00  0.0000E+00  7.5474E-02  6.6350E-01  0.0000E+00

# AV, chi2 & Mass for <> & i_chain = 1 ...  7 solutions
AV       1.2409      1.2186      1.2244      1.2259      1.2274      1.2258      1.2207      1.2258      1.2236
chi2 3.0789E+00  3.1922E+00  3.1650E+00  3.1622E+00  3.1526E+00  3.1593E+00  3.1683E+00  3.1587E+00  3.1589E+00
Mass 8.7708E-10  8.6106E-10  8.6524E-10  8.6239E-10  8.6718E-10  8.6641E-10  8.5965E-10  8.6599E-10  8.6810E-10
  -6.41                                  [v0_min (km/s) before EX0s...]
  16.27                                  [vd_min (km/s) before EX0s...]


## Synthetic spectrum (Best Model) ##l_obs f_obs f_syn wei
 3070    [Nl_obs]
 3359.00    0.00000   0.41861   -2.000
 3360.00    0.00000   0.39207   -2.000
 3361.00    0.17053   0.39391   -1.000
 3362.00    0.27412   0.42496   -1.000
 3363.00    0.29634   0.46584   -1.000
 3364.00    0.26824   0.49417   -1.000
 3365.00    0.28490   0.49761   -1.000
 3366.00    0.28625   0.47676   -1.000
 3367.00    0.26982   0.45124   -1.000
 3368.00    0.28448   0.42793   -1.000
 3369.00    0.27627   0.41621   -1.000
 3370.00    0.23684   0.40988   -1.000
 3371.00    0.23549   0.40651   -1.000
 3372.00    0.23308   0.41062   -1.000
 3373.00    0.22126   0.43077   -1.000
 3374.00    0.25165   0.46154   -1.000
 3375.00    0.33077   0.49521   -1.000
 3376.00    0.32705   0.51722   -1.000
 3377.00    0.25672   0.51343   -1.000
 3378.00    0.27706   0.48770   -1.000
 3379.00    0.31319   0.46201   -1.000
 3380.00    0.29933   0.44788   -1.000
 3381.00    0.27909   0.45631   -1.000
 3382.00    0.28982   0.47342   -1.000
 3383.00    0.31138   0.48975   -1.000
 3384.00    0.32312   0.49900   -1.000
 3385.00    0.32566   0.51010   -1.000
 3386.00    0.33739   0.51477   -1.000
 3387.00    0.35704   0.51499   -1.000
 3388.00    0.34121   0.51424   -1.000
 3389.00    0.35700   0.51275   -1.000
 3390.00    0.41212   0.50810   -1.000
 3391.00    0.40029   0.49316   -1.000
 3392.00    0.34068   0.47600   -1.000
 3393.00    0.31830   0.47147   -1.000
 3394.00    0.35036   0.48375   -1.000
 3395.00    0.37958   0.50827   -1.000
 3396.00    0.37724   0.52826   -1.000
 3397.00    0.38157   0.54658   -1.000
 3398.00    0.40151   0.56136   -1.000
 3399.00    0.43752   0.56451   -1.000
 3400.00    0.44916   0.55853   -1.000
 3401.00    0.43532   0.54785   -1.000
 3402.00    0.43264   0.53023   -1.000
 3403.00    0.43828   0.51659   -1.000
 3404.00    0.43811   0.50907   -1.000
 3405.00    0.41783   0.50336   -1.000
 3406.00    0.42746   0.49576   -1.000
 3407.00    0.44004   0.48839   60.737
 3408.00    0.41322   0.48820   -1.000
 3409.00    0.40159   0.49349   -1.000
 3410.00    0.41276   0.50463   -1.000
 3411.00    0.40612   0.50381   -1.000
 3412.00    0.40688   0.48898   -1.000
 3413.00    0.42009   0.47100   60.072
 3414.00    0.43011   0.45856   61.594
 3415.00    0.43175   0.46674   63.297
 3416.00    0.41282   0.48396   -1.000
 3417.00    0.42962   0.50982   -1.000
 3418.00    0.44009   0.53219   -1.000
 3419.00    0.47137   0.55395   -1.000
 3420.00    0.48329   0.56190   -1.000
 3421.00    0.45649   0.55411   -1.000
 3422.00    0.45364   0.53121   -1.000
 3423.00    0.47347   0.51933   53.239
 3424.00    0.47848   0.51783   54.366
 3425.00    0.48455   0.52187   55.738
 3426.00    0.48947   0.52556   55.131
 3427.00    0.46542   0.53209   -1.000
 3428.00    0.46140   0.55017   -1.000
 3429.00    0.49388   0.57496   -1.000
 3430.00    0.52890   0.57600   -1.000
 3431.00    0.51172   0.55807   -1.000
 3432.00    0.46843   0.53165   -1.000
 3433.00    0.47163   0.51797   -1.000
 3434.00    0.49295   0.52642   79.441
 3435.00    0.50059   0.53748   52.820
 3436.00    0.44260   0.53780   -1.000
 3437.00    0.43921   0.52376   -1.000
 3438.00    0.47113   0.49913   79.009
 3439.00    0.47888   0.46295   54.213
 3440.00    0.46005   0.42956   57.217
 3441.00    0.40800   0.40614   61.360
 3442.00    0.38175   0.40563   64.746
 3443.00    0.41335   0.41840   65.757
 3444.00    0.43228   0.43668   65.608
 3445.00    0.46286   0.45161   63.830
 3446.00    0.48606   0.47111   60.663
 3447.00    0.48459   0.49289   57.313
 3448.00    0.49660   0.51827   54.897
 3449.00    0.50024   0.54062   -1.000
 3450.00    0.50141   0.54457   -1.000
 3451.00    0.50686   0.52684   -1.000
 3452.00    0.50059   0.51120   -1.000
 3453.00    0.50848   0.50726  452.212
 3454.00    0.54230   0.51924   -1.000
 3455.00    0.53831   0.52931   -1.000
 3456.00    0.52390   0.52411  452.212
 3457.00    0.52424   0.50660   -1.000
 3458.00    0.49759   0.48198   -1.000
 3459.00    0.46615   0.46734  452.212
 3460.00    0.44593   0.45755   80.124
 3461.00    0.47168   0.46147   53.273
 3462.00    0.50263   0.48147   53.321
 3463.00    0.53459   0.51325   -1.000
 3464.00    0.53286   0.51753   -1.000
 3465.00    0.50258   0.51041  452.212
 3466.00    0.48911   0.50559   -1.000
 3467.00    0.50085   0.51188   -1.000
 3468.00    0.53180   0.53127  452.212
 3469.00    0.55535   0.54833   -1.000
 3470.00    0.58345   0.55447   -1.000
 3471.00    0.56805   0.54006   -1.000
 3472.00    0.55029   0.51758   -1.000
 3473.00    0.52914   0.48936   -1.000
 3474.00    0.48853   0.46245   -1.000
 3475.00    0.45559   0.44074   -1.000
 3476.00    0.45669   0.44173   81.447
 3477.00    0.49022   0.45948   54.491
 3478.00    0.51060   0.48541   54.519
 3479.00    0.52688   0.50686  118.981
 3480.00    0.52621   0.52017   -1.000
 3481.00    0.52634   0.52120   -1.000
 3482.00    0.54045   0.51024   -1.000
 3483.00    0.52956   0.49746   -1.000
 3484.00    0.52002   0.49566   -1.000
 3485.00    0.52569   0.51439   -1.000
 3486.00    0.54190   0.53606   -1.000
 3487.00    0.56071   0.54660   -1.000
 3488.00    0.54223   0.53106   -1.000
 3489.00    0.51678   0.50135   -1.000
 3490.00    0.49372   0.47548   -1.000
 3491.00    0.49698   0.46868   -1.000
 3492.00    0.51557   0.47915   -1.000
 3493.00    0.50340   0.49294   -1.000
 3494.00    0.49275   0.50154  452.212
 3495.00    0.50141   0.49327   -1.000
 3496.00    0.49516   0.47976   -1.000
 3497.00    0.50490   0.48217   -1.000
 3498.00    0.50940   0.51002  452.212
 3499.00    0.51760   0.54536   -1.000
 3500.00    0.53630   0.55844   -1.000
 3501.00    0.56871   0.56198   -1.000
 3502.00    0.57363   0.57067  419.104
 3503.00    0.58615   0.57615   -1.000
 3504.00    0.60136   0.57045   -1.000
 3505.00    0.58680   0.55521   -1.000
 3506.00    0.57826   0.54256   -1.000
 3507.00    0.55479   0.54215   -1.000
 3508.00    0.53723   0.54227  431.517
 3509.00    0.54489   0.53127   -1.000
 3510.00    0.54396   0.51833   -1.000
 3511.00    0.54331   0.50582   -1.000
 3512.00    0.51407   0.49362   -1.000
 3513.00    0.48758   0.47949   -1.000
 3514.00    0.48105   0.47432   -1.000
 3515.00    0.48271   0.49473   -1.000
 3516.00    0.51146   0.53553   -1.000
 3517.00    0.53703   0.56772   -1.000
 3518.00    0.56865   0.57891   -1.000
 3519.00    0.58551   0.56106   -1.000
 3520.00    0.56940   0.53380   -1.000
 3521.00    0.51150   0.50421   -1.000
 3522.00    0.48798   0.48539  452.212
 3523.00    0.46900   0.46535   -1.000
 3524.00    0.45356   0.44640   -1.000
 3525.00    0.45418   0.43645   83.058
 3526.00    0.45398   0.45171   53.927
 3527.00    0.47307   0.48427   54.496
 3528.00    0.51307   0.52516  115.384
 3529.00    0.52488   0.55053   -1.000
 3530.00    0.52527   0.55676   -1.000
 3531.00    0.51807   0.54550   -1.000
 3532.00    0.50838   0.54147   -1.000
 3533.00    0.54338   0.54904  449.703
 3534.00    0.57683   0.56184   -1.000
 3535.00    0.57321   0.57086  441.283
 3536.00    0.57064   0.57061  432.667
 3537.00    0.54661   0.57302   -1.000
 3538.00    0.55004   0.58545   -1.000
 3539.00    0.58178   0.59293   -1.000
 3540.00    0.58122   0.58939   -1.000
 3541.00    0.56346   0.57670   -1.000
 3542.00    0.55998   0.57309   -1.000
 3543.00    0.54394   0.58251   -1.000
 3544.00    0.54530   0.59269   -1.000
 3545.00    0.58276   0.59640   -1.000
 3546.00    0.57475   0.58792   -1.000
 3547.00    0.55646   0.58062   -1.000
 3548.00    0.57219   0.58011  433.176
 3549.00    0.56993   0.58305   -1.000
 3550.00    0.54414   0.58256   -1.000
 3551.00    0.53805   0.57354   -1.000
 3552.00    0.53742   0.55817   -1.000
 3553.00    0.50543   0.54271   -1.000
 3554.00    0.50389   0.53804   -1.000
 3555.00    0.50920   0.54470   -1.000
 3556.00    0.52293   0.54984   -1.000
 3557.00    0.52476   0.55069   -1.000
 3558.00    0.49410   0.54428   -1.000
 3559.00    0.49852   0.54217   -1.000
 3560.00    0.51121   0.55058   -1.000
 3561.00    0.52181   0.56567   -1.000
 3562.00    0.54541   0.57754   -1.000
 3563.00    0.55817   0.56221  452.212
 3564.00    0.53314   0.52257   -1.000
 3565.00    0.48607   0.47708   -1.000
 3566.00    0.44942   0.46165   85.596
 3567.00    0.44620   0.46582   54.590
 3568.00    0.45765   0.46579   55.152
 3569.00    0.44755   0.45257   54.694
 3570.00    0.43764   0.43979   55.644
 3571.00    0.46359   0.44319   57.052
 3572.00    0.48789   0.46471   56.423
 3573.00    0.49621   0.48141   54.190
 3574.00    0.51558   0.49196   -1.000
 3575.00    0.50654   0.49736   -1.000
 3576.00    0.49932   0.49951  452.212
 3577.00    0.48672   0.49070  452.212
 3578.00    0.46034   0.47293   -1.000
 3579.00    0.44557   0.44236   -1.000
 3580.00    0.42198   0.41663   89.336
 3581.00    0.39673   0.40065   57.578
 3582.00    0.38877   0.40441   61.372
 3583.00    0.38867   0.41571   63.020
 3584.00    0.39664   0.41603   63.328
 3585.00    0.39072   0.40435   64.355
 3586.00    0.37588   0.39598   66.277
 3587.00    0.37497   0.40289   67.751
 3588.00    0.40758   0.42306   66.122
 3589.00    0.44537   0.45548   62.648
 3590.00    0.46245   0.49014   59.492
 3591.00    0.48907   0.51994   55.151
 3592.00    0.50832   0.52787  107.182
 3593.00    0.51073   0.52764   -1.000
 3594.00    0.51004   0.53340   -1.000
 3595.00    0.52618   0.55247   -1.000
 3596.00    0.55314   0.57769   -1.000
 3597.00    0.56437   0.59135   -1.000
 3598.00    0.58432   0.60249   -1.000
 3599.00    0.61545   0.61406  407.232
 3600.00    0.61104   0.61375  398.866
 3601.00    0.59365   0.59077  398.809
 3602.00    0.57001   0.55816   -1.000
 3603.00    0.54767   0.52516   -1.000
 3604.00    0.54300   0.50777   -1.000
 3605.00    0.53315   0.50541   -1.000
 3606.00    0.51500   0.50634   -1.000
 3607.00    0.49254   0.49648  452.212
 3608.00    0.49722   0.47865   -1.000
 3609.00    0.49873   0.47075   -1.000
 3610.00    0.48861   0.48101   -1.000
 3611.00    0.50993   0.50682   -1.000
 3612.00    0.52212   0.52315  452.212
 3613.00    0.53469   0.53521  452.212
 3614.00    0.55871   0.54967   -1.000
 3615.00    0.56888   0.56400  450.200
 3616.00    0.55947   0.55701  437.280
 3617.00    0.52887   0.52083   -1.000
 3618.00    0.48208   0.47010   -1.000
 3619.00    0.45746   0.45958  452.212
 3620.00    0.47160   0.48204   87.430
 3621.00    0.50978   0.52850  104.265
 3622.00    0.54173   0.56595   -1.000
 3623.00    0.55415   0.58502   -1.000
 3624.00    0.57964   0.60011   -1.000
 3625.00    0.61230   0.62870   -1.000
 3626.00    0.62617   0.65897   -1.000
 3627.00    0.63863   0.67657   -1.000
 3628.00    0.63813   0.66340   -1.000
 3629.00    0.61116   0.61690  375.809
 3630.00    0.56811   0.54744   -1.000
 3631.00    0.51642   0.50478   -1.000
 3632.00    0.49647   0.49198   -1.000
 3633.00    0.51744   0.51177   -1.000
 3634.00    0.53423   0.53735  452.212
 3635.00    0.54733   0.55918   -1.000
 3636.00    0.57351   0.56925  452.212
 3637.00    0.61036   0.58620   -1.000
 3638.00    0.62383   0.61306   -1.000
 3639.00    0.62582   0.63565   -1.000
 3640.00    0.62449   0.64554   -1.000
 3641.00    0.61067   0.63487   -1.000
 3642.00    0.59627   0.60952   -1.000
 3643.00    0.56661   0.58250   -1.000
 3644.00    0.53906   0.55932   -1.000
 3645.00    0.53966   0.54196  433.368
 3646.00    0.53989   0.52609   -1.000
 3647.00    0.53686   0.50981   -1.000
 3648.00    0.52146   0.51090   -1.000
 3649.00    0.51423   0.52531   -1.000
 3650.00    0.55934   0.55621  452.212
 3651.00    0.57840   0.58971   -1.000
 3652.00    0.58981   0.62478   -1.000
 3653.00    0.61133   0.64090   -1.000
 3654.00    0.61229   0.64981   -1.000
 3655.00    0.62821   0.65697   -1.000
 3656.00    0.65469   0.66918   -1.000
 3657.00    0.66198   0.68653   -1.000
 3658.00    0.66212   0.69563   -1.000
 3659.00    0.67067   0.69933   -1.000
 3660.00    0.65968   0.69536   -1.000
 3661.00    0.64856   0.68430   -1.000
 3662.00    0.66937   0.66536  364.702
 3663.00    0.66728   0.65289   -1.000
 3664.00    0.62899   0.64853   -1.000
 3665.00    0.62669   0.65190   -1.000
 3666.00    0.66126   0.65291  377.192
 3667.00    0.66042   0.64343   -1.000
 3668.00    0.62865   0.62732  379.659
 3669.00    0.60509   0.61476   -1.000
 3670.00    0.59140   0.62417   -1.000
 3671.00    0.60570   0.64734   -1.000
 3672.00    0.65115   0.66583   -1.000
 3673.00    0.67359   0.67352  375.377
 3674.00    0.66302   0.67173   -1.000
 3675.00    0.65445   0.66071   -1.000
 3676.00    0.64327   0.63903  371.150
 3677.00    0.62419   0.61130   -1.000
 3678.00    0.59562   0.58433   -1.000
 3679.00    0.57104   0.56756  401.609
 3680.00    0.57920   0.56983   -1.000
 3681.00    0.60560   0.58875   -1.000
 3682.00    0.61705   0.60914  410.270
 3683.00    0.61553   0.62038  398.800
 3684.00    0.61033   0.60982  391.508
 3685.00    0.58547   0.58248  395.020
 3686.00    0.54978   0.54784  408.335
 3687.00    0.53757   0.53815  425.229
 3688.00    0.55190   0.55545  437.453
 3689.00    0.60099   0.59963  434.186
 3690.00    0.66138   0.64554   -1.000
 3691.00    0.68454   0.67571  385.049
 3692.00    0.67769   0.67275  367.090
 3693.00    0.65646   0.65283  363.559
 3694.00    0.63158   0.63938   -1.000
 3695.00    0.63390   0.63431  377.990
 3696.00    0.64498   0.63975  379.425
 3697.00    0.65831   0.65343  376.762
 3698.00    0.68896   0.68088  372.709
 3699.00    0.69337   0.70397   -1.000
 3700.00    0.68586   0.71589   -1.000
 3701.00    0.68968   0.70260   -1.000
 3702.00    0.67158   0.66290  348.110
 3703.00    0.61940   0.59829   -1.000
 3704.00    0.57184   0.54314   -1.000
 3705.00    0.55848   0.50449   -1.000
 3706.00    0.55066   0.50205   -1.000
 3707.00    0.53597   0.51242   -1.000
 3708.00    0.53347   0.52480   -1.000
 3709.00    0.55227   0.54277   -1.000
 3710.00    0.58916   0.57362   -1.000
 3711.00    0.63452   0.60783   -1.000
 3712.00    0.66831   0.64737   -1.000
 3713.00    0.69682   0.68144   -1.000
 3714.00    0.72467   0.69976   -1.000
 3715.00    0.71847   0.69606   -1.000
 3716.00    0.68268   0.67592  342.030
 3717.00    0.64364   0.63773  346.333
 3718.00    0.59120   0.58040   -1.000
 3719.00    0.52265   0.51074   -1.000
 3720.00    0.47102   0.44779   -1.000
 3721.00    0.45567   0.43114   -1.000
 3722.00    0.48027   0.45560   94.880
 3723.00    0.53723   0.50719   -1.000
 3724.00    0.60261   0.56899   -1.000
 3725.00    0.65313   0.61038   -1.000
 3726.00    0.65827   0.61005   -1.000
 3727.00    0.62494   0.59326   -1.000
 3728.00    0.61743   0.59393   -1.000
 3729.00    0.62945   0.60157   -1.000
 3730.00    0.62302   0.59814   -1.000
 3731.00    0.58171   0.56782   -1.000
 3732.00    0.53916   0.50562   -1.000
 3733.00    0.48403   0.44693   -1.000
 3734.00    0.42372   0.39692   92.977
 3735.00    0.40846   0.37883   55.707
 3736.00    0.42826   0.39391   60.115
 3737.00    0.45243   0.44256   59.572
 3738.00    0.49416   0.50310   55.149
 3739.00    0.55318   0.57058   95.735
 3740.00    0.58468   0.60976   -1.000
 3741.00    0.60932   0.61629  405.359
 3742.00    0.60846   0.58690   -1.000
 3743.00    0.56894   0.54927   -1.000
 3744.00    0.52138   0.51004   -1.000
 3745.00    0.49121   0.48876  446.824
 3746.00    0.47566   0.46808   -1.000
 3747.00    0.46148   0.44059   -1.000
 3748.00    0.45364   0.41409   -1.000
 3749.00    0.44881   0.40456   55.075
 3750.00    0.47485   0.43271   57.151
 3751.00    0.53217   0.49495   -1.000
 3752.00    0.58780   0.55872   -1.000
 3753.00    0.63765   0.61488   -1.000
 3754.00    0.67409   0.66012   -1.000
 3755.00    0.68360   0.66840   -1.000
 3756.00    0.66010   0.63556   -1.000
 3757.00    0.59606   0.57581   -1.000
 3758.00    0.52813   0.52210  394.166
 3759.00    0.51382   0.51364  443.305
 3760.00    0.53924   0.53072   -1.000
 3761.00    0.55343   0.55290  449.912
 3762.00    0.56011   0.56155  425.113
 3763.00    0.58448   0.56252   -1.000
 3764.00    0.60085   0.56496   -1.000
 3765.00    0.59131   0.56224   -1.000
 3766.00    0.57973   0.55182   -1.000
 3767.00    0.57753   0.54814   -1.000
 3768.00    0.58158   0.55233   -1.000
 3769.00    0.59114   0.55728   -1.000
 3770.00    0.60847   0.56115   -1.000
 3771.00    0.62448   0.57809   -1.000
 3772.00    0.63995   0.60640   -1.000
 3773.00    0.66272   0.63397   -1.000
 3774.00    0.67200   0.64491   -1.000
 3775.00    0.66432   0.64776   -1.000
 3776.00    0.66649   0.65237   -1.000
 3777.00    0.67302   0.66239   -1.000
 3778.00    0.67558   0.67899  363.082
 3779.00    0.68703   0.69571   -1.000
 3780.00    0.69306   0.71226   -1.000
 3781.00    0.69402   0.72205   -1.000
 3782.00    0.70958   0.72673   -1.000
 3783.00    0.72492   0.72729  334.066
 3784.00    0.72167   0.71201  333.152
 3785.00    0.68203   0.67471  337.105
 3786.00    0.62822   0.62976  350.012
 3787.00    0.59290   0.59110  372.632
 3788.00    0.56566   0.56957  396.259
 3789.00    0.56170   0.57160   -1.000
 3790.00    0.57207   0.58704   -1.000
 3791.00    0.58456   0.59897   -1.000
 3792.00    0.59583   0.59788  403.473
 3793.00    0.57860   0.57516  404.504
 3794.00    0.54998   0.54917  415.338
 3795.00    0.54066   0.52565   -1.000
 3796.00    0.53712   0.50270   -1.000
 3797.00    0.51777   0.47325   -1.000
 3798.00    0.49695   0.45639   -1.000
 3799.00    0.51595   0.47528   -1.000
 3800.00    0.56367   0.53056   -1.000
 3801.00    0.60095   0.58911   -1.000
 3802.00    0.62588   0.63934   -1.000
 3803.00    0.64779   0.66600   -1.000
 3804.00    0.64709   0.67403   -1.000
 3805.00    0.62538   0.65744   -1.000
 3806.00    0.59756   0.63276   -1.000
 3807.00    0.58054   0.62136   -1.000
 3808.00    0.59422   0.63658   -1.000
 3809.00    0.61470   0.66296   -1.000
 3810.00    0.63571   0.67946   -1.000
 3811.00    0.64612   0.67067   -1.000
 3812.00    0.61390   0.63290   -1.000
 3813.00    0.56500   0.58786   -1.000
 3814.00    0.53486   0.54521   -1.000
 3815.00    0.51791   0.52687  433.450
 3816.00    0.51522   0.53272   -1.000
 3817.00    0.52278   0.54751   -1.000
 3818.00    0.51569   0.54341   -1.000
 3819.00    0.48477   0.51335   -1.000
 3820.00    0.46027   0.48968   -1.000
 3821.00    0.46064   0.49114   -1.000
 3822.00    0.47445   0.51434   -1.000
 3823.00    0.49870   0.51897   -1.000
 3824.00    0.49127   0.49090  452.212
 3825.00    0.44374   0.46237   -1.000
 3826.00    0.41273   0.44771   -1.000
 3827.00    0.40902   0.45107   55.730
 3828.00    0.42650   0.46229   56.104
 3829.00    0.43863   0.47300   55.393
 3830.00    0.43083   0.47258   54.484
 3831.00    0.42834   0.45592   54.345
 3832.00    0.40975   0.42786   55.900
 3833.00    0.38574   0.39929   59.390
 3834.00    0.40555   0.38929   62.798
 3835.00    0.43123   0.39299   63.141
 3836.00    0.42855   0.40525   61.207
 3837.00    0.42281   0.41292   59.263
 3838.00    0.40854   0.41489   59.201
 3839.00    0.40861   0.42166   60.585
 3840.00    0.42745   0.44402   60.823
 3841.00    0.45449   0.48869   58.519
 3842.00    0.51007   0.53593   97.014
 3843.00    0.55521   0.57850   -1.000
 3844.00    0.56377   0.59814   -1.000
 3845.00    0.54874   0.60504   -1.000
 3846.00    0.55471   0.60819   -1.000
 3847.00    0.55459   0.61072   -1.000
 3848.00    0.54123   0.60141   -1.000
 3849.00    0.52561   0.58664   -1.000
 3850.00    0.51413   0.57932   -1.000
 3851.00    0.52640   0.59102   -1.000
 3852.00    0.54424   0.60491   -1.000
 3853.00    0.54627   0.60771   -1.000
 3854.00    0.53783   0.59431   -1.000
 3855.00    0.53127   0.57516   -1.000
 3856.00    0.51329   0.55883   -1.000
 3857.00    0.48770   0.54025   -1.000
 3858.00    0.45651   0.51595   -1.000
 3859.00    0.42747   0.50273   -1.000
 3860.00    0.43454   0.51244   -1.000
 3861.00    0.48943   0.55187   -1.000
 3862.00    0.55042   0.59440   -1.000
 3863.00    0.57876   0.61614   -1.000
 3864.00    0.57036   0.61198   -1.000
 3865.00    0.56162   0.60070   -1.000
 3866.00    0.55830   0.59521   -1.000
 3867.00    0.54353   0.59558   -1.000
 3868.00    0.52739   0.59336   -1.000
 3869.00    0.51294   0.58207   -1.000
 3870.00    0.49031   0.55564   -1.000
 3871.00    0.47451   0.53463   -1.000
 3872.00    0.47969   0.52674   -1.000
 3873.00    0.49631   0.54919   -1.000
 3874.00    0.54179   0.58775   -1.000
 3875.00    0.57743   0.61836   -1.000
 3876.00    0.56809   0.60801   -1.000
 3877.00    0.52904   0.57254   -1.000
 3878.00    0.50133   0.55138   -1.000
 3879.00    0.49515   0.55080   -1.000
 3880.00    0.49633   0.55997   -1.000
 3881.00    0.49626   0.56616   -1.000
 3882.00    0.50718   0.56712   -1.000
 3883.00    0.54233   0.57791   -1.000
 3884.00    0.57641   0.57956  452.212
 3885.00    0.58816   0.55011   -1.000
 3886.00    0.55743   0.50943   -1.000
 3887.00    0.51506   0.47760   -1.000
 3888.00    0.53285   0.47247   -1.000
 3889.00    0.58570   0.49732   -1.000
 3890.00    0.62365   0.54755   -1.000
 3891.00    0.65832   0.60764   -1.000
 3892.00    0.68638   0.65298   -1.000
 3893.00    0.69775   0.66167   -1.000
 3894.00    0.68720   0.65236   -1.000
 3895.00    0.67291   0.64934   -1.000
 3896.00    0.67897   0.65714   -1.000
 3897.00    0.68798   0.66708   -1.000
 3898.00    0.68354   0.66555   -1.000
 3899.00    0.67499   0.65673   -1.000
 3900.00    0.67695   0.65944   -1.000
 3901.00    0.68878   0.66895   -1.000
 3902.00    0.69548   0.67053   -1.000
 3903.00    0.67470   0.66047   -1.000
 3904.00    0.64455   0.64038  355.883
 3905.00    0.62513   0.62877  368.438
 3906.00    0.61899   0.63402   -1.000
 3907.00    0.65840   0.66594  383.155
 3908.00    0.72163   0.70673   -1.000
 3909.00    0.74583   0.73714   -1.000
 3910.00    0.74663   0.74971  330.558
 3911.00    0.76094   0.75825  325.124
 3912.00    0.77911   0.75968   -1.000
 3913.00    0.77328   0.75238   -1.000
 3914.00    0.76440   0.73949   -1.000
 3915.00    0.76580   0.72896   -1.000
 3916.00    0.75577   0.71906   -1.000
 3917.00    0.74200   0.70659   -1.000
 3918.00    0.71432   0.68583   -1.000
 3919.00    0.66425   0.65371   -1.000
 3920.00    0.61788   0.62595  363.009
 3921.00    0.59718   0.61010   -1.000
 3922.00    0.60969   0.61546  393.438
 3923.00    0.62986   0.62819  396.123
 3924.00    0.63983   0.63146   -1.000
 3925.00    0.61729   0.61946  387.954
 3926.00    0.57541   0.58352  398.314
 3927.00    0.51622   0.53774   -1.000
 3928.00    0.44975   0.48536   -1.000
 3929.00    0.41629   0.44038  117.316
 3930.00    0.39836   0.39795   62.389
 3931.00    0.35088   0.35442   73.091
 3932.00    0.29126   0.30898   85.897
 3933.00    0.26914   0.27302  101.201
 3934.00    0.26474   0.27573  115.105
 3935.00    0.27812   0.31254   -1.000
 3936.00    0.33121   0.36260  108.595
 3937.00    0.38372   0.41698   92.020
 3938.00    0.43458   0.47746   75.808
 3939.00    0.48772   0.52570   62.952
 3940.00    0.51856   0.56421   -1.000
 3941.00    0.55907   0.58187   -1.000
 3942.00    0.57972   0.58283  452.212
 3943.00    0.57446   0.58106  450.264
 3944.00    0.57330   0.59681   -1.000
 3945.00    0.60004   0.62855   -1.000
 3946.00    0.65350   0.65926  407.136
 3947.00    0.68768   0.67716   -1.000
 3948.00    0.70333   0.68591   -1.000
 3949.00    0.73007   0.70130   -1.000
 3950.00    0.76287   0.72240   -1.000
 3951.00    0.75710   0.72398   -1.000
 3952.00    0.74105   0.72105   -1.000
 3953.00    0.76261   0.73057   -1.000
 3954.00    0.78035   0.74024   -1.000
 3955.00    0.76701   0.73754   -1.000
 3956.00    0.74447   0.72221   -1.000
 3957.00    0.73612   0.70964   -1.000
 3958.00    0.73392   0.71096   -1.000
 3959.00    0.70646   0.70060  343.568
 3960.00    0.64880   0.64996  343.298
 3961.00    0.59073   0.59181  363.209
 3962.00    0.53383   0.54176  406.024
 3963.00    0.50743   0.51489  452.212
 3964.00    0.49011   0.49037  452.212
 3965.00    0.45127   0.44563  114.231
 3966.00    0.37952   0.38349   58.599
 3967.00    0.31818   0.31368   70.133
 3968.00    0.29383   0.27041   86.318
 3969.00    0.28244   0.26736  101.500
 3970.00    0.30519   0.30329  104.135
 3971.00    0.37553   0.36173   91.461
 3972.00    0.45674   0.43150   75.208
 3973.00    0.51859   0.49694   62.310
 3974.00    0.57596   0.56245   88.934
 3975.00    0.63569   0.61834   -1.000
 3976.00    0.68470   0.66860   -1.000
 3977.00    0.73103   0.71471   -1.000
 3978.00    0.77658   0.75572   -1.000
 3979.00    0.81598   0.79449   -1.000
 3980.00    0.84802   0.80829   -1.000
 3981.00    0.85133   0.80509   -1.000
 3982.00    0.83468   0.79087   -1.000
 3983.00    0.82904   0.78708   -1.000
 3984.00    0.83366   0.80295   -1.000
 3985.00    0.84191   0.82269   -1.000
 3986.00    0.88004   0.83844   -1.000
 3987.00    0.90924   0.85436   -1.000
 3988.00    0.90088   0.86705   -1.000
 3989.00    0.90885   0.86869   -1.000
 3990.00    0.92004   0.87145   -1.000
 3991.00    0.92885   0.88189   -1.000
 3992.00    0.95036   0.89850   -1.000
 3993.00    0.94951   0.90792   -1.000
 3994.00    0.92881   0.89877   -1.000
 3995.00    0.91318   0.87630   -1.000
 3996.00    0.88729   0.85139   -1.000
 3997.00    0.86720   0.84720   -1.000
 3998.00    0.87687   0.86443  287.358
 3999.00    0.91232   0.89726  285.961
 4000.00    0.96971   0.92418   -1.000
 4001.00    1.00291   0.94380   -1.000
 4002.00    0.99085   0.94755   -1.000
 4003.00    0.97617   0.92852   -1.000
 4004.00    0.92697   0.87899   -1.000
 4005.00    0.86868   0.83540   -1.000
 4006.00    0.86291   0.83374   -1.000
 4007.00    0.91082   0.87128   -1.000
 4008.00    0.95724   0.92026   -1.000
 4009.00    0.97680   0.94447   -1.000
 4010.00    0.97975   0.95500   -1.000
 4011.00    0.97317   0.95778  254.839
 4012.00    0.98345   0.95779   -1.000
 4013.00    0.98801   0.96260   -1.000
 4014.00    0.99514   0.97184   -1.000
 4015.00    1.05031   0.97633   -1.000
 4016.00    1.05385   0.97241   -1.000
 4017.00    1.00000   0.96984   -1.000
 4018.00    0.98500   0.97848  253.591
 4019.00    1.01095   0.98958   -1.000
 4020.00    1.03499   0.99620   -1.000
 4021.00    1.01640   0.98926   -1.000
 4022.00    1.00334   0.97855   -1.000
 4023.00    1.00699   0.96532   -1.000
 4024.00    0.99679   0.95330   -1.000
 4025.00    0.99086   0.95513   -1.000
 4026.00    1.01835   0.98197   -1.000
 4027.00    1.05385   1.01277   -1.000
 4028.00    1.05699   1.01519   -1.000
 4029.00    1.01831   0.97381   -1.000
 4030.00    0.96229   0.90640   -1.000
 4031.00    0.91812   0.85649   -1.000
 4032.00    0.88773   0.83161   -1.000
 4033.00    0.87600   0.83684   -1.000
 4034.00    0.90307   0.86659   -1.000
 4035.00    0.96693   0.92129   -1.000
 4036.00    1.03541   0.98012   -1.000
 4037.00    1.06758   1.03436   -1.000
 4038.00    1.07287   1.05083   -1.000
 4039.00    1.07226   1.03727   -1.000
 4040.00    1.06328   1.01394   -1.000
 4041.00    1.05104   1.00463   -1.000
 4042.00    1.04048   0.98839   -1.000
 4043.00    1.00075   0.93347   -1.000
 4044.00    0.90022   0.84606   -1.000
 4045.00    0.81159   0.77810   -1.000
 4046.00    0.81523   0.79027   -1.000
 4047.00    0.88348   0.87265  305.340
 4048.00    0.97552   0.95136   -1.000
 4049.00    1.04953   1.00924   -1.000
 4050.00    1.08449   1.02757   -1.000
 4051.00    1.08074   1.02556   -1.000
 4052.00    1.04868   1.00747   -1.000
 4053.00    1.01874   0.98118   -1.000
 4054.00    0.98418   0.95885   -1.000
 4055.00    0.95936   0.94510  258.590
 4056.00    0.94998   0.93134   -1.000
 4057.00    0.93834   0.91921   -1.000
 4058.00    0.93630   0.93056  265.874
 4059.00    0.97173   0.96097  266.342
 4060.00    1.02677   0.97970   -1.000
 4061.00    1.03077   0.95581   -1.000
 4062.00    0.96646   0.88724   -1.000
 4063.00    0.88213   0.83772   -1.000
 4064.00    0.85136   0.82892   -1.000
 4065.00    0.89618   0.85064   -1.000
 4066.00    0.95504   0.88946   -1.000
 4067.00    0.97885   0.92469   -1.000
 4068.00    1.01557   0.95206   -1.000
 4069.00    1.05406   0.96135   -1.000
 4070.00    1.03475   0.93036   -1.000
 4071.00    0.97300   0.88616   -1.000
 4072.00    0.94590   0.88657   -1.000
 4073.00    0.98748   0.91717   -1.000
 4074.00    1.02278   0.94195   -1.000
 4075.00    0.98408   0.91713   -1.000
 4076.00    0.92692   0.86039   -1.000
 4077.00    0.88356   0.83368   -1.000
 4078.00    0.87051   0.85124   -1.000
 4079.00    0.92604   0.91914  296.763
 4080.00    1.00732   0.98603   -1.000
 4081.00    1.04861   1.02354   -1.000
 4082.00    1.04772   1.01504   -1.000
 4083.00    1.03682   0.98412   -1.000
 4084.00    1.01226   0.96295   -1.000
 4085.00    1.00236   0.97079   -1.000
 4086.00    1.03637   1.00952   -1.000
 4087.00    1.10546   1.05200   -1.000
 4088.00    1.15571   1.08436   -1.000
 4089.00    1.14756   1.08763   -1.000
 4090.00    1.12346   1.07036   -1.000
 4091.00    1.09944   1.04752   -1.000
 4092.00    1.08474   1.03880   -1.000
 4093.00    1.08752   1.02912   -1.000
 4094.00    1.07351   1.00827   -1.000
 4095.00    1.03908   0.97367   -1.000
 4096.00    0.99102   0.93656   -1.000
 4097.00    0.95892   0.91507   -1.000
 4098.00    0.95220   0.89571   -1.000
 4099.00    0.93101   0.85348   -1.000
 4100.00    0.86643   0.79005   -1.000
 4101.00    0.81094   0.74447   -1.000
 4102.00    0.80419   0.74382   -1.000
 4103.00    0.85491   0.80132   -1.000
 4104.00    0.92922   0.87721   -1.000
 4105.00    0.98898   0.94384   -1.000
 4106.00    1.03141   0.98024   -1.000
 4107.00    1.04332   0.99563   -1.000
 4108.00    1.04042   0.99034   -1.000
 4109.00    1.02793   0.97648   -1.000
 4110.00    1.00526   0.96495   -1.000
 4111.00    0.99842   0.96958   -1.000
 4112.00    1.01146   0.98674   -1.000
 4113.00    1.02946   1.01219  262.344
 4114.00    1.04191   1.03640  256.872
 4115.00    1.06296   1.05163  252.663
 4116.00    1.06120   1.04700  249.317
 4117.00    1.03389   1.02369  248.268
 4118.00    1.01332   0.99554   -1.000
 4119.00    0.99745   0.97903   -1.000
 4120.00    1.00416   0.98461   -1.000
 4121.00    1.01921   0.99456   -1.000
 4122.00    1.00722   0.99866  261.764
 4123.00    1.00457   1.00602  260.162
 4124.00    1.02705   1.01994  259.367
 4125.00    1.04486   1.03058   -1.000
 4126.00    1.04627   1.02475   -1.000
 4127.00    1.04159   1.00433   -1.000
 4128.00    1.03340   0.98790   -1.000
 4129.00    1.00327   0.97963   -1.000
 4130.00    0.97861   0.96155   -1.000
 4131.00    0.94956   0.93240   -1.000
 4132.00    0.92450   0.90291   -1.000
 4133.00    0.91305   0.90477  279.789
 4134.00    0.93193   0.94066   -1.000
 4135.00    0.98837   0.98898  282.502
 4136.00    1.03120   1.03111  271.079
 4137.00    1.05000   1.05837   -1.000
 4138.00    1.07046   1.07296  252.262
 4139.00    1.07752   1.07970  248.331
 4140.00    1.06424   1.06192  245.498
 4141.00    1.01685   1.00891  246.740
 4142.00    0.94800   0.93115   -1.000
 4143.00    0.88052   0.88320  271.254
 4144.00    0.87820   0.89152   -1.000
 4145.00    0.92907   0.94496   -1.000
 4146.00    0.98063   1.00236   -1.000
 4147.00    1.00215   1.02157   -1.000
 4148.00    1.01106   1.01268  260.932
 4149.00    0.98717   0.99537   -1.000
 4150.00    0.97792   0.98939   -1.000
 4151.00    0.98362   0.99026  273.219
 4152.00    0.97242   0.98783   -1.000
 4153.00    0.96674   0.97644   -1.000
 4154.00    0.97208   0.96408  272.502
 4155.00    0.97497   0.96184   -1.000
 4156.00    0.96780   0.97438  276.326
 4157.00    0.96722   0.99645   -1.000
 4158.00    1.06898   1.02550   -1.000
 4159.00    1.31376   1.05209   -1.000
 4160.00    1.23007   1.06728   -1.000
 4161.00    0.77643   1.07811   -1.000
 4162.00    0.87732   1.08618   -1.000
 4163.00    1.12126   1.08955   -1.000
 4164.00    1.07322   1.08060  251.492
 4165.00    1.01990   1.06210   -1.000
 4166.00    1.00044   1.03536   -1.000
 4167.00    0.99185   1.02414   -1.000
 4168.00    1.00499   1.02950   -1.000
 4169.00    1.01710   1.04024   -1.000
 4170.00    1.00243   1.02715   -1.000
 4171.00    0.96584   0.97798   -1.000
 4172.00    0.91629   0.93060   -1.000
 4173.00    0.89010   0.91192   -1.000
 4174.00    0.91182   0.93225   -1.000
 4175.00    0.96339   0.96401  296.948
 4176.00    0.96371   0.97742   -1.000
 4177.00    0.94839   0.98098   -1.000
 4178.00    0.95120   0.99000   -1.000
 4179.00    0.97444   1.00357   -1.000
 4180.00    0.97341   1.01178   -1.000
 4181.00    0.98780   1.00611   -1.000
 4182.00    0.98249   1.00356   -1.000
 4183.00    1.00119   1.02468   -1.000
 4184.00    1.05332   1.04437  267.877
 4185.00    1.06207   1.04547   -1.000
 4186.00    1.01413   1.01814  259.728
 4187.00    0.96760   0.99056   -1.000
 4188.00    0.98157   0.99439   -1.000
 4189.00    1.00803   1.01400  276.073
 4190.00    1.00487   1.02945   -1.000
 4191.00    1.00351   1.04121   -1.000
 4192.00    1.01950   1.05739   -1.000
 4193.00    1.04654   1.06994   -1.000
 4194.00    1.03756   1.05724   -1.000
 4195.00    0.99606   1.00959   -1.000
 4196.00    0.94455   0.96515   -1.000
 4197.00    0.91033   0.93440   -1.000
 4198.00    0.91671   0.92534  286.032
 4199.00    0.93838   0.92406   -1.000
 4200.00    0.96149   0.93032   -1.000
 4201.00    0.96540   0.93737   -1.000
 4202.00    0.96413   0.94866   -1.000
 4203.00    0.96838   0.97364  280.522
 4204.00    0.99768   1.01040   -1.000
 4205.00    1.00941   1.04271   -1.000
 4206.00    1.04301   1.06881   -1.000
 4207.00    1.06909   1.09161   -1.000
 4208.00    1.07540   1.09547   -1.000
 4209.00    1.08207   1.08694  255.248
 4210.00    1.07944   1.08071  254.877
 4211.00    1.06917   1.08553   -1.000
 4212.00    1.07091   1.09177   -1.000
 4213.00    1.06540   1.06857  253.707
 4214.00    1.02773   1.02145  257.540
 4215.00    0.97765   0.99330   -1.000
 4216.00    0.98139   1.00299   -1.000
 4217.00    1.05573   1.06511   -1.000
 4218.00    1.13084   1.11926  266.985
 4219.00    1.16672   1.15534  251.475
 4220.00    1.17670   1.16070  241.873
 4221.00    1.16949   1.14294   -1.000
 4222.00    1.13077   1.09174   -1.000
 4223.00    1.06872   1.01390   -1.000
 4224.00    0.97516   0.90600   -1.000
 4225.00    0.85682   0.81123   -1.000
 4226.00    0.75950   0.75521  303.598
 4227.00    0.75312   0.79285   -1.000
 4228.00    0.86459   0.90060   -1.000
 4229.00    1.01220   1.03032   -1.000
 4230.00    1.10331   1.09374  278.058
 4231.00    1.12629   1.10453  254.577
 4232.00    1.11375   1.08053   -1.000
 4233.00    1.09125   1.05064   -1.000
 4234.00    1.06607   1.02331   -1.000
 4235.00    1.04069   1.01141   -1.000
 4236.00    1.02325   1.00673   -1.000
 4237.00    1.02377   1.01468  266.998
 4238.00    1.03141   1.03694  269.568
 4239.00    1.04665   1.06524   -1.000
 4240.00    1.07976   1.09069   -1.000
 4241.00    1.11681   1.11479  256.287
 4242.00    1.13859   1.13375  251.771
 4243.00    1.15357   1.15745  249.177
 4244.00    1.18343   1.18226  247.122
 4245.00    1.19537   1.18131  242.430
 4246.00    1.14755   1.13938  239.714
 4247.00    1.09378   1.08258  245.197
 4248.00    1.05581   1.02973   -1.000
 4249.00    1.02142   1.00686   -1.000
 4250.00    1.00344   1.00682  270.214
 4251.00    1.01829   1.03217   -1.000
 4252.00    1.04854   1.05016  268.779
 4253.00    1.04977   1.04269  260.813
 4254.00    1.03560   1.02649  256.262
 4255.00    1.04199   1.03872  259.791
 4256.00    1.08900   1.08501  263.779
 4257.00    1.13131   1.10548   -1.000
 4258.00    1.11316   1.06838   -1.000
 4259.00    1.04692   1.00980   -1.000
 4260.00    0.99369   0.97764   -1.000
 4261.00    1.01289   1.01385  275.644
 4262.00    1.07954   1.08959   -1.000
 4263.00    1.15007   1.16924   -1.000
 4264.00    1.19605   1.20751   -1.000
 4265.00    1.21074   1.21090  238.486
 4266.00    1.21076   1.19338  234.673
 4267.00    1.17779   1.15980   -1.000
 4268.00    1.12176   1.10564  240.901
 4269.00    1.05766   1.04182   -1.000
 4270.00    0.98757   0.96357   -1.000
 4271.00    0.92759   0.90866   -1.000
 4272.00    0.89150   0.88628  286.959
 4273.00    0.90539   0.90663  300.122
 4274.00    0.94696   0.94567  299.611
 4275.00    0.99224   1.00187   -1.000
 4276.00    1.04980   1.07209   -1.000
 4277.00    1.11751   1.14093   -1.000
 4278.00    1.14675   1.15576   -1.000
 4279.00    1.12019   1.13085   -1.000
 4280.00    1.09464   1.09319  247.815
 4281.00    1.07195   1.08519   -1.000
 4282.00    1.06895   1.10021   -1.000
 4283.00    1.09313   1.10390   -1.000
 4284.00    1.08712   1.09295  260.519
 4285.00    1.05482   1.07265   -1.000
 4286.00    1.03907   1.05541   -1.000
 4287.00    1.01966   1.03464   -1.000
 4288.00    0.99116   0.99475  278.431
 4289.00    0.94370   0.94464  284.291
 4290.00    0.91874   0.92784   -1.000
 4291.00    0.95438   0.96264   -1.000
 4292.00    1.01905   1.02361  302.287
 4293.00    1.05990   1.05246  285.197
 4294.00    1.06233   1.04593   -1.000
 4295.00    1.05387   1.02604   -1.000
 4296.00    1.03046   0.99960   -1.000
 4297.00    0.97086   0.95049   -1.000
 4298.00    0.90320   0.88663   -1.000
 4299.00    0.84341   0.82567   -1.000
 4300.00    0.79815   0.80188  329.084
 4301.00    0.79524   0.80932   -1.000
 4302.00    0.82748   0.82979  346.499
 4303.00    0.85769   0.84554   -1.000
 4304.00    0.87496   0.85803   -1.000
 4305.00    0.86410   0.85392   -1.000
 4306.00    0.83821   0.82177   -1.000
 4307.00    0.79513   0.78008   -1.000
 4308.00    0.76524   0.75773   -1.000
 4309.00    0.77491   0.77650  359.389
 4310.00    0.81796   0.82620  363.101
 4311.00    0.86857   0.89077   -1.000
 4312.00    0.94629   0.94721  330.778
 4313.00    1.01052   1.00741  310.484
 4314.00    1.06327   1.09135   -1.000
 4315.00    1.16195   1.18588   -1.000
 4316.00    1.24990   1.28476   -1.000
 4317.00    1.31408   1.33708   -1.000
 4318.00    1.32989   1.34116   -1.000
 4319.00    1.32000   1.31407  220.605
 4320.00    1.27991   1.28086  221.903
 4321.00    1.24167   1.22993  225.979
 4322.00    1.19459   1.15848   -1.000
 4323.00    1.10016   1.05633   -1.000
 4324.00    0.99031   0.96070   -1.000
 4325.00    0.92272   0.92626  274.962
 4326.00    0.95603   0.98924   -1.000
 4327.00    1.06737   1.11029   -1.000
 4328.00    1.20341   1.23004   -1.000
 4329.00    1.25776   1.27619   -1.000
 4330.00    1.26573   1.28029   -1.000
 4331.00    1.25932   1.27452   -1.000
 4332.00    1.26898   1.28867   -1.000
 4333.00    1.29221   1.31007   -1.000
 4334.00    1.32209   1.31808  225.828
 4335.00    1.32485   1.29297   -1.000
 4336.00    1.28184   1.21572   -1.000
 4337.00    1.16288   1.10041   -1.000
 4338.00    1.06183   0.97683   -1.000
 4339.00    0.97918   0.91144   -1.000
 4340.00    0.94758   0.90488   -1.000
 4341.00    0.99061   0.96298   -1.000
 4342.00    1.08020   1.05806   -1.000
 4343.00    1.15551   1.14658  289.000
 4344.00    1.21188   1.19847  263.328
 4345.00    1.23653   1.23456  249.833
 4346.00    1.25697   1.26285  242.582
 4347.00    1.28477   1.29417   -1.000
 4348.00    1.30466   1.32060   -1.000
 4349.00    1.31115   1.30588  230.472
 4350.00    1.26346   1.23311   -1.000
 4351.00    1.16056   1.15037  231.958
 4352.00    1.10441   1.10906  246.737
 4353.00    1.13427   1.14344  261.379
 4354.00    1.20160   1.20561  260.156
 4355.00    1.23943   1.25857   -1.000
 4356.00    1.27983   1.28339  238.265
 4357.00    1.29538   1.28770  231.762
 4358.00    1.27834   1.27048  228.410
 4359.00    1.26680   1.25943  230.090
 4360.00    1.26787   1.27963   -1.000
 4361.00    1.28873   1.31470   -1.000
 4362.00    1.33496   1.34628   -1.000
 4363.00    1.35512   1.36513   -1.000
 4364.00    1.35793   1.37921   -1.000
 4365.00    1.38098   1.37766  220.794
 4366.00    1.35883   1.34195  218.849
 4367.00    1.29579   1.28761  220.663
 4368.00    1.25703   1.26055  228.218
 4369.00    1.25999   1.25680  235.069
 4370.00    1.27777   1.26075   -1.000
 4371.00    1.29006   1.25307   -1.000
 4372.00    1.26267   1.22516   -1.000
 4373.00    1.22529   1.17833   -1.000
 4374.00    1.16660   1.12982   -1.000
 4375.00    1.14555   1.12573   -1.000
 4376.00    1.18848   1.17145   -1.000
 4377.00    1.25837   1.24016   -1.000
 4378.00    1.30488   1.27440   -1.000
 4379.00    1.30559   1.26767   -1.000
 4380.00    1.28040   1.22201   -1.000
 4381.00    1.21964   1.13351   -1.000
 4382.00    1.10626   1.00631   -1.000
 4383.00    0.97681   0.90967   -1.000
 4384.00    0.91761   0.89584   -1.000
 4385.00    0.98689   0.97877  304.702
 4386.00    1.12567   1.09464   -1.000
 4387.00    1.20099   1.15739   -1.000
 4388.00    1.20474   1.16898   -1.000
 4389.00    1.19001   1.15972   -1.000
 4390.00    1.17687   1.16036   -1.000
 4391.00    1.18658   1.17711  246.003
 4392.00    1.22628   1.20047   -1.000
 4393.00    1.24099   1.20884   -1.000
 4394.00    1.22267   1.20190   -1.000
 4395.00    1.22526   1.21666  239.277
 4396.00    1.26236   1.26520  243.166
 4397.00    1.32574   1.30410   -1.000
 4398.00    1.33907   1.29891   -1.000
 4399.00    1.28493   1.25180   -1.000
 4400.00    1.24012   1.22111   -1.000
 4401.00    1.23312   1.21687   -1.000
 4402.00    1.25297   1.20741   -1.000
 4403.00    1.23032   1.15856   -1.000
 4404.00    1.14565   1.08962   -1.000
 4405.00    1.10018   1.06509   -1.000
 4406.00    1.12715   1.10133   -1.000
 4407.00    1.17234   1.14503   -1.000
 4408.00    1.19777   1.18568  250.477
 4409.00    1.22924   1.23688  247.479
 4410.00    1.31122   1.30837  243.401
 4411.00    1.37056   1.36752  233.389
 4412.00    1.37873   1.36603  223.887
 4413.00    1.35848   1.31029   -1.000
 4414.00    1.29688   1.23633   -1.000
 4415.00    1.22301   1.17888   -1.000
 4416.00    1.22258   1.19243   -1.000
 4417.00    1.26094   1.25706  243.487
 4418.00    1.33015   1.33344  239.710
 4419.00    1.36893   1.37724  230.555
 4420.00    1.37643   1.37898  221.688
 4421.00    1.34251   1.33958  217.495
 4422.00    1.28868   1.30065  220.286
 4423.00    1.26860   1.29072   -1.000
 4424.00    1.28550   1.30361   -1.000
 4425.00    1.30406   1.31538   -1.000
 4426.00    1.29287   1.31605   -1.000
 4427.00    1.28919   1.32209   -1.000
 4428.00    1.28661   1.32597   -1.000
 4429.00    1.28052   1.32291   -1.000
 4430.00    1.26017   1.31490   -1.000
 4431.00    1.27631   1.31646   -1.000
 4432.00    1.28744   1.32040   -1.000
 4433.00    1.26383   1.29070   -1.000
 4434.00    1.21501   1.24037   -1.000
 4435.00    1.20317   1.22079   -1.000
 4436.00    1.24106   1.26288   -1.000
 4437.00    1.31673   1.35375   -1.000
 4438.00    1.38779   1.41942   -1.000
 4439.00    1.42773   1.43538  218.370
 4440.00    1.40613   1.38944  211.519
 4441.00    1.33709   1.32384  213.117
 4442.00    1.27391   1.27480  221.145
 4443.00    1.25304   1.27963   -1.000
 4444.00    1.30592   1.33597   -1.000
 4445.00    1.37390   1.40321   -1.000
 4446.00    1.41963   1.44434   -1.000
 4447.00    1.43530   1.44859   -1.000
 4448.00    1.43493   1.44262  216.139
 4449.00    1.41991   1.43967   -1.000
 4450.00    1.40182   1.43004   -1.000
 4451.00    1.38568   1.41583   -1.000
 4452.00    1.38756   1.39242  221.128
 4453.00    1.36444   1.34636  219.991
 4454.00    1.30252   1.27633   -1.000
 4455.00    1.24921   1.23777  232.376
 4456.00    1.23492   1.23869  241.859
 4457.00    1.26525   1.25757  244.326
 4458.00    1.28241   1.26635   -1.000
 4459.00    1.26356   1.25708  236.442
 4460.00    1.24939   1.24716  237.090
 4461.00    1.23857   1.25179  238.667
 4462.00    1.25852   1.28197   -1.000
 4463.00    1.30270   1.33097   -1.000
 4464.00    1.36481   1.37130  235.326
 4465.00    1.38490   1.38661  226.684
 4466.00    1.38887   1.38125  222.727
 4467.00    1.39464   1.36675   -1.000
 4468.00    1.38831   1.35129   -1.000
 4469.00    1.36162   1.34323   -1.000
 4470.00    1.35522   1.35900  230.398
 4471.00    1.37510   1.40656   -1.000
 4472.00    1.44019   1.45504   -1.000
 4473.00    1.48129   1.49322   -1.000
 4474.00    1.50078   1.51161   -1.000
 4475.00    1.50645   1.52284   -1.000
 4476.00    1.51473   1.54271   -1.000
 4477.00    1.53747   1.55496   -1.000
 4478.00    1.53423   1.52977  203.787
 4479.00    1.48272   1.46324   -1.000
 4480.00    1.39154   1.38540  206.600
 4481.00    1.34178   1.35156  215.004
 4482.00    1.35650   1.37579   -1.000
 4483.00    1.41245   1.44842   -1.000
 4484.00    1.49885   1.51906   -1.000
 4485.00    1.54319   1.56660   -1.000
 4486.00    1.54538   1.56652   -1.000
 4487.00    1.53750   1.52474  203.502
 4488.00    1.48794   1.45789   -1.000
 4489.00    1.41594   1.41793  210.653
 4490.00    1.39791   1.42178   -1.000
 4491.00    1.44756   1.45763  221.417
 4492.00    1.48461   1.48336  217.806
 4493.00    1.48018   1.46062   -1.000
 4494.00    1.43136   1.41802  210.511
 4495.00    1.36825   1.39532   -1.000
 4496.00    1.39029   1.41823   -1.000
 4497.00    1.45553   1.46886   -1.000
 4498.00    1.50066   1.51066  220.156
 4499.00    1.53121   1.52761  212.585
 4500.00    1.53018   1.51759  207.528
 4501.00    1.49888   1.51359   -1.000
 4502.00    1.51101   1.53898   -1.000
 4503.00    1.55461   1.58278   -1.000
 4504.00    1.58702   1.62621   -1.000
 4505.00    1.61396   1.64307   -1.000
 4506.00    1.60350   1.62886   -1.000
 4507.00    1.59973   1.60426  196.054
 4508.00    1.57604   1.59230   -1.000
 4509.00    1.59963   1.59752  201.232
 4510.00    1.60023   1.60698  200.929
 4511.00    1.59573   1.60229  199.323
 4512.00    1.57054   1.57494  198.599
 4513.00    1.53090   1.54210  200.940
 4514.00    1.52104   1.52016  204.979
 4515.00    1.51703   1.51306  208.108
 4516.00    1.52323   1.51767  208.774
 4517.00    1.50619   1.51682  207.802
 4518.00    1.49010   1.51406   -1.000
 4519.00    1.50658   1.52957   -1.000
 4520.00    1.57336   1.55528   -1.000
 4521.00    1.59185   1.56793   -1.000
 4522.00    1.54836   1.55375  203.721
 4523.00    1.50922   1.52184  205.470
 4524.00    1.48454   1.49061  210.447
 4525.00    1.44913   1.45778  214.157
 4526.00    1.40392   1.41162  216.216
 4527.00    1.35048   1.35800  220.568
 4528.00    1.31192   1.31784  227.413
 4529.00    1.32412   1.31367  233.046
 4530.00    1.35667   1.34089   -1.000
 4531.00    1.38420   1.37831  232.255
 4532.00    1.41075   1.39958  228.013
 4533.00    1.41278   1.38832   -1.000
 4534.00    1.36647   1.36392  225.005
 4535.00    1.35487   1.36287  232.018
 4536.00    1.39380   1.41585   -1.000
 4537.00    1.48912   1.49509  231.834
 4538.00    1.56726   1.55056   -1.000
 4539.00    1.56495   1.55532  206.563
 4540.00    1.53499   1.52768  202.856
 4541.00    1.52707   1.50750   -1.000
 4542.00    1.53031   1.51244   -1.000
 4543.00    1.54424   1.52342   -1.000
 4544.00    1.52631   1.52167  207.686
 4545.00    1.49886   1.50589  220.397
 4546.00    1.49827   1.49481   -2.000
 4547.00    1.35890   1.48971   -2.000
 4548.00    0.41951   1.47356   -2.000
 4549.00   -0.01876   1.45336    0.000
 4550.00    0.19371   1.45272   -1.000
 4551.00    1.06234   1.47664   -1.000
 4552.00    0.71689   1.49127   -1.000
 4553.00    0.95071   1.47523   -1.000
 4554.00    1.54573   1.45411   -1.000
 4555.00    1.46766   1.45500  221.143
 4556.00    1.51894   1.49456   -1.000
 4557.00    1.57258   1.55662   -1.000
 4558.00    1.61343   1.60425  209.136
 4559.00    1.62556   1.62437  201.600
 4560.00    1.61731   1.63279  199.187
 4561.00    1.61310   1.62873  200.291
 4562.00    1.59775   1.60910  200.133
 4563.00    1.56472   1.56613  201.088
 4564.00    1.51224   1.52432  206.087
 4565.00    1.49239   1.51173   -1.000
 4566.00    1.53750   1.53859  213.337
 4567.00    1.60013   1.58698   -1.000
 4568.00    1.64574   1.62445   -1.000
 4569.00    1.65271   1.62473   -1.000
 4570.00    1.59452   1.59623  198.727
 4571.00    1.53039   1.55938   -1.000
 4572.00    1.53198   1.54624  206.977
 4573.00    1.56986   1.57431  211.132
 4574.00    1.62338   1.61213  208.318
 4575.00    1.65215   1.62769   -1.000
 4576.00    1.64049   1.62325   -1.000
 4577.00    1.63111   1.60948   -1.000
 4578.00    1.57697   1.58069  201.660
 4579.00    1.53572   1.53633  203.258
 4580.00    1.51513   1.49455   -1.000
 4581.00    1.49822   1.48031   -1.000
 4582.00    1.51855   1.49110   -1.000
 4583.00    1.51997   1.50614   -1.000
 4584.00    1.50724   1.51230  212.546
 4585.00    1.50624   1.50950  211.452
 4586.00    1.51119   1.51661  212.319
 4587.00    1.55586   1.55001  212.913
 4588.00    1.60260   1.59336  209.267
 4589.00    1.62681   1.61786  203.829
 4590.00    1.62145   1.61382  200.273
 4591.00    1.57769   1.58689  200.742
 4592.00    1.54166   1.55312  203.994
 4593.00    1.53675   1.53282  207.803
 4594.00    1.52505   1.52860  210.828
 4595.00    1.53442   1.52781  210.499
 4596.00    1.53909   1.53047   -1.000
 4597.00    1.54883   1.54122  207.194
 4598.00    1.55101   1.55275  206.717
 4599.00    1.55601   1.55660  206.280
 4600.00    1.56667   1.55286   -1.000
 4601.00    1.54263   1.54800  208.155
 4602.00    1.53909   1.55039  209.803
 4603.00    1.55931   1.55605  209.834
 4604.00    1.58610   1.55658   -1.000
 4605.00    1.59550   1.55890   -1.000
 4606.00    1.58892   1.57747  205.928
 4607.00    1.62670   1.61713  205.214
 4608.00    1.68255   1.66306   -1.000
 4609.00    1.70540   1.69789  198.411
 4610.00    1.70066   1.70024  194.474
 4611.00    1.68201   1.67690  192.811
 4612.00    1.66930   1.65036   -1.000
 4613.00    1.65219   1.63587   -1.000
 4614.00    1.66125   1.64208   -1.000
 4615.00    1.66801   1.65961  199.680
 4616.00    1.66691   1.67037  198.443
 4617.00    1.66097   1.67243  196.799
 4618.00    1.66672   1.66783  196.412
 4619.00    1.67584   1.66335  197.862
 4620.00    1.67675   1.66719  199.062
 4621.00    1.69948   1.68096   -1.000
 4622.00    1.70276   1.69276  196.305
 4623.00    1.69988   1.69084  193.619
 4624.00    1.70336   1.68068   -1.000
 4625.00    1.69664   1.67408   -1.000
 4626.00    1.68189   1.66740  194.911
 4627.00    1.67620   1.66395  196.569
 4628.00    1.68263   1.66429   -1.000
 4629.00    1.67298   1.66611  196.974
 4630.00    1.66800   1.67230  198.188
 4631.00    1.68867   1.68277  198.333
 4632.00    1.69521   1.68209   -1.000
 4633.00    1.66265   1.66426  195.210
 4634.00    1.64401   1.64191  196.570
 4635.00    1.64500   1.63108   -1.000
 4636.00    1.63436   1.62096   -1.000
 4637.00    1.61644   1.60271   -1.000
 4638.00    1.58108   1.58407  203.102
 4639.00    1.57126   1.57476  205.563
 4640.00    1.60416   1.58434   -1.000
 4641.00    1.64025   1.61164   -1.000
 4642.00    1.66773   1.63833   -1.000
 4643.00    1.68546   1.64400   -1.000
 4644.00    1.63952   1.61781   -1.000
 4645.00    1.59684   1.57395   -1.000
 4646.00    1.56373   1.52216   -1.000
 4647.00    1.52936   1.49317   -1.000
 4648.00    1.53898   1.50542   -1.000
 4649.00    1.56945   1.54766   -1.000
 4650.00    1.60219   1.59957  206.615
 4651.00    1.64149   1.63916  202.028
 4652.00    1.66587   1.65199   -1.000
 4653.00    1.65298   1.64201  199.502
 4654.00    1.60335   1.61420  199.498
 4655.00    1.57555   1.58924  202.371
 4656.00    1.59622   1.59111  206.853
 4657.00    1.62185   1.62797  208.464
 4658.00    1.69588   1.69121  205.708
 4659.00    1.74999   1.74604  198.701
 4660.00    1.77961   1.76479   -1.000
 4661.00    1.76416   1.74117   -1.000
 4662.00    1.72378   1.69955   -1.000
 4663.00    1.66760   1.65731   -1.000
 4664.00    1.63448   1.62398   -1.000
 4665.00    1.59360   1.58137   -1.000
 4666.00    1.55200   1.52027   -1.000
 4667.00    1.49267   1.46588   -1.000
 4668.00    1.43159   1.45362   -1.000
 4669.00    1.49443   1.49731  220.749
 4670.00    1.58329   1.56695   -1.000
 4671.00    1.64939   1.61968   -1.000
 4672.00    1.67481   1.64356   -1.000
 4673.00    1.68449   1.64269   -1.000
 4674.00    1.66325   1.64441   -1.000
 4675.00    1.64521   1.65924  198.129
 4676.00    1.69616   1.67981   -1.000
 4677.00    1.73168   1.67925   -1.000
 4678.00    1.69320   1.65100   -1.000
 4679.00    1.63664   1.61314   -1.000
 4680.00    1.59933   1.58109   -1.000
 4681.00    1.58317   1.56984   -1.000
 4682.00    1.60358   1.58055   -1.000
 4683.00    1.64912   1.60859   -1.000
 4684.00    1.68043   1.63467   -1.000
 4685.00    1.68456   1.64504   -1.000
 4686.00    1.69330   1.64248   -1.000
 4687.00    1.68718   1.63300   -1.000
 4688.00    1.66906   1.62716   -1.000
 4689.00    1.67733   1.62550   -1.000
 4690.00    1.68259   1.62526   -1.000
 4691.00    1.66168   1.62217   -1.000
 4692.00    1.66510   1.62497   -1.000
 4693.00    1.68594   1.64171   -1.000
 4694.00    1.70678   1.66554   -1.000
 4695.00    1.75677   1.68540   -1.000
 4696.00    1.76419   1.69047   -1.000
 4697.00    1.72945   1.66686   -1.000
 4698.00    1.66689   1.62311   -1.000
 4699.00    1.62493   1.58615   -1.000
 4700.00    1.61320   1.57091   -1.000
 4701.00    1.63203   1.55982   -1.000
 4702.00    1.62415   1.54802   -1.000
 4703.00    1.59762   1.54847   -1.000
 4704.00    1.61525   1.57055   -1.000
 4705.00    1.65488   1.59711   -1.000
 4706.00    1.64911   1.60110   -1.000
 4707.00    1.64033   1.58227   -1.000
 4708.00    1.59719   1.56249   -1.000
 4709.00    1.60074   1.56586   -1.000
 4710.00    1.61766   1.59371   -1.000
 4711.00    1.66083   1.62780   -1.000
 4712.00    1.72917   1.64754   -1.000
 4713.00    1.72582   1.63772   -1.000
 4714.00    1.67407   1.61723   -1.000
 4715.00    1.65505   1.62209   -1.000
 4716.00    1.68905   1.65611   -1.000
 4717.00    1.73748   1.70100   -1.000
 4718.00    1.77778   1.73676   -1.000
 4719.00    1.80588   1.75774   -1.000
 4720.00    1.78876   1.76658   -1.000
 4721.00    1.77038   1.76144  190.395
 4722.00    1.75435   1.74610  190.023
 4723.00    1.75720   1.74234   -1.000
 4724.00    1.78219   1.75529   -1.000
 4725.00    1.79883   1.75551   -1.000
 4726.00    1.75348   1.72320   -1.000
 4727.00    1.67119   1.65959   -1.000
 4728.00    1.58297   1.59513  195.692
 4729.00    1.56798   1.56870  202.957
 4730.00    1.60865   1.57755   -1.000
 4731.00    1.63684   1.60713   -1.000
 4732.00    1.66296   1.63998   -1.000
 4733.00    1.69661   1.66961   -1.000
 4734.00    1.72573   1.68492   -1.000
 4735.00    1.72049   1.68258   -1.000
 4736.00    1.70060   1.67549   -1.000
 4737.00    1.69991   1.67500   -1.000
 4738.00    1.70894   1.68941   -1.000
 4739.00    1.72258   1.71024   -1.000
 4740.00    1.72172   1.71628  195.315
 4741.00    1.70394   1.70977  195.680
 4742.00    1.70085   1.71315  196.777
 4743.00    1.73022   1.72159  196.770
 4744.00    1.76020   1.72662   -1.000
 4745.00    1.75301   1.73756   -1.000
 4746.00    1.76645   1.75290   -1.000
 4747.00    1.79783   1.76983   -1.000
 4748.00    1.78694   1.78206  192.027
 4749.00    1.78558   1.78818  190.226
 4750.00    1.78694   1.79063  189.992
 4751.00    1.77149   1.78526  190.302
 4752.00    1.74919   1.76726   -1.000
 4753.00    1.72667   1.74110  192.105
 4754.00    1.72371   1.71720  194.273
 4755.00    1.71740   1.70476  195.835
 4756.00    1.71106   1.70815  196.976
 4757.00    1.71640   1.72036  196.653
 4758.00    1.71880   1.73723   -1.000
 4759.00    1.74856   1.75352  198.938
 4760.00    1.74267   1.75909   -1.000
 4761.00    1.70562   1.73885   -1.000
 4762.00    1.67408   1.69890   -1.000
 4763.00    1.62445   1.65538   -1.000
 4764.00    1.59011   1.63127   -1.000
 4765.00    1.58384   1.61930   -1.000
 4766.00    1.60118   1.61250  208.076
 4767.00    1.62585   1.62670  207.498
 4768.00    1.69032   1.67307   -1.000
 4769.00    1.72347   1.72789  202.711
 4770.00    1.73668   1.76008   -1.000
 4771.00    1.73211   1.75432   -1.000
 4772.00    1.69969   1.73913   -1.000
 4773.00    1.71707   1.74847   -1.000
 4774.00    1.74423   1.78040   -1.000
 4775.00    1.77422   1.81341   -1.000
 4776.00    1.78755   1.82614   -1.000
 4777.00    1.78065   1.82770   -1.000
 4778.00    1.77740   1.82550   -1.000
 4779.00    1.75010   1.81361   -1.000
 4780.00    1.73405   1.79471   -1.000
 4781.00    1.73243   1.77873   -1.000
 4782.00    1.70818   1.76009   -1.000
 4783.00    1.67416   1.73810   -1.000
 4784.00    1.69851   1.72554   -1.000
 4785.00    1.70088   1.72464   -1.000
 4786.00    1.68917   1.72000   -1.000
 4787.00    1.68437   1.70967   -1.000
 4788.00    1.67859   1.70913   -1.000
 4789.00    1.68030   1.71461   -1.000
 4790.00    1.70009   1.72283   -1.000
 4791.00    1.71826   1.74032   -1.000
 4792.00    1.73731   1.77353   -1.000
 4793.00    1.78424   1.81920   -1.000
 4794.00    1.82924   1.86713   -1.000
 4795.00    1.86542   1.89638   -1.000
 4796.00    1.85765   1.89497   -1.000
 4797.00    1.79428   1.86169   -1.000
 4798.00    1.75602   1.81320   -1.000
 4799.00    1.73270   1.77259   -1.000
 4800.00    1.71595   1.76575   -1.000
 4801.00    1.75983   1.79237   -1.000
 4802.00    1.82109   1.83590  197.308
 4803.00    1.83295   1.86601   -1.000
 4804.00    1.80900   1.85631   -1.000
 4805.00    1.75970   1.82338   -1.000
 4806.00    1.72707   1.79135   -1.000
 4807.00    1.72971   1.77614   -1.000
 4808.00    1.72620   1.77243   -1.000
 4809.00    1.74645   1.78337   -1.000
 4810.00    1.76956   1.80323   -1.000
 4811.00    1.77815   1.82137   -1.000
 4812.00    1.76850   1.82822   -1.000
 4813.00    1.76402   1.82877   -1.000
 4814.00    1.79184   1.83244   -1.000
 4815.00    1.79202   1.84450   -1.000
 4816.00    1.81677   1.86378   -1.000
 4817.00    1.82074   1.88383   -1.000
 4818.00    1.84140   1.90137   -1.000
 4819.00    1.85942   1.91126   -1.000
 4820.00    1.83469   1.91279   -1.000
 4821.00    1.83841   1.89598   -1.000
 4822.00    1.80335   1.85354   -1.000
 4823.00    1.76479   1.79893   -1.000
 4824.00    1.74630   1.76658   -1.000
 4825.00    1.77040   1.77754  198.496
 4826.00    1.80797   1.81844  197.650
 4827.00    1.80732   1.84045   -1.000
 4828.00    1.79356   1.83335   -1.000
 4829.00    1.77190   1.81716   -1.000
 4830.00    1.77064   1.80589   -1.000
 4831.00    1.75124   1.79070   -1.000
 4832.00    1.72802   1.77288   -1.000
 4833.00    1.74731   1.77531   -1.000
 4834.00    1.78532   1.79938  197.606
 4835.00    1.82678   1.83077  194.295
 4836.00    1.82466   1.84382   -1.000
 4837.00    1.80921   1.84057   -1.000
 4838.00    1.79147   1.82583   -1.000
 4839.00    1.75810   1.79883   -1.000
 4840.00    1.74337   1.77469   -1.000
 4841.00    1.74170   1.76707   -1.000
 4842.00    1.74669   1.77018   -1.000
 4843.00    1.76298   1.77387  198.351
 4844.00    1.77924   1.78822  197.289
 4845.00    1.81324   1.82142  195.756
 4846.00    1.85089   1.84924  193.692
 4847.00    1.83251   1.84654  190.730
 4848.00    1.78537   1.81468   -1.000
 4849.00    1.78395   1.79542  194.247
 4850.00    1.79733   1.80812  196.887
 4851.00    1.78842   1.82753   -1.000
 4852.00    1.79231   1.83490   -1.000
 4853.00    1.80155   1.81488  193.558
 4854.00    1.75847   1.76599  194.778
 4855.00    1.68268   1.70461   -1.000
 4856.00    1.66524   1.67398  202.837
 4857.00    1.70484   1.67731   -1.000
 4858.00    1.67616   1.67126  207.281
 4859.00    1.58731   1.60074  205.585
 4860.00    1.46187   1.45318  212.339
 4861.00    1.35720   1.33392   -1.000
 4862.00    1.36717   1.31407   -1.000
 4863.00    1.48550   1.41497   -1.000
 4864.00    1.60712   1.54210   -1.000
 4865.00    1.66259   1.63391   -1.000
 4866.00    1.71598   1.69350   -1.000
 4867.00    1.72883   1.73241  208.063
 4868.00    1.73954   1.74861  203.942
 4869.00    1.72888   1.74025  202.252
 4870.00    1.68605   1.69478  201.581
 4871.00    1.58937   1.62656   -1.000
 4872.00    1.59951   1.58192   -1.000
 4873.00    1.65250   1.61332   -1.000
 4874.00    1.71247   1.68682   -1.000
 4875.00    1.72444   1.73599  205.788
 4876.00    1.73113   1.75999   -1.000
 4877.00    1.74299   1.77726   -1.000
 4878.00    1.77419   1.80789   -1.000
 4879.00    1.78696   1.84127   -1.000
 4880.00    1.79319   1.85721   -1.000
 4881.00    1.77057   1.84267   -1.000
 4882.00    1.74498   1.81071   -1.000
 4883.00    1.74936   1.79285   -1.000
 4884.00    1.75957   1.78336   -1.000
 4885.00    1.69698   1.75428   -1.000
 4886.00    1.66079   1.71908   -1.000
 4887.00    1.67281   1.71042   -1.000
 4888.00    1.69945   1.71687  205.123
 4889.00    1.69243   1.70508  203.972
 4890.00    1.65620   1.66339  203.896
 4891.00    1.62271   1.62413  207.142
 4892.00    1.66477   1.65474  211.530
 4893.00    1.76491   1.75460   -1.000
 4894.00    1.87528   1.87803  200.738
 4895.00    1.94703   1.96169  191.489
 4896.00    1.94710   1.99474   -1.000
 4897.00    1.93992   1.99345   -1.000
 4898.00    1.93767   1.97281   -1.000
 4899.00    1.88916   1.93741   -1.000
 4900.00    1.84773   1.90390   -1.000
 4901.00    1.86340   1.88885   -1.000
 4902.00    1.85386   1.87900   -1.000
 4903.00    1.83193   1.86318   -1.000
 4904.00    1.82685   1.85898   -1.000
 4905.00    1.87388   1.88897  194.720
 4906.00    1.91662   1.93807  192.328
 4907.00    1.91054   1.94799   -1.000
 4908.00    1.86604   1.90791   -1.000
 4909.00    1.80046   1.84430   -1.000
 4910.00    1.76937   1.78772  193.711
 4911.00    1.77804   1.77263  199.247
 4912.00    1.80177   1.80038  201.440
 4913.00    1.84440   1.85018  198.546
 4914.00    1.88314   1.89207  194.941
 4915.00    1.91914   1.92379  192.307
 4916.00    1.91874   1.92901  189.839
 4917.00    1.86331   1.88105  188.290
 4918.00    1.75840   1.76575  189.498
 4919.00    1.64088   1.63750  196.515
 4920.00    1.58267   1.54903   -1.000
 4921.00    1.62557   1.55822   -1.000
 4922.00    1.70350   1.63485   -1.000
 4923.00    1.76133   1.71437   -1.000
 4924.00    1.78938   1.75318   -1.000
 4925.00    1.78949   1.77665   -1.000
 4926.00    1.83619   1.82297   -1.000
 4927.00    1.89350   1.88178   -1.000
 4928.00    1.91637   1.92756  192.910
 4929.00    1.93236   1.96461   -1.000
 4930.00    1.96258   1.98781  187.867
 4931.00    1.95204   1.98104   -1.000
 4932.00    1.90274   1.93814   -1.000
 4933.00    1.84424   1.87426   -1.000
 4934.00    1.82518   1.82713  192.930
 4935.00    1.83192   1.82950  199.845
 4936.00    1.84390   1.84222  199.978
 4937.00    1.80492   1.81270  196.332
 4938.00    1.73697   1.74675  196.500
 4939.00    1.72786   1.71040   -1.000
 4940.00    1.78807   1.75337   -1.000
 4941.00    1.88147   1.84158   -1.000
 4942.00    1.92928   1.92623  198.479
 4943.00    1.93801   1.96534   -1.000
 4944.00    1.95352   1.97301  188.789
 4945.00    1.93760   1.96132  187.172
 4946.00    1.91806   1.94797   -1.000
 4947.00    1.93838   1.95215  188.766
 4948.00    1.96292   1.97584  189.086
 4949.00    1.97157   2.00323   -1.000
 4950.00    1.99347   2.01501  185.087
 4951.00    2.00677   2.01590  184.582
 4952.00    1.97416   2.00541   -1.000
 4953.00    1.96056   1.98925   -1.000
 4954.00    1.93949   1.96707   -1.000
 4955.00    1.87305   1.91586   -1.000
 4956.00    1.78237   1.81534   -1.000
 4957.00    1.68489   1.68746  196.095
 4958.00    1.66990   1.64213   -1.000
 4959.00    1.74729   1.72470   -1.000
 4960.00    1.88225   1.84803   -1.000
 4961.00    1.94616   1.94101  197.292
 4962.00    1.92317   1.96449   -1.000
 4963.00    1.91203   1.95272   -1.000
 4964.00    1.87778   1.92222   -1.000
 4965.00    1.82487   1.87564   -1.000
 4966.00    1.80539   1.83106   -1.000
 4967.00    1.78935   1.81755   -1.000
 4968.00    1.79899   1.82221   -1.000
 4969.00    1.81705   1.83378  200.973
 4970.00    1.81213   1.85510   -1.000
 4971.00    1.84529   1.88467   -1.000
 4972.00    1.88897   1.92134   -1.000
 4973.00    1.92521   1.95462   -1.000
 4974.00    1.92872   1.96979   -1.000
 4975.00    1.90981   1.96792   -1.000
 4976.00    1.88506   1.95153   -1.000
 4977.00    1.87955   1.91911   -1.000
 4978.00    1.84396   1.88055   -1.000
 4979.00    1.78855   1.85084   -1.000
 4980.00    1.77278   1.82349   -1.000
 4981.00    1.73799   1.77875   -1.000
 4982.00    1.67137   1.70765   -1.000
 4983.00    1.64156   1.64149  211.285
 4984.00    1.66516   1.63555   -1.000
 4985.00    1.71627   1.68295   -1.000
 4986.00    1.79039   1.76199   -1.000
 4987.00    1.85216   1.83544   -1.000
 4988.00    1.87585   1.88687  200.886
 4989.00    1.85925   1.88927   -1.000
 4990.00    1.83875   1.86381   -1.000
 4991.00    1.83604   1.84786  199.335
 4992.00    1.83630   1.85274  201.344
 4993.00    1.85217   1.86821  201.356
 4994.00    1.85785   1.87626  199.502
 4995.00    1.86199   1.88233  198.695
 4996.00    1.87571   1.89887   -1.000
 4997.00    1.88139   1.90777   -1.000
 4998.00    1.85558   1.88418   -1.000
 4999.00    1.81522   1.83407  197.865
 5000.00    1.76112   1.77215  200.576
 5001.00    1.75689   1.74602  204.681
 5002.00    1.76853   1.74936   -1.000
 5003.00    1.77024   1.76032   -1.000
 5004.00    1.77734   1.75114   -1.000
 5005.00    1.73685   1.71229   -1.000
 5006.00    1.69041   1.67371   -1.000
 5007.00    1.72359   1.67951   -1.000
 5008.00    1.80955   1.74643   -1.000
 5009.00    1.84612   1.81553   -1.000
 5010.00    1.82632   1.83980  201.567
 5011.00    1.78435   1.80705  199.541
 5012.00    1.74430   1.73888  202.309
 5013.00    1.64292   1.67420   -1.000
 5014.00    1.64370   1.64193  216.427
 5015.00    1.67827   1.65963   -1.000
 5016.00    1.72800   1.69333   -1.000
 5017.00    1.76615   1.71567   -1.000
 5018.00    1.74967   1.71935   -1.000
 5019.00    1.76198   1.73109   -1.000
 5020.00    1.78827   1.75816   -1.000
 5021.00    1.77759   1.76872   -1.000
 5022.00    1.76471   1.76276  205.777
 5023.00    1.77320   1.76909  206.767
 5024.00    1.80618   1.80149  207.211
 5025.00    1.82676   1.83679  205.979
 5026.00    1.81401   1.84314   -1.000
 5027.00    1.79661   1.81983   -1.000
 5028.00    1.79755   1.80851  203.451
 5029.00    1.83735   1.82730   -1.000
 5030.00    1.88719   1.86860   -1.000
 5031.00    1.91126   1.91478  198.608
 5032.00    1.93914   1.95602  195.801
 5033.00    1.96693   1.98175  192.604
 5034.00    1.94353   1.96589  190.407
 5035.00    1.86277   1.90398   -1.000
 5036.00    1.78634   1.83490   -1.000
 5037.00    1.77856   1.80765   -1.000
 5038.00    1.78164   1.79430  208.254
 5039.00    1.71418   1.74849   -1.000
 5040.00    1.62854   1.66362   -1.000
 5041.00    1.59398   1.59685  220.042
 5042.00    1.65267   1.62699   -1.000
 5043.00    1.77891   1.73705   -1.000
 5044.00    1.89069   1.87088   -1.000
 5045.00    1.94153   1.96499  204.077
 5046.00    1.96575   2.00508   -1.000
 5047.00    1.95244   1.98823   -1.000
 5048.00    1.93488   1.92497   -1.000
 5049.00    1.57116   1.84567   -1.000
 5050.00    0.34493   1.79531   -1.000
 5051.00    0.07675   1.78598   -1.000
 5052.00    0.24245   1.80322   -1.000
 5053.00    1.81099   1.85089   -1.000
 5054.00    1.98773   1.91522   -1.000
 5055.00    1.97033   1.96045   -1.000
 5056.00    1.97580   1.97859  192.292
 5057.00    1.97158   1.98741  190.493
 5058.00    1.98136   1.99368  189.901
 5059.00    1.97893   2.00756   -1.000
 5060.00    1.99207   2.02799   -1.000
 5061.00    2.00753   2.04798   -1.000
 5062.00    2.00465   2.04691   -1.000
 5063.00    1.94919   2.00039   -1.000
 5064.00    1.85713   1.91974   -1.000
 5065.00    1.81518   1.84832   -1.000
 5066.00    1.82747   1.83071  204.706
 5067.00    1.83927   1.84323  206.989
 5068.00    1.86294   1.85927  204.391
 5069.00    1.88064   1.87418  201.278
 5070.00    1.90469   1.89490   -1.000
 5071.00    1.90914   1.90267  199.720
 5072.00    1.88906   1.88795  198.392
 5073.00    1.89698   1.87277   -1.000
 5074.00    1.90725   1.88179   -1.000
 5075.00    1.92100   1.89916   -1.000
 5076.00    1.92911   1.90892   -1.000
 5077.00    1.91356   1.90220   -1.000
 5078.00    1.86480   1.86116  197.142
 5079.00    1.78297   1.78237  199.094
 5080.00    1.72238   1.71066   -1.000
 5081.00    1.73348   1.71148   -1.000
 5082.00    1.77545   1.75311   -1.000
 5083.00    1.80125   1.79201   -1.000
 5084.00    1.85267   1.82771   -1.000
 5085.00    1.90086   1.86730   -1.000
 5086.00    1.92601   1.90270   -1.000
 5087.00    1.94040   1.92533   -1.000
 5088.00    1.94127   1.93527  197.596
 5089.00    1.95044   1.94472  197.338
 5090.00    1.96281   1.95520  196.334
 5091.00    1.96129   1.97042  194.907
 5092.00    1.97997   1.99546  193.836
 5093.00    2.02546   2.02220  192.833
 5094.00    2.02896   2.03170  190.590
 5095.00    1.98974   2.00274  188.881
 5096.00    1.93651   1.94293  190.642
 5097.00    1.88134   1.87111   -1.000
 5098.00    1.83014   1.81202   -1.000
 5099.00    1.80058   1.78083   -1.000
 5100.00    1.83169   1.81051   -1.000
 5101.00    1.89492   1.87611   -1.000
 5102.00    1.93408   1.93665  203.431
 5103.00    1.94622   1.94903  197.515
 5104.00    1.92271   1.92996  195.811
 5105.00    1.89215   1.90652  196.986
 5106.00    1.87709   1.87991  199.604
 5107.00    1.86614   1.85093   -1.000
 5108.00    1.86785   1.82734   -1.000
 5109.00    1.83994   1.81432   -1.000
 5110.00    1.86586   1.82528   -1.000
 5111.00    1.88157   1.85731   -1.000
 5112.00    1.92179   1.90468   -1.000
 5113.00    1.94824   1.94093  201.085
 5114.00    1.95005   1.96240  198.623
 5115.00    1.97208   1.98289  196.203
 5116.00    1.99697   2.00710  194.436
 5117.00    2.01819   2.02934  193.398
 5118.00    2.03544   2.04119  191.349
 5119.00    2.03213   2.03066  189.748
 5120.00    2.00375   1.99908  190.318
 5121.00    1.95910   1.95352  192.824
 5122.00    1.89718   1.90121  195.733
 5123.00    1.82606   1.84352  198.970
 5124.00    1.79033   1.79986  204.109
 5125.00    1.81119   1.78905   -1.000
 5126.00    1.83006   1.80444   -1.000
 5127.00    1.82802   1.81814   -1.000
 5128.00    1.84208   1.81988   -1.000
 5129.00    1.85039   1.82311   -1.000
 5130.00    1.85557   1.83844   -1.000
 5131.00    1.88386   1.86976   -1.000
 5132.00    1.91431   1.90275   -1.000
 5133.00    1.94489   1.92659   -1.000
 5134.00    1.95896   1.94500   -1.000
 5135.00    1.96583   1.95977  197.930
 5136.00    1.97273   1.95891   -1.000
 5137.00    1.92990   1.91930   -1.000
 5138.00    1.87845   1.85643   -1.000
 5139.00    1.84454   1.82623   -1.000
 5140.00    1.86425   1.83145   -1.000
 5141.00    1.86782   1.84612   -1.000
 5142.00    1.85772   1.84220   -1.000
 5143.00    1.83854   1.83343   -1.000
 5144.00    1.85486   1.84973   -1.000
 5145.00    1.87571   1.86994   -1.000
 5146.00    1.85144   1.85170  205.924
 5147.00    1.83965   1.82755   -1.000
 5148.00    1.85998   1.82912   -1.000
 5149.00    1.88882   1.85236   -1.000
 5150.00    1.87664   1.86392   -1.000
 5151.00    1.85270   1.84536   -1.000
 5152.00    1.82833   1.82183   -1.000
 5153.00    1.82370   1.81240   -1.000
 5154.00    1.83064   1.82121   -1.000
 5155.00    1.87911   1.85706   -1.000
 5156.00    1.95410   1.91526   -1.000
 5157.00    2.00606   1.97169   -1.000
 5158.00    2.03979   2.00499   -1.000
 5159.00    2.04073   2.01722   -1.000
 5160.00    2.04696   2.01458   -1.000
 5161.00    2.04854   1.99888   -1.000
 5162.00    2.00930   1.96752   -1.000
 5163.00    1.96291   1.92092   -1.000
 5164.00    1.89760   1.85596   -1.000
 5165.00    1.77840   1.75672   -1.000
 5166.00    1.60505   1.59955   -1.000
 5167.00    1.43233   1.43095  222.409
 5168.00    1.39568   1.38156   -1.000
 5169.00    1.50566   1.45074   -1.000
 5170.00    1.59575   1.54448   -1.000
 5171.00    1.53792   1.52017   -1.000
 5172.00    1.38220   1.40207   -1.000
 5173.00    1.35040   1.36559   -1.000
 5174.00    1.50939   1.46921   -1.000
 5175.00    1.71775   1.66800   -1.000
 5176.00    1.82950   1.81446   -1.000
 5177.00    1.87165   1.87594  213.463
 5178.00    1.89825   1.89561  205.338
 5179.00    1.88361   1.89348  202.937
 5180.00    1.83993   1.85706   -1.000
 5181.00    1.71872   1.75432   -1.000
 5182.00    1.53670   1.56991   -1.000
 5183.00    1.36081   1.40144   -1.000
 5184.00    1.34720   1.34236  253.137
 5185.00    1.50668   1.47308   -1.000
 5186.00    1.74255   1.68223   -1.000
 5187.00    1.89518   1.83530   -1.000
 5188.00    1.92247   1.90173   -1.000
 5189.00    1.95424   1.92322   -1.000
 5190.00    1.96259   1.91611   -1.000
 5191.00    1.89387   1.86141   -1.000
 5192.00    1.82703   1.78002   -1.000
 5193.00    1.81279   1.74644   -1.000
 5194.00    1.82475   1.78227   -1.000
 5195.00    1.85502   1.81653   -1.000
 5196.00    1.90159   1.84619   -1.000
 5197.00    1.95185   1.88676   -1.000
 5198.00    1.99363   1.93647   -1.000
 5199.00    2.03000   1.98027   -1.000
 5200.00    2.04621   2.00268   -1.000
 5201.00    2.03172   2.00100   -1.000
 5202.00    1.98711   1.97196   -1.000
 5203.00    1.94483   1.91851   -1.000
 5204.00    1.87852   1.83483   -1.000
 5205.00    1.80236   1.74773   -1.000
 5206.00    1.76854   1.68756   -1.000
 5207.00    1.75212   1.66918   -1.000
 5208.00    1.73807   1.67098   -1.000
 5209.00    1.74336   1.68680   -1.000
 5210.00    1.81572   1.74484   -1.000
 5211.00    1.92020   1.84656   -1.000
 5212.00    1.99472   1.94660   -1.000
 5213.00    2.06969   2.01509   -1.000
 5214.00    2.07563   2.01553   -1.000
 5215.00    2.01667   1.96892   -1.000
 5216.00    1.97628   1.91856   -1.000
 5217.00    1.98465   1.91700   -1.000
 5218.00    2.03837   1.96766   -1.000
 5219.00    2.09375   2.02956   -1.000
 5220.00    2.10350   2.07639   -1.000
 5221.00    2.11155   2.09391   -1.000
 5222.00    2.11807   2.08033   -1.000
 5223.00    2.06063   2.02883   -1.000
 5224.00    1.95392   1.94495   -1.000
 5225.00    1.86296   1.83065   -1.000
 5226.00    1.79935   1.72888   -1.000
 5227.00    1.79412   1.70019   -1.000
 5228.00    1.88927   1.77217   -1.000
 5229.00    2.00704   1.90072   23.436
 5230.00    2.08644   2.01294   20.470
 5231.00    2.08184   2.03386   19.623
 5232.00    2.04548   1.99119   19.263
 5233.00    2.02575   1.92523   19.226
 5234.00    2.02552   1.90379   19.606
 5235.00    2.02708   1.94998   19.959
 5236.00    2.08994   2.02186   19.926
 5237.00    2.15349   2.09276   19.478
 5238.00    2.17521   2.12511   19.011
 5239.00    2.16129   2.12774   18.791
 5240.00    2.13248   2.11996   18.769
 5241.00    2.15375   2.11244   18.828
 5242.00    2.14364   2.10664   18.797
 5243.00    2.13389   2.11290   18.687
 5244.00    2.16652   2.12857   18.712
 5245.00    2.16108   2.12510   18.676
 5246.00    2.08463   2.07571   18.646
 5247.00    2.00785   2.00476   19.008
 5248.00    2.00182   1.96556   19.601
 5249.00    2.01404   1.95544   20.064
 5250.00    1.98961   1.94964   20.127
 5251.00    1.99146   1.95334   20.163
 5252.00    2.03846   1.98103   20.290
 5253.00    2.05351   2.00281   20.201
 5254.00    2.03958   2.00180   19.925
 5255.00    2.04806   1.99821   19.725
 5256.00    2.09725   2.03384   19.722
 5257.00    2.17634   2.11688   19.586
 5258.00    2.22096   2.17774   19.137
 5259.00    2.22377   2.18892   18.620
 5260.00    2.17464   2.14456   18.445
 5261.00    2.07963   2.05665   18.607
 5262.00    1.97867   1.94300   19.108
 5263.00    1.89028   1.83398   19.911
 5264.00    1.83453   1.74299   20.857
 5265.00    1.80373   1.69899   21.591
 5266.00    1.81519   1.70391   22.047
 5267.00    1.85993   1.74055   -1.000
 5268.00    1.84364   1.73748   21.749
 5269.00    1.76942   1.66687   21.360
 5270.00    1.73470   1.62117   21.793
 5271.00    1.83903   1.67904   -1.000
 5272.00    1.97394   1.83007   -1.000
 5273.00    2.05376   1.94099   21.028
 5274.00    2.07000   1.95135   20.111
 5275.00    2.05006   1.94944   19.881
 5276.00    2.08812   1.98267   19.885
 5277.00    2.16538   2.06589   19.842
 5278.00    2.23499   2.14926   19.473
 5279.00    2.22803   2.16978   18.816
 5280.00    2.17410   2.13170   18.452
 5281.00    2.13646   2.06260   18.547
 5282.00    2.09212   1.99938   18.982
 5283.00    2.05757   1.95864   19.478
 5284.00    2.07470   1.97891   19.840
 5285.00    2.16166   2.06056   19.949
 5286.00    2.25414   2.17173   19.565
 5287.00    2.30537   2.22973   18.972
 5288.00    2.26962   2.23835   18.374
 5289.00    2.25939   2.23818   18.216
 5290.00    2.28374   2.24727   18.305
 5291.00    2.28741   2.25686   18.307
 5292.00    2.30792   2.24681   18.204
 5293.00    2.30082   2.22486   18.162
 5294.00    2.25520   2.20576   18.262
 5295.00    2.20584   2.16608   18.433
 5296.00    2.13225   2.08028   18.675
 5297.00    2.03441   1.98166   19.171
 5298.00    1.99309   1.92650   19.901
 5299.00    2.05197   1.95761   20.448
 5300.00    2.12841   2.02553   20.351
 5301.00    2.16108   2.06560   19.849
 5302.00    2.18288   2.09313   19.471
 5303.00    2.23566   2.14029   19.336
 5304.00    2.30417   2.21045   19.105
 5305.00    2.33416   2.26598   18.601
 5306.00    2.31025   2.26507   18.251
 5307.00    2.29240   2.24093   18.190
 5308.00    2.27570   2.23178   18.358
 5309.00    2.30597   2.25193   18.520
 5310.00    2.34985   2.28224   18.413
 5311.00    2.35291   2.28720   18.221
 5312.00    2.32004   2.27125   18.101
 5313.00    2.29933   2.25075   18.112
 5314.00    2.29468   2.22972   18.211
 5315.00    2.28621   2.20677   18.291
 5316.00    2.26670   2.18051   18.421
 5317.00    2.25241   2.16490   18.602
 5318.00    2.28045   2.17696   18.768
 5319.00    2.29091   2.19467   18.783
 5320.00    2.29530   2.19889   18.650
 5321.00    2.28035   2.19068   18.567
 5322.00    2.24213   2.16535   18.627
 5323.00    2.20516   2.11647   18.756
 5324.00    2.17229   2.06428   18.973
 5325.00    2.14583   2.02655   19.300
 5326.00    2.10923   1.97440   19.489
 5327.00    2.00790   1.86351   -1.000
 5328.00    1.90124   1.76509   -1.000
 5329.00    1.90936   1.75786   -1.000
 5330.00    2.04023   1.89350   -1.000
 5331.00    2.16433   2.04598   21.207
 5332.00    2.20942   2.12443   19.952
 5333.00    2.24613   2.15042   19.277
 5334.00    2.28203   2.17507   19.053
 5335.00    2.29717   2.21275   18.872
 5336.00    2.31118   2.23479   18.654
 5337.00    2.28940   2.22285   18.565
 5338.00    2.25939   2.18802   18.674
 5339.00    2.20642   2.12231   18.796
 5340.00    2.12784   2.04790   18.997
 5341.00    2.13087   2.01512   19.462
 5342.00    2.16901   2.06891   19.815
 5343.00    2.23633   2.13960   19.682
 5344.00    2.26543   2.17393   19.168
 5345.00    2.25823   2.16720   18.812
 5346.00    2.25610   2.14559   18.791
 5347.00    2.22985   2.12673   18.908
 5348.00    2.22494   2.10730   19.030
 5349.00    2.20569   2.09154   19.125
 5350.00    2.22300   2.11431   19.293
 5351.00    2.28524   2.17225   19.348
 5352.00    2.31869   2.22610   19.069
 5353.00    2.35244   2.26362   18.633
 5354.00    2.38256   2.28581   18.387
 5355.00    2.42143   2.31733   18.319
 5356.00    2.41365   2.34750   18.181
 5357.00    2.42006   2.35598   17.953
 5358.00    2.42471   2.35172   17.812
 5359.00    2.41585   2.34103   17.818
 5360.00    2.37548   2.31770   17.846
 5361.00    2.33953   2.27898   17.909
 5362.00    2.30357   2.24309   18.110
 5363.00    2.28806   2.21447   18.409
 5364.00    2.27725   2.19193   18.683
 5365.00    2.24890   2.17235   18.823
 5366.00    2.23178   2.15826   18.933
 5367.00    2.24845   2.15944   19.047
 5368.00    2.24372   2.15014   19.000
 5369.00    2.18011   2.09252   18.994
 5370.00    2.10536   2.00411   19.174
 5371.00    2.08169   1.94215   -1.000
 5372.00    2.13504   1.97002   -1.000
 5373.00    2.24568   2.08563   -1.000
 5374.00    2.34667   2.20227   -1.000
 5375.00    2.37785   2.27649   18.736
 5376.00    2.37832   2.28695   18.249
 5377.00    2.37152   2.27535   18.094
 5378.00    2.37204   2.27016   18.137
 5379.00    2.37740   2.27282   18.149
 5380.00    2.35081   2.26717   18.182
 5381.00    2.32265   2.24236   18.283
 5382.00    2.29360   2.21391   18.459
 5383.00    2.27987   2.19941   18.642
 5384.00    2.31327   2.20928   18.740
 5385.00    2.35630   2.23640   18.734
 5386.00    2.36858   2.26038   18.650
 5387.00    2.36653   2.26294   18.457
 5388.00    2.34192   2.23818   18.408
 5389.00    2.28608   2.19876   18.484
 5390.00    2.25088   2.15567   18.657
 5391.00    2.22795   2.12924   18.936
 5392.00    2.22546   2.11758   19.155
 5393.00    2.24215   2.11634   19.250
 5394.00    2.22972   2.11612   19.264
 5395.00    2.21221   2.09679   19.319
 5396.00    2.15852   2.04986   19.457
 5397.00    2.13292   2.00580   19.706
 5398.00    2.16100   2.02019   -1.000
 5399.00    2.23305   2.08599   -1.000
 5400.00    2.27934   2.15306   -1.000
 5401.00    2.29897   2.18611   19.015
 5402.00    2.28545   2.18642   18.869
 5403.00    2.22885   2.14129   18.896
 5404.00    2.14492   2.05028   19.039
 5405.00    2.07679   1.94878   19.587
 5406.00    2.07211   1.92004   -1.000
 5407.00    2.12125   1.98064   -1.000
 5408.00    2.17403   2.03877   -1.000
 5409.00    2.16930   2.05796   19.955
 5410.00    2.16661   2.04447   19.762
 5411.00    2.21989   2.07525   -1.000
 5412.00    2.29121   2.15637   -1.000
 5413.00    2.32556   2.21002   19.342
 5414.00    2.33355   2.22484   18.885
 5415.00    2.33597   2.22791   18.669
 5416.00    2.35675   2.25349   18.666
 5417.00    2.38328   2.29257   18.677
 5418.00    2.37578   2.29978   18.548
 5419.00    2.34841   2.27453   18.427
 5420.00    2.32012   2.24870   18.488
 5421.00    2.30703   2.23578   18.665
 5422.00    2.31438   2.23695   18.784
 5423.00    2.30697   2.22142   18.722
 5424.00    2.28182   2.19212   18.646
 5425.00    2.29046   2.20761   18.880
 5426.00    2.34482   2.26569   19.064
 5427.00    2.36518   2.30291   18.890
 5428.00    2.30899   2.26114   18.576
 5429.00    2.23073   2.15123   18.603
 5430.00    2.20472   2.08887   19.084
 5431.00    2.23109   2.10392   19.694
 5432.00    2.25743   2.14045   19.781
 5433.00    2.23560   2.13573   19.452
 5434.00    2.18434   2.08662   19.411
 5435.00    2.18185   2.06469   19.668
 5436.00    2.22268   2.09815   19.903
 5437.00    2.28270   2.17732   19.855
 5438.00    2.35198   2.26958   19.484
 5439.00    2.41265   2.33436   18.955
 5440.00    2.46085   2.37006   18.546
 5441.00    2.46455   2.37937   18.277
 5442.00    2.45104   2.38334   18.118
 5443.00    2.42267   2.37208   18.078
 5444.00    2.36729   2.32115   18.075
 5445.00    2.29347   2.22435   18.250
 5446.00    2.20055   2.10865   18.713
 5447.00    2.14690   2.05826   19.467
 5448.00    2.20180   2.09739   20.128
 5449.00    2.27818   2.19224   20.052
 5450.00    2.32945   2.27567   19.440
 5451.00    2.33989   2.29393   18.885
 5452.00    2.32315   2.27746   18.675
 5453.00    2.29060   2.23235   18.665
 5454.00    2.22483   2.15626   18.812
 5455.00    2.17403   2.07515   19.228
 5456.00    2.17928   2.05997   19.776
 5457.00    2.25001   2.13146   20.220
 5458.00    2.32669   2.25064   19.992
 5459.00    2.36134   2.30703   19.326
 5460.00    2.34863   2.29586   18.782
 5461.00    2.30344   2.24471   18.640
 5462.00    2.26416   2.18567   18.833
 5463.00    2.24864   2.15493   19.180
 5464.00    2.26805   2.16830   19.451
 5465.00    2.31796   2.21276   19.571
 5466.00    2.34502   2.24541   19.358
 5467.00    2.35014   2.26419   19.127
 5468.00    2.35747   2.27406   19.025
 5469.00    2.35055   2.27093   18.826
 5470.00    2.33618   2.25337   18.733
 5471.00    2.30539   2.23368   18.887
 5472.00    2.30017   2.21773   19.085
 5473.00    2.30244   2.20400   19.166
 5474.00    2.28622   2.17907   19.260
 5475.00    2.24122   2.12957   19.448
 5476.00    2.16703   2.07134   19.719
 5477.00    2.15779   2.04037   20.128
 5478.00    2.22380   2.09776   -1.000
 5479.00    2.29445   2.17815   20.318
 5480.00    2.29490   2.19868   19.731
 5481.00    2.25355   2.16724   19.329
 5482.00    2.23717   2.13494   19.428
 5483.00    2.28827   2.16991   19.667
 5484.00    2.35683   2.24564   19.658
 5485.00    2.38530   2.29554   19.340
 5486.00    2.35430   2.29401   18.946
 5487.00    2.31239   2.24601   18.759
 5488.00    2.27941   2.21123   18.908
 5489.00    2.28528   2.20721   19.176
 5490.00    2.31150   2.23695   19.306
 5491.00    2.33632   2.26424   19.318
 5492.00    2.35126   2.27306   19.195
 5493.00    2.34935   2.26732   19.054
 5494.00    2.37089   2.26031   18.976
 5495.00    2.37113   2.26379   19.008
 5496.00    2.35340   2.25882   19.020
 5497.00    2.34082   2.23966   19.018
 5498.00    2.34585   2.24339   19.142
 5499.00    2.38142   2.27361   19.280
 5500.00    2.37256   2.27933   19.201
 5501.00    2.33874   2.24733   18.991
 5502.00    2.32905   2.20391   19.103
 5503.00    2.33055   2.19344   -1.000
 5504.00    2.32514   2.21027   19.465
 5505.00    2.30843   2.20186   19.321
 5506.00    2.28250   2.17420   19.266
 5507.00    2.27910   2.16532   19.497
 5508.00    2.32296   2.19556   -1.000
 5509.00    2.36115   2.24427   19.561
 5510.00    2.34464   2.25131   19.255
 5511.00    2.29652   2.21134   19.146
 5512.00    2.26055   2.15738   19.253
 5513.00    2.23024   2.11972   19.607
 5514.00    2.22001   2.12684   19.941
 5515.00    2.27532   2.15766   20.135
 5516.00    2.33581   2.19932   -1.000
 5517.00    2.37638   2.24267   -1.000
 5518.00    2.41131   2.28951   19.293
 5519.00    2.44164   2.32992   18.939
 5520.00    2.44345   2.34667   18.619
 5521.00    2.46995   2.33664   -1.000
 5522.00    2.45727   2.32901   18.567
 5523.00    2.43579   2.32859   18.604
 5524.00    2.41374   2.32633   18.666
 5525.00    2.39258   2.30455   18.702
 5526.00    2.35319   2.24965   18.805
 5527.00    2.27543   2.18090   19.045
 5528.00    2.23598   2.12626   19.467
 5529.00    2.28194   2.14416   -1.000
 5530.00    2.34378   2.21400   -1.000
 5531.00    2.38568   2.28135   19.751
 5532.00    2.37635   2.30399   19.231
 5533.00    2.36345   2.28820   18.950
 5534.00    2.34568   2.26779   18.959
 5535.00    2.34145   2.25442   19.125
 5536.00    2.35673   2.25415   19.230
 5537.00    2.37918   2.26616   19.182
 5538.00    2.40197   2.28374   19.033
 5539.00    2.43182   2.30431   -1.000
 5540.00    2.46854   2.33579   -1.000
 5541.00    2.47594   2.35460   18.722
 5542.00    2.44732   2.34554   18.568
 5543.00    2.43282   2.31649   18.558
 5544.00    2.41210   2.29659   18.730
 5545.00    2.41000   2.29573   18.923
 5546.00    2.43027   2.30423   -1.000
 5547.00    2.44658   2.31940   -1.000
 5548.00    2.48263   2.35117   -1.000
 5549.00    2.50695   2.38521   18.792
 5550.00    2.51326   2.40110   18.612
 5551.00    2.51475   2.39847   18.452
 5552.00    2.48645   2.38031   18.396
 5553.00    2.45541   2.34933   18.478
 5554.00    2.43391   2.32265   18.634
 5555.00    2.42096   2.31801   18.843
 5556.00    2.43606   2.32729   18.951
 5557.00    2.45059   2.33597   18.935
 5558.00    2.45889   2.33393   18.878
 5559.00    2.46404   2.33468   -1.000
 5560.00    2.45424   2.33925   18.817
 5561.00    2.44897   2.33077   18.797
 5562.00    2.42560   2.30533   18.829
 5563.00    2.40831   2.28526   18.920
 5564.00    2.38904   2.27551   19.102
 5565.00    2.39893   2.27365   -1.000
 5566.00    2.39433   2.26629   -1.000
 5567.00    2.40384   2.25727   -1.000
 5568.00    2.40695   2.25497   -1.000
 5569.00    2.41865   2.25905   -1.000
 5570.00    2.41137   2.26865   -1.000
 5571.00    2.40721   2.27392   -1.000
 5572.00    2.40049   2.26854   -1.000
 5573.00    2.39295   2.26013   -1.000
 5574.00    2.41630   2.26705   -1.000
 5575.00    2.40897   2.29959   19.322
 5576.00    2.18312   2.32414   19.129
 5577.00    1.68027   2.32607   -1.000
 5578.00    0.84668   2.33353   -1.000
 5579.00    0.70224   2.34909   -1.000
 5580.00    1.29578   2.35489   -1.000
 5581.00    2.18487   2.35310   19.235
 5582.00    2.82642   2.33974   -1.000
 5583.00    2.72043   2.32603   -1.000
 5584.00    2.49522   2.31478   -1.000
 5585.00    2.39762   2.27411   19.053
 5586.00    2.32131   2.19903   19.145
 5587.00    2.26319   2.11991   -1.000
 5588.00    2.21959   2.07495   -1.000
 5589.00    2.22533   2.08962   -1.000
 5590.00    2.28847   2.13511   -1.000
 5591.00    2.33941   2.19206   -1.000
 5592.00    2.35753   2.22053   -1.000
 5593.00    2.34275   2.22648   19.831
 5594.00    2.34622   2.23372   19.742
 5595.00    2.39952   2.26697   -1.000
 5596.00    2.43404   2.31537   19.718
 5597.00    2.41787   2.32239   19.452
 5598.00    2.36790   2.28327   19.271
 5599.00    2.32679   2.23357   19.407
 5600.00    2.31023   2.20001   19.732
 5601.00    2.28828   2.17657   19.964
 5602.00    2.28022   2.16315   19.981
 5603.00    2.31273   2.18467   -1.000
 5604.00    2.38439   2.25931   -1.000
 5605.00    2.46107   2.35064   19.904
 5606.00    2.49060   2.40842   19.379
 5607.00    2.50766   2.43176   18.920
 5608.00    2.52120   2.43021   18.667
 5609.00    2.51787   2.42317   18.604
 5610.00    2.52111   2.42207   18.625
 5611.00    2.52590   2.43656   18.663
 5612.00    2.52890   2.44204   18.653
 5613.00    2.47992   2.40432   18.599
 5614.00    2.39366   2.30797   18.665
 5615.00    2.32856   2.19079   -1.000
 5616.00    2.31299   2.15235   -1.000
 5617.00    2.36698   2.19522   -1.000
 5618.00    2.42275   2.27343   -1.000
 5619.00    2.43193   2.30732   -1.000
 5620.00    2.44920   2.31674   -1.000
 5621.00    2.47447   2.34060   -1.000
 5622.00    2.48044   2.35520   -1.000
 5623.00    2.44053   2.31786   19.061
 5624.00    2.38049   2.25733   19.116
 5625.00    2.34903   2.21202   -1.000
 5626.00    2.36636   2.23510   -1.000
 5627.00    2.41743   2.29543   -1.000
 5628.00    2.46417   2.34113   -1.000
 5629.00    2.49276   2.37747   19.207
 5630.00    2.51625   2.40663   18.978
 5631.00    2.53251   2.41768   18.827
 5632.00    2.53226   2.41019   18.762
 5633.00    2.51923   2.39245   18.692
 5634.00    2.50202   2.36893   -1.000
 5635.00    2.47870   2.34098   -1.000
 5636.00    2.46009   2.31388   -1.000
 5637.00    2.44342   2.29480   -1.000
 5638.00    2.42525   2.29545   -1.000
 5639.00    2.43398   2.30703   -1.000
 5640.00    2.43282   2.30924   -1.000
 5641.00    2.39934   2.29603   19.359
 5642.00    2.39669   2.28426   19.412
 5643.00    2.41951   2.29749   -1.000
 5644.00    2.43288   2.31873   19.367
 5645.00    2.44309   2.33338   19.277
 5646.00    2.45865   2.34675   19.237
 5647.00    2.47739   2.35528   19.120
 5648.00    2.47949   2.35147   -1.000
 5649.00    2.48167   2.33890   -1.000
 5650.00    2.48672   2.33526   -1.000
 5651.00    2.50109   2.35075   -1.000
 5652.00    2.51893   2.37585   -1.000
 5653.00    2.50686   2.37573   -1.000
 5654.00    2.47560   2.35018   -1.000
 5655.00    2.45144   2.32993   18.872
 5656.00    2.44736   2.30643   -1.000
 5657.00    2.38345   2.26028   -1.000
 5658.00    2.31823   2.20079   19.534
 5659.00    2.30864   2.17033   -1.000
 5660.00    2.36327   2.20924   -1.000
 5661.00    2.40012   2.26263   -1.000
 5662.00    2.39485   2.26447   -1.000
 5663.00    2.41503   2.26939   -1.000
 5664.00    2.45772   2.31156   -1.000
 5665.00    2.47137   2.34915   -1.000
 5666.00    2.46580   2.35654   19.284
 5667.00    2.45406   2.33469   19.174
 5668.00    2.43710   2.31310   -1.000
 5669.00    2.43825   2.31566   -1.000
 5670.00    2.45230   2.32989   -1.000
 5671.00    2.46693   2.35163   19.368
 5672.00    2.49795   2.38600   19.253
 5673.00    2.53747   2.42186   19.091
 5674.00    2.55065   2.43512   18.902
 5675.00    2.54791   2.43374   18.718
 5676.00    2.55264   2.42844   18.693
 5677.00    2.54980   2.43164   18.750
 5678.00    2.54807   2.43002   18.712
 5679.00    2.54433   2.41171   -1.000
 5680.00    2.52713   2.38855   -1.000
 5681.00    2.50449   2.36545   -1.000
 5682.00    2.48062   2.33169   -1.000
 5683.00    2.45998   2.30161   -1.000
 5684.00    2.46449   2.31062   -1.000
 5685.00    2.47885   2.33402   -1.000
 5686.00    2.47267   2.33295   -1.000
 5687.00    2.44857   2.31433   -1.000
 5688.00    2.45146   2.30266   -1.000
 5689.00    2.47557   2.31895   -1.000
 5690.00    2.50214   2.35941   -1.000
 5691.00    2.54379   2.39709   -1.000
 5692.00    2.56039   2.42364   -1.000
 5693.00    2.55508   2.43428   -1.000
 5694.00    2.56246   2.42990   -1.000
 5695.00    2.56282   2.42143   -1.000
 5696.00    2.55900   2.41452   -1.000
 5697.00    2.54065   2.39981   -1.000
 5698.00    2.49586   2.37222   -1.000
 5699.00    2.46527   2.34392   -1.000
 5700.00    2.44731   2.32313   -1.000
 5701.00    2.42641   2.30061   -1.000
 5702.00    2.41190   2.29201   -1.000
 5703.00    2.43794   2.31822   -1.000
 5704.00    2.48163   2.34349   -1.000
 5705.00    2.45505   2.34185   19.367
 5706.00    2.40895   2.30918   19.292
 5707.00    2.36766   2.25903   19.396
 5708.00    2.33617   2.22479   19.651
 5709.00    2.32041   2.20136   -1.000
 5710.00    2.33058   2.19322   -1.000
 5711.00    2.35310   2.20944   -1.000
 5712.00    2.38350   2.24525   -1.000
 5713.00    2.44492   2.30802   -1.000
 5714.00    2.49774   2.37407   -1.000
 5715.00    2.54132   2.40379   -1.000
 5716.00    2.55861   2.41919   -1.000
 5717.00    2.57789   2.43121   -1.000
 5718.00    2.57899   2.43904   -1.000
 5719.00    2.57878   2.45001   -1.000
 5720.00    2.59342   2.46826   -1.000
 5721.00    2.60985   2.48807   18.666
 5722.00    2.62954   2.50477   -1.000
 5723.00    2.63722   2.51504   18.522
 5724.00    2.62592   2.51596   18.492
 5725.00    2.60615   2.49589   18.468
 5726.00    2.58787   2.45821   -1.000
 5727.00    2.54925   2.42689   18.639
 5728.00    2.54108   2.42974   18.833
 5729.00    2.58733   2.45690   -1.000
 5730.00    2.59338   2.46035   -1.000
 5731.00    2.57441   2.44188   -1.000
 5732.00    2.57032   2.43190   -1.000
 5733.00    2.58769   2.45362   -1.000
 5734.00    2.62669   2.49558   -1.000
 5735.00    2.64379   2.50953   -1.000
 5736.00    2.62755   2.49817   -1.000
 5737.00    2.60293   2.48010   18.583
 5738.00    2.59138   2.46958   18.608
 5739.00    2.60232   2.47393   -1.000
 5740.00    2.61832   2.47586   -1.000
 5741.00    2.62122   2.47271   -1.000
 5742.00    2.61663   2.46506   -1.000
 5743.00    2.62397   2.46624   -1.000
 5744.00    2.63395   2.48870   -1.000
 5745.00    2.64014   2.51145   -1.000
 5746.00    2.64585   2.51104   -1.000
 5747.00    2.61064   2.47948   -1.000
 5748.00    2.57800   2.45015   -1.000
 5749.00    2.59112   2.46580   -1.000
 5750.00    2.61221   2.49223   -1.000
 5751.00    2.60697   2.49260   18.762
 5752.00    2.55892   2.44166   18.689
 5753.00    2.51071   2.37538   -1.000
 5754.00    2.51944   2.35989   -1.000
 5755.00    2.56227   2.39801   -1.000
 5756.00    2.59961   2.47345   -1.000
 5757.00    2.63871   2.52294   -1.000
 5758.00    2.64618   2.53305   18.707
 5759.00    2.62712   2.50679   18.459
 5760.00    2.59431   2.45830   -1.000
 5761.00    2.54822   2.40736   -1.000
 5762.00    2.52290   2.37537   -1.000
 5763.00    2.54027   2.38406   -1.000
 5764.00    2.57010   2.44202   -1.000
 5765.00    2.59599   2.51426   19.127
 5766.00    2.64191   2.54424   18.802
 5767.00    2.66746   2.55096   18.548
 5768.00    2.65553   2.54855   18.461
 5769.00    2.66490   2.54076   -1.000
 5770.00    2.65285   2.52858   -1.000
 5771.00    2.63417   2.51693   18.434
 5772.00    2.62240   2.50281   18.493
 5773.00    2.59540   2.48820   18.588
 5774.00    2.59344   2.48060   18.703
 5775.00    2.59264   2.48022   18.764
 5776.00    2.58548   2.49495   18.789
 5777.00    2.59543   2.50924   18.762
 5778.00    2.59168   2.49796   18.677
 5779.00    2.53923   2.45484   18.642
 5780.00    2.45691   2.38311   18.688
 5781.00    2.37636   2.32086   18.918
 5782.00    2.33144   2.28940   19.323
 5783.00    2.32956   2.29974   19.617
 5784.00    2.36880   2.31042   19.637
 5785.00    2.41418   2.30730   19.561
 5786.00    2.46749   2.33468   -1.000
 5787.00    2.52833   2.39687   -1.000
 5788.00    2.56947   2.44342   -1.000
 5789.00    2.59841   2.46314   -1.000
 5790.00    2.59880   2.45316   -1.000
 5791.00    2.58795   2.44050   -1.000
 5792.00    2.59803   2.44895   -1.000
 5793.00    2.62955   2.48689   -1.000
 5794.00    2.67013   2.52881   -1.000
 5795.00    2.66814   2.54847   -1.000
 5796.00    2.63474   2.53553   18.489
 5797.00    2.60728   2.49712   18.455
 5798.00    2.59220   2.48276   18.542
 5799.00    2.61899   2.50953   18.663
 5800.00    2.68285   2.56154   -1.000
 5801.00    2.72686   2.59866   -1.000
 5802.00    2.73095   2.59866   -1.000
 5803.00    2.70140   2.57010   -1.000
 5804.00    2.65961   2.52464   -1.000
 5805.00    2.65339   2.49968   -1.000
 5806.00    2.66058   2.49957   -1.000
 5807.00    2.66047   2.51483   -1.000
 5808.00    2.64958   2.53020   -1.000
 5809.00    2.65984   2.54254   18.492
 5810.00    2.67441   2.55465   18.433
 5811.00    2.67987   2.56472   18.421
 5812.00    2.68387   2.56381   18.408
 5813.00    2.67159   2.55255   18.350
 5814.00    2.65441   2.52605   -1.000
 5815.00    2.63107   2.49404   -1.000
 5816.00    2.62651   2.47247   -1.000
 5817.00    2.64140   2.49422   -1.000
 5818.00    2.68661   2.54158   -1.000
 5819.00    2.72395   2.58264   -1.000
 5820.00    2.72650   2.59688   -1.000
 5821.00    2.72956   2.59010   -1.000
 5822.00    2.72116   2.57632   -1.000
 5823.00    2.71545   2.56540   -1.000
 5824.00    2.71827   2.56720   -1.000
 5825.00    2.71346   2.57282   -1.000
 5826.00    2.71067   2.57901   -1.000
 5827.00    2.72191   2.58277   -1.000
 5828.00    2.74357   2.58751   -1.000
 5829.00    2.75014   2.59533   -1.000
 5830.00    2.75245   2.59896   -1.000
 5831.00    2.75151   2.59587   -1.000
 5832.00    2.75045   2.58909   -1.000
 5833.00    2.73949   2.57702   -1.000
 5834.00    2.72656   2.56121   -1.000
 5835.00    2.71997   2.55195   -1.000
 5836.00    2.73027   2.55968   -1.000
 5837.00    2.72946   2.56527   -1.000
 5838.00    2.71757   2.56081   -1.000
 5839.00    2.71844   2.56724   -1.000
 5840.00    2.73276   2.58796   -1.000
 5841.00    2.75990   2.60948   -1.000
 5842.00    2.77219   2.62022   -1.000
 5843.00    2.75650   2.61501   -1.000
 5844.00    2.73312   2.59964   -1.000
 5845.00    2.71125   2.57496   -1.000
 5846.00    2.68537   2.54673   -1.000
 5847.00    2.66824   2.52422   -1.000
 5848.00    2.66931   2.51839   -1.000
 5849.00    2.66414   2.52739   -1.000
 5850.00    2.65377   2.53389   18.380
 5851.00    2.64318   2.51499   -1.000
 5852.00    2.62334   2.47951   -1.000
 5853.00    2.61409   2.45299   -1.000
 5854.00    2.60765   2.45036   -1.000
 5855.00    2.60189   2.45658   -1.000
 5856.00    2.57615   2.43019   -1.000
 5857.00    2.54165   2.37913   -1.000
 5858.00    2.55505   2.35690   -1.000
 5859.00    2.58950   2.38552   -1.000
 5860.00    2.62975   2.44598   -1.000
 5861.00    2.64960   2.48017   -1.000
 5862.00    2.64353   2.49047   -1.000
 5863.00    2.65452   2.49059   -1.000
 5864.00    2.64509   2.49657   -1.000
 5865.00    2.63881   2.49631   -1.000
 5866.00    2.63145   2.47813   -1.000
 5867.00    2.63771   2.46355   -1.000
 5868.00    2.65799   2.48644   -1.000
 5869.00    2.68596   2.52506   -1.000
 5870.00    2.70581   2.54907   -1.000
 5871.00    2.69972   2.55376   -1.000
 5872.00    2.69980   2.54181   -1.000
 5873.00    2.69079   2.53215   -1.000
 5874.00    2.70304   2.52994   -1.000
 5875.00    2.70237   2.53420   -1.000
 5876.00    2.68347   2.53092   -1.000
 5877.00    2.66497   2.51307   -1.000
 5878.00    2.64978   2.48854   -1.000
 5879.00    2.62815   2.46249   -1.000
 5880.00    2.60646   2.44531   -1.000
 5881.00    2.62302   2.44420   -1.000
 5882.00    2.62808   2.45604   -1.000
 5883.00    2.60075   2.45231   -1.000
 5884.00    2.59391   2.43540   -1.000
 5885.00    2.60162   2.43706   -1.000
 5886.00    2.56930   2.42715   -1.000
 5887.00    2.44734   2.33922   18.946
 5888.00    2.20665   2.14755   19.136
 5889.00    1.82746   1.89902   19.711
 5890.00    1.46885   1.76837   -1.000
 5891.00    1.31257   1.81820   -1.000
 5892.00    1.46060   1.99220   -1.000
 5893.00    1.81839   2.10505   -1.000
 5894.00    2.05337   2.08671   21.646
 5895.00    1.95387   1.98354   21.105
 5896.00    1.67690   1.90637   -1.000
 5897.00    1.56540   2.00079   -1.000
 5898.00    1.74083   2.16204   -1.000
 5899.00    2.09762   2.27842   -1.000
 5900.00    2.40792   2.35026   20.588
 5901.00    2.52871   2.40602   -1.000
 5902.00    2.55733   2.43778   19.494
 5903.00    2.56911   2.45152   19.126
 5904.00    2.58455   2.45547   -1.000
 5905.00    2.59906   2.45328   -1.000
 5906.00    2.60959   2.45235   -1.000
 5907.00    2.62308   2.46527   -1.000
 5908.00    2.64199   2.48371   -1.000
 5909.00    2.63572   2.49289   -1.000
 5910.00    2.62520   2.50207   -1.000
 5911.00    2.62671   2.50694   18.914
 5912.00    2.60555   2.49382   18.956
 5913.00    2.57973   2.45721   -1.000
 5914.00    2.55116   2.41140   -1.000
 5915.00    2.54621   2.38925   -1.000
 5916.00    2.57651   2.40313   -1.000
 5917.00    2.59352   2.42910   -1.000
 5918.00    2.61762   2.46574   -1.000
 5919.00    2.62438   2.49094   -1.000
 5920.00    2.61000   2.50113   19.190
 5921.00    2.60082   2.49639   19.135
 5922.00    2.59711   2.48617   19.071
 5923.00    2.61003   2.48631   -1.000
 5924.00    2.61656   2.50006   19.076
 5925.00    2.62029   2.51760   19.023
 5926.00    2.61245   2.52836   18.955
 5927.00    2.61362   2.52405   18.915
 5928.00    2.61697   2.49697   18.897
 5929.00    2.60376   2.46556   -1.000
 5930.00    2.60994   2.45242   -1.000
 5931.00    2.63918   2.47768   -1.000
 5932.00    2.65083   2.50803   -1.000
 5933.00    2.63901   2.50417   -1.000
 5934.00    2.61504   2.48126   -1.000
 5935.00    2.60008   2.46830   -1.000
 5936.00    2.63024   2.49203   -1.000
 5937.00    2.66415   2.52610   -1.000
 5938.00    2.67500   2.53839   -1.000
 5939.00    2.66802   2.53337   -1.000
 5940.00    2.66340   2.50951   -1.000
 5941.00    2.65059   2.47882   -1.000
 5942.00    2.63513   2.46246   -1.000
 5943.00    2.61570   2.47865   -1.000
 5944.00    2.61549   2.50756   19.235
 5945.00    2.63632   2.53140   19.143
 5946.00    2.64507   2.53659   19.027
 5947.00    2.62001   2.51432   18.943
 5948.00    2.59694   2.48090   18.964
 5949.00    2.60027   2.46594   -1.000
 5950.00    2.61082   2.48567   -1.000
 5951.00    2.61348   2.49664   -1.000
 5952.00    2.60914   2.48483   -1.000
 5953.00    2.60093   2.47352   -1.000
 5954.00    2.61891   2.48219   -1.000
 5955.00    2.63787   2.49531   -1.000
 5956.00    2.62464   2.48592   -1.000
 5957.00    2.60957   2.46712   -1.000
 5958.00    2.61304   2.47439   -1.000
 5959.00    2.63839   2.50567   -1.000
 5960.00    2.66278   2.53895   -1.000
 5961.00    2.66951   2.56331   19.095
 5962.00    2.68138   2.57027   18.896
 5963.00    2.69649   2.56579   -1.000
 5964.00    2.69593   2.55080   -1.000
 5965.00    2.68169   2.53271   -1.000
 5966.00    2.67305   2.52337   -1.000
 5967.00    2.67928   2.53796   -1.000
 5968.00    2.68749   2.55775   -1.000
 5969.00    2.70631   2.56967   -1.000
 5970.00    2.70653   2.58092   -1.000
 5971.00    2.69288   2.59017   18.813
 5972.00    2.68664   2.59094   18.802
 5973.00    2.68601   2.58277   18.772
 5974.00    2.67557   2.56225   18.744
 5975.00    2.64569   2.52698   -1.000
 5976.00    2.63155   2.48888   -1.000
 5977.00    2.62013   2.47355   -1.000
 5978.00    2.62860   2.48081   -1.000
 5979.00    2.63798   2.51030   -1.000
 5980.00    2.65204   2.54187   19.301
 5981.00    2.65630   2.55461   19.150
 5982.00    2.65536   2.52824   -1.000
 5983.00    2.63485   2.47938   -1.000
 5984.00    2.60639   2.44208   -1.000
 5985.00    2.59342   2.44550   -1.000
 5986.00    2.62123   2.48659   -1.000
 5987.00    2.66854   2.51668   -1.000
 5988.00    2.69299   2.53514   -1.000
 5989.00    2.69447   2.54801   -1.000
 5990.00    2.68943   2.55023   -1.000
 5991.00    2.68684   2.54320   -1.000
 5992.00    2.69378   2.54974   -1.000
 5993.00    2.71500   2.57995   -1.000
 5994.00    2.72917   2.60288   -1.000
 5995.00    2.72400   2.59654   -1.000
 5996.00    2.70879   2.56232   -1.000
 5997.00    2.68302   2.52870   -1.000
 5998.00    2.66449   2.51437   -1.000
 5999.00    2.67218   2.52842   -1.000
 6000.00    2.68253   2.54789   -1.000
 6001.00    2.68725   2.55048   -1.000
 6002.00    2.68093   2.53852   -1.000
 6003.00    2.67393   2.52245   -1.000
 6004.00    2.66664   2.53049   -1.000
 6005.00    2.66494   2.53937   -1.000
 6006.00    2.64134   2.51328   -1.000
 6007.00    2.60568   2.47095   -1.000
 6008.00    2.60455   2.44930   -1.000
 6009.00    2.63070   2.48062   -1.000
 6010.00    2.66359   2.54001   -1.000
 6011.00    2.66740   2.55475   -1.000
 6012.00    2.65477   2.53025   -1.000
 6013.00    2.64582   2.50305   -1.000
 6014.00    2.63906   2.49888   -1.000
 6015.00    2.62952   2.51226   -1.000
 6016.00    2.63358   2.51013   -1.000
 6017.00    2.64661   2.50370   -1.000
 6018.00    2.64603   2.50872   -1.000
 6019.00    2.64672   2.50090   -1.000
 6020.00    2.64651   2.47847   -1.000
 6021.00    2.64024   2.47539   -1.000
 6022.00    2.64167   2.49038   -1.000
 6023.00    2.66345   2.50958   -1.000
 6024.00    2.69879   2.52888   -1.000
 6025.00    2.71831   2.55091   -1.000
 6026.00    2.71975   2.57045   -1.000
 6027.00    2.72118   2.58066   -1.000
 6028.00    2.72310   2.59638   -1.000
 6029.00    2.73635   2.61579   -1.000
 6030.00    2.76044   2.62181   -1.000
 6031.00    2.77328   2.62429   -1.000
 6032.00    2.77933   2.63263   -1.000
 6033.00    2.78724   2.64502   -1.000
 6034.00    2.79569   2.66052   -1.000
 6035.00    2.78452   2.67221   -1.000
 6036.00    2.77205   2.66954   18.766
 6037.00    2.77331   2.65885   -1.000
 6038.00    2.75966   2.64337   -1.000
 6039.00    2.74168   2.62845   -1.000
 6040.00    2.73882   2.61762   -1.000
 6041.00    2.74442   2.61798   -1.000
 6042.00    2.74772   2.62039   -1.000
 6043.00    2.76038   2.62848   -1.000
 6044.00    2.77150   2.65350   -1.000
 6045.00    2.77721   2.66869   18.805
 6046.00    2.78905   2.67593   -1.000
 6047.00    2.79308   2.67804   -1.000
 6048.00    2.78944   2.68038   18.641
 6049.00    2.79433   2.67977   -1.000
 6050.00    2.79551   2.68066   -1.000
 6051.00    2.79050   2.67783   -1.000
 6052.00    2.79426   2.66260   -1.000
 6053.00    2.78665   2.63983   -1.000
 6054.00    2.77112   2.61941   -1.000
 6055.00    2.76062   2.60089   -1.000
 6056.00    2.73619   2.58764   -1.000
 6057.00    2.73467   2.59490   -1.000
 6058.00    2.75927   2.61619   -1.000
 6059.00    2.77318   2.63757   -1.000
 6060.00    2.78143   2.64899   -1.000
 6061.00    2.77218   2.64269   -1.000
 6062.00    2.74879   2.61934   -1.000
 6063.00    2.72302   2.58000   -1.000
 6064.00    2.68772   2.54125   -1.000
 6065.00    2.66972   2.52611   -1.000
 6066.00    2.64972   2.55957   19.143
 6067.00    2.69131   2.61975   -1.000
 6068.00    2.65299   2.66947    8.608
 6069.00    2.75152   2.68783    9.852
 6070.00    2.85224   2.69493   -1.000
 6071.00    2.81478   2.70152   -1.000
 6072.00    2.77177   2.70260   18.581
 6073.00    2.76277   2.68941   18.226
 6074.00    1.56955   2.69160   -1.000
 6075.00    1.50038   2.68882   -1.000
 6076.00    2.55362   2.66544   18.710
 6077.00    2.80294   2.63421   -1.000
 6078.00    2.73710   2.60303   -1.000
 6079.00    2.73071   2.59278   -1.000
 6080.00    2.73006   2.59052   -1.000
 6081.00    2.71925   2.57841   -1.000
 6082.00    2.71099   2.56670   -1.000
 6083.00    2.72721   2.57139   -1.000
 6084.00    2.71922   2.57955   -1.000
 6085.00    2.70059   2.58522   -1.000
 6086.00    2.71657   2.59721   -1.000
 6087.00    2.73396   2.61003   -1.000
 6088.00    2.73796   2.61155   -1.000
 6089.00    2.72541   2.59446   -1.000
 6090.00    2.69497   2.56867   -1.000
 6091.00    2.68455   2.55942   -1.000
 6092.00    2.70901   2.56831   -1.000
 6093.00    2.72935   2.58927   -1.000
 6094.00    2.74682   2.61584   -1.000
 6095.00    2.77761   2.63582   -1.000
 6096.00    2.78565   2.63950   -1.000
 6097.00    2.76445   2.63831   -1.000
 6098.00    2.75848   2.65035   -1.000
 6099.00    2.77217   2.65805   -1.000
 6100.00    2.75970   2.62807   -1.000
 6101.00    2.69735   2.55471   -1.000
 6102.00    2.62430   2.46469   -1.000
 6103.00    2.60525   2.45332   -1.000
 6104.00    2.64321   2.51110   -1.000
 6105.00    2.70838   2.58224   -1.000
 6106.00    2.74935   2.61737   -1.000
 6107.00    2.74151   2.62430   -1.000
 6108.00    2.74076   2.63342   -1.000
 6109.00    2.73837   2.64951   19.224
 6110.00    2.72835   2.65080   19.286
 6111.00    2.74873   2.64176   -1.000
 6112.00    2.76383   2.64583   -1.000
 6113.00    2.76278   2.66348   19.192
 6114.00    2.76923   2.67861   19.157
 6115.00    2.76778   2.67035   19.095
 6116.00    2.74583   2.65369   19.023
 6117.00    2.72997   2.65027   19.058
 6118.00    2.72428   2.64197   19.172
 6119.00    2.70512   2.60786   19.236
 6120.00    2.66615   2.54862   -1.000
 6121.00    2.62335   2.48620   -1.000
 6122.00    2.61639   2.46264   -1.000
 6123.00    2.65155   2.50349   -1.000
 6124.00    2.70080   2.57290   -1.000
 6125.00    2.71796   2.60411   -1.000
 6126.00    2.70212   2.60359   19.569
 6127.00    2.70036   2.59070   -1.000
 6128.00    2.70679   2.58264   -1.000
 6129.00    2.71319   2.60188   -1.000
 6130.00    2.73687   2.64146   19.548
 6131.00    2.76906   2.67632   19.431
 6132.00    2.77321   2.68721   19.250
 6133.00    2.75076   2.66889   19.158
 6134.00    2.70175   2.60138   19.174
 6135.00    2.61176   2.49095   -1.000
 6136.00    2.52956   2.37948   -1.000
 6137.00    2.50321   2.36164   -1.000
 6138.00    2.55242   2.43614   -1.000
 6139.00    2.64929   2.54032   -1.000
 6140.00    2.70613   2.58719   -1.000
 6141.00    2.69817   2.57375   -1.000
 6142.00    2.70043   2.58065   -1.000
 6143.00    2.72418   2.62185   -1.000
 6144.00    2.75025   2.66108   19.708
 6145.00    2.75319   2.67422   19.592
 6146.00    2.76204   2.66368   19.358
 6147.00    2.74818   2.64059   -1.000
 6148.00    2.70450   2.61245   19.310
 6149.00    2.67855   2.59126   19.425
 6150.00    2.67504   2.58294   19.561
 6151.00    2.68158   2.59611   19.686
 6152.00    2.70197   2.61476   19.728
 6153.00    2.71464   2.61905   19.677
 6154.00    2.68419   2.59813   19.560
 6155.00    2.66230   2.57512   19.491
 6156.00    2.65818   2.57112   19.593
 6157.00    2.64135   2.57080   19.728
 6158.00    2.61767   2.55949   19.769
 6159.00    2.58158   2.51030   19.822
 6160.00    2.50200   2.41058   19.989
 6161.00    2.40506   2.29630   20.314
 6162.00    2.34853   2.23482   -1.000
 6163.00    2.36970   2.26898   21.484
 6164.00    2.43721   2.34582   21.845
 6165.00    2.48392   2.42764   21.697
 6166.00    2.51117   2.46989   21.173
 6167.00    2.52322   2.47388   20.739
 6168.00    2.49983   2.43034   20.581
 6169.00    2.46838   2.38318   20.592
 6170.00    2.46043   2.38580   20.786
 6171.00    2.49992   2.44470   21.032
 6172.00    2.54774   2.50593   21.010
 6173.00    2.56497   2.52885   20.676
 6174.00    2.57379   2.53728   20.333
 6175.00    2.57120   2.53971   20.246
 6176.00    2.56756   2.53823   20.280
 6177.00    2.58304   2.54462   20.252
 6178.00    2.59792   2.56192   20.206
 6179.00    2.60523   2.57560   20.158
 6180.00    2.61017   2.58181   20.074
 6181.00    2.62037   2.59773   19.989
 6182.00    2.64313   2.61498   19.924
 6183.00    2.65094   2.61466   19.842
 6184.00    2.62636   2.60110   19.774
 6185.00    2.59568   2.57504   19.783
 6186.00    2.57676   2.54341   19.846
 6187.00    2.55775   2.51573   19.972
 6188.00    2.52731   2.49887   20.174
 6189.00    2.49808   2.47307   20.390
 6190.00    2.47908   2.42658   20.590
 6191.00    2.45928   2.39714   20.755
 6192.00    2.46242   2.42691   20.978
 6193.00    2.51659   2.49246   21.175
 6194.00    2.57735   2.55350   21.070
 6195.00    2.59966   2.58394   20.634
 6196.00    2.59775   2.59672   20.215
 6197.00    2.58808   2.58760   20.026
 6198.00    2.57205   2.55540   19.971
 6199.00    2.55424   2.51664   20.044
 6200.00    2.55276   2.51709   20.248
 6201.00    2.58053   2.55195   20.445
 6202.00    2.60433   2.58954   20.492
 6203.00    2.59614   2.61471   20.345
 6204.00    2.57840   2.62113   20.098
 6205.00    2.57441   2.62412   19.965
 6206.00    2.59279   2.62868   19.957
 6207.00    2.61241   2.63416   19.938
 6208.00    2.62938   2.63374   19.922
 6209.00    2.63113   2.62197   19.972
 6210.00    2.59104   2.60090   20.006
 6211.00    2.56212   2.56989   20.053
 6212.00    2.55249   2.51937   20.207
 6213.00    2.50870   2.46012   20.381
 6214.00    2.46469   2.42122   20.562
 6215.00    2.45592   2.41914   20.836
 6216.00    2.48249   2.44441   21.096
 6217.00    2.52606   2.46904   21.204
 6218.00    2.53703   2.47037   21.047
 6219.00    2.51397   2.44904   20.857
 6220.00    2.50199   2.44210   20.929
 6221.00    2.52692   2.46261   20.959
 6222.00    2.55433   2.48817   20.816
 6223.00    2.55922   2.50262   20.831
 6224.00    2.58256   2.50792   21.821
 6225.00    2.54263   2.51482   22.114
 6226.00    2.37987   2.52105   21.037
 6227.00    2.42020   2.51288   20.620
 6228.00    2.53387   2.47722   20.667
 6229.00    2.48878   2.41320   20.737
 6230.00    2.43419   2.35466   20.962
 6231.00    2.41861   2.34644   21.296
 6232.00    2.45991   2.38777   21.604
 6233.00    2.52196   2.45727   21.653
 6234.00    2.57574   2.52306   21.406
 6235.00    2.60188   2.56331   21.028
 6236.00    2.59388   2.55856   20.659
 6237.00    2.57149   2.52679   20.471
 6238.00    2.53372   2.48665   20.529
 6239.00    2.50899   2.45549   20.722
 6240.00    2.50663   2.43969   20.935
 6241.00    2.49979   2.43472   21.154
 6242.00    2.48360   2.42156   21.299
 6243.00    2.45547   2.40007   21.321
 6244.00    2.45297   2.39098   21.405
 6245.00    2.46806   2.39847   21.565
 6246.00    2.48365   2.42434   21.612
 6247.00    2.52048   2.47262   21.515
 6248.00    2.54815   2.51955   21.326
 6249.00    2.56362   2.53865   21.075
 6250.00    2.56118   2.52184   20.832
 6251.00    2.51483   2.47290   20.733
 6252.00    2.46673   2.41785   20.849
 6253.00    2.44605   2.39175   21.168
 6254.00    2.42914   2.39030   21.495
 6255.00    2.42761   2.39023   21.681
 6256.00    2.42952   2.37212   21.772
 6257.00    2.40719   2.34801   21.787
 6258.00    2.39079   2.35108   21.894
 6259.00    2.43373   2.38610   22.106
 6260.00    2.51351   2.44241   22.131
 6261.00    2.56237   2.49628   21.879
 6262.00    2.58670   2.53980   21.538
 6263.00    2.59351   2.55550   21.234
 6264.00    2.58872   2.54314   20.924
 6265.00    2.57591   2.52706   20.724
 6266.00    2.56149   2.53123   20.789
 6267.00    2.55813   2.54925   20.954
 6268.00    2.56993   2.54971   20.955
 6269.00    2.57344   2.53768   20.813
 6270.00    2.56156   2.53642   20.789
 6271.00    2.57712   2.54974   20.895
 6272.00    2.59014   2.56714   20.925
 6273.00    2.58293   2.57220   20.863
 6274.00    2.58628   2.55815   20.803
 6275.00    2.59042   2.53273   20.815
 6276.00    2.58375   2.50672   20.931
 6277.00    2.56319   2.47680   21.098
 6278.00    2.50902   2.44995   21.364
 6279.00    2.43902   2.42360   21.831
 6280.00    2.39259   2.41496   22.307
 6281.00    2.36889   2.43372   22.550
 6282.00    2.36847   2.47514   22.547
 6283.00    2.39169   2.51938   22.296
 6284.00    2.41715   2.55334   21.910
 6285.00    2.41601   2.57491   21.555
 6286.00    2.41205   2.59518   21.266
 6287.00    2.44952   2.61541   21.060
 6288.00    2.50595   2.62705   20.881
 6289.00    2.54272   2.61480   20.713
 6290.00    2.56270   2.58641   20.630
 6291.00    2.57157   2.55794   20.680
 6292.00    2.56603   2.54613   20.835
 6293.00    2.56323   2.54764   21.004
 6294.00    2.56378   2.55042   21.094
 6295.00    2.55374   2.53430   21.117
 6296.00    2.53413   2.49989   21.148
 6297.00    2.51741   2.47981   21.257
 6298.00    2.51594   2.48672   21.417
 6299.00    2.51280   2.49769   21.495
 6300.00    2.48374   2.48852   21.485
 6301.00    2.41050   2.46664   21.417
 6302.00    2.36392   2.46741   21.321
 6303.00    2.44392   2.49471   21.378
 6304.00    2.58413   2.52961   21.612
 6305.00    2.66249   2.55946   -1.000
 6306.00    2.65944   2.58864   21.327
 6307.00    2.64720   2.61823   21.025
 6308.00    2.64585   2.63280   20.816
 6309.00    2.63493   2.62263   20.636
 6310.00    2.61904   2.60043   20.531
 6311.00    2.60067   2.58126   20.576
 6312.00    2.58840   2.57100   20.700
 6313.00    2.58888   2.56046   20.810
 6314.00    2.58635   2.53616   20.889
 6315.00    2.56387   2.51134   20.939
 6316.00    2.54391   2.49976   21.049
 6317.00    2.53267   2.48687   21.191
 6318.00    2.52684   2.48021   21.209
 6319.00    2.54127   2.50757   21.187
 6320.00    2.57424   2.55251   21.194
 6321.00    2.60328   2.57956   21.168
 6322.00    2.61484   2.59707   20.986
 6323.00    2.62650   2.61879   20.748
 6324.00    2.64651   2.64197   20.616
 6325.00    2.65636   2.65347   20.550
 6326.00    2.64946   2.65234   20.458
 6327.00    2.64637   2.64993   20.369
 6328.00    2.65920   2.65288   20.337
 6329.00    2.68107   2.65275   20.279
 6330.00    2.69353   2.65000   20.237
 6331.00    2.68781   2.66214   20.262
 6332.00    2.68561   2.67676   20.274
 6333.00    2.68372   2.66268   20.241
 6334.00    2.65301   2.61450   20.184
 6335.00    2.61868   2.55687   20.201
 6336.00    2.60837   2.53532   20.258
 6337.00    2.60433   2.55486   20.532
 6338.00    2.61428   2.58961   20.810
 6339.00    2.64979   2.62556   20.709
 6340.00    2.68855   2.65567   20.505
 6341.00    2.70188   2.66016   20.286
 6342.00    2.68395   2.63654   20.128
 6343.00    2.66282   2.60483   20.037
 6344.00    2.65203   2.59310   19.998
 6345.00    2.65768   2.61387   20.108
 6346.00    2.67766   2.64549   20.219
 6347.00    2.70248   2.67415   20.193
 6348.00    2.72870   2.69733   20.105
 6349.00    2.72097   2.71242   19.976
 6350.00    2.70194   2.71845   19.868
 6351.00    2.71442   2.71677   19.838
 6352.00    2.71254   2.70203   19.822
 6353.00    2.68274   2.67140   19.807
 6354.00    2.65142   2.63610   19.865
 6355.00    2.62067   2.62069   19.957
 6356.00    2.60747   2.61647   20.121
 6357.00    2.59980   2.59603   20.331
 6358.00    2.58014   2.56206   20.416
 6359.00    2.56836   2.53660   20.442
 6360.00    2.57416   2.52321   20.596
 6361.00    2.57552   2.51200   20.765
 6362.00    2.57079   2.51004   20.755
 6363.00    2.58266   2.52622   20.671
 6364.00    2.60003   2.55793   20.631
 6365.00    2.62068   2.59300   20.587
 6366.00    2.64408   2.62917   20.479
 6367.00    2.67324   2.66181   20.343
 6368.00    2.70554   2.68323   20.224
 6369.00    2.71177   2.68603   20.106
 6370.00    2.71441   2.68725   19.974
 6371.00    2.72385   2.69880   19.882
 6372.00    2.72573   2.72031   19.869
 6373.00    2.74204   2.73517   19.845
 6374.00    2.75504   2.73566   19.767
 6375.00    2.74379   2.73193   19.755
 6376.00    2.71037   2.72511   19.796
 6377.00    2.68758   2.70886   19.823
 6378.00    2.67951   2.68771   19.883
 6379.00    2.66702   2.67459   19.973
 6380.00    2.66096   2.67066   20.093
 6381.00    2.66334   2.67655   20.202
 6382.00    2.67013   2.68651   20.243
 6383.00    2.67661   2.69140   20.266
 6384.00    2.68376   2.69157   20.285
 6385.00    2.67692   2.69863   20.252
 6386.00    2.66689   2.71287   20.270
 6387.00    2.67777   2.72139   20.349
 6388.00    2.67469   2.72317   20.360
 6389.00    2.65940   2.72283   20.379
 6390.00    2.64358   2.71096   20.448
 6391.00    2.60691   2.67290   20.565
 6392.00    2.57991   2.61903   20.737
 6393.00    2.55277   2.58481   20.936
 6394.00    2.51825   2.60786   21.221
 6395.00    2.52912   2.66848   21.478
 6396.00    2.56246   2.71368   21.528
 6397.00    2.56715   2.71478   21.321
 6398.00    2.53767   2.66405   21.129
 6399.00    2.49100   2.59727   21.192
 6400.00    2.45854   2.57659   21.425
 6401.00    2.46190   2.62891   21.843
 6402.00    2.49729   2.70367   -1.000
 6403.00    2.53893   2.75086   -1.000
 6404.00    2.55378   2.76393   -1.000
 6405.00    2.54003   2.74421   -1.000
 6406.00    2.50484   2.70540   -1.000
 6407.00    2.45820   2.67064   -1.000
 6408.00    2.44013   2.66494   -1.000
 6409.00    2.44355   2.67896   -1.000
 6410.00    2.43375   2.68176   -1.000
 6411.00    2.40354   2.66672   -1.000
 6412.00    2.38134   2.66441   -1.000
 6413.00    2.37087   2.67786   -1.000
 6414.00    2.35554   2.69201   -1.000
 6415.00    2.35020   2.70512   -1.000
 6416.00    2.34842   2.71599   -1.000
 6417.00    2.32984   2.71226   -1.000
 6418.00    2.30737   2.68466   -1.000
 6419.00    2.26603   2.64099   -1.000
 6420.00    2.22397   2.61070   -1.000
 6421.00    2.21823   2.62209   -1.000
 6422.00    2.21717   2.67571   -1.000
 6423.00    2.21531   2.72590   -1.000
 6424.00    2.23042   2.75161   -1.000
 6425.00    2.23032   2.76439   -1.000
 6426.00    2.21384   2.77714   -1.000
 6427.00    2.18661   2.78019   -1.000
 6428.00    2.15560   2.75080   -1.000
