###################################################################
## OUTPUT of StarlightChains_v04.for    [Cid@UFSC - 01/Apr/2007] ##
###################################################################

## Some input info
NGC5946_a_1.cxt                          [arq_obs]
Base.BC03.S                              [arq_base]
NGC5946_a_1.msk                          [arq_masks]
StCv04.C99.config                        [arq_config]
  150                                    [N_base]
    0                                    [N_YAV_components = # of components with extra extinction!]
    0                                    [i_FitPowerLaw (1/0 = Yes/No)]
-9.99                                    [alpha_PowerLaw]
CCM                                      [red_law_option]
 1.458241                                [q_norm = A(l_norm)/A(V)]

## (Re)Sampling Parameters
 3359.00                                 [l_ini (A)]
 6428.00                                 [l_fin (A)]
    1.00                                 [dl    (A)]     (OBS: dl_cushion =    50.00 A)

## Normalization info
 4020.00                                 [l_norm (A) - for base]
 4010.00                                 [llow_norm (A) - window for f_obs]
 4060.00                                 [lupp_norm (A) - window for f_obs]
2.679293E-15                             [fobs_norm (in input units)]

## S/N
 4730.00                                 [llow_SN (A) - window for S/N]
 4780.00                                 [lupp_SN (A) - window for S/N]
  76.219                                 [S/N in S/N window]
  50.437                                 [S/N in norm. window]
 152.898                                 [S/N_err in S/N window]
 101.177                                 [S/N_err in norm. window]
  1.0000                                 [fscale_chi2]

## etc...
  2147483630                             [idum_orig]
  3066                                   [NOl_eff]
   878                                   [Nl_eff]
  2188    NSIGMA                         [Ntot_cliped & clip_method]
  4079740                                [Nglobal_steps]
   7                                     [N_chains]
  23                                     [NEX0s_base = N_base in EX0s-fits]
 0   0   1      136   2.0   2.373E+02    [Clip-Bug, RC-Crash & Burn-In warning-flags, n_censored_weights, wei_nsig_threshold & wei_limit]
   179    178.419    178.399      0.020  [idt_all, wdt_TotTime, wdt_UsrTime & wdt_SysTime (sec)]

## Synthesis Results - Best model ##

 2.39457E+00                             [chi2/Nl_eff]
     1.55261                             [adev (%)]

    97.57433                             [sum-of-x (%)]
 4.35262E-14                             [Flux_tot (units of input spectrum!)]
 8.38639E-10                             [Mini_tot (???)]
 4.17013E-10                             [Mcor_tot (???)]

 -37.41                                  [v0_min  (km/s)]
  80.17                                  [vd_min  (km/s)]
 2.0940                                  [AV_min  (mag)]
 0.0000                                  [YAV_min (mag)]

# j     x_j(%)      Mini_j(%)     Mcor_j(%)     age_j(yr)     Z_j      (L/M)_j    YAV?  Mstars   component_j        a/Fe...       SSP_chi2r SSP_adev(%)   SSP_AV   SSP_x(%)
  1      0.0000     0.0000E+00    0.0000E+00    1.000000E+06  0.00010  8.160E-03    0   1.0000   age020_m22            0.0000     2.1467E+03    33.7861   4.0000    95.6623
  2      5.4638     6.1068E-03    1.2281E-02    3.160000E+06  0.00010  4.759E-02    0   1.0000   age045_m22            0.0000     2.0489E+01     3.4558   3.3134    97.3283
  3      9.3065     2.5622E-02    4.9374E-02    5.010000E+06  0.00010  1.932E-02    0   0.9582   age055_m22            0.0000     1.8055E+02    11.6724   3.5683    84.8532
  4      0.0000     0.0000E+00    0.0000E+00    6.610000E+06  0.00010  9.973E-03    0   0.9297   age061_m22            0.0000     2.0274E+03    32.4449   4.0000    98.4962
  5      0.0000     0.0000E+00    0.0000E+00    8.710000E+06  0.00010  7.690E-03    0   0.9030   age067_m22            0.0000     1.9847E+03    31.9620   4.0000    98.9711
  6      0.0000     0.0000E+00    0.0000E+00    1.000000E+07  0.00010  6.375E-03    0   0.8902   age070_m22            0.0000     2.0017E+03    31.8374   4.0000    99.2372
  7      0.0000     0.0000E+00    0.0000E+00    1.445000E+07  0.00010  4.874E-03    0   0.8589   age078_m22            0.0000     1.4597E+03    27.4123   4.0000   101.4288
  8      0.0000     0.0000E+00    0.0000E+00    2.512000E+07  0.00010  4.103E-03    0   0.8174   age090_m22            0.0000     5.5971E+02    17.3752   4.0000   104.0754
  9      1.4621     2.1284E-02    3.3514E-02    4.000000E+07  0.00010  3.654E-03    0   0.7830   age104_m22            0.0000     2.1532E+02     9.4666   4.0000   104.1507
 10      0.0000     0.0000E+00    0.0000E+00    5.500000E+07  0.00010  3.093E-03    0   0.7597   age110_m22            0.0000     1.5701E+02     7.3629   4.0000   103.6657
 11      0.0000     0.0000E+00    0.0000E+00    1.015200E+08  0.00010  2.431E-03    0   0.7138   age116_m22            0.0000     1.0193E+02     7.2155   3.9503    99.6806
 12      0.0000     0.0000E+00    0.0000E+00    1.609000E+08  0.00010  1.319E-03    0   0.6775   age120_m22            0.0000     1.1012E+02     7.5754   3.4701   101.8859
 13      0.0000     0.0000E+00    0.0000E+00    2.861200E+08  0.00010  1.075E-03    0   0.6412   age125_m22            0.0000     3.2873E+02    13.7179   3.5647   104.6263
 14      0.0000     0.0000E+00    0.0000E+00    5.088000E+08  0.00010  7.183E-04    0   0.6083   age130_m22            0.0000     4.1524E+02    15.5571   3.3518   105.7664
 15      0.0000     0.0000E+00    0.0000E+00    9.047900E+08  0.00010  4.524E-04    0   0.5785   age135_m22            0.0000     4.2383E+02    15.8300   3.1580   106.7560
 16      0.0000     0.0000E+00    0.0000E+00    1.278050E+09  0.00010  3.018E-04    0   0.5588   age138_m22            0.0000     2.0994E+02    11.3200   2.6105   105.3821
 17      0.0000     0.0000E+00    0.0000E+00    1.434000E+09  0.00010  2.691E-04    0   0.5532   age139_m22            0.0000     1.7445E+02    10.3785   2.4524   104.8470
 18      0.0000     0.0000E+00    0.0000E+00    2.500000E+09  0.00010  1.582E-04    0   0.5296   age150_m22            0.0000     1.4365E+02     9.4519   2.3332   105.7264
 19      0.0000     0.0000E+00    0.0000E+00    4.250000E+09  0.00010  1.007E-04    0   0.5110   age158_m22            0.0000     7.8438E+01     7.0287   2.1774   104.1802
 20      0.0027     2.1095E-03    2.1148E-03    6.250000E+09  0.00010  6.869E-05    0   0.4985   age166_m22            0.0000     3.2856E+01     4.5638   2.1130   101.5504
 21      0.0000     0.0000E+00    0.0000E+00    7.500000E+09  0.00010  5.873E-05    0   0.4931   age171_m22            0.0000     2.5751E+01     4.0407   2.0961   101.1110
 22      0.0422     5.0038E-02    4.8846E-02    1.000000E+10  0.00010  4.481E-05    0   0.4854   age181_m22            0.0000     2.4906E+01     4.0144   2.0591   100.7132
 23      0.0000     0.0000E+00    0.0000E+00    1.300000E+10  0.00010  3.489E-05    0   0.4791   age193_m22            0.0000     2.2552E+01     3.8756   2.0038   100.1423
 24      0.0439     7.6962E-02    7.3766E-02    1.500000E+10  0.00010  3.035E-05    0   0.4766   age201_m22            0.0000     2.0638E+01     3.7385   1.9645    99.9822
 25      0.8569     1.8159E+00    1.7292E+00    1.800000E+10  0.00010  2.510E-05    0   0.4735   age213_m22            0.0000     1.6122E+01     3.3732   1.8951    99.4314
 26      0.0000     0.0000E+00    0.0000E+00    1.000000E+06  0.00040  8.458E-03    0   1.0000   age020_m32            0.0000     2.1773E+03    33.6744   4.0000    96.4290
 27      0.2004     2.6824E-04    5.3945E-04    3.160000E+06  0.00040  3.973E-02    0   1.0000   age045_m32            0.0000     4.2321E+02    15.5881   4.0000   102.4285
 28      0.0000     0.0000E+00    0.0000E+00    5.010000E+06  0.00040  1.935E-02    0   0.9532   age055_m32            0.0000     8.9030E+02    23.0366   4.0000    98.8578
 29      0.0000     0.0000E+00    0.0000E+00    6.610000E+06  0.00040  1.204E-02    0   0.9243   age061_m32            0.0000     1.6000E+03    29.1603   4.0000    99.9660
 30      0.0000     0.0000E+00    0.0000E+00    8.710000E+06  0.00040  9.433E-03    0   0.9001   age067_m32            0.0000     1.4979E+03    28.1385   4.0000   100.8224
 31      0.0000     0.0000E+00    0.0000E+00    1.000000E+07  0.00040  8.053E-03    0   0.8877   age070_m32            0.0000     1.4016E+03    27.3033   4.0000   101.0550
 32      0.0000     0.0000E+00    0.0000E+00    1.445000E+07  0.00040  7.027E-03    0   0.8578   age078_m32            0.0000     3.8485E+02    15.6425   4.0000   100.0882
 33      0.0000     0.0000E+00    0.0000E+00    2.512000E+07  0.00040  4.707E-03    0   0.8166   age090_m32            0.0000     1.0082E+02     8.4067   4.0000    98.6082
 34      0.0000     0.0000E+00    0.0000E+00    4.000000E+07  0.00040  3.714E-03    0   0.7827   age104_m32            0.0000     4.4011E+01     4.7202   4.0000    97.5578
 35      0.0000     0.0000E+00    0.0000E+00    5.500000E+07  0.00040  2.982E-03    0   0.7593   age110_m32            0.0000     5.4435E+01     5.1855   3.9763    97.8655
 36      0.0000     0.0000E+00    0.0000E+00    1.015200E+08  0.00040  2.188E-03    0   0.7143   age116_m32            0.0000     1.6151E+02     9.2670   3.7332   101.7988
 37      0.0000     0.0000E+00    0.0000E+00    1.609000E+08  0.00040  1.690E-03    0   0.6856   age120_m32            0.0000     2.5185E+02    11.9310   3.5336   104.2411
 38      0.0000     0.0000E+00    0.0000E+00    2.861200E+08  0.00040  1.152E-03    0   0.6509   age125_m32            0.0000     3.5318E+02    14.2958   3.3290   105.4346
 39      0.0000     0.0000E+00    0.0000E+00    5.088000E+08  0.00040  7.331E-04    0   0.6182   age130_m32            0.0000     3.9345E+02    15.1893   3.1752   105.8563
 40      0.0000     0.0000E+00    0.0000E+00    9.047900E+08  0.00040  3.960E-04    0   0.5890   age135_m32            0.0000     2.2826E+02    11.7949   2.7110   104.4973
 41      0.0000     0.0000E+00    0.0000E+00    1.278050E+09  0.00040  2.854E-04    0   0.5687   age138_m32            0.0000     1.7055E+02    10.3255   2.4081   106.5748
 42      0.0000     0.0000E+00    0.0000E+00    1.434000E+09  0.00040  2.531E-04    0   0.5632   age139_m32            0.0000     1.6524E+02    10.1846   2.3460   106.5478
 43      4.2512     1.5197E+00    1.6460E+00    2.500000E+09  0.00040  1.488E-04    0   0.5386   age150_m32            0.0000     1.1877E+02     8.7346   2.0916   104.7046
 44      6.7765     3.9688E+00    4.1496E+00    4.250000E+09  0.00040  9.082E-05    0   0.5199   age158_m32            0.0000     3.8596E+01     5.1322   1.9837   101.6173
 45     30.4817     2.5485E+01    2.6016E+01    6.250000E+09  0.00040  6.362E-05    0   0.5076   age166_m32            0.0000     6.6660E+00     2.4352   1.9290    98.5633
 46     23.0611     2.3192E+01    2.3447E+01    7.500000E+09  0.00040  5.289E-05    0   0.5027   age171_m32            0.0000     5.7907E+00     2.3074   1.8928    97.3128
 47      0.0290     3.8884E-02    3.8693E-02    1.000000E+10  0.00040  3.972E-05    0   0.4948   age181_m32            0.0000     7.4173E+00     2.4752   1.8321    95.9378
 48      0.0121     1.9678E-02    1.9272E-02    1.300000E+10  0.00040  3.283E-05    0   0.4870   age193_m32            0.0000     1.4544E+01     3.3709   1.7946    98.5608
 49      0.0490     8.9147E-02    8.7022E-02    1.500000E+10  0.00040  2.925E-05    0   0.4854   age201_m32            0.0000     2.3825E+01     4.1897   1.7796   100.0941
 50     12.5616     2.7062E+01    2.6227E+01    1.800000E+10  0.00040  2.469E-05    0   0.4819   age213_m32            0.0000     2.9253E+01     4.6040   1.7412   100.5886
 51      0.0000     0.0000E+00    0.0000E+00    1.000000E+06  0.00400  1.114E-02    0   1.0000   age020_m42            0.0000     1.9719E+03    32.2182   4.0000    96.6068
 52      0.0003     3.3431E-07    6.7225E-07    3.160000E+06  0.00400  4.073E-02    0   0.9999   age045_m42            0.0000     1.2453E+02     8.5049   4.0000    99.6703
 53      0.0000     0.0000E+00    0.0000E+00    5.010000E+06  0.00400  2.534E-02    0   0.9488   age055_m42            0.0000     6.2033E+02    19.0285   4.0000   100.0199
 54      0.3508     7.2240E-04    1.3395E-03    6.610000E+06  0.00400  2.583E-02    0   0.9220   age061_m42            0.0000     4.4585E+01     5.1890   4.0000    96.6332
 55      0.0000     0.0000E+00    0.0000E+00    8.710000E+06  0.00400  1.706E-02    0   0.8983   age067_m42            0.0000     4.8004E+01     6.3607   3.9032    92.8302
 56      0.0000     0.0000E+00    0.0000E+00    1.000000E+07  0.00400  1.271E-02    0   0.8862   age070_m42            0.0000     8.3730E+01     8.4219   3.8794    91.4909
 57      0.0000     0.0000E+00    0.0000E+00    1.445000E+07  0.00400  7.666E-03    0   0.8571   age078_m42            0.0000     2.1479E+02    13.3005   4.0000    94.0302
 58      0.0000     0.0000E+00    0.0000E+00    2.512000E+07  0.00400  5.070E-03    0   0.8174   age090_m42            0.0000     6.6599E+01     7.6013   3.7487    93.2066
 59      0.0000     0.0000E+00    0.0000E+00    4.000000E+07  0.00400  3.505E-03    0   0.7851   age104_m42            0.0000     3.3938E+01     5.3871   3.4413    96.1777
 60      0.0000     0.0000E+00    0.0000E+00    5.500000E+07  0.00400  3.059E-03    0   0.7629   age110_m42            0.0000     5.0767E+01     5.1772   3.5204   100.3519
 61      0.0000     0.0000E+00    0.0000E+00    1.015200E+08  0.00400  2.268E-03    0   0.7207   age116_m42            0.0000     2.2165E+02    11.3050   3.4582   104.9289
 62      0.0007     2.1277E-05    2.9653E-05    1.609000E+08  0.00400  1.720E-03    0   0.6930   age120_m42            0.0000     2.5642E+02    12.2163   3.3244   106.2896
 63      0.0000     0.0000E+00    0.0000E+00    2.861200E+08  0.00400  1.079E-03    0   0.6613   age125_m42            0.0000     2.6890E+02    12.6290   2.9704   106.4836
 64      0.0000     0.0000E+00    0.0000E+00    5.088000E+08  0.00400  6.261E-04    0   0.6313   age130_m42            0.0000     3.0974E+02    13.6970   2.7841   109.0743
 65      0.0000     0.0000E+00    0.0000E+00    9.047900E+08  0.00400  3.535E-04    0   0.6024   age135_m42            0.0000     1.9327E+02    11.0795   2.3880   109.2132
 66      0.0000     0.0000E+00    0.0000E+00    1.278050E+09  0.00400  2.677E-04    0   0.5837   age138_m42            0.0000     1.2264E+02     9.1962   1.7198   106.2099
 67      0.0000     0.0000E+00    0.0000E+00    1.434000E+09  0.00400  1.910E-04    0   0.5716   age139_m42            0.0000     1.3033E+02     9.3208   1.8869   107.2416
 68      0.0000     0.0000E+00    0.0000E+00    2.500000E+09  0.00400  9.818E-05    0   0.5463   age150_m42            0.0000     8.5862E+01     7.4509   1.6238   102.2288
 69      0.0000     0.0000E+00    0.0000E+00    4.250000E+09  0.00400  5.491E-05    0   0.5269   age158_m42            0.0000     8.3524E+01     6.9234   1.4973    99.4545
 70      0.0000     0.0000E+00    0.0000E+00    6.250000E+09  0.00400  3.857E-05    0   0.5151   age166_m42            0.0000     1.0701E+02     7.5359   1.3790    97.9637
 71      0.0000     0.0000E+00    0.0000E+00    7.500000E+09  0.00400  3.243E-05    0   0.5110   age171_m42            0.0000     1.2620E+02     8.0505   1.3068    97.2730
 72      0.0000     0.0000E+00    0.0000E+00    1.000000E+10  0.00400  2.424E-05    0   0.5028   age181_m42            0.0000     1.5337E+02     8.7758   1.2351    96.4548
 73      0.0000     0.0000E+00    0.0000E+00    1.300000E+10  0.00400  1.883E-05    0   0.4927   age193_m42            0.0000     1.7448E+02     9.3491   1.1989    96.0505
 74      0.0000     0.0000E+00    0.0000E+00    1.500000E+10  0.00400  1.685E-05    0   0.4919   age201_m42            0.0000     1.6908E+02     9.1879   1.2017    96.1140
 75      0.0000     0.0000E+00    0.0000E+00    1.800000E+10  0.00400  1.452E-05    0   0.4874   age213_m42            0.0000     1.5852E+02     8.9027   1.2136    96.4622
 76      0.0000     0.0000E+00    0.0000E+00    1.000000E+06  0.00800  1.286E-02    0   1.0000   age020_m52            0.0000     1.8492E+03    30.8496   4.0000    98.5915
 77      0.0000     0.0000E+00    0.0000E+00    3.160000E+06  0.00800  3.147E-02    0   0.9966   age045_m52            0.0000     1.6198E+03    29.2455   4.0000    99.7970
 78      0.0000     0.0000E+00    0.0000E+00    5.010000E+06  0.00800  2.664E-02    0   0.9443   age055_m52            0.0000     8.3703E+02    21.9381   4.0000   100.5754
 79      0.0000     0.0000E+00    0.0000E+00    6.610000E+06  0.00800  2.151E-02    0   0.9177   age061_m52            0.0000     6.0002E+01     7.2841   3.4774    93.2253
 80      0.0000     0.0000E+00    0.0000E+00    8.710000E+06  0.00800  1.628E-02    0   0.8948   age067_m52            0.0000     5.6728E+01     7.1320   3.8493    93.5218
 81      0.0000     0.0000E+00    0.0000E+00    1.000000E+07  0.00800  1.215E-02    0   0.8827   age070_m52            0.0000     1.1791E+02    10.3130   4.0000    95.7907
 82      0.0000     0.0000E+00    0.0000E+00    1.445000E+07  0.00800  8.739E-03    0   0.8552   age078_m52            0.0000     1.2226E+02     9.9229   4.0000    98.0819
 83      0.0000     0.0000E+00    0.0000E+00    2.512000E+07  0.00800  5.676E-03    0   0.8162   age090_m52            0.0000     4.7270E+01     5.3153   3.8433    97.5686
 84      0.0000     0.0000E+00    0.0000E+00    4.000000E+07  0.00800  3.939E-03    0   0.7841   age104_m52            0.0000     5.7138E+01     5.2694   3.6949    99.7867
 85      0.0000     0.0000E+00    0.0000E+00    5.500000E+07  0.00800  3.155E-03    0   0.7627   age110_m52            0.0000     8.4597E+01     6.3606   3.6737   101.3539
 86      0.0000     0.0000E+00    0.0000E+00    1.015200E+08  0.00800  2.206E-03    0   0.7226   age116_m52            0.0000     1.6396E+02     9.4770   3.5062   105.0217
 87      0.0000     0.0000E+00    0.0000E+00    1.609000E+08  0.00800  1.596E-03    0   0.6963   age120_m52            0.0000     2.0764E+02    10.9554   3.2993   106.4610
 88      0.0000     0.0000E+00    0.0000E+00    2.861200E+08  0.00800  1.002E-03    0   0.6665   age125_m52            0.0000     3.3832E+02    14.3244   3.0303   108.5524
 89      0.0000     0.0000E+00    0.0000E+00    5.088000E+08  0.00800  5.759E-04    0   0.6377   age130_m52            0.0000     3.7795E+02    15.3189   2.7073   111.8962
 90      0.0000     0.0000E+00    0.0000E+00    9.047900E+08  0.00800  2.972E-04    0   0.6086   age135_m52            0.0000     2.5347E+02    12.5364   2.1847   110.0443
 91      0.0000     0.0000E+00    0.0000E+00    1.278050E+09  0.00800  2.242E-04    0   0.5907   age138_m52            0.0000     1.6028E+02    10.0904   1.5676   108.8592
 92      0.0000     0.0000E+00    0.0000E+00    1.434000E+09  0.00800  1.645E-04    0   0.5787   age139_m52            0.0000     1.3552E+02     9.3041   1.7124   108.4224
 93      0.0000     0.0000E+00    0.0000E+00    2.500000E+09  0.00800  7.723E-05    0   0.5519   age150_m52            0.0000     1.3434E+02     8.7291   1.3827   104.4797
 94      0.0000     0.0000E+00    0.0000E+00    4.250000E+09  0.00800  4.151E-05    0   0.5320   age158_m52            0.0000     1.3749E+02     8.6015   1.3155   101.7562
 95      0.0000     0.0000E+00    0.0000E+00    6.250000E+09  0.00800  3.010E-05    0   0.5197   age166_m52            0.0000     1.8300E+02     9.6469   1.1332   100.1112
 96      0.0000     0.0000E+00    0.0000E+00    7.500000E+09  0.00800  2.467E-05    0   0.5139   age171_m52            0.0000     1.9636E+02     9.9583   1.0953    99.6315
 97      0.0000     0.0000E+00    0.0000E+00    1.000000E+10  0.00800  1.862E-05    0   0.5054   age181_m52            0.0000     2.4125E+02    10.9511   0.9770    99.0228
 98      0.0000     0.0000E+00    0.0000E+00    1.300000E+10  0.00800  1.433E-05    0   0.4988   age193_m52            0.0000     2.9253E+02    12.0380   0.8912    99.4966
 99      0.0000     0.0000E+00    0.0000E+00    1.500000E+10  0.00800  1.244E-05    0   0.4936   age201_m52            0.0000     3.1396E+02    12.4607   0.8652    99.9048
100      1.2357     6.1429E+00    6.0385E+00    1.800000E+10  0.00800  1.070E-05    0   0.4888   age213_m52            0.0000     3.2936E+02    12.7531   0.8350    99.6656
101      0.0000     0.0000E+00    0.0000E+00    1.000000E+06  0.02000  1.989E-02    0   1.0000   age020_m62            0.0000     1.8709E+03    31.2345   4.0000    97.2754
102      0.0000     0.0000E+00    0.0000E+00    3.160000E+06  0.02000  3.772E-02    0   0.9858   age045_m62            0.0000     1.4909E+03    28.5241   4.0000    98.9535
103      0.6179     1.0185E-03    1.9134E-03    5.010000E+06  0.02000  3.227E-02    0   0.9342   age055_m62            0.0000     3.7960E+02    15.0388   4.0000   101.1703
104      0.0000     0.0000E+00    0.0000E+00    6.610000E+06  0.02000  2.387E-02    0   0.9090   age061_m62            0.0000     1.8709E+02    12.5876   4.0000    95.6841
105      0.0000     0.0000E+00    0.0000E+00    8.710000E+06  0.02000  1.102E-02    0   0.8861   age067_m62            0.0000     4.0989E+02    16.9497   3.8507    85.8004
106      0.0000     0.0000E+00    0.0000E+00    1.000000E+07  0.02000  1.011E-02    0   0.8751   age070_m62            0.0000     2.5709E+02    13.7665   3.8823    88.1707
107      0.0000     0.0000E+00    0.0000E+00    1.445000E+07  0.02000  7.331E-03    0   0.8472   age078_m62            0.0000     1.5828E+02    11.1822   3.9114    89.5532
108      0.0000     0.0000E+00    0.0000E+00    2.512000E+07  0.02000  4.206E-03    0   0.8099   age090_m62            0.0000     1.6359E+02    11.5195   3.8145    89.3241
109      0.0000     0.0000E+00    0.0000E+00    4.000000E+07  0.02000  3.373E-03    0   0.7799   age104_m62            0.0000     4.0576E+01     5.2519   3.6423    97.9464
110      0.0000     0.0000E+00    0.0000E+00    5.500000E+07  0.02000  2.747E-03    0   0.7595   age110_m62            0.0000     6.4007E+01     5.6761   3.5875   101.3155
111      0.0000     0.0000E+00    0.0000E+00    1.015200E+08  0.02000  1.878E-03    0   0.7221   age116_m62            0.0000     1.8274E+02     9.9683   3.4701   105.8942
112      0.0000     0.0000E+00    0.0000E+00    1.609000E+08  0.02000  1.378E-03    0   0.6978   age120_m62            0.0000     2.8315E+02    12.7279   3.3290   108.1551
113      0.0000     0.0000E+00    0.0000E+00    2.861200E+08  0.02000  8.869E-04    0   0.6700   age125_m62            0.0000     4.5041E+02    16.3331   2.9859   111.8193
114      0.0000     0.0000E+00    0.0000E+00    5.088000E+08  0.02000  4.834E-04    0   0.6430   age130_m62            0.0000     4.1951E+02    15.9762   2.5766   113.3712
115      0.0000     0.0000E+00    0.0000E+00    9.047900E+08  0.02000  2.312E-04    0   0.6152   age135_m62            0.0000     2.2716E+02    12.1277   1.9837   112.3477
116      0.0000     0.0000E+00    0.0000E+00    1.278050E+09  0.02000  1.387E-04    0   0.5927   age138_m62            0.0000     1.3960E+02     9.3520   1.6018   108.0029
117      0.0000     0.0000E+00    0.0000E+00    1.434000E+09  0.02000  1.168E-04    0   0.5865   age139_m62            0.0000     1.3049E+02     8.9255   1.5781   106.3105
118      0.0000     0.0000E+00    0.0000E+00    2.500000E+09  0.02000  5.505E-05    0   0.5610   age150_m62            0.0000     1.7179E+02     9.6186   1.2263   102.9803
119      0.0000     0.0000E+00    0.0000E+00    4.250000E+09  0.02000  3.070E-05    0   0.5407   age158_m62            0.0000     2.7402E+02    11.8083   0.9555   102.4443
120      0.0000     0.0000E+00    0.0000E+00    6.250000E+09  0.02000  2.104E-05    0   0.5277   age166_m62            0.0000     3.3580E+02    12.9695   0.8345   102.6214
121      0.0000     0.0000E+00    0.0000E+00    7.500000E+09  0.02000  1.770E-05    0   0.5223   age171_m62            0.0000     3.7135E+02    13.5947   0.7523   102.8852
122      0.0000     0.0000E+00    0.0000E+00    1.000000E+10  0.02000  1.297E-05    0   0.5121   age181_m62            0.0000     4.4929E+02    14.8685   0.6052   103.1413
123      0.0000     0.0000E+00    0.0000E+00    1.300000E+10  0.02000  9.691E-06    0   0.5047   age193_m62            0.0000     5.0639E+02    15.7353   0.5290   103.3225
124      0.0000     0.0000E+00    0.0000E+00    1.500000E+10  0.02000  8.360E-06    0   0.4999   age201_m62            0.0000     5.5546E+02    16.4552   0.4646   103.4220
125      0.0000     0.0000E+00    0.0000E+00    1.800000E+10  0.02000  6.911E-06    0   0.4946   age213_m62            0.0000     6.1752E+02    17.3408   0.3995   103.4845
126      0.0000     0.0000E+00    0.0000E+00    1.000000E+06  0.05000  2.651E-02    0   0.9998   age020_m72            0.0000     1.8416E+03    30.7630   4.0000    98.5011
127      0.0000     0.0000E+00    0.0000E+00    3.160000E+06  0.05000  4.817E-02    0   0.9577   age045_m72            0.0000     1.0718E+03    24.3032   4.0000   101.5944
128      0.0316     5.4143E-05    9.9597E-05    5.010000E+06  0.05000  3.101E-02    0   0.9147   age055_m72            0.0000     4.5241E+02    17.3236   4.0000    99.4553
129      0.0000     0.0000E+00    0.0000E+00    6.610000E+06  0.05000  1.472E-02    0   0.8877   age061_m72            0.0000     3.0731E+02    15.1235   4.0000    88.3478
130      0.0000     0.0000E+00    0.0000E+00    8.710000E+06  0.05000  1.050E-02    0   0.8638   age067_m72            0.0000     4.5712E+02    18.0823   4.0000    96.8464
131      0.0000     0.0000E+00    0.0000E+00    1.000000E+07  0.05000  8.954E-03    0   0.8524   age070_m72            0.0000     8.1081E+02    21.5323   4.0000   101.4901
132      0.0000     0.0000E+00    0.0000E+00    1.445000E+07  0.05000  6.392E-03    0   0.8262   age078_m72            0.0000     6.9283E+02    19.8443   4.0000   102.0519
133      0.0000     0.0000E+00    0.0000E+00    2.512000E+07  0.05000  4.207E-03    0   0.7902   age090_m72            0.0000     1.7764E+02    10.6532   4.0000   100.5572
134      0.0000     0.0000E+00    0.0000E+00    4.000000E+07  0.05000  3.198E-03    0   0.7618   age104_m72            0.0000     1.0559E+02     7.2396   3.8397   101.5540
135      0.0000     0.0000E+00    0.0000E+00    5.500000E+07  0.05000  2.593E-03    0   0.7432   age110_m72            0.0000     1.4616E+02     8.7781   3.7501   103.4728
136      0.0000     0.0000E+00    0.0000E+00    1.015200E+08  0.05000  1.716E-03    0   0.7092   age116_m72            0.0000     2.3304E+02    11.3126   3.5647   105.8233
137      0.0000     0.0000E+00    0.0000E+00    1.609000E+08  0.05000  1.218E-03    0   0.6876   age120_m72            0.0000     3.4136E+02    13.9966   3.3134   108.2997
138      0.0000     0.0000E+00    0.0000E+00    2.861200E+08  0.05000  7.047E-04    0   0.6618   age125_m72            0.0000     4.4931E+02    16.4645   2.8055   111.6254
139      0.0000     0.0000E+00    0.0000E+00    5.088000E+08  0.05000  3.590E-04    0   0.6356   age130_m72            0.0000     3.7892E+02    15.2565   2.2542   113.6189
140      0.0000     0.0000E+00    0.0000E+00    9.047900E+08  0.05000  1.484E-04    0   0.6088   age135_m72            0.0000     2.0502E+02    11.4067   1.5320   106.6589
141      0.0000     0.0000E+00    0.0000E+00    1.278050E+09  0.05000  9.435E-05    0   0.5924   age138_m72            0.0000     2.4700E+02    11.7360   1.1501   103.3801
142      0.0000     0.0000E+00    0.0000E+00    1.434000E+09  0.05000  7.827E-05    0   0.5847   age139_m72            0.0000     2.3832E+02    11.4012   1.1597   102.7800
143      0.0000     0.0000E+00    0.0000E+00    2.500000E+09  0.05000  3.759E-05    0   0.5583   age150_m72            0.0000     3.2682E+02    12.8396   0.8480   101.8160
144      0.0000     0.0000E+00    0.0000E+00    4.250000E+09  0.05000  1.842E-05    0   0.5374   age158_m72            0.0000     4.4942E+02    14.6555   0.5479   100.8493
145      0.0000     0.0000E+00    0.0000E+00    6.250000E+09  0.05000  1.207E-05    0   0.5242   age166_m72            0.0000     5.6946E+02    16.3421   0.3229   100.3119
146      0.0000     0.0000E+00    0.0000E+00    7.500000E+09  0.05000  9.993E-06    0   0.5183   age171_m72            0.0000     5.8847E+02    16.5787   0.2808   100.2285
147      0.0000     0.0000E+00    0.0000E+00    1.000000E+10  0.05000  7.291E-06    0   0.5081   age181_m72            0.0000     6.7607E+02    17.7992   0.1688    99.9245
148      0.0000     0.0000E+00    0.0000E+00    1.300000E+10  0.05000  5.316E-06    0   0.5018   age193_m72            0.0000     8.1632E+02    19.6761   0.0013    99.4781
149      0.0000     0.0000E+00    0.0000E+00    1.500000E+10  0.05000  4.497E-06    0   0.4972   age201_m72            0.0000     8.8795E+02    20.6385  -0.0649    99.5872
150      0.7368     1.0481E+01    1.0379E+01    1.800000E+10  0.05000  3.739E-06    0   0.4924   age213_m72            0.0000     9.8009E+02    21.8686  -0.1602    99.5534


## Synthesis Results - Average & Chains ##

# j      x_j: min, <> & last-chain-values for 1 ...  7 chains
  1      0.0000      0.0420      0.0000      0.0000      0.2513      0.0894      0.0000      0.0000      0.0000
  2      5.4638      3.8123      4.1480      4.4907      4.1669      4.2946      3.9703      4.4762      3.9122
  3      9.3065      8.5255      8.7786      8.5857      8.6013      8.6082      8.6185      9.4085      8.7626
  4      0.0000      0.0300      0.1240      0.0000      0.0000      0.0174      0.0000      0.0000      0.0000
  5      0.0000      0.0233      0.0000      0.0000      0.0000      0.0000      0.0015      0.0000      0.0000
  6      0.0000      0.0192      0.0000      0.0000      0.0000      0.0000      0.0000      0.0000      0.0000
  7      0.0000      0.0235      0.0000      0.0000      0.0000      0.0000      0.0000      0.0000      0.0000
  8      0.0000      0.0812      0.0000      0.0000      0.0387      0.0000      0.0000      0.0000      0.2852
  9      1.4621      0.1993      0.3136      0.5180      0.3477      0.0000      0.6402      0.0000      0.0000
 10      0.0000      0.0733      0.0000      0.0536      0.3478      0.0660      0.0022      0.0164      0.3553
 11      0.0000      0.0835      0.0000      0.1556      0.0000      0.0068      0.2251      0.0378      0.5635
 12      0.0000      0.0376      0.0000      0.0278      0.0911      0.0000      0.0000      0.0000      0.0000
 13      0.0000      0.0164      0.0000      0.0000      0.0000      0.0000      0.0000      0.0000      0.0000
 14      0.0000      0.0103      0.0000      0.0000      0.0000      0.0000      0.0000      0.0000      0.0000
 15      0.0000      0.0132      0.0000      0.0254      0.0000      0.0000      0.0000      0.0000      0.0082
 16      0.0000      0.0200      0.0000      0.0000      0.0000      0.0000      0.0000      0.0000      0.0268
 17      0.0000      0.0284      0.0000      0.0000      0.0000      0.0000      0.0000      0.0000      0.0000
 18      0.0000      0.0479      0.0000      0.0000      0.0000      0.0810      0.0000      0.0000      0.0000
 19      0.0000      0.1332      0.0000      0.0000      0.4246      0.0000      0.0000      0.1210      0.1102
 20      0.0027      0.3038      0.0000      0.5239      0.1708      0.0000      0.1019      0.0000      0.0000
 21      0.0000      0.5545      0.2662      0.0000      0.3976      1.2597      2.0921      0.3038      0.3718
 22      0.0422      0.5751      0.0000      0.8939      0.3841      0.7984      0.3657      0.1936      0.5229
 23      0.0000      0.6626      1.6614      0.0067      0.5184      1.2276      1.1069      0.0000      0.1074
 24      0.0439      1.3729      0.0000      0.6582      0.5410      1.7467      2.1898      1.6119      1.0046
 25      0.8569      1.4552      1.4703      1.1068      2.1008      1.2452      2.8037      2.5701      0.8453
 26      0.0000      0.0331      0.0000      0.0000      0.0000      0.0000      0.0000      0.0000      0.1361
 27      0.2004      0.1024      0.1305      0.2117      0.3573      0.0670      0.2503      0.0000      0.0000
 28      0.0000      0.0504      0.0000      0.0000      0.0000      0.0000      0.0000      0.0000      0.0000
 29      0.0000      0.0207      0.0000      0.0000      0.0000      0.0507      0.0964      0.0000      0.0000
 30      0.0000      0.0306      0.1200      0.0000      0.0000      0.0000      0.0000      0.0000      0.0559
 31      0.0000      0.0309      0.0000      0.0188      0.0000      0.1144      0.0000      0.1286      0.0000
 32      0.0000      0.0597      0.0000      0.0000      0.1012      0.2854      0.1164      0.0000      0.0000
 33      0.0000      0.0742      0.0000      0.1709      0.2363      0.3374      0.0000      0.1210      0.0164
 34      0.0000      0.1606      0.1808      0.0561      0.0000      0.0000      0.2365      0.2900      0.2087
 35      0.0000      0.0607      0.1783      0.0000      0.0000      0.0000      0.0000      0.0901      0.0000
 36      0.0000      0.0410      0.2016      0.0000      0.0000      0.0737      0.0000      0.0000      0.0000
 37      0.0000      0.0254      0.0000      0.0000      0.2551      0.0018      0.0000      0.0000      0.0666
 38      0.0000      0.0178      0.0000      0.0000      0.0000      0.0000      0.0145      0.0000      0.0000
 39      0.0000      0.0135      0.0000      0.0000      0.0000      0.0000      0.0000      0.0000      0.0000
 40      0.0000      0.0167      0.0497      0.0000      0.0080      0.0000      0.0638      0.0000      0.0000
 41      0.0000      0.0514      0.0901      0.0165      0.1839      0.0000      0.0000      0.0000      0.1477
 42      0.0000      0.0660      0.1175      0.0000      0.0000      0.0757      0.0000      0.4425      0.0000
 43      4.2512      0.3681      0.9783      0.8272      0.4986      0.3607      0.2381      0.3536      1.1828
 44      6.7765      4.8559      5.3721      6.0371      5.4658      5.2349      4.8247      5.3126      5.9073
 45     30.4817     27.4258     27.7397     27.6231     27.6336     27.1594     27.4172     27.1834     28.4279
 46     23.0611     22.0881     22.5746     21.7709     22.3882     22.9903     21.8327     22.7504     22.4812
 47      0.0290      0.3839      0.2646      0.5807      0.2119      0.3248      0.2157      0.0000      1.5076
 48      0.0121      1.9111      2.1365      1.8855      1.4033      0.0000      1.3046      1.7591      0.0000
 49      0.0490      1.3785      1.2317      1.0383      1.2605      1.4419      0.7659      1.3567      1.2654
 50     12.5616     16.1213     16.2881     16.2742     16.2628     15.5895     14.5613     16.2864     15.4580
 51      0.0000      0.0358      0.0000      0.1727      0.0000      0.0126      0.0000      0.0000      0.0000
 52      0.0003      0.0511      0.1925      0.4025      0.0000      0.0000      0.1283      0.0000      0.0000
 53      0.0000      0.0397      0.0000      0.0000      0.0304      0.0000      0.0000      0.0000      0.0000
 54      0.3508      0.1049      0.2738      0.2598      0.0666      0.2923      0.2344      0.0811      0.2339
 55      0.0000      0.1901      0.0000      0.0027      0.0000      0.1024      0.0397      0.2475      0.2354
 56      0.0000      0.1528      0.0000      0.0088      0.2365      0.6150      0.1590      0.1424      0.2283
 57      0.0000      0.0260      0.0102      0.0000      0.0369      0.1117      0.0666      0.0000      0.1851
 58      0.0000      0.0346      0.0000      0.0000      0.0000      0.0000      0.0000      0.0000      0.0772
 59      0.0000      0.0218      0.0000      0.0000      0.0000      0.0299      0.0066      0.0000      0.0000
 60      0.0000      0.0211      0.0268      0.0000      0.0000      0.0152      0.0000      0.0000      0.0000
 61      0.0000      0.0177      0.0063      0.0000      0.0000      0.2165      0.0000      0.0000      0.0000
 62      0.0007      0.0224      0.0000      0.2887      0.0000      0.0000      0.0519      0.0347      0.0000
 63      0.0000      0.0149      0.0249      0.1135      0.0000      0.0000      0.0000      0.0000      0.0000
 64      0.0000      0.0305      0.0000      0.0000      0.0000      0.0000      0.0939      0.0000      0.0000
 65      0.0000      0.0622      0.0000      0.0000      0.0000      0.0000      0.1674      0.0000      0.0000
 66      0.0000      0.0450      0.0061      0.0000      0.0000      0.0951      0.1964      0.0000      0.2418
 67      0.0000      0.0577      0.0000      0.1945      0.0000      0.1446      0.0000      0.0000      0.0000
 68      0.0000      0.0588      0.0000      0.0000      0.0000      0.0000      0.0000      0.0000      0.0000
 69      0.0000      0.0414      0.0000      0.0000      0.2222      0.0889      0.0000      0.0000      0.0000
 70      0.0000      0.0276      0.0000      0.0000      0.0000      0.0000      0.0000      0.0000      0.0000
 71      0.0000      0.0240      0.0000      0.0000      0.0000      0.0000      0.0000      0.0000      0.0000
 72      0.0000      0.0216      0.0000      0.0000      0.3083      0.0698      0.0000      0.0000      0.0000
 73      0.0000      0.0136      0.0612      0.0000      0.0000      0.0000      0.0000      0.0000      0.0000
 74      0.0000      0.0125      0.0000      0.0000      0.0000      0.0000      0.0000      0.0404      0.0000
 75      0.0000      0.0161      0.0000      0.0000      0.0000      0.0000      0.0000      0.0000      0.0000
 76      0.0000      0.0241      0.1134      0.0000      0.0000      0.0000      0.0000      0.0000      0.0000
 77      0.0000      0.0362      0.0000      0.0000      0.0207      0.0000      0.0000      0.0000      0.0000
 78      0.0000      0.0516      0.0000      0.0000      0.0000      0.0365      0.0000      0.0000      0.2351
 79      0.0000      0.0501      0.0093      0.0000      0.0000      0.0000      0.0000      0.0000      0.0000
 80      0.0000      0.0586      0.0000      0.0000      0.0000      0.1070      0.0000      0.1288      0.0000
 81      0.0000      0.0840      0.1645      0.0000      0.0000      0.0000      0.0000      0.1720      0.0000
 82      0.0000      0.0834      0.0457      0.0000      0.1602      0.0000      0.0000      0.0213      0.0000
 83      0.0000      0.0434      0.0000      0.0000      0.0000      0.0000      0.0061      0.0539      0.0000
 84      0.0000      0.0460      0.2225      0.0000      0.1466      0.0373      0.0000      0.0000      0.0000
 85      0.0000      0.0359      0.0874      0.0000      0.0000      0.0000      0.0000      0.0000      0.0000
 86      0.0000      0.0174      0.0000      0.0000      0.1194      0.0000      0.0000      0.0000      0.0000
 87      0.0000      0.0215      0.0000      0.0000      0.0000      0.0000      0.1130      0.0000      0.0000
 88      0.0000      0.0102      0.0000      0.0000      0.0000      0.0000      0.0000      0.0000      0.0000
 89      0.0000      0.0086      0.0000      0.0346      0.0000      0.0000      0.0000      0.0000      0.0000
 90      0.0000      0.0090      0.0000      0.0000      0.0000      0.0000      0.0000      0.0000      0.0000
 91      0.0000      0.0150      0.0061      0.0000      0.0000      0.0000      0.0000      0.0000      0.0000
 92      0.0000      0.0225      0.0000      0.0000      0.0000      0.0000      0.0000      0.0000      0.0000
 93      0.0000      0.0356      0.0000      0.0498      0.0000      0.0000      0.0000      0.0000      0.0000
 94      0.0000      0.0522      0.0000      0.0393      0.0000      0.1054      0.0000      0.0000      0.0000
 95      0.0000      0.0487      0.0757      0.0000      0.0000      0.2035      0.2145      0.2288      0.0000
 96      0.0000      0.0278      0.0000      0.0150      0.0000      0.0000      0.0000      0.0000      0.0000
 97      0.0000      0.0277      0.0000      0.0000      0.0000      0.0000      0.0000      0.0000      0.0000
 98      0.0000      0.0299      0.0000      0.0000      0.0000      0.0568      0.1246      0.0000      0.0000
 99      0.0000      0.0213      0.0000      0.0000      0.2285      0.0000      0.0000      0.1052      0.0919
100      1.2357      0.0151      0.0000      0.2371      0.0000      0.0000      0.0000      0.0000      0.0000
101      0.0000      0.0178      0.0362      0.0000      0.0000      0.0000      0.0486      0.0000      0.0930
102      0.0000      0.0332      0.0000      0.0000      0.0000      0.0000      0.0000      0.0000      0.0000
103      0.6179      0.0496      0.2060      0.2269      0.0819      0.1526      0.0000      0.0000      0.0000
104      0.0000      0.0520      0.2129      0.0000      0.0583      0.0000      0.0000      0.2859      0.0000
105      0.0000      0.0278      0.0000      0.0000      0.0000      0.0000      0.0000      0.0000      0.0000
106      0.0000      0.0433      0.0000      0.1237      0.0000      0.0000      0.0283      0.0000      0.0000
107      0.0000      0.0293      0.0000      0.0000      0.0000      0.0809      0.0000      0.0000      0.0000
108      0.0000      0.0240      0.0299      0.0000      0.0000      0.0000      0.0000      0.0000      0.0487
109      0.0000      0.0224      0.0000      0.0000      0.0000      0.1895      0.0151      0.0000      0.0689
110      0.0000      0.0199      0.1144      0.0000      0.0000      0.0000      0.0000      0.0000      0.0000
111      0.0000      0.0184      0.0000      0.0000      0.0000      0.0000      0.0000      0.0000      0.0000
112      0.0000      0.0151      0.0000      0.0000      0.0000      0.0071      0.0000      0.0000      0.0000
113      0.0000      0.0085      0.0000      0.0000      0.0000      0.0000      0.0000      0.0000      0.0000
114      0.0000      0.0077      0.0000      0.0000      0.0000      0.0000      0.0000      0.1157      0.0000
115      0.0000      0.0143      0.0000      0.0000      0.0000      0.0000      0.0000      0.0000      0.0000
116      0.0000      0.0181      0.0000      0.0000      0.0000      0.0000      0.0000      0.0000      0.0000
117      0.0000      0.0207      0.0000      0.0000      0.0000      0.1220      0.0000      0.0000      0.0000
118      0.0000      0.0356      0.0000      0.0000      0.0000      0.0000      0.2237      0.0000      0.0000
119      0.0000      0.0252      0.0000      0.0312      0.0000      0.0129      0.0000      0.0000      0.0000
120      0.0000      0.0233      0.0000      0.2049      0.0000      0.0050      0.0000      0.0086      0.0000
121      0.0000      0.0223      0.2051      0.0000      0.0000      0.0000      0.0000      0.0000      0.0000
122      0.0000      0.0239      0.0275      0.0000      0.0000      0.0000      0.0500      0.0000      0.0000
123      0.0000      0.0154      0.0000      0.0000      0.0000      0.0000      0.0880      0.0000      0.0000
124      0.0000      0.0112      0.0000      0.1132      0.0000      0.0000      0.0000      0.0000      0.0000
125      0.0000      0.0115      0.0000      0.0000      0.0000      0.0000      0.0000      0.0000      0.0000
126      0.0000      0.0168      0.0089      0.0000      0.0000      0.0445      0.0882      0.0000      0.0000
127      0.0000      0.0552      0.0117      0.0000      0.1972      0.0000      0.4632      0.0385      0.1003
128      0.0316      0.0485      0.0000      0.4499      0.0000      0.0000      0.0000      0.0002      0.0000
129      0.0000      0.0352      0.0000      0.0110      0.0000      0.0000      0.0000      0.0000      0.0000
130      0.0000      0.0251      0.0000      0.0000      0.0000      0.0000      0.0000      0.0000      0.0000
131      0.0000      0.0197      0.0000      0.1656      0.0678      0.0000      0.0000      0.0000      0.0000
132      0.0000      0.0185      0.0000      0.0000      0.0000      0.0000      0.0000      0.0000      0.0000
133      0.0000      0.0139      0.0000      0.0000      0.0000      0.0000      0.0000      0.0000      0.0000
134      0.0000      0.0131      0.0000      0.0149      0.0000      0.0000      0.0000      0.0000      0.3044
135      0.0000      0.0147      0.0000      0.0000      0.0000      0.0000      0.0000      0.0000      0.1299
136      0.0000      0.0141      0.0000      0.0000      0.0000      0.0000      0.0000      0.0000      0.0000
137      0.0000      0.0115      0.0000      0.0000      0.0000      0.0000      0.0000      0.0462      0.0000
138      0.0000      0.0094      0.0000      0.0000      0.0000      0.0000      0.0000      0.0000      0.0000
139      0.0000      0.0077      0.0000      0.0000      0.0000      0.0000      0.0000      0.0000      0.0000
140      0.0000      0.0174      0.0000      0.0000      0.0000      0.0000      0.0000      0.0000      0.0000
141      0.0000      0.0235      0.0000      0.0000      0.0000      0.0000      0.0000      0.0000      0.0914
142      0.0000      0.0230      0.0000      0.0000      0.0339      0.0000      0.0000      0.0000      0.0385
143      0.0000      0.0386      0.0000      0.0000      0.0000      0.0363      0.0000      0.0000      0.3348
144      0.0000      0.0108      0.0834      0.0000      0.0000      0.0000      0.0000      0.0000      0.0000
145      0.0000      0.0067      0.0000      0.0000      0.0000      0.0000      0.0000      0.0000      0.0000
146      0.0000      0.0064      0.0068      0.0000      0.0000      0.0000      0.0000      0.0000      0.1630
147      0.0000      0.0036      0.0000      0.0181      0.0000      0.0000      0.0000      0.0000      0.0000
148      0.0000      0.0066      0.0000      0.0000      0.0000      0.0000      0.0000      0.0000      0.0000
149      0.0000      0.0031      0.0000      0.0000      0.0000      0.0000      0.0000      0.0000      0.0000
150      0.7368      0.9543      0.8413      0.8565      0.8732      0.9625      0.9175      0.9253      0.9082

# j      m_j: min, <> & last-chain-values for 1 ...  7 chains
  1  0.0000E+00  4.9223E-04  0.0000E+00  0.0000E+00  2.9939E-03  1.0690E-03  0.0000E+00  0.0000E+00  0.0000E+00
  2  1.2281E-02  7.6604E-03  8.5334E-03  9.2516E-03  8.5128E-03  8.8030E-03  8.0376E-03  9.0122E-03  8.2026E-03
  3  4.9374E-02  4.0434E-02  4.2626E-02  4.1749E-02  4.1475E-02  4.1647E-02  4.1181E-02  4.4710E-02  4.3365E-02
  4  0.0000E+00  2.6780E-04  1.1320E-03  0.0000E+00  0.0000E+00  1.5799E-04  0.0000E+00  0.0000E+00  0.0000E+00
  5  0.0000E+00  2.6178E-04  0.0000E+00  0.0000E+00  0.0000E+00  0.0000E+00  1.7303E-05  0.0000E+00  0.0000E+00
  6  0.0000E+00  2.5636E-04  0.0000E+00  0.0000E+00  0.0000E+00  0.0000E+00  0.0000E+00  0.0000E+00  0.0000E+00
  7  0.0000E+00  3.9667E-04  0.0000E+00  0.0000E+00  0.0000E+00  0.0000E+00  0.0000E+00  0.0000E+00  0.0000E+00
  8  0.0000E+00  1.5461E-03  0.0000E+00  0.0000E+00  7.5035E-04  0.0000E+00  0.0000E+00  0.0000E+00  5.6690E-03
  9  3.3514E-02  4.0831E-03  6.5790E-03  1.0882E-02  7.2430E-03  0.0000E+00  1.3217E-02  0.0000E+00  0.0000E+00
 10  0.0000E+00  1.7213E-03  0.0000E+00  1.2906E-03  8.3065E-03  1.5812E-03  5.1149E-05  3.8603E-04  8.7081E-03
 11  0.0000E+00  2.3440E-03  0.0000E+00  4.4799E-03  0.0000E+00  1.9402E-04  6.3684E-03  1.0629E-03  1.6511E-02
 12  0.0000E+00  1.8450E-03  0.0000E+00  1.4015E-03  4.5479E-03  0.0000E+00  0.0000E+00  0.0000E+00  0.0000E+00
 13  0.0000E+00  9.3717E-04  0.0000E+00  0.0000E+00  0.0000E+00  0.0000E+00  0.0000E+00  0.0000E+00  0.0000E+00
 14  0.0000E+00  8.3718E-04  0.0000E+00  0.0000E+00  0.0000E+00  0.0000E+00  0.0000E+00  0.0000E+00  0.0000E+00
 15  0.0000E+00  1.6113E-03  0.0000E+00  3.1811E-03  0.0000E+00  0.0000E+00  0.0000E+00  0.0000E+00  1.0514E-03
 16  0.0000E+00  3.5423E-03  0.0000E+00  0.0000E+00  0.0000E+00  0.0000E+00  0.0000E+00  0.0000E+00  4.9477E-03
 17  0.0000E+00  5.5759E-03  0.0000E+00  0.0000E+00  0.0000E+00  0.0000E+00  0.0000E+00  0.0000E+00  0.0000E+00
 18  0.0000E+00  1.5328E-02  0.0000E+00  0.0000E+00  0.0000E+00  2.6449E-02  0.0000E+00  0.0000E+00  0.0000E+00
 19  0.0000E+00  6.4648E-02  0.0000E+00  0.0000E+00  2.0949E-01  0.0000E+00  0.0000E+00  5.8810E-02  5.5779E-02
 20  2.1148E-03  2.1085E-01  0.0000E+00  3.7276E-01  1.2050E-01  0.0000E+00  7.1211E-02  0.0000E+00  0.0000E+00
 21  0.0000E+00  4.4524E-01  2.1885E-01  0.0000E+00  3.2459E-01  1.0317E+00  1.6923E+00  2.4437E-01  3.1151E-01
 22  4.8846E-02  5.9572E-01  0.0000E+00  9.4936E-01  4.0455E-01  8.4365E-01  3.8161E-01  2.0096E-01  5.6521E-01
 23  0.0000E+00  8.7003E-01  2.2335E+00  9.0117E-03  6.9204E-01  1.6444E+00  1.4643E+00  0.0000E+00  1.4712E-01
 24  7.3766E-02  2.0617E+00  0.0000E+00  1.0133E+00  8.2603E-01  2.6757E+00  3.3129E+00  2.4252E+00  1.5742E+00
 25  1.7292E+00  2.6250E+00  2.7155E+00  2.0471E+00  3.8530E+00  2.2915E+00  5.0955E+00  4.6455E+00  1.5912E+00
 26  0.0000E+00  3.7460E-04  0.0000E+00  0.0000E+00  0.0000E+00  0.0000E+00  0.0000E+00  0.0000E+00  1.6052E-03
 27  5.3945E-04  2.4646E-04  3.2159E-04  5.2254E-04  8.7445E-04  1.6457E-04  6.0699E-04  0.0000E+00  0.0000E+00
 28  0.0000E+00  2.3720E-04  0.0000E+00  0.0000E+00  0.0000E+00  0.0000E+00  0.0000E+00  0.0000E+00  0.0000E+00
 29  0.0000E+00  1.5174E-04  0.0000E+00  0.0000E+00  0.0000E+00  3.7940E-04  7.1264E-04  0.0000E+00  0.0000E+00
 30  0.0000E+00  2.7894E-04  1.1212E-03  0.0000E+00  0.0000E+00  0.0000E+00  0.0000E+00  0.0000E+00  5.3260E-04
 31  0.0000E+00  3.2522E-04  0.0000E+00  2.0348E-04  0.0000E+00  1.2306E-03  0.0000E+00  1.3581E-03  0.0000E+00
 32  0.0000E+00  6.9672E-04  0.0000E+00  0.0000E+00  1.2007E-03  3.3987E-03  1.3693E-03  0.0000E+00  0.0000E+00
 33  0.0000E+00  1.2309E-03  0.0000E+00  2.9063E-03  3.9864E-03  5.7095E-03  0.0000E+00  2.0106E-03  2.8330E-04
 34  0.0000E+00  3.2366E-03  3.7306E-03  1.1587E-03  0.0000E+00  0.0000E+00  4.8022E-03  5.8563E-03  4.3876E-03
 35  0.0000E+00  1.4783E-03  4.4459E-03  0.0000E+00  0.0000E+00  0.0000E+00  0.0000E+00  2.1990E-03  0.0000E+00
 36  0.0000E+00  1.2803E-03  6.4449E-03  0.0000E+00  0.0000E+00  2.3484E-03  0.0000E+00  0.0000E+00  0.0000E+00
 37  0.0000E+00  9.8350E-04  0.0000E+00  0.0000E+00  1.0060E-02  7.2792E-05  0.0000E+00  0.0000E+00  2.6955E-03
 38  0.0000E+00  9.6184E-04  0.0000E+00  0.0000E+00  0.0000E+00  0.0000E+00  7.8970E-04  0.0000E+00  0.0000E+00
 39  0.0000E+00  1.0869E-03  0.0000E+00  0.0000E+00  0.0000E+00  0.0000E+00  0.0000E+00  0.0000E+00  0.0000E+00
 40  0.0000E+00  2.3806E-03  7.2357E-03  0.0000E+00  1.1601E-03  0.0000E+00  9.1449E-03  0.0000E+00  0.0000E+00
 41  0.0000E+00  9.7922E-03  1.7569E-02  3.2169E-03  3.5635E-02  0.0000E+00  0.0000E+00  0.0000E+00  2.9362E-02
 42  0.0000E+00  1.4049E-02  2.5607E-02  0.0000E+00  0.0000E+00  1.6433E-02  0.0000E+00  9.4340E-02  0.0000E+00
 43  1.6460E+00  1.2741E-01  3.4667E-01  2.9356E-01  1.7547E-01  1.2737E-01  8.3041E-02  1.2262E-01  4.2719E-01
 44  4.1496E+00  2.6582E+00  3.0107E+00  3.3883E+00  3.0420E+00  2.9233E+00  2.6608E+00  2.9140E+00  3.3743E+00
 45  2.6016E+01  2.0925E+01  2.1668E+01  2.1608E+01  2.1436E+01  2.1138E+01  2.1075E+01  2.0781E+01  2.2632E+01
 46  2.3447E+01  2.0076E+01  2.1006E+01  2.0287E+01  2.0688E+01  2.1316E+01  1.9992E+01  2.0719E+01  2.1321E+01
 47  3.8693E-02  4.5732E-01  3.2265E-01  7.0925E-01  2.5661E-01  3.9473E-01  2.5885E-01  0.0000E+00  1.8739E+00
 48  1.9272E-02  2.7110E+00  3.1029E+00  2.7422E+00  2.0238E+00  0.0000E+00  1.8644E+00  2.5002E+00  0.0000E+00
 49  8.7022E-02  2.1875E+00  2.0012E+00  1.6894E+00  2.0338E+00  2.3341E+00  1.2246E+00  2.1573E+00  2.0953E+00
 50  2.6227E+01  3.0089E+01  3.1124E+01  3.1142E+01  3.0860E+01  2.9682E+01  2.7381E+01  3.0458E+01  3.0105E+01
 51  0.0000E+00  3.0694E-04  0.0000E+00  1.5199E-03  0.0000E+00  1.1070E-04  0.0000E+00  0.0000E+00  0.0000E+00
 52  6.7225E-07  1.1993E-04  4.6278E-04  9.6878E-04  0.0000E+00  0.0000E+00  3.0341E-04  0.0000E+00  0.0000E+00
 53  0.0000E+00  1.4224E-04  0.0000E+00  0.0000E+00  1.1050E-04  0.0000E+00  0.0000E+00  0.0000E+00  0.0000E+00
 54  1.3395E-03  3.5796E-04  9.5697E-04  9.0928E-04  2.3098E-04  1.0179E-03  8.0595E-04  2.7729E-04  8.3307E-04
 55  0.0000E+00  9.5716E-04  0.0000E+00  1.4089E-05  0.0000E+00  5.2574E-04  2.0119E-04  1.2488E-03  1.2366E-03
 56  0.0000E+00  1.0191E-03  0.0000E+00  5.9910E-05  1.6030E-03  4.1830E-03  1.0679E-03  9.5110E-04  1.5886E-03
 57  0.0000E+00  2.7813E-04  1.1170E-04  0.0000E+00  4.0117E-04  1.2182E-03  7.1728E-04  0.0000E+00  2.0646E-03
 58  0.0000E+00  5.3388E-04  0.0000E+00  0.0000E+00  0.0000E+00  0.0000E+00  0.0000E+00  0.0000E+00  1.2423E-03
 59  0.0000E+00  4.6781E-04  0.0000E+00  0.0000E+00  0.0000E+00  6.5412E-04  1.4174E-04  0.0000E+00  0.0000E+00
 60  0.0000E+00  5.0422E-04  6.5490E-04  0.0000E+00  0.0000E+00  3.6995E-04  0.0000E+00  0.0000E+00  0.0000E+00
 61  0.0000E+00  5.3715E-04  1.9659E-04  0.0000E+00  0.0000E+00  6.7113E-03  0.0000E+00  0.0000E+00  0.0000E+00
 62  2.9653E-05  8.6482E-04  0.0000E+00  1.1405E-02  0.0000E+00  0.0000E+00  2.0143E-03  1.3397E-03  0.0000E+00
 63  0.0000E+00  8.7476E-04  1.4934E-03  6.8179E-03  0.0000E+00  0.0000E+00  0.0000E+00  0.0000E+00  0.0000E+00
 64  0.0000E+00  2.9428E-03  0.0000E+00  0.0000E+00  0.0000E+00  0.0000E+00  9.1251E-03  0.0000E+00  0.0000E+00
 65  0.0000E+00  1.0136E-02  0.0000E+00  0.0000E+00  0.0000E+00  0.0000E+00  2.7488E-02  0.0000E+00  0.0000E+00
 66  0.0000E+00  9.3770E-03  1.3041E-03  0.0000E+00  0.0000E+00  2.0233E-02  4.1249E-02  0.0000E+00  5.2608E-02
 67  0.0000E+00  1.6506E-02  0.0000E+00  5.7069E-02  0.0000E+00  4.2227E-02  0.0000E+00  0.0000E+00  0.0000E+00
 68  0.0000E+00  3.1293E-02  0.0000E+00  0.0000E+00  0.0000E+00  0.0000E+00  0.0000E+00  0.0000E+00  0.0000E+00
 69  0.0000E+00  3.7989E-02  0.0000E+00  0.0000E+00  2.0734E-01  8.3201E-02  0.0000E+00  0.0000E+00  0.0000E+00
 70  0.0000E+00  3.5237E-02  0.0000E+00  0.0000E+00  0.0000E+00  0.0000E+00  0.0000E+00  0.0000E+00  0.0000E+00
 71  0.0000E+00  3.6211E-02  0.0000E+00  0.0000E+00  0.0000E+00  0.0000E+00  0.0000E+00  0.0000E+00  0.0000E+00
 72  0.0000E+00  4.2903E-02  0.0000E+00  0.0000E+00  6.2173E-01  1.4129E-01  0.0000E+00  0.0000E+00  0.0000E+00
 73  0.0000E+00  3.3952E-02  1.5668E-01  0.0000E+00  0.0000E+00  0.0000E+00  0.0000E+00  0.0000E+00  0.0000E+00
 74  0.0000E+00  3.5001E-02  0.0000E+00  0.0000E+00  0.0000E+00  0.0000E+00  0.0000E+00  1.1296E-01  0.0000E+00
 75  0.0000E+00  5.1770E-02  0.0000E+00  0.0000E+00  0.0000E+00  0.0000E+00  0.0000E+00  0.0000E+00  0.0000E+00
 76  0.0000E+00  1.7950E-04  8.6330E-04  0.0000E+00  0.0000E+00  0.0000E+00  0.0000E+00  0.0000E+00  0.0000E+00
 77  0.0000E+00  1.0951E-04  0.0000E+00  0.0000E+00  6.3664E-05  0.0000E+00  0.0000E+00  0.0000E+00  0.0000E+00
 78  0.0000E+00  1.7501E-04  0.0000E+00  0.0000E+00  0.0000E+00  1.2637E-04  0.0000E+00  0.0000E+00  8.3158E-04
 79  0.0000E+00  2.0451E-04  3.8747E-05  0.0000E+00  0.0000E+00  0.0000E+00  0.0000E+00  0.0000E+00  0.0000E+00
 80  0.0000E+00  3.0787E-04  0.0000E+00  0.0000E+00  0.0000E+00  5.7373E-04  0.0000E+00  6.7830E-04  0.0000E+00
 81  0.0000E+00  5.8365E-04  1.1704E-03  0.0000E+00  0.0000E+00  0.0000E+00  0.0000E+00  1.1973E-03  0.0000E+00
 82  0.0000E+00  7.8046E-04  4.3793E-04  0.0000E+00  1.5241E-03  0.0000E+00  0.0000E+00  1.9973E-04  0.0000E+00
 83  0.0000E+00  5.9718E-04  0.0000E+00  0.0000E+00  0.0000E+00  0.0000E+00  8.4822E-05  7.4212E-04  0.0000E+00
 84  0.0000E+00  8.7487E-04  4.3368E-03  0.0000E+00  2.8363E-03  7.2397E-04  0.0000E+00  0.0000E+00  0.0000E+00
 85  0.0000E+00  8.3062E-04  2.0679E-03  0.0000E+00  0.0000E+00  0.0000E+00  0.0000E+00  0.0000E+00  0.0000E+00
 86  0.0000E+00  5.4642E-04  0.0000E+00  0.0000E+00  3.8015E-03  0.0000E+00  0.0000E+00  0.0000E+00  0.0000E+00
 87  0.0000E+00  8.9612E-04  0.0000E+00  0.0000E+00  0.0000E+00  0.0000E+00  4.7503E-03  0.0000E+00  0.0000E+00
 88  0.0000E+00  6.5187E-04  0.0000E+00  0.0000E+00  0.0000E+00  0.0000E+00  0.0000E+00  0.0000E+00  0.0000E+00
 89  0.0000E+00  9.1501E-04  0.0000E+00  3.7513E-03  0.0000E+00  0.0000E+00  0.0000E+00  0.0000E+00  0.0000E+00
 90  0.0000E+00  1.7643E-03  0.0000E+00  0.0000E+00  0.0000E+00  0.0000E+00  0.0000E+00  0.0000E+00  0.0000E+00
 91  0.0000E+00  3.7782E-03  1.5662E-03  0.0000E+00  0.0000E+00  0.0000E+00  0.0000E+00  0.0000E+00  0.0000E+00
 92  0.0000E+00  7.5703E-03  0.0000E+00  0.0000E+00  0.0000E+00  0.0000E+00  0.0000E+00  0.0000E+00  0.0000E+00
 93  0.0000E+00  2.4358E-02  0.0000E+00  3.4885E-02  0.0000E+00  0.0000E+00  0.0000E+00  0.0000E+00  0.0000E+00
 94  0.0000E+00  6.3913E-02  0.0000E+00  4.9420E-02  0.0000E+00  1.3181E-01  0.0000E+00  0.0000E+00  0.0000E+00
 95  0.0000E+00  8.0477E-02  1.2801E-01  0.0000E+00  0.0000E+00  3.4280E-01  3.5676E-01  3.7847E-01  0.0000E+00
 96  0.0000E+00  5.5302E-02  0.0000E+00  3.0709E-02  0.0000E+00  0.0000E+00  0.0000E+00  0.0000E+00  0.0000E+00
 97  0.0000E+00  7.1837E-02  0.0000E+00  0.0000E+00  0.0000E+00  0.0000E+00  0.0000E+00  0.0000E+00  0.0000E+00
 98  0.0000E+00  9.9664E-02  0.0000E+00  0.0000E+00  0.0000E+00  1.9286E-01  4.1797E-01  0.0000E+00  0.0000E+00
 99  0.0000E+00  8.0867E-02  0.0000E+00  0.0000E+00  8.8163E-01  0.0000E+00  0.0000E+00  4.0004E-01  3.6368E-01
100  6.0385E+00  6.5948E-02  0.0000E+00  1.0618E+00  0.0000E+00  0.0000E+00  0.0000E+00  0.0000E+00  0.0000E+00
101  0.0000E+00  8.5612E-05  1.7802E-04  0.0000E+00  0.0000E+00  0.0000E+00  2.3532E-04  0.0000E+00  4.6630E-04
102  0.0000E+00  8.2881E-05  0.0000E+00  0.0000E+00  0.0000E+00  0.0000E+00  0.0000E+00  0.0000E+00  0.0000E+00
103  1.9134E-03  1.3740E-04  5.8397E-04  6.4401E-04  2.3058E-04  4.3101E-04  0.0000E+00  0.0000E+00  0.0000E+00
104  0.0000E+00  1.8949E-04  7.9362E-04  0.0000E+00  2.1597E-04  0.0000E+00  0.0000E+00  1.0432E-03  0.0000E+00
105  0.0000E+00  2.1354E-04  0.0000E+00  0.0000E+00  0.0000E+00  0.0000E+00  0.0000E+00  0.0000E+00  0.0000E+00
106  0.0000E+00  3.5855E-04  0.0000E+00  1.0497E-03  0.0000E+00  0.0000E+00  2.3597E-04  0.0000E+00  0.0000E+00
107  0.0000E+00  3.2430E-04  0.0000E+00  0.0000E+00  0.0000E+00  9.1226E-04  0.0000E+00  0.0000E+00  0.0000E+00
108  0.0000E+00  4.4169E-04  5.6412E-04  0.0000E+00  0.0000E+00  0.0000E+00  0.0000E+00  0.0000E+00  9.3640E-04
109  0.0000E+00  4.9453E-04  0.0000E+00  0.0000E+00  0.0000E+00  4.2734E-03  3.3580E-04  0.0000E+00  1.5905E-03
110  0.0000E+00  5.2635E-04  3.0976E-03  0.0000E+00  0.0000E+00  0.0000E+00  0.0000E+00  0.0000E+00  0.0000E+00
111  0.0000E+00  6.7763E-04  0.0000E+00  0.0000E+00  0.0000E+00  0.0000E+00  0.0000E+00  0.0000E+00  0.0000E+00
112  0.0000E+00  7.2892E-04  0.0000E+00  0.0000E+00  0.0000E+00  3.5266E-04  0.0000E+00  0.0000E+00  0.0000E+00
113  0.0000E+00  6.1324E-04  0.0000E+00  0.0000E+00  0.0000E+00  0.0000E+00  0.0000E+00  0.0000E+00  0.0000E+00
114  0.0000E+00  9.7556E-04  0.0000E+00  0.0000E+00  0.0000E+00  0.0000E+00  0.0000E+00  1.4750E-02  0.0000E+00
115  0.0000E+00  3.6427E-03  0.0000E+00  0.0000E+00  0.0000E+00  0.0000E+00  0.0000E+00  0.0000E+00  0.0000E+00
116  0.0000E+00  7.3947E-03  0.0000E+00  0.0000E+00  0.0000E+00  0.0000E+00  0.0000E+00  0.0000E+00  0.0000E+00
117  0.0000E+00  9.9496E-03  0.0000E+00  0.0000E+00  0.0000E+00  5.9779E-02  0.0000E+00  0.0000E+00  0.0000E+00
118  0.0000E+00  3.4674E-02  0.0000E+00  0.0000E+00  0.0000E+00  0.0000E+00  2.1965E-01  0.0000E+00  0.0000E+00
119  0.0000E+00  4.2502E-02  0.0000E+00  5.3900E-02  0.0000E+00  2.2203E-02  0.0000E+00  0.0000E+00  0.0000E+00
120  0.0000E+00  5.5906E-02  0.0000E+00  5.0393E-01  0.0000E+00  1.2331E-02  0.0000E+00  2.0650E-02  0.0000E+00
121  0.0000E+00  6.2943E-02  5.9240E-01  0.0000E+00  0.0000E+00  0.0000E+00  0.0000E+00  0.0000E+00  0.0000E+00
122  0.0000E+00  9.0389E-02  1.0641E-01  0.0000E+00  0.0000E+00  0.0000E+00  1.9030E-01  0.0000E+00  0.0000E+00
123  0.0000E+00  7.6837E-02  0.0000E+00  0.0000E+00  0.0000E+00  0.0000E+00  4.4168E-01  0.0000E+00  0.0000E+00
124  0.0000E+00  6.3854E-02  0.0000E+00  6.6352E-01  0.0000E+00  0.0000E+00  0.0000E+00  0.0000E+00  0.0000E+00
125  0.0000E+00  7.8365E-02  0.0000E+00  0.0000E+00  0.0000E+00  0.0000E+00  0.0000E+00  0.0000E+00  0.0000E+00
126  0.0000E+00  6.0654E-05  3.2931E-05  0.0000E+00  0.0000E+00  1.6382E-04  3.2050E-04  0.0000E+00  0.0000E+00
127  0.0000E+00  1.0493E-04  2.2772E-05  0.0000E+00  3.8110E-04  0.0000E+00  8.8721E-04  7.3384E-05  1.9889E-04
128  9.9597E-05  1.3683E-04  0.0000E+00  1.3012E-03  0.0000E+00  0.0000E+00  0.0000E+00  6.1375E-07  0.0000E+00
129  0.0000E+00  2.0320E-04  0.0000E+00  6.5233E-05  0.0000E+00  0.0000E+00  0.0000E+00  0.0000E+00  0.0000E+00
130  0.0000E+00  1.9763E-04  0.0000E+00  0.0000E+00  0.0000E+00  0.0000E+00  0.0000E+00  0.0000E+00  0.0000E+00
131  0.0000E+00  1.7936E-04  0.0000E+00  1.5460E-03  6.2768E-04  0.0000E+00  0.0000E+00  0.0000E+00  0.0000E+00
132  0.0000E+00  2.2911E-04  0.0000E+00  0.0000E+00  0.0000E+00  0.0000E+00  0.0000E+00  0.0000E+00  0.0000E+00
133  0.0000E+00  2.5043E-04  0.0000E+00  0.0000E+00  0.0000E+00  0.0000E+00  0.0000E+00  0.0000E+00  0.0000E+00
134  0.0000E+00  2.9843E-04  0.0000E+00  3.4877E-04  0.0000E+00  0.0000E+00  0.0000E+00  0.0000E+00  7.2356E-03
135  0.0000E+00  4.0364E-04  0.0000E+00  0.0000E+00  0.0000E+00  0.0000E+00  0.0000E+00  0.0000E+00  3.7151E-03
136  0.0000E+00  5.5553E-04  0.0000E+00  0.0000E+00  0.0000E+00  0.0000E+00  0.0000E+00  0.0000E+00  0.0000E+00
137  0.0000E+00  6.2094E-04  0.0000E+00  0.0000E+00  0.0000E+00  0.0000E+00  0.0000E+00  2.5001E-03  0.0000E+00
138  0.0000E+00  8.4614E-04  0.0000E+00  0.0000E+00  0.0000E+00  0.0000E+00  0.0000E+00  0.0000E+00  0.0000E+00
139  0.0000E+00  1.3023E-03  0.0000E+00  0.0000E+00  0.0000E+00  0.0000E+00  0.0000E+00  0.0000E+00  0.0000E+00
140  0.0000E+00  6.8413E-03  0.0000E+00  0.0000E+00  0.0000E+00  0.0000E+00  0.0000E+00  0.0000E+00  0.0000E+00
141  0.0000E+00  1.4109E-02  0.0000E+00  0.0000E+00  0.0000E+00  0.0000E+00  0.0000E+00  0.0000E+00  5.7236E-02
142  0.0000E+00  1.6397E-02  0.0000E+00  0.0000E+00  2.4593E-02  0.0000E+00  0.0000E+00  0.0000E+00  2.8723E-02
143  0.0000E+00  5.4823E-02  0.0000E+00  0.0000E+00  0.0000E+00  5.2644E-02  0.0000E+00  0.0000E+00  4.9623E-01
144  0.0000E+00  3.0173E-02  2.3828E-01  0.0000E+00  0.0000E+00  0.0000E+00  0.0000E+00  0.0000E+00  0.0000E+00
145  0.0000E+00  2.7779E-02  0.0000E+00  0.0000E+00  0.0000E+00  0.0000E+00  0.0000E+00  0.0000E+00  0.0000E+00
146  0.0000E+00  3.1799E-02  3.4385E-02  0.0000E+00  0.0000E+00  0.0000E+00  0.0000E+00  0.0000E+00  8.4383E-01
147  0.0000E+00  2.4026E-02  0.0000E+00  1.2354E-01  0.0000E+00  0.0000E+00  0.0000E+00  0.0000E+00  0.0000E+00
148  0.0000E+00  5.9192E-02  0.0000E+00  0.0000E+00  0.0000E+00  0.0000E+00  0.0000E+00  0.0000E+00  0.0000E+00
149  0.0000E+00  3.2922E-02  0.0000E+00  0.0000E+00  0.0000E+00  0.0000E+00  0.0000E+00  0.0000E+00  0.0000E+00
150  1.0379E+01  1.2018E+01  1.0847E+01  1.1058E+01  1.1180E+01  1.2364E+01  1.1640E+01  1.1676E+01  1.1934E+01

# AV, chi2 & Mass for <> & i_chain = 1 ...  7 solutions
AV       2.0940      2.0608      2.0684      2.0721      2.0693      2.0714      2.0690      2.0617      2.0707
chi2 2.3946E+00  2.4845E+00  2.4594E+00  2.4552E+00  2.4585E+00  2.4585E+00  2.4576E+00  2.4665E+00  2.4624E+00
Mass 4.1701E-10  4.4620E-10  4.4025E-10  4.4180E-10  4.4388E-10  4.4365E-10  4.4779E-10  4.4583E-10  4.3332E-10
 -37.36                                  [v0_min (km/s) before EX0s...]
  80.09                                  [vd_min (km/s) before EX0s...]


## Synthetic spectrum (Best Model) ##l_obs f_obs f_syn wei
 3070    [Nl_obs]
 3359.00    0.28728   0.37567   -1.000
 3360.00    0.26005   0.37150   -1.000
 3361.00    0.24948   0.38298   -1.000
 3362.00    0.24920   0.40304   -1.000
 3363.00    0.24001   0.42174   -1.000
 3364.00    0.26099   0.43029   -1.000
 3365.00    0.28604   0.42902   -1.000
 3366.00    0.28813   0.42467   -1.000
 3367.00    0.26113   0.41979   -1.000
 3368.00    0.28413   0.41272   -1.000
 3369.00    0.31262   0.40127   -1.000
 3370.00    0.29003   0.38806   -1.000
 3371.00    0.27319   0.38178   -1.000
 3372.00    0.30322   0.38774   -1.000
 3373.00    0.33068   0.40346   -1.000
 3374.00    0.34053   0.42207   -1.000
 3375.00    0.36256   0.43586   -1.000
 3376.00    0.36307   0.43978   -1.000
 3377.00    0.34369   0.43531   -1.000
 3378.00    0.33646   0.42886   -1.000
 3379.00    0.35705   0.42694   -1.000
 3380.00    0.34236   0.43044   -1.000
 3381.00    0.33602   0.43550   -1.000
 3382.00    0.34441   0.43927   -1.000
 3383.00    0.32921   0.44199   -1.000
 3384.00    0.31895   0.44463   -1.000
 3385.00    0.32922   0.44445   -1.000
 3386.00    0.34216   0.43854   -1.000
 3387.00    0.35088   0.43105   -1.000
 3388.00    0.37710   0.42955   -1.000
 3389.00    0.38801   0.43624   35.088
 3390.00    0.39373   0.44541   35.486
 3391.00    0.38609   0.44946   35.762
 3392.00    0.35882   0.44726   -1.000
 3393.00    0.34472   0.44568   -1.000
 3394.00    0.36593   0.44961   32.357
 3395.00    0.40244   0.45789   30.924
 3396.00    0.39518   0.46711   30.007
 3397.00    0.39361   0.47462   28.988
 3398.00    0.42993   0.47901   28.208
 3399.00    0.43477   0.47875   28.117
 3400.00    0.44750   0.47311   28.801
 3401.00    0.46822   0.46244   29.659
 3402.00    0.45537   0.45074   30.048
 3403.00    0.41932   0.44362   30.589
 3404.00    0.43348   0.44284   31.122
 3405.00    0.43526   0.44569   31.467
 3406.00    0.41126   0.44648   31.766
 3407.00    0.43799   0.44381   32.133
 3408.00    0.47858   0.44182   32.137
 3409.00    0.45616   0.44418   31.581
 3410.00    0.41370   0.44716   30.930
 3411.00    0.41471   0.44517   31.387
 3412.00    0.42753   0.43941   32.427
 3413.00    0.41209   0.43578   32.714
 3414.00    0.40834   0.44010   32.297
 3415.00    0.42124   0.45114   31.215
 3416.00    0.44220   0.46240   29.804
 3417.00    0.44505   0.47047   28.346
 3418.00    0.43748   0.47604   27.502
 3419.00    0.44007   0.48008   27.368
 3420.00    0.44546   0.48100   27.337
 3421.00    0.46247   0.47511   27.791
 3422.00    0.47725   0.46329   28.533
 3423.00    0.45320   0.45342   28.509
 3424.00    0.42582   0.45162   27.706
 3425.00    0.43365   0.45690   27.238
 3426.00    0.47416   0.46617   45.023
 3427.00    0.48355   0.47812  237.324
 3428.00    0.47852   0.49028  237.324
 3429.00    0.47885   0.49735   -1.000
 3430.00    0.48941   0.49417  237.324
 3431.00    0.50280   0.48256   54.456
 3432.00    0.48577   0.47280   27.191
 3433.00    0.46085   0.47346   45.090
 3434.00    0.46621   0.48317   -1.000
 3435.00    0.46914   0.49144   53.878
 3436.00    0.46889   0.49010   27.637
 3437.00    0.47881   0.48047   29.105
 3438.00    0.45607   0.46789   31.110
 3439.00    0.43941   0.45509   33.055
 3440.00    0.45926   0.44296   33.800
 3441.00    0.43634   0.43372   33.756
 3442.00    0.43417   0.43038   33.055
 3443.00    0.47858   0.43353   31.499
 3444.00    0.47507   0.44189   29.761
 3445.00    0.44309   0.45497   28.397
 3446.00    0.46556   0.47179   46.619
 3447.00    0.48777   0.48813  237.324
 3448.00    0.46053   0.49819   -1.000
 3449.00    0.46623   0.49705   -1.000
 3450.00    0.51152   0.48527   -1.000
 3451.00    0.50218   0.47120   -1.000
 3452.00    0.47070   0.46347  237.324
 3453.00    0.47355   0.46441  237.324
 3454.00    0.47112   0.47049  237.324
 3455.00    0.47585   0.47611  237.324
 3456.00    0.49267   0.47754   -1.000
 3457.00    0.51225   0.47464   53.075
 3458.00    0.50691   0.46862   27.328
 3459.00    0.50606   0.46106   27.444
 3460.00    0.49797   0.45557   46.247
 3461.00    0.45850   0.45673  237.324
 3462.00    0.46222   0.46364  237.324
 3463.00    0.47451   0.46980  237.324
 3464.00    0.46845   0.47135  237.324
 3465.00    0.48608   0.47150   -1.000
 3466.00    0.49869   0.47611   -1.000
 3467.00    0.50106   0.48575   -1.000
 3468.00    0.51623   0.49636   -1.000
 3469.00    0.53125   0.50328   -1.000
 3470.00    0.52825   0.50373   -1.000
 3471.00    0.53547   0.49776   -1.000
 3472.00    0.53618   0.48634   -1.000
 3473.00    0.51351   0.47198   52.831
 3474.00    0.50143   0.46074   27.857
 3475.00    0.50839   0.45741   28.126
 3476.00    0.49930   0.46298   47.327
 3477.00    0.48018   0.47404  237.324
 3478.00    0.50873   0.48530   -1.000
 3479.00    0.53494   0.49468   -1.000
 3480.00    0.53326   0.50079   -1.000
 3481.00    0.53978   0.50172   -1.000
 3482.00    0.52787   0.49877   -1.000
 3483.00    0.52176   0.49607   -1.000
 3484.00    0.53865   0.49737   -1.000
 3485.00    0.54512   0.50242   -1.000
 3486.00    0.54998   0.50636   -1.000
 3487.00    0.54128   0.50487   -1.000
 3488.00    0.53715   0.49766   -1.000
 3489.00    0.54486   0.48856   -1.000
 3490.00    0.51494   0.48423   -1.000
 3491.00    0.47540   0.48738  237.324
 3492.00    0.48594   0.49276  237.324
 3493.00    0.50921   0.49394   -1.000
 3494.00    0.52891   0.48990   -1.000
 3495.00    0.52657   0.48390   -1.000
 3496.00    0.50631   0.48066   -1.000
 3497.00    0.53197   0.48167   -1.000
 3498.00    0.54198   0.48447   -1.000
 3499.00    0.52821   0.48656   -1.000
 3500.00    0.52112   0.48730   -1.000
 3501.00    0.49856   0.48932  211.150
 3502.00    0.51534   0.49345   -1.000
 3503.00    0.53406   0.49590   -1.000
 3504.00    0.52970   0.49363   -1.000
 3505.00    0.52562   0.48754   -1.000
 3506.00    0.50825   0.48156   -1.000
 3507.00    0.48494   0.47874  219.510
 3508.00    0.50563   0.47970   -1.000
 3509.00    0.54258   0.48243   -1.000
 3510.00    0.54172   0.48328   -1.000
 3511.00    0.51277   0.48041   -1.000
 3512.00    0.48706   0.47526   -1.000
 3513.00    0.48901   0.47262   -1.000
 3514.00    0.50299   0.47721   -1.000
 3515.00    0.50552   0.48985   -1.000
 3516.00    0.49102   0.50539   -1.000
 3517.00    0.52010   0.51450  218.059
 3518.00    0.55905   0.51194   -1.000
 3519.00    0.54435   0.50117   -1.000
 3520.00    0.51640   0.49009   -1.000
 3521.00    0.51306   0.48224   -1.000
 3522.00    0.51149   0.47606   50.675
 3523.00    0.51092   0.46914   27.616
 3524.00    0.50865   0.46256   28.039
 3525.00    0.49288   0.46133   49.167
 3526.00    0.49911   0.46805   -1.000
 3527.00    0.50641   0.48006   -1.000
 3528.00    0.51833   0.49357   -1.000
 3529.00    0.51516   0.50514  227.798
 3530.00    0.51568   0.51222  231.052
 3531.00    0.52967   0.51183   -1.000
 3532.00    0.50304   0.50221  227.271
 3533.00    0.48387   0.48901  222.936
 3534.00    0.51485   0.48281   -1.000
 3535.00    0.52263   0.48939   -1.000
 3536.00    0.48145   0.50532   -1.000
 3537.00    0.47402   0.52087   -1.000
 3538.00    0.51856   0.53003  214.137
 3539.00    0.56328   0.53287   -1.000
 3540.00    0.55914   0.53184   -1.000
 3541.00    0.55625   0.53088   -1.000
 3542.00    0.55935   0.53298   -1.000
 3543.00    0.53072   0.53713  215.989
 3544.00    0.52122   0.53910   -1.000
 3545.00    0.52998   0.53721  222.234
 3546.00    0.51838   0.53350   -1.000
 3547.00    0.50611   0.53072   -1.000
 3548.00    0.50980   0.53086   -1.000
 3549.00    0.53776   0.53412  225.088
 3550.00    0.56452   0.53827   -1.000
 3551.00    0.55416   0.53887   -1.000
 3552.00    0.53552   0.53326  237.324
 3553.00    0.53078   0.52496  237.324
 3554.00    0.52873   0.52061  237.324
 3555.00    0.53875   0.52324   -1.000
 3556.00    0.53525   0.53084  237.324
 3557.00    0.51094   0.53908   -1.000
 3558.00    0.51298   0.54415   -1.000
 3559.00    0.52375   0.54571   -1.000
 3560.00    0.52207   0.54547   -1.000
 3561.00    0.49657   0.54317   -1.000
 3562.00    0.49153   0.53662   -1.000
 3563.00    0.50568   0.52511   49.502
 3564.00    0.50886   0.51136   27.979
 3565.00    0.50275   0.50008   28.381
 3566.00    0.48691   0.49462   28.131
 3567.00    0.48478   0.49383   28.535
 3568.00    0.48586   0.49304   29.293
 3569.00    0.48679   0.48845   29.077
 3570.00    0.49558   0.48124   27.953
 3571.00    0.50453   0.47637   49.751
 3572.00    0.50692   0.47646   -1.000
 3573.00    0.51417   0.48048   -1.000
 3574.00    0.51910   0.48695   -1.000
 3575.00    0.51581   0.49433   -1.000
 3576.00    0.51647   0.50068   -1.000
 3577.00    0.51427   0.50438   50.818
 3578.00    0.50516   0.50365   29.453
 3579.00    0.50332   0.49761   31.444
 3580.00    0.50281   0.48850   32.388
 3581.00    0.48267   0.48030   32.550
 3582.00    0.48471   0.47573   33.034
 3583.00    0.49486   0.47309   34.006
 3584.00    0.48119   0.46723   34.803
 3585.00    0.46716   0.45720   34.101
 3586.00    0.47325   0.44899   32.313
 3587.00    0.47664   0.45011   30.674
 3588.00    0.45452   0.46261   28.508
 3589.00    0.45965   0.48109   49.998
 3590.00    0.49125   0.49705  237.324
 3591.00    0.52721   0.50567   -1.000
 3592.00    0.53997   0.50862   -1.000
 3593.00    0.50980   0.51129  233.818
 3594.00    0.51252   0.51726  224.230
 3595.00    0.52268   0.52556  215.582
 3596.00    0.52392   0.53281  209.648
 3597.00    0.52671   0.53712  205.234
 3598.00    0.51098   0.53867   -1.000
 3599.00    0.51980   0.53718   -1.000
 3600.00    0.53645   0.53139  222.393
 3601.00    0.53107   0.52254  233.726
 3602.00    0.52096   0.51564  237.324
 3603.00    0.51335   0.51422  237.324
 3604.00    0.51340   0.51687  237.324
 3605.00    0.51893   0.51832  237.324
 3606.00    0.52026   0.51568  237.324
 3607.00    0.50994   0.51082  237.324
 3608.00    0.50082   0.50678  237.324
 3609.00    0.50583   0.50522  237.324
 3610.00    0.50943   0.50638  237.324
 3611.00    0.50934   0.51044  236.507
 3612.00    0.51584   0.51694  231.615
 3613.00    0.52464   0.52531  225.124
 3614.00    0.53925   0.53467  221.473
 3615.00    0.53136   0.54064  231.583
 3616.00    0.53635   0.53823  237.324
 3617.00    0.54902   0.52865   47.314
 3618.00    0.52691   0.51837   50.666
 3619.00    0.51382   0.51497  237.324
 3620.00    0.52503   0.52072  224.188
 3621.00    0.53270   0.53088  215.425
 3622.00    0.52603   0.54042   -1.000
 3623.00    0.53816   0.54874  206.211
 3624.00    0.56274   0.55881  197.956
 3625.00    0.57401   0.57244  192.529
 3626.00    0.58418   0.58557  193.117
 3627.00    0.58172   0.58951  201.082
 3628.00    0.58883   0.57841  219.529
 3629.00    0.56957   0.55627   -1.000
 3630.00    0.51754   0.53472   -1.000
 3631.00    0.50946   0.52506   -1.000
 3632.00    0.52418   0.52892  237.324
 3633.00    0.52945   0.53833  234.407
 3634.00    0.52889   0.54457   -1.000
 3635.00    0.53695   0.54698  217.387
 3636.00    0.57133   0.55120   -1.000
 3637.00    0.57136   0.55939  199.320
 3638.00    0.54696   0.56790   -1.000
 3639.00    0.56065   0.57276  198.727
 3640.00    0.57540   0.57233  204.705
 3641.00    0.55815   0.56674  213.898
 3642.00    0.53264   0.55805   -1.000
 3643.00    0.53254   0.54942   -1.000
 3644.00    0.53990   0.54287  231.387
 3645.00    0.52837   0.53870  235.315
 3646.00    0.52363   0.53639   -1.000
 3647.00    0.52985   0.53545  233.894
 3648.00    0.52638   0.53547  225.745
 3649.00    0.52857   0.53670  215.561
 3650.00    0.55019   0.54054  205.860
 3651.00    0.57165   0.54813   -1.000
 3652.00    0.57668   0.55865   -1.000
 3653.00    0.56476   0.57004  193.925
 3654.00    0.55181   0.58111   -1.000
 3655.00    0.55265   0.59051   -1.000
 3656.00    0.55774   0.59633   -1.000
 3657.00    0.57597   0.59802   -1.000
 3658.00    0.59542   0.59675  186.375
 3659.00    0.58762   0.59378  187.503
 3660.00    0.57229   0.58913   -1.000
 3661.00    0.58367   0.58320  192.278
 3662.00    0.58766   0.57827  194.590
 3663.00    0.56808   0.57700  193.912
 3664.00    0.55945   0.57951   -1.000
 3665.00    0.58298   0.58288  195.215
 3666.00    0.58793   0.58394  198.296
 3667.00    0.57995   0.58126  201.969
 3668.00    0.57430   0.57597  203.506
 3669.00    0.54994   0.57171   -1.000
 3670.00    0.55817   0.57181  192.952
 3671.00    0.56855   0.57644  190.886
 3672.00    0.55983   0.58224   -1.000
 3673.00    0.57952   0.58507  190.822
 3674.00    0.59109   0.58299  194.296
 3675.00    0.57333   0.57623  200.410
 3676.00    0.56740   0.56608  206.566
 3677.00    0.56666   0.55599  212.280
 3678.00    0.55229   0.55046  214.326
 3679.00    0.55543   0.55100  210.828
 3680.00    0.55590   0.55493  204.922
 3681.00    0.53525   0.55896   -1.000
 3682.00    0.53460   0.56131   -1.000
 3683.00    0.55351   0.56142  210.109
 3684.00    0.56625   0.55945  218.809
 3685.00    0.56603   0.55650  224.991
 3686.00    0.55482   0.55599  223.071
 3687.00    0.55010   0.56154  211.750
 3688.00    0.57189   0.57279  197.628
 3689.00    0.59251   0.58445  188.584
 3690.00    0.58796   0.59135  186.955
 3691.00    0.58327   0.59327  190.569
 3692.00    0.58311   0.59293  194.404
 3693.00    0.58187   0.59279  195.043
 3694.00    0.57505   0.59321   -1.000
 3695.00    0.56736   0.59250   -1.000
 3696.00    0.57098   0.59094   -1.000
 3697.00    0.59864   0.59320  181.527
 3698.00    0.63497   0.60279   -1.000
 3699.00    0.64866   0.61556   -1.000
 3700.00    0.63100   0.62072  185.286
 3701.00    0.60107   0.60922  198.905
 3702.00    0.57456   0.58328  218.074
 3703.00    0.58338   0.55471   -1.000
 3704.00    0.56048   0.53594   -1.000
 3705.00    0.54335   0.53202  233.147
 3706.00    0.56206   0.53961   -1.000
 3707.00    0.56990   0.55082   -1.000
 3708.00    0.56613   0.55751  214.880
 3709.00    0.56204   0.55561  205.111
 3710.00    0.55679   0.54913  194.389
 3711.00    0.56344   0.54744  184.316
 3712.00    0.57414   0.55784  177.977
 3713.00    0.59976   0.57997   -1.000
 3714.00    0.63358   0.60562   -1.000
 3715.00    0.62515   0.62494  184.950
 3716.00    0.61612   0.63132  198.535
 3717.00    0.61406   0.62142  223.327
 3718.00    0.59738   0.59383  237.324
 3719.00    0.57090   0.55311   45.190
 3720.00    0.53203   0.51444   55.654
 3721.00    0.50856   0.49695   -1.000
 3722.00    0.50656   0.50844  213.609
 3723.00    0.53340   0.54141  199.350
 3724.00    0.58212   0.57904  196.806
 3725.00    0.60673   0.60640  201.259
 3726.00    0.61794   0.62027  205.082
 3727.00    0.61836   0.62642  203.752
 3728.00    0.62316   0.62955  203.500
 3729.00    0.63424   0.62795  209.792
 3730.00    0.60814   0.61379  226.886
 3731.00    0.57952   0.58068   43.708
 3732.00    0.56942   0.53424   28.842
 3733.00    0.52900   0.49112   30.976
 3734.00    0.48893   0.46735   30.528
 3735.00    0.48671   0.47178   28.176
 3736.00    0.51131   0.50186   54.888
 3737.00    0.54491   0.54571  224.470
 3738.00    0.59729   0.59039  207.598
 3739.00    0.63541   0.62618  201.955
 3740.00    0.64552   0.64547  206.145
 3741.00    0.65673   0.64664   -1.000
 3742.00    0.65210   0.63491   -1.000
 3743.00    0.63903   0.61784   -1.000
 3744.00    0.60259   0.59932  237.324
 3745.00    0.58213   0.57913   44.239
 3746.00    0.58853   0.55466   28.445
 3747.00    0.55248   0.52549   29.404
 3748.00    0.51563   0.49753   60.669
 3749.00    0.48990   0.48201  237.324
 3750.00    0.48487   0.49022  218.744
 3751.00    0.51572   0.52324  199.996
 3752.00    0.56916   0.56952  187.682
 3753.00    0.62359   0.61359  181.512
 3754.00    0.65516   0.64444  186.021
 3755.00    0.68594   0.65747   -1.000
 3756.00    0.67023   0.65355   -1.000
 3757.00    0.63813   0.63954  237.324
 3758.00    0.64691   0.62606   -1.000
 3759.00    0.63828   0.62087   -1.000
 3760.00    0.64193   0.62554   -1.000
 3761.00    0.67208   0.63552   -1.000
 3762.00    0.68348   0.64340   -1.000
 3763.00    0.66813   0.64479   -1.000
 3764.00    0.65709   0.63928   -1.000
 3765.00    0.65621   0.62752   -1.000
 3766.00    0.64078   0.60869   -1.000
 3767.00    0.62118   0.58190   -1.000
 3768.00    0.59020   0.55077   -1.000
 3769.00    0.56741   0.52554   -1.000
 3770.00    0.55915   0.51846   -1.000
 3771.00    0.56836   0.53519   -1.000
 3772.00    0.59706   0.56906   -1.000
 3773.00    0.63258   0.60554   -1.000
 3774.00    0.63740   0.63272  187.124
 3775.00    0.63385   0.64970  186.618
 3776.00    0.66978   0.66351  184.831
 3777.00    0.70852   0.68035   -1.000
 3778.00    0.72386   0.70028   -1.000
 3779.00    0.74148   0.71887   -1.000
 3780.00    0.76709   0.73147   -1.000
 3781.00    0.77479   0.73589   -1.000
 3782.00    0.77895   0.73358   -1.000
 3783.00    0.78300   0.72733   -1.000
 3784.00    0.74597   0.71875   -1.000
 3785.00    0.70833   0.70798  204.751
 3786.00    0.71531   0.69573   -1.000
 3787.00    0.71624   0.68453   -1.000
 3788.00    0.70555   0.67765   -1.000
 3789.00    0.70018   0.67531   -1.000
 3790.00    0.70087   0.67379   -1.000
 3791.00    0.69450   0.66825   -1.000
 3792.00    0.68071   0.65445   -1.000
 3793.00    0.66834   0.63025   -1.000
 3794.00    0.63328   0.59681   -1.000
 3795.00    0.60287   0.55826   -1.000
 3796.00    0.55771   0.52217   -1.000
 3797.00    0.52147   0.49985   -1.000
 3798.00    0.51478   0.50332  230.741
 3799.00    0.52686   0.53638  211.399
 3800.00    0.56210   0.58766   -1.000
 3801.00    0.61334   0.63771   -1.000
 3802.00    0.65452   0.67384   -1.000
 3803.00    0.69094   0.69384  192.347
 3804.00    0.70171   0.70242  198.030
 3805.00    0.70696   0.70553  203.395
 3806.00    0.71081   0.70918  201.541
 3807.00    0.71896   0.71755  194.549
 3808.00    0.72309   0.73042  190.285
 3809.00    0.73378   0.74312  191.809
 3810.00    0.75738   0.74819  199.676
 3811.00    0.76197   0.74032   -1.000
 3812.00    0.76175   0.72234   -1.000
 3813.00    0.74024   0.70375   -1.000
 3814.00    0.71184   0.69358   -1.000
 3815.00    0.70671   0.69524   -1.000
 3816.00    0.70152   0.70402  229.054
 3817.00    0.71297   0.71009  237.324
 3818.00    0.73938   0.70616   -1.000
 3819.00    0.73244   0.69479   -1.000
 3820.00    0.70867   0.68565   -1.000
 3821.00    0.70504   0.68468   -1.000
 3822.00    0.71832   0.68690   -1.000
 3823.00    0.67858   0.68196   43.615
 3824.00    0.64199   0.66810   28.734
 3825.00    0.64607   0.65230   28.807
 3826.00    0.65818   0.63965   28.414
 3827.00    0.64588   0.63014   27.947
 3828.00    0.63994   0.62122   27.991
 3829.00    0.65727   0.60981   28.924
 3830.00    0.64851   0.59244   30.874
 3831.00    0.61759   0.56568   32.419
 3832.00    0.58695   0.52944   32.364
 3833.00    0.53313   0.49131   31.279
 3834.00    0.49969   0.46451   30.373
 3835.00    0.49307   0.45848   30.535
 3836.00    0.49957   0.47328   31.258
 3837.00    0.52551   0.50219   31.183
 3838.00    0.56013   0.53662   29.821
 3839.00    0.58461   0.57113   64.436
 3840.00    0.61730   0.60508   -1.000
 3841.00    0.65908   0.63927   -1.000
 3842.00    0.69461   0.67235   -1.000
 3843.00    0.71023   0.70087  219.941
 3844.00    0.72301   0.72165  219.893
 3845.00    0.73709   0.73564  220.110
 3846.00    0.75500   0.74554  223.656
 3847.00    0.77381   0.75141   -1.000
 3848.00    0.75962   0.75227  236.988
 3849.00    0.75118   0.75080  234.718
 3850.00    0.74877   0.75325  228.647
 3851.00    0.75331   0.76249  227.413
 3852.00    0.76019   0.77384  231.772
 3853.00    0.77842   0.77963  237.324
 3854.00    0.78566   0.77622  237.324
 3855.00    0.75809   0.76617  237.324
 3856.00    0.75777   0.75416   40.536
 3857.00    0.77350   0.74356   27.910
 3858.00    0.74472   0.73725   28.149
 3859.00    0.70950   0.73833   62.586
 3860.00    0.72291   0.74746   -1.000
 3861.00    0.76182   0.76107  217.987
 3862.00    0.78742   0.77297   -1.000
 3863.00    0.78594   0.77902  218.856
 3864.00    0.78817   0.77999  222.575
 3865.00    0.80177   0.77999   -1.000
 3866.00    0.82212   0.78204   -1.000
 3867.00    0.82580   0.78527   -1.000
 3868.00    0.78308   0.78564  237.324
 3869.00    0.76829   0.77936   40.850
 3870.00    0.75262   0.76653   62.381
 3871.00    0.71964   0.75106   -1.000
 3872.00    0.70436   0.73912   -1.000
 3873.00    0.71564   0.73541   -1.000
 3874.00    0.75276   0.73817   -1.000
 3875.00    0.76899   0.73977   -1.000
 3876.00    0.76280   0.73376   -1.000
 3877.00    0.74480   0.72205   -1.000
 3878.00    0.72273   0.71252   -1.000
 3879.00    0.69922   0.71025  237.324
 3880.00    0.69001   0.71149   -1.000
 3881.00    0.68089   0.70833   -1.000
 3882.00    0.66766   0.69777   -1.000
 3883.00    0.67359   0.68010  218.086
 3884.00    0.68306   0.65307   -1.000
 3885.00    0.66080   0.61483   -1.000
 3886.00    0.62530   0.56973   -1.000
 3887.00    0.59550   0.53016   -1.000
 3888.00    0.55001   0.51156   -1.000
 3889.00    0.53952   0.52244   -1.000
 3890.00    0.59072   0.55843   -1.000
 3891.00    0.65036   0.60435   -1.000
 3892.00    0.68388   0.64373   -1.000
 3893.00    0.70519   0.66951   -1.000
 3894.00    0.71565   0.68600   -1.000
 3895.00    0.73861   0.70003   -1.000
 3896.00    0.74804   0.71433   -1.000
 3897.00    0.74077   0.72724   -1.000
 3898.00    0.74485   0.73615  180.331
 3899.00    0.77666   0.74227   -1.000
 3900.00    0.77694   0.74855   -1.000
 3901.00    0.77327   0.75408   -1.000
 3902.00    0.78778   0.75601   -1.000
 3903.00    0.80725   0.75398   -1.000
 3904.00    0.78927   0.75139   -1.000
 3905.00    0.78905   0.75379   -1.000
 3906.00    0.79740   0.76495   -1.000
 3907.00    0.80120   0.78398   -1.000
 3908.00    0.82784   0.80501   -1.000
 3909.00    0.86251   0.82126   -1.000
 3910.00    0.86666   0.82975   -1.000
 3911.00    0.85930   0.83165   -1.000
 3912.00    0.86738   0.82855   -1.000
 3913.00    0.86001   0.82174   -1.000
 3914.00    0.85065   0.81472   -1.000
 3915.00    0.83711   0.81072   -1.000
 3916.00    0.84371   0.80816   -1.000
 3917.00    0.83595   0.80361   -1.000
 3918.00    0.81592   0.79654   -1.000
 3919.00    0.80853   0.78959   -1.000
 3920.00    0.80042   0.78516   -1.000
 3921.00    0.80264   0.78383   -1.000
 3922.00    0.80060   0.78495   -1.000
 3923.00    0.81314   0.78578   -1.000
 3924.00    0.82992   0.78192   -1.000
 3925.00    0.83102   0.76881   -1.000
 3926.00    0.79691   0.74436   43.384
 3927.00    0.73739   0.70926   33.229
 3928.00    0.67379   0.66389   38.912
 3929.00    0.61062   0.60698   45.858
 3930.00    0.52526   0.53599   53.888
 3931.00    0.44365   0.45641   60.350
 3932.00    0.39697   0.38836   60.441
 3933.00    0.38874   0.35761   54.070
 3934.00    0.42755   0.37846   45.331
 3935.00    0.50054   0.44215   37.285
 3936.00    0.57273   0.52441   31.122
 3937.00    0.61393   0.60422   70.460
 3938.00    0.65528   0.67047  237.324
 3939.00    0.71448   0.71848  235.345
 3940.00    0.76075   0.74937   -1.000
 3941.00    0.76702   0.76619  230.307
 3942.00    0.77921   0.77326  222.325
 3943.00    0.79701   0.77721   -1.000
 3944.00    0.79867   0.78376   -1.000
 3945.00    0.80589   0.79380  185.606
 3946.00    0.82350   0.80338   -1.000
 3947.00    0.83660   0.80779   -1.000
 3948.00    0.83795   0.80674   -1.000
 3949.00    0.85190   0.80364   -1.000
 3950.00    0.85899   0.80123   -1.000
 3951.00    0.84752   0.80104   -1.000
 3952.00    0.84052   0.80416   -1.000
 3953.00    0.85229   0.80857   -1.000
 3954.00    0.87119   0.80949   -1.000
 3955.00    0.86781   0.80483   -1.000
 3956.00    0.82847   0.79713   -1.000
 3957.00    0.81904   0.79075   -1.000
 3958.00    0.83019   0.78522   -1.000
 3959.00    0.81459   0.77390   -1.000
 3960.00    0.78784   0.75283   -1.000
 3961.00    0.76043   0.72400   -1.000
 3962.00    0.70920   0.69044   40.174
 3963.00    0.65740   0.65122   31.372
 3964.00    0.59485   0.59865   38.034
 3965.00    0.49730   0.52742   46.700
 3966.00    0.41387   0.44374   53.493
 3967.00    0.36784   0.36754   52.510
 3968.00    0.34437   0.32523   44.771
 3969.00    0.34176   0.33243   36.794
 3970.00    0.37426   0.38429   30.621
 3971.00    0.45827   0.46129   71.257
 3972.00    0.53754   0.54151  229.681
 3973.00    0.60552   0.61107  205.713
 3974.00    0.67817   0.66707  188.322
 3975.00    0.73383   0.71116   -1.000
 3976.00    0.76758   0.74625   -1.000
 3977.00    0.80037   0.77453   -1.000
 3978.00    0.83110   0.79655   -1.000
 3979.00    0.85320   0.81121   -1.000
 3980.00    0.85340   0.81849   -1.000
 3981.00    0.84818   0.82227   -1.000
 3982.00    0.84989   0.82741   -1.000
 3983.00    0.84991   0.83640  150.790
 3984.00    0.88183   0.84832   -1.000
 3985.00    0.92165   0.86013   -1.000
 3986.00    0.91537   0.87044   -1.000
 3987.00    0.90482   0.87943   -1.000
 3988.00    0.91812   0.88606   -1.000
 3989.00    0.93966   0.89035   -1.000
 3990.00    0.94074   0.89500   -1.000
 3991.00    0.93593   0.90172   -1.000
 3992.00    0.96418   0.90892   -1.000
 3993.00    0.95979   0.91246   -1.000
 3994.00    0.94392   0.90886   -1.000
 3995.00    0.92244   0.89873   -1.000
 3996.00    0.89596   0.88808  146.053
 3997.00    0.89872   0.88426  140.256
 3998.00    0.91914   0.88988   -1.000
 3999.00    0.93969   0.90108   -1.000
 4000.00    0.96745   0.91178   -1.000
 4001.00    0.98721   0.91799   -1.000
 4002.00    0.97376   0.91788   -1.000
 4003.00    0.96301   0.91155   -1.000
 4004.00    0.94926   0.90263   -1.000
 4005.00    0.91698   0.89838  141.297
 4006.00    0.91322   0.90361  134.889
 4007.00    0.95573   0.91633   -1.000
 4008.00    0.97116   0.92994   -1.000
 4009.00    0.98266   0.93919   -1.000
 4010.00    1.02011   0.94362   -1.000
 4011.00    0.99775   0.94507   -1.000
 4012.00    0.96104   0.94553  130.737
 4013.00    0.97477   0.94705   -1.000
 4014.00    1.00090   0.95067   -1.000
 4015.00    0.99574   0.95546   -1.000
 4016.00    0.98718   0.95999   -1.000
 4017.00    0.99655   0.96425   -1.000
 4018.00    1.00736   0.96848   -1.000
 4019.00    0.99563   0.97152   -1.000
 4020.00    1.01103   0.97136   -1.000
 4021.00    1.01268   0.96748   -1.000
 4022.00    0.99207   0.96159   -1.000
 4023.00    0.98441   0.95628   -1.000
 4024.00    1.00842   0.95455   -1.000
 4025.00    1.00230   0.95862   -1.000
 4026.00    0.99830   0.96689   -1.000
 4027.00    1.01280   0.97301   -1.000
 4028.00    1.01452   0.97078   -1.000
 4029.00    0.98523   0.95942   -1.000
 4030.00    0.95569   0.94445  145.331
 4031.00    0.94875   0.93350  144.446
 4032.00    0.95059   0.93090   -1.000
 4033.00    0.96533   0.93708   -1.000
 4034.00    0.94417   0.95077  127.454
 4035.00    0.97734   0.96924  122.471
 4036.00    1.00461   0.98785  120.948
 4037.00    1.03146   1.00084   -1.000
 4038.00    1.05378   1.00504   -1.000
 4039.00    1.05202   1.00223   -1.000
 4040.00    1.03565   0.99634   -1.000
 4041.00    1.02013   0.98899   -1.000
 4042.00    1.00000   0.97758   -1.000
 4043.00    1.00658   0.96004   -1.000
 4044.00    0.98332   0.94092   -1.000
 4045.00    0.94462   0.93056  141.717
 4046.00    0.94485   0.93703  131.658
 4047.00    0.96323   0.95726  126.788
 4048.00    0.99184   0.97954  124.768
 4049.00    1.01797   0.99419  125.015
 4050.00    1.03342   0.99954   -1.000
 4051.00    1.04369   0.99838   -1.000
 4052.00    1.04185   0.99358   -1.000
 4053.00    1.00773   0.98813  134.926
 4054.00    0.99593   0.98420  135.873
 4055.00    1.00522   0.98244   -1.000
 4056.00    0.98048   0.98296  136.369
 4057.00    0.98445   0.98658  132.246
 4058.00    1.00085   0.99334  129.005
 4059.00    1.02204   0.99883  129.947
 4060.00    1.04328   0.99595   -1.000
 4061.00    1.00466   0.98182   -1.000
 4062.00    0.98383   0.96210   -1.000
 4063.00    0.97251   0.94623   -1.000
 4064.00    0.96100   0.93979   -1.000
 4065.00    0.96534   0.94282   -1.000
 4066.00    0.99180   0.95047   -1.000
 4067.00    1.02894   0.95675   -1.000
 4068.00    1.04020   0.95854   -1.000
 4069.00    1.00774   0.95469   -1.000
 4070.00    0.99323   0.94615   -1.000
 4071.00    0.97521   0.93838   -1.000
 4072.00    0.97294   0.93681   -1.000
 4073.00    0.99811   0.93967   -1.000
 4074.00    0.99387   0.93936   -1.000
 4075.00    0.98763   0.93061   -1.000
 4076.00    0.96493   0.91714   -1.000
 4077.00    0.93121   0.90891   -1.000
 4078.00    0.93296   0.91388  131.759
 4079.00    0.95807   0.93081   -1.000
 4080.00    0.99636   0.95009   -1.000
 4081.00    1.01072   0.96191   -1.000
 4082.00    1.00643   0.96278   -1.000
 4083.00    0.98252   0.95650   -1.000
 4084.00    0.96072   0.95035  128.723
 4085.00    0.96841   0.95009  123.885
 4086.00    0.99027   0.95645   -1.000
 4087.00    1.00907   0.96538   -1.000
 4088.00    1.02772   0.97147   -1.000
 4089.00    1.02044   0.97198   -1.000
 4090.00    1.01709   0.96788   -1.000
 4091.00    1.00348   0.96086   -1.000
 4092.00    0.96658   0.95075  127.287
 4093.00    0.95482   0.93687  132.281
 4094.00    0.95671   0.91905   -1.000
 4095.00    0.92488   0.89729   -1.000
 4096.00    0.88810   0.87123  141.000
 4097.00    0.86486   0.83841   -1.000
 4098.00    0.86213   0.79543   -1.000
 4099.00    0.83797   0.74313   -1.000
 4100.00    0.75663   0.69381   -1.000
 4101.00    0.68417   0.66863  160.100
 4102.00    0.68483   0.68305  147.262
 4103.00    0.72730   0.73156  138.490
 4104.00    0.80056   0.79221  133.498
 4105.00    0.87547   0.84408   -1.000
 4106.00    0.88068   0.87890  132.841
 4107.00    0.88690   0.89975  135.142
 4108.00    0.92479   0.91268  137.323
 4109.00    0.94913   0.92267   -1.000
 4110.00    0.95165   0.93292  133.716
 4111.00    0.95501   0.94487  131.226
 4112.00    0.96064   0.95846  129.155
 4113.00    0.99956   0.97258   -1.000
 4114.00    1.01619   0.98496   -1.000
 4115.00    0.99283   0.99203  130.143
 4116.00    0.99534   0.99160  134.194
 4117.00    0.99416   0.98525  136.514
 4118.00    0.98423   0.97770  135.562
 4119.00    1.01341   0.97418   -1.000
 4120.00    1.01208   0.97654   -1.000
 4121.00    1.00385   0.98251  132.777
 4122.00    1.00926   0.98924  130.614
 4123.00    1.03756   0.99582   -1.000
 4124.00    1.04559   1.00198   -1.000
 4125.00    1.05781   1.00608   -1.000
 4126.00    1.05828   1.00659   -1.000
 4127.00    1.02828   1.00462  135.885
 4128.00    1.02627   1.00224  137.354
 4129.00    1.02480   0.99905   -1.000
 4130.00    1.01424   0.99340  145.598
 4131.00    0.98894   0.98673  146.981
 4132.00    0.99391   0.98441  143.287
 4133.00    1.00625   0.99060  136.539
 4134.00    1.00301   1.00387  131.502
 4135.00    1.02437   1.01964  128.900
 4136.00    1.03510   1.03455  126.887
 4137.00    1.04568   1.04721  126.041
 4138.00    1.06753   1.05587  127.922
 4139.00    1.07945   1.05704  133.742
 4140.00    1.08433   1.04832   -1.000
 4141.00    1.05549   1.03185   -1.000
 4142.00    1.03518   1.01488   -1.000
 4143.00    1.00403   1.00632  141.926
 4144.00    0.99684   1.01022  135.861
 4145.00    1.02221   1.02231  133.644
 4146.00    1.05565   1.03382  135.322
 4147.00    1.06623   1.03976   -1.000
 4148.00    1.04934   1.04171  141.135
 4149.00    1.03550   1.04272  140.712
 4150.00    1.03895   1.04328  139.827
 4151.00    1.03533   1.04184  140.663
 4152.00    1.02867   1.03788  142.787
 4153.00    1.10895   1.03327   -1.000
 4154.00    1.34942   1.03112   -1.000
 4155.00    1.22939   1.03369   -1.000
 4156.00    0.80352   1.04068   -1.000
 4157.00    0.88739   1.04979   -1.000
 4158.00    1.08587   1.05804   -1.000
 4159.00    1.09579   1.06357   -1.000
 4160.00    1.07486   1.06667  129.340
 4161.00    1.07091   1.06918  129.650
 4162.00    1.07780   1.07290  131.518
 4163.00    1.07206   1.07749  133.545
 4164.00    1.06280   1.08038  136.341
 4165.00    1.06521   1.07894  138.668
 4166.00    1.06432   1.07415  138.294
 4167.00    1.05482   1.06937  136.135
 4168.00    1.05741   1.06554  136.717
 4169.00    1.06697   1.05955  143.436
 4170.00    1.06576   1.04728  152.260
 4171.00    1.05064   1.03081  154.631
 4172.00    1.00969   1.01834  150.225
 4173.00    1.00396   1.01635  144.735
 4174.00    1.01960   1.02418  143.513
 4175.00    1.03513   1.03461  144.208
 4176.00    1.02522   1.04172  143.907
 4177.00    1.03791   1.04597  141.966
 4178.00    1.05020   1.05074  140.400
 4179.00    1.06562   1.05696  140.212
 4180.00    1.07494   1.06131  139.054
 4181.00    1.06690   1.06237  136.499
 4182.00    1.06277   1.06365  133.999
 4183.00    1.06242   1.06659  133.661
 4184.00    1.07112   1.06806  137.312
 4185.00    1.05899   1.06507  141.458
 4186.00    1.06778   1.05905  141.295
 4187.00    1.05406   1.05496  138.421
 4188.00    1.04421   1.05559  137.089
 4189.00    1.06622   1.05917  135.483
 4190.00    1.05774   1.06268  132.750
 4191.00    1.07264   1.06566  130.748
 4192.00    1.08275   1.06947  133.433
 4193.00    1.08870   1.07269  139.909
 4194.00    1.08200   1.07035  145.156
 4195.00    1.05481   1.06001  148.151
 4196.00    1.05200   1.04479  148.912
 4197.00    1.04535   1.03016  147.642
 4198.00    1.01392   1.02052  145.391
 4199.00    1.01940   1.01789  144.604
 4200.00    1.04316   1.02064   -1.000
 4201.00    1.05649   1.02579   -1.000
 4202.00    1.04981   1.03295  140.508
 4203.00    1.05084   1.04255  138.111
 4204.00    1.03051   1.05293   -1.000
 4205.00    1.04800   1.06204  131.995
 4206.00    1.06047   1.06937  130.975
 4207.00    1.07751   1.07472  131.309
 4208.00    1.07627   1.07801  131.202
 4209.00    1.10242   1.08050  130.387
 4210.00    1.07574   1.08399  130.817
 4211.00    1.06697   1.08815   -1.000
 4212.00    1.06201   1.08849   -1.000
 4213.00    1.05788   1.08116   -1.000
 4214.00    1.06546   1.06917  141.479
 4215.00    1.06525   1.06001  133.115
 4216.00    1.05841   1.06011  126.691
 4217.00    1.05519   1.06941  122.797
 4218.00    1.08495   1.08208  121.095
 4219.00    1.10872   1.09242  121.755
 4220.00    1.10707   1.09727  126.056
 4221.00    1.08155   1.09410  134.270
 4222.00    1.08084   1.07980  146.877
 4223.00    1.08866   1.05293   -1.000
 4224.00    1.05303   1.01973   -1.000
 4225.00    0.99520   0.99315  174.320
 4226.00    0.95754   0.98711   -1.000
 4227.00    0.95699   1.00710   -1.000
 4228.00    1.01680   1.04457   -1.000
 4229.00    1.06257   1.08007  125.797
 4230.00    1.07643   1.09835   -1.000
 4231.00    1.08064   1.09876  131.315
 4232.00    1.08653   1.08923  133.013
 4233.00    1.08275   1.07820  135.799
 4234.00    1.07386   1.07208  138.424
 4235.00    1.06760   1.07212  138.020
 4236.00    1.07007   1.07583  135.127
 4237.00    1.06033   1.08174   -1.000
 4238.00    1.05892   1.08947   -1.000
 4239.00    1.07712   1.09905   -1.000
 4240.00    1.09680   1.10974  127.869
 4241.00    1.08341   1.11899   -1.000
 4242.00    1.07923   1.12399   -1.000
 4243.00    1.09091   1.12353   -1.000
 4244.00    1.07889   1.11778   -1.000
 4245.00    1.09971   1.10677  134.127
 4246.00    1.06938   1.09264   -1.000
 4247.00    1.05870   1.07987   -1.000
 4248.00    1.03782   1.07226   -1.000
 4249.00    1.03177   1.07131   -1.000
 4250.00    1.04272   1.07709   -1.000
 4251.00    1.07352   1.08661  132.229
 4252.00    1.08497   1.09466  135.419
 4253.00    1.07220   1.09862   -1.000
 4254.00    1.06957   1.10069   -1.000
 4255.00    1.06266   1.10434   -1.000
 4256.00    1.08338   1.10805   -1.000
 4257.00    1.09904   1.10632  139.042
 4258.00    1.09570   1.09801  143.434
 4259.00    1.07248   1.08950  139.494
 4260.00    1.05067   1.08908   -1.000
 4261.00    1.04940   1.09933   -1.000
 4262.00    1.07661   1.11564   -1.000
 4263.00    1.10498   1.13027   -1.000
 4264.00    1.12508   1.13784  122.194
 4265.00    1.12868   1.13836  125.955
 4266.00    1.12719   1.13391  129.869
 4267.00    1.10453   1.12496  134.704
 4268.00    1.08146   1.11109   -1.000
 4269.00    1.07867   1.09292  152.038
 4270.00    1.07058   1.07451  154.911
 4271.00    1.02609   1.06168   -1.000
 4272.00    1.00586   1.05852   -1.000
 4273.00    1.00712   1.06526   -1.000
 4274.00    1.02456   1.07951   -1.000
 4275.00    1.04728   1.09859   -1.000
 4276.00    1.08200   1.11867   -1.000
 4277.00    1.10599   1.13288   -1.000
 4278.00    1.11837   1.13607  135.281
 4279.00    1.09458   1.12914   -1.000
 4280.00    1.06560   1.11877   -1.000
 4281.00    1.06790   1.11183   -1.000
 4282.00    1.07799   1.11007   -1.000
 4283.00    1.09383   1.11085  138.284
 4284.00    1.09397   1.10961  141.893
 4285.00    1.08267   1.10265  144.146
 4286.00    1.05009   1.08891   -1.000
 4287.00    1.03497   1.07065   -1.000
 4288.00    1.03416   1.05263  157.926
 4289.00    1.01904   1.04173   -1.000
 4290.00    1.00400   1.04288   -1.000
 4291.00    1.01241   1.05394   -1.000
 4292.00    1.04199   1.06606   -1.000
 4293.00    1.06453   1.07195  140.921
 4294.00    1.05192   1.07158  144.024
 4295.00    1.03820   1.06677   -1.000
 4296.00    1.03048   1.05561   -1.000
 4297.00    1.00506   1.03676   -1.000
 4298.00    0.96816   1.01279   -1.000
 4299.00    0.92506   0.99036   -1.000
 4300.00    0.90826   0.97653   -1.000
 4301.00    0.92795   0.97428   -1.000
 4302.00    0.95426   0.98103   -1.000
 4303.00    0.93970   0.99122   -1.000
 4304.00    0.95385   0.99806   -1.000
 4305.00    0.97061   0.99703   -1.000
 4306.00    0.97501   0.98978  187.052
 4307.00    0.93910   0.98283   -1.000
 4308.00    0.90505   0.98282   -1.000
 4309.00    0.90391   0.99123   -1.000
 4310.00    0.91915   1.00448   -1.000
 4311.00    0.95847   1.01777   -1.000
 4312.00    0.98016   1.03024   -1.000
 4313.00    0.98938   1.04662   -1.000
 4314.00    1.02227   1.07146   -1.000
 4315.00    1.07817   1.10425   -1.000
 4316.00    1.12048   1.13624  113.531
 4317.00    1.14063   1.15727  115.105
 4318.00    1.16166   1.16386  117.631
 4319.00    1.15609   1.15958  121.459
 4320.00    1.14332   1.14905  127.220
 4321.00    1.12817   1.13393  136.238
 4322.00    1.08611   1.11397   -1.000
 4323.00    1.05116   1.09114   -1.000
 4324.00    1.01161   1.07312   -1.000
 4325.00    0.99666   1.07009   -1.000
 4326.00    1.03973   1.08421   -1.000
 4327.00    1.08396   1.10687   -1.000
 4328.00    1.11699   1.12526  119.209
 4329.00    1.12062   1.13291  118.719
 4330.00    1.10400   1.13267   -1.000
 4331.00    1.11983   1.12957  115.480
 4332.00    1.10578   1.12393  115.120
 4333.00    1.07707   1.11169   -1.000
 4334.00    1.07499   1.08818  123.683
 4335.00    1.05203   1.04958  135.281
 4336.00    1.01735   0.99416  148.001
 4337.00    0.96478   0.92525   -1.000
 4338.00    0.88198   0.85728   -1.000
 4339.00    0.79364   0.81137   -1.000
 4340.00    0.74679   0.80593   -1.000
 4341.00    0.78689   0.84485   -1.000
 4342.00    0.87578   0.91266   -1.000
 4343.00    0.94867   0.98296   -1.000
 4344.00    1.00034   1.03871   -1.000
 4345.00    1.02838   1.07820   -1.000
 4346.00    1.07740   1.10622   -1.000
 4347.00    1.09887   1.12474   -1.000
 4348.00    1.09716   1.13152   -1.000
 4349.00    1.12259   1.12552  132.301
 4350.00    1.09086   1.11286   -1.000
 4351.00    1.05544   1.10454   -1.000
 4352.00    1.04171   1.10955   -1.000
 4353.00    1.06851   1.12801   -1.000
 4354.00    1.09281   1.15153   -1.000
 4355.00    1.11842   1.17043   -1.000
 4356.00    1.15243   1.18041   -1.000
 4357.00    1.17201   1.18305  121.501
 4358.00    1.16787   1.18296  119.563
 4359.00    1.16690   1.18506  116.008
 4360.00    1.17823   1.19141  114.467
 4361.00    1.18440   1.20059  113.935
 4362.00    1.16474   1.20931   -1.000
 4363.00    1.17629   1.21478   -1.000
 4364.00    1.19614   1.21547  115.623
 4365.00    1.18737   1.21094   -1.000
 4366.00    1.18565   1.20225  121.508
 4367.00    1.16543   1.19288   -1.000
 4368.00    1.15037   1.18613   -1.000
 4369.00    1.16494   1.18224  119.568
 4370.00    1.17706   1.17886  120.636
 4371.00    1.17104   1.17257  125.207
 4372.00    1.16565   1.16162  130.258
 4373.00    1.14943   1.14834  130.868
 4374.00    1.11774   1.14028   -1.000
 4375.00    1.13309   1.14520  119.672
 4376.00    1.16237   1.16336  117.152
 4377.00    1.19260   1.18518  117.601
 4378.00    1.17412   1.19913   -1.000
 4379.00    1.19385   1.19929  124.915
 4380.00    1.17948   1.18478  137.994
 4381.00    1.16408   1.15812  153.773
 4382.00    1.13560   1.12797  157.003
 4383.00    1.10268   1.10727  143.847
 4384.00    1.06520   1.10516   -1.000
 4385.00    1.10209   1.12048  125.157
 4386.00    1.14000   1.14261  124.891
 4387.00    1.14910   1.16096  126.168
 4388.00    1.15135   1.17184   -1.000
 4389.00    1.16672   1.17726  124.469
 4390.00    1.18629   1.18069  121.668
 4391.00    1.19600   1.18320  122.159
 4392.00    1.19820   1.18255  124.746
 4393.00    1.19528   1.17740  124.595
 4394.00    1.19338   1.17248  119.299
 4395.00    1.18278   1.17445  115.611
 4396.00    1.18575   1.18265  116.796
 4397.00    1.20524   1.18958  120.941
 4398.00    1.19685   1.18970  124.646
 4399.00    1.18645   1.18505  123.631
 4400.00    1.18598   1.18165  121.418
 4401.00    1.19498   1.18198  125.110
 4402.00    1.20513   1.18313  132.281
 4403.00    1.20414   1.18183  133.980
 4404.00    1.17924   1.17946  129.880
 4405.00    1.16207   1.18011  127.744
 4406.00    1.17229   1.18496  126.563
 4407.00    1.17553   1.19238  122.009
 4408.00    1.15622   1.20234   -1.000
 4409.00    1.15602   1.21575   -1.000
 4410.00    1.20379   1.22960   -1.000
 4411.00    1.23120   1.23719  113.875
 4412.00    1.27040   1.23349   -1.000
 4413.00    1.23020   1.21898  124.826
 4414.00    1.18560   1.19993  124.516
 4415.00    1.17175   1.18632  120.397
 4416.00    1.15470   1.18607   -1.000
 4417.00    1.16156   1.19982   -1.000
 4418.00    1.17625   1.22032   -1.000
 4419.00    1.18486   1.23778   -1.000
 4420.00    1.18791   1.24616   -1.000
 4421.00    1.17754   1.24637   -1.000
 4422.00    1.17104   1.24335   -1.000
 4423.00    1.17328   1.24024   -1.000
 4424.00    1.18629   1.23714   -1.000
 4425.00    1.18698   1.23427   -1.000
 4426.00    1.15997   1.23375   -1.000
 4427.00    1.15647   1.23735   -1.000
 4428.00    1.17929   1.24389   -1.000
 4429.00    1.17732   1.25030   -1.000
 4430.00    1.17260   1.25419   -1.000
 4431.00    1.18620   1.25402   -1.000
 4432.00    1.20845   1.24846   -1.000
 4433.00    1.20027   1.23845   -1.000
 4434.00    1.16669   1.22990   -1.000
 4435.00    1.14391   1.23156   -1.000
 4436.00    1.19140   1.24688   -1.000
 4437.00    1.24445   1.26859   -1.000
 4438.00    1.25719   1.28365   -1.000
 4439.00    1.25701   1.28295   -1.000
 4440.00    1.24458   1.26731   -1.000
 4441.00    1.21542   1.24612   -1.000
 4442.00    1.18179   1.23166   -1.000
 4443.00    1.17399   1.23173   -1.000
 4444.00    1.18749   1.24513   -1.000
 4445.00    1.23710   1.26336   -1.000
 4446.00    1.24401   1.27772   -1.000
 4447.00    1.23771   1.28530   -1.000
 4448.00    1.25975   1.28795   -1.000
 4449.00    1.25749   1.28826   -1.000
 4450.00    1.24747   1.28767   -1.000
 4451.00    1.25765   1.28559   -1.000
 4452.00    1.26100   1.27946  123.101
 4453.00    1.25377   1.26837  125.868
 4454.00    1.24286   1.25711  124.012
 4455.00    1.21677   1.25297   -1.000
 4456.00    1.21251   1.25775   -1.000
 4457.00    1.23381   1.26590   -1.000
 4458.00    1.25123   1.27124  123.581
 4459.00    1.24802   1.27266   -1.000
 4460.00    1.24028   1.27309   -1.000
 4461.00    1.24665   1.27588   -1.000
 4462.00    1.26026   1.28176   -1.000
 4463.00    1.27123   1.28826  114.515
 4464.00    1.27626   1.29167  114.593
 4465.00    1.26308   1.28941   -1.000
 4466.00    1.27482   1.28171  118.038
 4467.00    1.26921   1.27226  118.848
 4468.00    1.22612   1.26694   -1.000
 4469.00    1.23863   1.27075   -1.000
 4470.00    1.25864   1.28435   -1.000
 4471.00    1.28301   1.30308   -1.000
 4472.00    1.29527   1.32013   -1.000
 4473.00    1.31286   1.33103  105.880
 4474.00    1.32673   1.33565  105.015
 4475.00    1.33367   1.33685  104.378
 4476.00    1.32310   1.33674  105.241
 4477.00    1.33330   1.33377  109.006
 4478.00    1.30438   1.32441  113.955
 4479.00    1.30855   1.30911  117.291
 4480.00    1.29456   1.29483  116.210
 4481.00    1.27765   1.29055  111.434
 4482.00    1.26566   1.30039   -1.000
 4483.00    1.26772   1.32031   -1.000
 4484.00    1.31363   1.34084   -1.000
 4485.00    1.33438   1.35352  107.142
 4486.00    1.33867   1.35497  111.209
 4487.00    1.33390   1.34744  113.871
 4488.00    1.32743   1.33761  112.813
 4489.00    1.31248   1.33289   -1.000
 4490.00    1.30486   1.33591   -1.000
 4491.00    1.31833   1.34205   -1.000
 4492.00    1.32260   1.34431   -1.000
 4493.00    1.30921   1.34090   -1.000
 4494.00    1.30806   1.33605   -1.000
 4495.00    1.30908   1.33438   -1.000
 4496.00    1.28800   1.33672   -1.000
 4497.00    1.28133   1.34024   -1.000
 4498.00    1.29940   1.34081   -1.000
 4499.00    1.30254   1.33715   -1.000
 4500.00    1.29139   1.33355   -1.000
 4501.00    1.29550   1.33662   -1.000
 4502.00    1.33716   1.34823   99.698
 4503.00    1.36613   1.36304  100.277
 4504.00    1.36564   1.37340  102.300
 4505.00    1.38794   1.37597  103.356
 4506.00    1.38045   1.37326  103.472
 4507.00    1.35060   1.37028  102.707
 4508.00    1.35652   1.37040  101.983
 4509.00    1.37624   1.37305  102.789
 4510.00    1.38215   1.37513  104.796
 4511.00    1.37113   1.37467  106.686
 4512.00    1.35838   1.37223  107.398
 4513.00    1.38058   1.36910  106.905
 4514.00    1.36297   1.36597  106.806
 4515.00    1.33519   1.36307   -1.000
 4516.00    1.35717   1.36004  108.731
 4517.00    1.35042   1.35662  106.969
 4518.00    1.33387   1.35383  104.849
 4519.00    1.32211   1.35304   -1.000
 4520.00    1.34928   1.35332  107.517
 4521.00    1.35872   1.35184  109.724
 4522.00    1.33529   1.34769  110.707
 4523.00    1.33345   1.34314  112.534
 4524.00    1.30895   1.33980   -1.000
 4525.00    1.30238   1.33598   -1.000
 4526.00    1.29716   1.32944   -1.000
 4527.00    1.30090   1.32127  119.932
 4528.00    1.29626   1.31538  117.849
 4529.00    1.30420   1.31422  115.690
 4530.00    1.31022   1.31566  115.072
 4531.00    1.29417   1.31435  118.192
 4532.00    1.31589   1.30725  122.221
 4533.00    1.32069   1.29862  120.808
 4534.00    1.29384   1.29761  114.040
 4535.00    1.28298   1.30987   -1.000
 4536.00    1.30724   1.33268   -1.000
 4537.00    1.34400   1.35731  105.200
 4538.00    1.36722   1.37498  107.722
 4539.00    1.35412   1.38218   -1.000
 4540.00    1.33651   1.38181   -1.000
 4541.00    1.39381   1.37936  106.506
 4542.00    1.11277   1.37800   -1.000
 4543.00    0.10515   1.37720   -2.000
 4544.00   -0.04566   1.37540   -2.000
 4545.00    0.25842   1.37198   -2.000
 4546.00    0.96596   1.36558   -1.000
 4547.00    0.33375   1.35444   -1.000
 4548.00    1.16950   1.34108   -1.000
 4549.00    1.28450   1.33332   -1.000
 4550.00    1.29841   1.33608   -1.000
 4551.00    1.33702   1.34409  113.356
 4552.00    1.34186   1.34771  114.427
 4553.00    1.29570   1.34473   -1.000
 4554.00    1.30393   1.34233   -1.000
 4555.00    1.31576   1.34851   -1.000
 4556.00    1.33529   1.36410   -1.000
 4557.00    1.36228   1.38291   -1.000
 4558.00    1.37812   1.39836   -1.000
 4559.00    1.38570   1.40783   -1.000
 4560.00    1.37894   1.41083   -1.000
 4561.00    1.38658   1.40693   -1.000
 4562.00    1.38565   1.39806  109.787
 4563.00    1.36284   1.39004   -1.000
 4564.00    1.36085   1.38894   -1.000
 4565.00    1.38622   1.39591  103.093
 4566.00    1.39701   1.40643  102.022
 4567.00    1.40123   1.41398  103.108
 4568.00    1.39987   1.41407  105.712
 4569.00    1.39941   1.40626  108.506
 4570.00    1.37287   1.39471   -1.000
 4571.00    1.33297   1.38692   -1.000
 4572.00    1.35131   1.38896   -1.000
 4573.00    1.36619   1.39929   -1.000
 4574.00    1.38474   1.40990   -1.000
 4575.00    1.41077   1.41466  104.136
 4576.00    1.40270   1.41342  105.905
 4577.00    1.38800   1.40826   -1.000
 4578.00    1.38270   1.40024  111.352
 4579.00    1.37164   1.39049  111.084
 4580.00    1.34418   1.38158   -1.000
 4581.00    1.35787   1.37577  108.700
 4582.00    1.36239   1.37353  109.009
 4583.00    1.34176   1.37489   -1.000
 4584.00    1.36046   1.38010   -1.000
 4585.00    1.36263   1.38821   -1.000
 4586.00    1.36000   1.39692   -1.000
 4587.00    1.40989   1.40401  102.941
 4588.00    1.42561   1.40833  104.437
 4589.00    1.41058   1.41019  106.390
 4590.00    1.39306   1.41043  108.263
 4591.00    1.37984   1.40976   -1.000
 4592.00    1.37370   1.40978   -1.000
 4593.00    1.36346   1.41251   -1.000
 4594.00    1.37968   1.41825   -1.000
 4595.00    1.39432   1.42520   -1.000
 4596.00    1.38823   1.43073   -1.000
 4597.00    1.38272   1.43271   -1.000
 4598.00    1.39837   1.43054   -1.000
 4599.00    1.40258   1.42527   -1.000
 4600.00    1.41703   1.41921  106.928
 4601.00    1.39360   1.41529  105.721
 4602.00    1.38510   1.41552   -1.000
 4603.00    1.38633   1.41946   -1.000
 4604.00    1.40765   1.42476  104.568
 4605.00    1.39889   1.42961   -1.000
 4606.00    1.41314   1.43435  100.297
 4607.00    1.40059   1.43989   -1.000
 4608.00    1.43965   1.44566   99.549
 4609.00    1.43479   1.44946  100.926
 4610.00    1.45255   1.44975  102.050
 4611.00    1.43690   1.44772  102.714
 4612.00    1.42485   1.44593   -1.000
 4613.00    1.41208   1.44545   -1.000
 4614.00    1.42508   1.44553  100.885
 4615.00    1.43330   1.44507  101.563
 4616.00    1.44014   1.44377  102.321
 4617.00    1.42527   1.44235  102.224
 4618.00    1.41629   1.44238   -1.000
 4619.00    1.43622   1.44566   99.625
 4620.00    1.44128   1.45239   99.597
 4621.00    1.43690   1.45991   -1.000
 4622.00    1.45134   1.46439  100.049
 4623.00    1.43682   1.46422   -1.000
 4624.00    1.42130   1.46121   -1.000
 4625.00    1.41765   1.45823   -1.000
 4626.00    1.41204   1.45663   -1.000
 4627.00    1.41869   1.45599   -1.000
 4628.00    1.40694   1.45588   -1.000
 4629.00    1.39518   1.45728   -1.000
 4630.00    1.42594   1.46087   -1.000
 4631.00    1.44748   1.46492  102.292
 4632.00    1.44884   1.46691  103.421
 4633.00    1.43892   1.46666   -1.000
 4634.00    1.44117   1.46606   -1.000
 4635.00    1.44864   1.46614  105.558
 4636.00    1.45353   1.46621  105.982
 4637.00    1.45835   1.46612  105.825
 4638.00    1.41188   1.46753   -1.000
 4639.00    1.41440   1.47209   -1.000
 4640.00    1.45135   1.47925   -1.000
 4641.00    1.45487   1.48629   -1.000
 4642.00    1.44748   1.49027   -1.000
 4643.00    1.45626   1.48951   -1.000
 4644.00    1.46148   1.48412   -1.000
 4645.00    1.46649   1.47585  108.655
 4646.00    1.44347   1.46828   -1.000
 4647.00    1.43360   1.46593   -1.000
 4648.00    1.43708   1.47046   -1.000
 4649.00    1.42652   1.47862   -1.000
 4650.00    1.46261   1.48540   -1.000
 4651.00    1.47313   1.48794  103.638
 4652.00    1.45929   1.48613   -1.000
 4653.00    1.47109   1.48166  107.278
 4654.00    1.43778   1.47726   -1.000
 4655.00    1.42599   1.47585   -1.000
 4656.00    1.42571   1.47966   -1.000
 4657.00    1.43025   1.48956   -1.000
 4658.00    1.47293   1.50347   -1.000
 4659.00    1.48680   1.51594   -1.000
 4660.00    1.50266   1.52172  100.337
 4661.00    1.47049   1.51992   -1.000
 4662.00    1.45002   1.51351   -1.000
 4663.00    1.45831   1.50540   -1.000
 4664.00    1.46323   1.49585   -1.000
 4665.00    1.45946   1.48382   -1.000
 4666.00    1.45103   1.47043  113.351
 4667.00    1.42207   1.46061   -1.000
 4668.00    1.39916   1.45958   -1.000
 4669.00    1.40514   1.46774   -1.000
 4670.00    1.43089   1.48046   -1.000
 4671.00    1.46588   1.49219   -1.000
 4672.00    1.48605   1.50018  101.762
 4673.00    1.47402   1.50535   -1.000
 4674.00    1.48694   1.50983   98.878
 4675.00    1.48381   1.51365   -1.000
 4676.00    1.48324   1.51440   -1.000
 4677.00    1.48865   1.51013  103.663
 4678.00    1.48356   1.50201  105.369
 4679.00    1.45309   1.49332   -1.000
 4680.00    1.42867   1.48716   -1.000
 4681.00    1.41691   1.48564   -1.000
 4682.00    1.45248   1.48907   -1.000
 4683.00    1.49397   1.49529  101.364
 4684.00    1.49147   1.50098  101.392
 4685.00    1.49217   1.50411  101.994
 4686.00    1.49953   1.50518  101.978
 4687.00    1.49187   1.50590  101.989
 4688.00    1.49574   1.50719  102.754
 4689.00    1.49200   1.50853  102.948
 4690.00    1.48708   1.50925  101.672
 4691.00    1.48111   1.50996   -1.000
 4692.00    1.48316   1.51166   -1.000
 4693.00    1.47942   1.51428   -1.000
 4694.00    1.51033   1.51698   97.208
 4695.00    1.51608   1.51851  100.115
 4696.00    1.52509   1.51696  103.154
 4697.00    1.53843   1.51145  104.282
 4698.00    1.51404   1.50375  103.362
 4699.00    1.49250   1.49651  104.205
 4700.00    1.47713   1.49041  106.102
 4701.00    1.47674   1.48479  106.600
 4702.00    1.48761   1.48070  104.469
 4703.00    1.46172   1.48082  102.946
 4704.00    1.45000   1.48531   -1.000
 4705.00    1.47301   1.48990  106.646
 4706.00    1.48020   1.49024  107.628
 4707.00    1.48414   1.48689  106.995
 4708.00    1.47254   1.48487  103.724
 4709.00    1.46536   1.48841  100.889
 4710.00    1.49558   1.49676   99.968
 4711.00    1.50229   1.50509  101.016
 4712.00    1.49448   1.50914  102.980
 4713.00    1.49999   1.50908  102.892
 4714.00    1.48045   1.50909   -1.000
 4715.00    1.46233   1.51297   -1.000
 4716.00    1.48861   1.52056   -1.000
 4717.00    1.51152   1.52863   97.930
 4718.00    1.50690   1.53458   -1.000
 4719.00    1.53413   1.53797   98.488
 4720.00    1.53237   1.53947   99.181
 4721.00    1.50763   1.54015   -1.000
 4722.00    1.49364   1.54154   -1.000
 4723.00    1.48381   1.54432   -1.000
 4724.00    1.51707   1.54692   -1.000
 4725.00    1.52583   1.54657  104.049
 4726.00    1.50561   1.54192   -1.000
 4727.00    1.48888   1.53428   -1.000
 4728.00    1.45852   1.52677   -1.000
 4729.00    1.47791   1.52182   -1.000
 4730.00    1.48438   1.52027   -1.000
 4731.00    1.49493   1.52247   -1.000
 4732.00    1.50517   1.52757  101.125
 4733.00    1.48696   1.53277   -1.000
 4734.00    1.50866   1.53541   -1.000
 4735.00    1.51120   1.53517   -1.000
 4736.00    1.49966   1.53395   -1.000
 4737.00    1.50768   1.53396   -1.000
 4738.00    1.48283   1.53566   -1.000
 4739.00    1.50425   1.53794   -1.000
 4740.00    1.51632   1.54018   -1.000
 4741.00    1.51556   1.54334   -1.000
 4742.00    1.53534   1.54833   99.554
 4743.00    1.52320   1.55418   -1.000
 4744.00    1.51492   1.55917   -1.000
 4745.00    1.51863   1.56331   -1.000
 4746.00    1.52916   1.56817   -1.000
 4747.00    1.55174   1.57423   -1.000
 4748.00    1.53456   1.58009   -1.000
 4749.00    1.49998   1.58463   -1.000
 4750.00    1.53465   1.58781   -1.000
 4751.00    1.52944   1.58904   -1.000
 4752.00    1.52188   1.58765   -1.000
 4753.00    1.52000   1.58459   -1.000
 4754.00    1.51861   1.58205   -1.000
 4755.00    1.49328   1.58146   -1.000
 4756.00    1.51172   1.58274   -1.000
 4757.00    1.51072   1.58471   -1.000
 4758.00    1.48904   1.58583   -1.000
 4759.00    1.48370   1.58468   -1.000
 4760.00    1.49857   1.58025   -1.000
 4761.00    1.50253   1.57264   -1.000
 4762.00    1.46761   1.56418   -1.000
 4763.00    1.46043   1.55856   -1.000
 4764.00    1.47987   1.55850   -1.000
 4765.00    1.48594   1.56418   -1.000
 4766.00    1.48812   1.57375   -1.000
 4767.00    1.51263   1.58478   -1.000
 4768.00    1.53027   1.59496   -1.000
 4769.00    1.52335   1.60191   -1.000
 4770.00    1.51871   1.60412   -1.000
 4771.00    1.51307   1.60275   -1.000
 4772.00    1.52467   1.60159   -1.000
 4773.00    1.51155   1.60383   -1.000
 4774.00    1.51935   1.60888   -1.000
 4775.00    1.54292   1.61339   -1.000
 4776.00    1.53217   1.61493   -1.000
 4777.00    1.52407   1.61331   -1.000
 4778.00    1.52144   1.60965   -1.000
 4779.00    1.53174   1.60601   -1.000
 4780.00    1.54346   1.60449   -1.000
 4781.00    1.53222   1.60514   -1.000
 4782.00    1.53987   1.60586   -1.000
 4783.00    1.55900   1.60504   -1.000
 4784.00    1.53635   1.60278   -1.000
 4785.00    1.52494   1.59982   -1.000
 4786.00    1.53991   1.59720   -1.000
 4787.00    1.51047   1.59631   -1.000
 4788.00    1.50763   1.59796   -1.000
 4789.00    1.50540   1.60233   -1.000
 4790.00    1.53351   1.60963   -1.000
 4791.00    1.56096   1.61940   -1.000
 4792.00    1.55690   1.62972   -1.000
 4793.00    1.55004   1.63834   -1.000
 4794.00    1.57417   1.64361   -1.000
 4795.00    1.57620   1.64458   -1.000
 4796.00    1.55900   1.64153   -1.000
 4797.00    1.55937   1.63628   -1.000
 4798.00    1.53752   1.63205   -1.000
 4799.00    1.54045   1.63207   -1.000
 4800.00    1.53636   1.63703   -1.000
 4801.00    1.56453   1.64370   -1.000
 4802.00    1.58664   1.64688   -1.000
 4803.00    1.56551   1.64348   -1.000
 4804.00    1.55223   1.63582   -1.000
 4805.00    1.53450   1.62976   -1.000
 4806.00    1.52821   1.62922   -1.000
 4807.00    1.55490   1.63378   -1.000
 4808.00    1.58241   1.64019   -1.000
 4809.00    1.54805   1.64518   -1.000
 4810.00    1.52788   1.64802   -1.000
 4811.00    1.55695   1.65056   -1.000
 4812.00    1.57118   1.65470   -1.000
 4813.00    1.57494   1.66040   -1.000
 4814.00    1.56742   1.66595   -1.000
 4815.00    1.56716   1.66989   -1.000
 4816.00    1.58523   1.67206   -1.000
 4817.00    1.57728   1.67284   -1.000
 4818.00    1.57102   1.67243   -1.000
 4819.00    1.57951   1.67079   -1.000
 4820.00    1.57841   1.66709   -1.000
 4821.00    1.56541   1.65992   -1.000
 4822.00    1.54509   1.64954   -1.000
 4823.00    1.54381   1.63967   -1.000
 4824.00    1.52998   1.63527   -1.000
 4825.00    1.53324   1.63758   -1.000
 4826.00    1.56701   1.64289   -1.000
 4827.00    1.56280   1.64638   -1.000
 4828.00    1.55697   1.64643   -1.000
 4829.00    1.57450   1.64474   -1.000
 4830.00    1.59091   1.64335   -1.000
 4831.00    1.55290   1.64300   -1.000
 4832.00    1.55456   1.64371   -1.000
 4833.00    1.56870   1.64536   -1.000
 4834.00    1.58676   1.64734   -1.000
 4835.00    1.55329   1.64883   -1.000
 4836.00    1.56488   1.64949   -1.000
 4837.00    1.57477   1.64929   -1.000
 4838.00    1.54345   1.64798   -1.000
 4839.00    1.57612   1.64586   -1.000
 4840.00    1.55708   1.64405   -1.000
 4841.00    1.54247   1.64292   -1.000
 4842.00    1.54331   1.64185   -1.000
 4843.00    1.56562   1.64086   -1.000
 4844.00    1.57141   1.64069   -1.000
 4845.00    1.54156   1.64092   -1.000
 4846.00    1.55468   1.63935   -1.000
 4847.00    1.53686   1.63461   -1.000
 4848.00    1.53621   1.62852   -1.000
 4849.00    1.53798   1.62374   -1.000
 4850.00    1.53699   1.62024   -1.000
 4851.00    1.52114   1.61544   -1.000
 4852.00    1.52749   1.60604   -1.000
 4853.00    1.52490   1.58949   -1.000
 4854.00    1.49236   1.56633   -1.000
 4855.00    1.43327   1.54016   -1.000
 4856.00    1.41661   1.51103   -1.000
 4857.00    1.43477   1.46933   -1.000
 4858.00    1.39015   1.40136  132.864
 4859.00    1.27892   1.30744   -1.000
 4860.00    1.13602   1.21626   -1.000
 4861.00    1.05293   1.17252   -1.000
 4862.00    1.09445   1.20141   -1.000
 4863.00    1.20840   1.28613   -1.000
 4864.00    1.31186   1.38441   -1.000
 4865.00    1.38439   1.46413   -1.000
 4866.00    1.43818   1.51810   -1.000
 4867.00    1.46320   1.55280   -1.000
 4868.00    1.46988   1.57300   -1.000
 4869.00    1.46762   1.57941   -1.000
 4870.00    1.46122   1.57526   -1.000
 4871.00    1.44290   1.56987   -1.000
 4872.00    1.42568   1.57314   -1.000
 4873.00    1.46893   1.58726   -1.000
 4874.00    1.51159   1.60572   -1.000
 4875.00    1.51258   1.62084   -1.000
 4876.00    1.50003   1.63056   -1.000
 4877.00    1.50197   1.63832   -1.000
 4878.00    1.50952   1.64818   -1.000
 4879.00    1.51847   1.66010   -1.000
 4880.00    1.51871   1.66943   -1.000
 4881.00    1.53291   1.67191   -1.000
 4882.00    1.52357   1.66880   -1.000
 4883.00    1.54669   1.66510   -1.000
 4884.00    1.53298   1.66401   -1.000
 4885.00    1.51705   1.66536   -1.000
 4886.00    1.51726   1.66709   -1.000
 4887.00    1.54420   1.66656   -1.000
 4888.00    1.54317   1.66163   -1.000
 4889.00    1.55641   1.65312   -1.000
 4890.00    1.52256   1.64655   -1.000
 4891.00    1.49691   1.64975   -1.000
 4892.00    1.52459   1.66613   -1.000
 4893.00    1.57293   1.69055   -1.000
 4894.00    1.61137   1.71400   -1.000
 4895.00    1.62479   1.73058   -1.000
 4896.00    1.60962   1.73903   -1.000
 4897.00    1.61478   1.74031   -1.000
 4898.00    1.62587   1.73590   -1.000
 4899.00    1.61593   1.72838   -1.000
 4900.00    1.59749   1.72120   -1.000
 4901.00    1.60364   1.71654   -1.000
 4902.00    1.60333   1.71443   -1.000
 4903.00    1.60239   1.71544   -1.000
 4904.00    1.61953   1.72125   -1.000
 4905.00    1.64886   1.73055   -1.000
 4906.00    1.65290   1.73766   -1.000
 4907.00    1.64397   1.73784   -1.000
 4908.00    1.65295   1.73157   -1.000
 4909.00    1.62942   1.72281   -1.000
 4910.00    1.58954   1.71601   -1.000
 4911.00    1.58235   1.71449   -1.000
 4912.00    1.61875   1.71878   -1.000
 4913.00    1.64122   1.72641   -1.000
 4914.00    1.64121   1.73328   -1.000
 4915.00    1.65217   1.73466   -1.000
 4916.00    1.65681   1.72603   -1.000
 4917.00    1.63361   1.70567   -1.000
 4918.00    1.59642   1.67775   -1.000
 4919.00    1.56518   1.65190   -1.000
 4920.00    1.52575   1.63790   -1.000
 4921.00    1.53452   1.63870   -1.000
 4922.00    1.57974   1.64883   -1.000
 4923.00    1.61110   1.66125   -1.000
 4924.00    1.59372   1.67482   -1.000
 4925.00    1.61984   1.69218   -1.000
 4926.00    1.63359   1.71289   -1.000
 4927.00    1.64910   1.73256   -1.000
 4928.00    1.67259   1.74730   -1.000
 4929.00    1.66331   1.75531   -1.000
 4930.00    1.67049   1.75497   -1.000
 4931.00    1.66504   1.74491   -1.000
 4932.00    1.65343   1.72722   -1.000
 4933.00    1.61368   1.70939   -1.000
 4934.00    1.59545   1.69995   -1.000
 4935.00    1.60281   1.70009   -1.000
 4936.00    1.64663   1.70236   -1.000
 4937.00    1.64492   1.70015   -1.000
 4938.00    1.61389   1.69603   -1.000
 4939.00    1.59314   1.69845   -1.000
 4940.00    1.62153   1.71211   -1.000
 4941.00    1.66157   1.73327   -1.000
 4942.00    1.66638   1.75346   -1.000
 4943.00    1.68162   1.76628   -1.000
 4944.00    1.69626   1.77095   -1.000
 4945.00    1.67293   1.77098   -1.000
 4946.00    1.66976   1.77091   -1.000
 4947.00    1.67979   1.77346   -1.000
 4948.00    1.67741   1.77822   -1.000
 4949.00    1.69370   1.78268   -1.000
 4950.00    1.68950   1.78469   -1.000
 4951.00    1.70388   1.78389   -1.000
 4952.00    1.70099   1.78078   -1.000
 4953.00    1.69451   1.77434   -1.000
 4954.00    1.69815   1.76100   -1.000
 4955.00    1.67987   1.73806   -1.000
 4956.00    1.64150   1.71060   -1.000
 4957.00    1.60023   1.69269   -1.000
 4958.00    1.59689   1.69660   -1.000
 4959.00    1.61729   1.72043   -1.000
 4960.00    1.65494   1.75001   -1.000
 4961.00    1.69243   1.77203   -1.000
 4962.00    1.69330   1.78211   -1.000
 4963.00    1.69743   1.78230   -1.000
 4964.00    1.69564   1.77617   -1.000
 4965.00    1.67900   1.76761   -1.000
 4966.00    1.66436   1.76081   -1.000
 4967.00    1.65552   1.75840   -1.000
 4968.00    1.67840   1.76056   -1.000
 4969.00    1.68841   1.76618   -1.000
 4970.00    1.67112   1.77393   -1.000
 4971.00    1.67148   1.78202   -1.000
 4972.00    1.67302   1.78856   -1.000
 4973.00    1.67725   1.79222   -1.000
 4974.00    1.69533   1.79259   -1.000
 4975.00    1.69819   1.79026   -1.000
 4976.00    1.69002   1.78625   -1.000
 4977.00    1.68406   1.78122   -1.000
 4978.00    1.69900   1.77470   -1.000
 4979.00    1.68022   1.76457   -1.000
 4980.00    1.66781   1.74884   -1.000
 4981.00    1.65663   1.72939   -1.000
 4982.00    1.61399   1.71286   -1.000
 4983.00    1.61957   1.70647   -1.000
 4984.00    1.63167   1.71284   -1.000
 4985.00    1.63410   1.72900   -1.000
 4986.00    1.65302   1.74888   -1.000
 4987.00    1.67250   1.76567   -1.000
 4988.00    1.67831   1.77364   -1.000
 4989.00    1.68873   1.77166   -1.000
 4990.00    1.68167   1.76476   -1.000
 4991.00    1.68657   1.76023   -1.000
 4992.00    1.68414   1.76168   -1.000
 4993.00    1.67571   1.76808   -1.000
 4994.00    1.67492   1.77652   -1.000
 4995.00    1.68880   1.78393   -1.000
 4996.00    1.70425   1.78647   -1.000
 4997.00    1.69757   1.78045   -1.000
 4998.00    1.69000   1.76595   -1.000
 4999.00    1.68568   1.74924   -1.000
 5000.00    1.66727   1.73936   -1.000
 5001.00    1.66217   1.74008   -1.000
 5002.00    1.68365   1.74637   -1.000
 5003.00    1.68691   1.74924   -1.000
 5004.00    1.68105   1.74381   -1.000
 5005.00    1.66612   1.73331   -1.000
 5006.00    1.65192   1.72714   -1.000
 5007.00    1.67476   1.73212   -1.000
 5008.00    1.69886   1.74502   -1.000
 5009.00    1.71387   1.75554   -1.000
 5010.00    1.71361   1.75571   -1.000
 5011.00    1.69250   1.74550   -1.000
 5012.00    1.67118   1.73121   -1.000
 5013.00    1.64358   1.72077   -1.000
 5014.00    1.63106   1.71846   -1.000
 5015.00    1.64298   1.72203   -1.000
 5016.00    1.67363   1.72558   -1.000
 5017.00    1.67660   1.72641   -1.000
 5018.00    1.69045   1.72848   -1.000
 5019.00    1.69082   1.73675   -1.000
 5020.00    1.67822   1.75015   -1.000
 5021.00    1.69338   1.76342   -1.000
 5022.00    1.70125   1.77407   -1.000
 5023.00    1.69798   1.78362   -1.000
 5024.00    1.70899   1.79271   -1.000
 5025.00    1.71354   1.79919   -1.000
 5026.00    1.70272   1.80146   -1.000
 5027.00    1.70541   1.80130   -1.000
 5028.00    1.71903   1.80207   -1.000
 5029.00    1.73155   1.80545   -1.000
 5030.00    1.74661   1.81104   -1.000
 5031.00    1.73541   1.81730   -1.000
 5032.00    1.74358   1.82126   -1.000
 5033.00    1.74975   1.81922   -1.000
 5034.00    1.72630   1.81027   -1.000
 5035.00    1.72448   1.79833   -1.000
 5036.00    1.71541   1.78834   -1.000
 5037.00    1.71268   1.78008   -1.000
 5038.00    1.70573   1.76836   -1.000
 5039.00    1.68109   1.75091   -1.000
 5040.00    1.62332   1.73465   -1.000
 5041.00    1.60513   1.73131   -1.000
 5042.00    1.65044   1.74668   -1.000
 5043.00    1.64401   1.77550   -1.000
 5044.00    0.59947   1.80648   -1.000
 5045.00   -0.06576   1.82993    0.000
 5046.00    0.02205   1.84045   -1.000
 5047.00    0.46536   1.83685   -1.000
 5048.00    1.37601   1.82238   -1.000
 5049.00    1.77721   1.80427  105.398
 5050.00    1.68983   1.79104   -1.000
 5051.00    1.70309   1.78909   -1.000
 5052.00    1.73318   1.80000   -1.000
 5053.00    1.76276   1.81942   -1.000
 5054.00    1.78553   1.83939   -1.000
 5055.00    1.77816   1.85377   -1.000
 5056.00    1.78488   1.86148   -1.000
 5057.00    1.80242   1.86508   -1.000
 5058.00    1.78283   1.86725   -1.000
 5059.00    1.78056   1.86928   -1.000
 5060.00    1.78967   1.87074   -1.000
 5061.00    1.78516   1.86946   -1.000
 5062.00    1.79330   1.86280   -1.000
 5063.00    1.77159   1.85049   -1.000
 5064.00    1.73906   1.83670   -1.000
 5065.00    1.72060   1.82728   -1.000
 5066.00    1.74491   1.82471   -1.000
 5067.00    1.77161   1.82679   -1.000
 5068.00    1.79153   1.83031   -1.000
 5069.00    1.79190   1.83380   -1.000
 5070.00    1.77690   1.83641   -1.000
 5071.00    1.77931   1.83691   -1.000
 5072.00    1.77761   1.83523   -1.000
 5073.00    1.77973   1.83311   -1.000
 5074.00    1.78269   1.83203   -1.000
 5075.00    1.77529   1.83095   -1.000
 5076.00    1.77191   1.82666   -1.000
 5077.00    1.78611   1.81655   -1.000
 5078.00    1.75265   1.80225   -1.000
 5079.00    1.71858   1.79026   -1.000
 5080.00    1.70773   1.78682   -1.000
 5081.00    1.72114   1.79228   -1.000
 5082.00    1.75860   1.80249   -1.000
 5083.00    1.75873   1.81467   -1.000
 5084.00    1.77176   1.82850   -1.000
 5085.00    1.79226   1.84241   -1.000
 5086.00    1.80371   1.85325   -1.000
 5087.00    1.81899   1.85977   -1.000
 5088.00    1.83164   1.86383   -1.000
 5089.00    1.83704   1.86773   -1.000
 5090.00    1.82531   1.87235   -1.000
 5091.00    1.88629   1.87775   97.216
 5092.00    1.88234   1.88349   98.341
 5093.00    1.81592   1.88780   -1.000
 5094.00    1.82293   1.88765   -1.000
 5095.00    1.82050   1.88095   -1.000
 5096.00    1.81609   1.86852   -1.000
 5097.00    1.81025   1.85442   -1.000
 5098.00    1.78448   1.84474   -1.000
 5099.00    1.76769   1.84438   -1.000
 5100.00    1.76224   1.85327   -1.000
 5101.00    1.79433   1.86590   -1.000
 5102.00    1.83382   1.87539   -1.000
 5103.00    1.82966   1.87815   -1.000
 5104.00    1.80448   1.87381   -1.000
 5105.00    1.79548   1.86335   -1.000
 5106.00    1.78882   1.84942   -1.000
 5107.00    1.77257   1.83708   -1.000
 5108.00    1.77405   1.83135   -1.000
 5109.00    1.78168   1.83431   -1.000
 5110.00    1.79948   1.84488   -1.000
 5111.00    1.82546   1.86045   -1.000
 5112.00    1.84424   1.87711   -1.000
 5113.00    1.83110   1.89096   -1.000
 5114.00    1.82580   1.90049   -1.000
 5115.00    1.84117   1.90697   -1.000
 5116.00    1.83942   1.91197   -1.000
 5117.00    1.85144   1.91533   -1.000
 5118.00    1.87100   1.91551   -1.000
 5119.00    1.85884   1.91116   -1.000
 5120.00    1.83537   1.90195   -1.000
 5121.00    1.82333   1.88876   -1.000
 5122.00    1.82150   1.87402   -1.000
 5123.00    1.82109   1.86163   -1.000
 5124.00    1.80310   1.85484   -1.000
 5125.00    1.80998   1.85353   -1.000
 5126.00    1.81285   1.85449   -1.000
 5127.00    1.82018   1.85520   -1.000
 5128.00    1.78858   1.85638   -1.000
 5129.00    1.79044   1.86029   -1.000
 5130.00    1.80382   1.86768   -1.000
 5131.00    1.82645   1.87699   -1.000
 5132.00    1.84087   1.88588   -1.000
 5133.00    1.84008   1.89254   -1.000
 5134.00    1.85752   1.89562   -1.000
 5135.00    1.85637   1.89348   -1.000
 5136.00    1.82199   1.88528   -1.000
 5137.00    1.80882   1.87298   -1.000
 5138.00    1.80883   1.86154   -1.000
 5139.00    1.80163   1.85573   -1.000
 5140.00    1.79558   1.85635   -1.000
 5141.00    1.78677   1.86060   -1.000
 5142.00    1.78707   1.86622   -1.000
 5143.00    1.80842   1.87323   -1.000
 5144.00    1.84283   1.88122   -1.000
 5145.00    1.85413   1.88758   -1.000
 5146.00    1.86301   1.89019  105.277
 5147.00    1.85699   1.88966   -1.000
 5148.00    1.84413   1.88714   -1.000
 5149.00    1.83496   1.88222   -1.000
 5150.00    1.83841   1.87495   -1.000
 5151.00    1.82070   1.86819   -1.000
 5152.00    1.82113   1.86607   -1.000
 5153.00    1.82426   1.87085   -1.000
 5154.00    1.84643   1.88192   -1.000
 5155.00    1.87481   1.89706   98.748
 5156.00    1.91249   1.91329   98.195
 5157.00    1.90474   1.92703   98.271
 5158.00    1.89953   1.93568   -1.000
 5159.00    1.89489   1.93856   -1.000
 5160.00    1.90287   1.93634   -1.000
 5161.00    1.89000   1.92992   -1.000
 5162.00    1.90844   1.91879  107.359
 5163.00    1.89753   1.89874  116.885
 5164.00    1.86673   1.86298  128.516
 5165.00    1.81157   1.80963  134.854
 5166.00    1.73511   1.75036  130.659
 5167.00    1.68252   1.70702  123.984
 5168.00    1.66641   1.69418  124.269
 5169.00    1.72293   1.70428  132.858
 5170.00    1.76257   1.71544   -1.000
 5171.00    1.75241   1.71657   -1.000
 5172.00    1.69423   1.71974  116.976
 5173.00    1.70168   1.74493   -1.000
 5174.00    1.78635   1.79490  105.135
 5175.00    1.86544   1.85170  104.235
 5176.00    1.90950   1.89539  104.297
 5177.00    1.92511   1.91897  105.872
 5178.00    1.93744   1.92524  110.429
 5179.00    1.93231   1.91551  119.497
 5180.00    1.91626   1.88684   -1.000
 5181.00    1.88774   1.83961   -1.000
 5182.00    1.81119   1.78671   -1.000
 5183.00    1.71069   1.75245   -1.000
 5184.00    1.69600   1.75585   -1.000
 5185.00    1.78264   1.79303  105.009
 5186.00    1.86245   1.84020  104.282
 5187.00    1.91531   1.87447   -1.000
 5188.00    1.90739   1.88939  105.785
 5189.00    1.87964   1.88986  109.184
 5190.00    1.88216   1.88176  111.425
 5191.00    1.85834   1.87034  110.180
 5192.00    1.83303   1.86211  108.286
 5193.00    1.81612   1.86219   -1.000
 5194.00    1.82210   1.87033   -1.000
 5195.00    1.86658   1.88253  102.946
 5196.00    1.89786   1.89570  101.395
 5197.00    1.90892   1.90872  100.751
 5198.00    1.89905   1.92056  100.867
 5199.00    1.91645   1.92917  101.930
 5200.00    1.93455   1.93161  103.929
 5201.00    1.92257   1.92511  106.511
 5202.00    1.91852   1.90881  109.908
 5203.00    1.91159   1.88543   -1.000
 5204.00    1.88059   1.86139  112.984
 5205.00    1.82479   1.84378  113.620
 5206.00    1.82868   1.83601  113.830
 5207.00    1.85196   1.83680  111.621
 5208.00    1.85873   1.84457  107.700
 5209.00    1.85394   1.86051  103.346
 5210.00    1.87983   1.88514   99.703
 5211.00    1.92511   1.91319   98.372
 5212.00    1.94733   1.93507   99.876
 5213.00    1.95339   1.94387  102.074
 5214.00    1.95301   1.94010  102.820
 5215.00    1.92945   1.93132  101.571
 5216.00    1.90339   1.92767   99.444
 5217.00    1.90456   1.93474   -1.000
 5218.00    1.94921   1.95045   97.484
 5219.00    1.97824   1.96782   97.452
 5220.00    1.98957   1.98047   99.158
 5221.00    2.00942   1.98475  102.503
 5222.00    2.01730   1.97811   -1.000
 5223.00    2.00284   1.95845   -1.000
 5224.00    1.97399   1.92687   -1.000
 5225.00    1.90951   1.89181  109.801
 5226.00    1.83964   1.86806  103.851
 5227.00    1.84780   1.86782  100.203
 5228.00    1.89591   1.88990   98.883
 5229.00    1.93543   1.91918   99.265
 5230.00    1.96844   1.93850  101.345
 5231.00    1.96332   1.94129  102.699
 5232.00    1.94396   1.93380  101.897
 5233.00    1.94198   1.92828   99.429
 5234.00    1.94142   1.93357   97.324
 5235.00    1.95026   1.94993   96.514
 5236.00    1.99330   1.97024   96.562
 5237.00    2.00369   1.98673   96.785
 5238.00    1.99917   1.99615   96.498
 5239.00    2.00397   1.99983   96.063
 5240.00    2.01450   2.00076   96.175
 5241.00    2.00830   2.00108   95.965
 5242.00    2.00171   2.00166   96.268
 5243.00    2.00370   2.00210   98.562
 5244.00    1.99123   2.00040  101.545
 5245.00    2.00592   1.99417  103.395
 5246.00    1.98403   1.98343  103.528
 5247.00    1.96401   1.97163  103.828
 5248.00    1.96459   1.96280  104.263
 5249.00    1.95794   1.95850  103.486
 5250.00    1.94553   1.95830  102.091
 5251.00    1.93920   1.96140  101.336
 5252.00    1.96129   1.96650  101.239
 5253.00    1.98517   1.97197  100.088
 5254.00    1.99353   1.97805   97.574
 5255.00    2.00044   1.98676   95.322
 5256.00    2.01298   1.99845   94.969
 5257.00    2.03700   2.00962   96.337
 5258.00    2.05186   2.01427   -1.000
 5259.00    2.04588   2.00767   -1.000
 5260.00    2.02350   1.98910   -1.000
 5261.00    1.98652   1.96196  111.841
 5262.00    1.95288   1.93241  113.607
 5263.00    1.91759   1.90703  113.276
 5264.00    1.89103   1.89025  111.168
 5265.00    1.88093   1.88268  110.190
 5266.00    1.89166   1.87957  113.308
 5267.00    1.90697   1.87315   -1.000
 5268.00    1.89286   1.86077   -1.000
 5269.00    1.85962   1.85093  106.401
 5270.00    1.85233   1.85730  102.764
 5271.00    1.89141   1.88348  102.152
 5272.00    1.92974   1.91763  102.189
 5273.00    1.95874   1.94469  101.519
 5274.00    1.98159   1.96068   99.101
 5275.00    1.99267   1.97253   95.998
 5276.00    2.00510   1.98701   94.854
 5277.00    2.02126   2.00370   95.957
 5278.00    2.07028   2.01610   -1.000
 5279.00    2.08214   2.01782   -1.000
 5280.00    2.05862   2.00829   -1.000
 5281.00    2.03784   1.99338   -1.000
 5282.00    1.95481   1.98175   99.630
 5283.00    1.87393   1.98055   -1.000
 5284.00    2.00392   1.99239   94.016
 5285.00    2.04096   2.01344   93.723
 5286.00    2.07687   2.03565   -1.000
 5287.00    2.10400   2.05215   -1.000
 5288.00    2.08131   2.06102   93.487
 5289.00    2.09005   2.06418   93.491
 5290.00    2.09294   2.06393   94.165
 5291.00    2.07723   2.06185   95.162
 5292.00    2.07270   2.05884   96.767
 5293.00    2.06394   2.05401   99.739
 5294.00    2.06298   2.04494  103.368
 5295.00    2.04756   2.03047  105.227
 5296.00    2.01724   2.01342  103.874
 5297.00    1.99611   2.00020  101.306
 5298.00    1.98995   1.99628   99.772
 5299.00    2.01412   2.00194   99.053
 5300.00    2.05879   2.01287   -1.000
 5301.00    2.04668   2.02473   94.927
 5302.00    2.04291   2.03630   93.606
 5303.00    2.06137   2.04742   93.732
 5304.00    2.08338   2.05631   94.688
 5305.00    2.09848   2.06087   95.139
 5306.00    2.09418   2.06152   94.339
 5307.00    2.08635   2.06158   93.428
 5308.00    2.09372   2.06407   93.027
 5309.00    2.11475   2.06896   -1.000
 5310.00    2.11558   2.07375   -1.000
 5311.00    2.12174   2.07570   -1.000
 5312.00    2.13406   2.07352   -1.000
 5313.00    2.12557   2.06713   -1.000
 5314.00    2.11673   2.05729   -1.000
 5315.00    2.08652   2.04687   -1.000
 5316.00    2.06043   2.04054   95.700
 5317.00    2.05383   2.04169   95.506
 5318.00    2.06900   2.04919   95.984
 5319.00    2.09442   2.05745   96.793
 5320.00    2.10096   2.06029   -1.000
 5321.00    2.10067   2.05486   -1.000
 5322.00    2.10952   2.04262   -1.000
 5323.00    2.09109   2.02733   -1.000
 5324.00    2.07640   2.01096   -1.000
 5325.00    2.05702   1.99142   -1.000
 5326.00    2.05208   1.96666   -1.000
 5327.00    2.01341   1.94310   -1.000
 5328.00    1.95395   1.93514  101.022
 5329.00    1.96868   1.95171   98.512
 5330.00    2.04265   1.98581   -1.000
 5331.00    2.09030   2.02013   -1.000
 5332.00    2.08930   2.04284   -1.000
 5333.00    2.08492   2.05383   95.571
 5334.00    2.10073   2.05769   -1.000
 5335.00    2.12404   2.05744   -1.000
 5336.00    2.13463   2.05397   -1.000
 5337.00    2.11982   2.04729   -1.000
 5338.00    2.12066   2.03775   -1.000
 5339.00    2.08422   2.02804   -1.000
 5340.00    2.06871   2.02345   -1.000
 5341.00    2.07139   2.02809   -1.000
 5342.00    2.07781   2.04017   -1.000
 5343.00    2.10524   2.05238   -1.000
 5344.00    2.12543   2.05827   -1.000
 5345.00    2.11606   2.05711   -1.000
 5346.00    2.10438   2.05218   -1.000
 5347.00    2.10063   2.04746   -1.000
 5348.00    2.09455   2.04615   -1.000
 5349.00    2.09918   2.05005   -1.000
 5350.00    2.11418   2.05919   -1.000
 5351.00    2.14464   2.07111   -1.000
 5352.00    2.15382   2.08231   -1.000
 5353.00    2.14006   2.09133   -1.000
 5354.00    2.13725   2.09887   91.521
 5355.00    2.14583   2.10580   -1.000
 5356.00    2.16889   2.11165   -1.000
 5357.00    2.16869   2.11515   -1.000
 5358.00    2.16975   2.11561   -1.000
 5359.00    2.16354   2.11279   -1.000
 5360.00    2.13859   2.10666   96.402
 5361.00    2.12400   2.09775   97.003
 5362.00    2.12232   2.08747   97.568
 5363.00    2.10968   2.07788   97.909
 5364.00    2.10178   2.07110   97.635
 5365.00    2.08685   2.06797   97.931
 5366.00    2.10707   2.06652   -1.000
 5367.00    2.11475   2.06210   -1.000
 5368.00    2.11279   2.05063   -1.000
 5369.00    2.08819   2.03325   -1.000
 5370.00    2.06478   2.01826   -1.000
 5371.00    2.04732   2.01612   95.101
 5372.00    2.08143   2.03138   -1.000
 5373.00    2.13718   2.05823   -1.000
 5374.00    2.14947   2.08491   -1.000
 5375.00    2.16244   2.10333   -1.000
 5376.00    2.19254   2.11263   -1.000
 5377.00    2.19714   2.11578   -1.000
 5378.00    2.18214   2.11499   -1.000
 5379.00    2.15913   2.11072   -1.000
 5380.00    2.14410   2.10397   -1.000
 5381.00    2.14288   2.09716   -1.000
 5382.00    2.12696   2.09334   95.523
 5383.00    2.13496   2.09466   -1.000
 5384.00    2.15246   2.10109   -1.000
 5385.00    2.16358   2.11013   -1.000
 5386.00    2.17789   2.11774   -1.000
 5387.00    2.18761   2.12029   -1.000
 5388.00    2.18926   2.11676   -1.000
 5389.00    2.18423   2.10884   -1.000
 5390.00    2.17647   2.09928   -1.000
 5391.00    2.17773   2.09045   -1.000
 5392.00    2.16110   2.08304   -1.000
 5393.00    2.13026   2.07580   -1.000
 5394.00    2.12588   2.06647   -1.000
 5395.00    2.12635   2.05481   -1.000
 5396.00    2.10256   2.04501   -1.000
 5397.00    2.09248   2.04394   -1.000
 5398.00    2.11867   2.05486   -1.000
 5399.00    2.14102   2.07259   -1.000
 5400.00    2.15255   2.08713   -1.000
 5401.00    2.16042   2.09054   -1.000
 5402.00    2.16824   2.08034   -1.000
 5403.00    2.14496   2.06010   -1.000
 5404.00    2.09170   2.03907   -1.000
 5405.00    2.07727   2.02788   -1.000
 5406.00    2.09666   2.03095   -1.000
 5407.00    2.12170   2.04280   -1.000
 5408.00    2.13991   2.05411   -1.000
 5409.00    2.13737   2.06167   -1.000
 5410.00    2.13009   2.06914   -1.000
 5411.00    2.13430   2.08001   -1.000
 5412.00    2.16693   2.09218   -1.000
 5413.00    2.18219   2.10105   -1.000
 5414.00    2.17580   2.10624   -1.000
 5415.00    2.15620   2.11089   -1.000
 5416.00    2.16400   2.11699   -1.000
 5417.00    2.18331   2.12366   -1.000
 5418.00    2.18506   2.12862   -1.000
 5419.00    2.17665   2.13073   -1.000
 5420.00    2.19093   2.13000   -1.000
 5421.00    2.20483   2.12637   -1.000
 5422.00    2.19381   2.12072   -1.000
 5423.00    2.17926   2.11596   -1.000
 5424.00    2.16222   2.11530   -1.000
 5425.00    2.16920   2.11897   -1.000
 5426.00    2.17452   2.12188   -1.000
 5427.00    2.18270   2.11781   -1.000
 5428.00    2.18265   2.10647   -1.000
 5429.00    2.14644   2.09476   -1.000
 5430.00    2.12649   2.08968   -1.000
 5431.00    2.14179   2.09011   -1.000
 5432.00    2.16931   2.08960   -1.000
 5433.00    2.16914   2.08603   -1.000
 5434.00    2.13182   2.08461   -1.000
 5435.00    2.11796   2.09237   96.412
 5436.00    2.14497   2.11002   -1.000
 5437.00    2.18759   2.13139   -1.000
 5438.00    2.22242   2.14982   -1.000
 5439.00    2.23554   2.16220   -1.000
 5440.00    2.23556   2.16901   -1.000
 5441.00    2.23477   2.17092   -1.000
 5442.00    2.22866   2.16629   -1.000
 5443.00    2.20768   2.15236   -1.000
 5444.00    2.19557   2.12926   -1.000
 5445.00    2.15831   2.10359   -1.000
 5446.00    2.11050   2.08662   98.536
 5447.00    2.12333   2.08716   -1.000
 5448.00    2.15178   2.10414   -1.000
 5449.00    2.21063   2.12734   -1.000
 5450.00    2.24501   2.14511   -1.000
 5451.00    2.24387   2.15066   -1.000
 5452.00    2.21954   2.14292   -1.000
 5453.00    2.20452   2.12558   -1.000
 5454.00    2.18983   2.10700   -1.000
 5455.00    2.14481   2.09816   -1.000
 5456.00    2.14527   2.10605   -1.000
 5457.00    2.19385   2.12723   -1.000
 5458.00    2.23996   2.15025   -1.000
 5459.00    2.25815   2.16432   -1.000
 5460.00    2.25376   2.16638   -1.000
 5461.00    2.24716   2.16030   -1.000
 5462.00    2.21955   2.15256   -1.000
 5463.00    2.20341   2.14877   -1.000
 5464.00    2.21768   2.15127   -1.000
 5465.00    2.22836   2.15828   -1.000
 5466.00    2.23148   2.16620   -1.000
 5467.00    2.23909   2.17268   -1.000
 5468.00    2.24701   2.17697   -1.000
 5469.00    2.26466   2.17862   -1.000
 5470.00    2.28515   2.17724   -1.000
 5471.00    2.27954   2.17268   -1.000
 5472.00    2.26875   2.16501   -1.000
 5473.00    2.26100   2.15386   -1.000
 5474.00    2.23853   2.13934   -1.000
 5475.00    2.21381   2.12478   -1.000
 5476.00    2.17930   2.11694   -1.000
 5477.00    2.17503   2.12065   -1.000
 5478.00    2.20514   2.13397   -1.000
 5479.00    2.21325   2.14872   -1.000
 5480.00    2.21311   2.15803   -1.000
 5481.00    2.22199   2.16225   -1.000
 5482.00    2.21239   2.16606   -1.000
 5483.00    2.20294   2.17237   96.648
 5484.00    2.20986   2.17972   97.865
 5485.00    2.21545   2.18448   99.014
 5486.00    2.22102   2.18474   -1.000
 5487.00    2.22666   2.18182   -1.000
 5488.00    2.24412   2.17893   -1.000
 5489.00    2.26250   2.17848   -1.000
 5490.00    2.27288   2.18095   -1.000
 5491.00    2.25398   2.18486   -1.000
 5492.00    2.24854   2.18791   -1.000
 5493.00    2.25938   2.18806   -1.000
 5494.00    2.27503   2.18424   -1.000
 5495.00    2.27036   2.17703   -1.000
 5496.00    2.26037   2.16926   -1.000
 5497.00    2.25407   2.16423   -1.000
 5498.00    2.25277   2.16287   -1.000
 5499.00    2.25394   2.16275   -1.000
 5500.00    2.27378   2.16103   -1.000
 5501.00    2.25894   2.15878   -1.000
 5502.00    2.22689   2.15867   -1.000
 5503.00    2.21936   2.16012   -1.000
 5504.00    2.25371   2.15969   -1.000
 5505.00    2.23623   2.15598   -1.000
 5506.00    2.21284   2.15313   -1.000
 5507.00    2.22428   2.15621   -1.000
 5508.00    2.24927   2.16458   -1.000
 5509.00    2.26018   2.17278   -1.000
 5510.00    2.27208   2.17533   -1.000
 5511.00    2.25940   2.17194   -1.000
 5512.00    2.25027   2.16692   -1.000
 5513.00    2.24418   2.16484   -1.000
 5514.00    2.24377   2.16823   -1.000
 5515.00    2.27492   2.17691   -1.000
 5516.00    2.30842   2.18866   -1.000
 5517.00    2.30886   2.20034   -1.000
 5518.00    2.29682   2.20933   -1.000
 5519.00    2.30791   2.21447   -1.000
 5520.00    2.32031   2.21664   -1.000
 5521.00    2.31400   2.21727   -1.000
 5522.00    2.29860   2.21673   -1.000
 5523.00    2.29029   2.21309   -1.000
 5524.00    2.29686   2.20325   -1.000
 5525.00    2.27680   2.18660   -1.000
 5526.00    2.23447   2.16709   -1.000
 5527.00    2.21567   2.15315   -1.000
 5528.00    2.21415   2.15212   -1.000
 5529.00    2.22687   2.16447   -1.000
 5530.00    2.24760   2.18266   -1.000
 5531.00    2.26570   2.19678   -1.000
 5532.00    2.27236   2.20181   -1.000
 5533.00    2.27429   2.20018   -1.000
 5534.00    2.28145   2.19820   -1.000
 5535.00    2.26657   2.20026   -1.000
 5536.00    2.26176   2.20687   -1.000
 5537.00    2.29088   2.21532   -1.000
 5538.00    2.31179   2.22290   -1.000
 5539.00    2.30579   2.22834   -1.000
 5540.00    2.31684   2.23111   -1.000
 5541.00    2.31893   2.23109   -1.000
 5542.00    2.31149   2.22904   -1.000
 5543.00    2.30259   2.22669   -1.000
 5544.00    2.29885   2.22593   -1.000
 5545.00    2.29145   2.22756   -1.000
 5546.00    2.29105   2.23145   -1.000
 5547.00    2.30462   2.23688   -1.000
 5548.00    2.33824   2.24274   -1.000
 5549.00    2.35021   2.24733   -1.000
 5550.00    2.33903   2.24912   -1.000
 5551.00    2.33604   2.24827   -1.000
 5552.00    2.34240   2.24607   -1.000
 5553.00    2.34233   2.24406   -1.000
 5554.00    2.33166   2.24297   -1.000
 5555.00    2.32524   2.24313   -1.000
 5556.00    2.33056   2.24428   -1.000
 5557.00    2.34218   2.24603   -1.000
 5558.00    2.34418   2.24783   -1.000
 5559.00    2.34508   2.24881   -1.000
 5560.00    2.34625   2.24816   -1.000
 5561.00    2.34386   2.24559   -1.000
 5562.00    2.32551   2.24200   -1.000
 5563.00    2.30979   2.23875   -1.000
 5564.00    2.31679   2.23624   -1.000
 5565.00    2.32230   2.23385   -1.000
 5566.00    2.31862   2.23086   -1.000
 5567.00    2.32169   2.22732   -1.000
 5568.00    2.31989   2.22399   -1.000
 5569.00    2.29620   2.22080   -1.000
 5570.00    2.27308   2.21763   -1.000
 5571.00    2.23992   2.21512   98.832
 5572.00    2.10384   2.21453   -1.000
 5573.00    1.93155   2.21758   -1.000
 5574.00    2.10875   2.22375   -1.000
 5575.00    2.64720   2.23110   -1.000
 5576.00    2.91537   2.23819   -1.000
 5577.00    2.69596   2.24446   -1.000
 5578.00    2.41784   2.24955   -1.000
 5579.00    2.37178   2.25264   -1.000
 5580.00    2.38107   2.25354   -1.000
 5581.00    2.35360   2.25289   -1.000
 5582.00    2.33065   2.25117   -1.000
 5583.00    2.32858   2.24653   -1.000
 5584.00    2.35844   2.23589   -1.000
 5585.00    2.34186   2.21860   -1.000
 5586.00    2.29630   2.19888   -1.000
 5587.00    2.27105   2.18404   -1.000
 5588.00    2.26440   2.17957   -1.000
 5589.00    2.28205   2.18602   -1.000
 5590.00    2.29147   2.19864   -1.000
 5591.00    2.30173   2.21142   -1.000
 5592.00    2.32550   2.22020   -1.000
 5593.00    2.31980   2.22549   -1.000
 5594.00    2.30521   2.22994   -1.000
 5595.00    2.32724   2.23373   -1.000
 5596.00    2.34578   2.23493   -1.000
 5597.00    2.33665   2.23180   -1.000
 5598.00    2.32296   2.22558   -1.000
 5599.00    2.30591   2.21885   -1.000
 5600.00    2.31665   2.21392   -1.000
 5601.00    2.31563   2.21336   -1.000
 5602.00    2.29678   2.22042   -1.000
 5603.00    2.29635   2.23577   -1.000
 5604.00    2.32923   2.25545   -1.000
 5605.00    2.36593   2.27383   -1.000
 5606.00    2.37013   2.28707   -1.000
 5607.00    2.37203   2.29478   -1.000
 5608.00    2.38673   2.29888   -1.000
 5609.00    2.39631   2.30090   -1.000
 5610.00    2.39487   2.30044   -1.000
 5611.00    2.38839   2.29512   -1.000
 5612.00    2.38517   2.28247   -1.000
 5613.00    2.37576   2.26371   -1.000
 5614.00    2.34357   2.24597   -1.000
 5615.00    2.30629   2.23749   -1.000
 5616.00    2.31048   2.24246   -1.000
 5617.00    2.34548   2.25626   -1.000
 5618.00    2.35933   2.27082   -1.000
 5619.00    2.37072   2.28069   -1.000
 5620.00    2.39161   2.28516   -1.000
 5621.00    2.39665   2.28533   -1.000
 5622.00    2.39369   2.28233   -1.000
 5623.00    2.37855   2.27789   -1.000
 5624.00    2.36583   2.27509   -1.000
 5625.00    2.37110   2.27638   -1.000
 5626.00    2.38917   2.28174   -1.000
 5627.00    2.40684   2.28920   -1.000
 5628.00    2.40008   2.29621   -1.000
 5629.00    2.39814   2.30153   -1.000
 5630.00    2.41949   2.30449   -1.000
 5631.00    2.43156   2.30502   -1.000
 5632.00    2.40443   2.30395   -1.000
 5633.00    2.38903   2.30195   -1.000
 5634.00    2.39668   2.29928   -1.000
 5635.00    2.42365   2.29590   -1.000
 5636.00    2.41713   2.29217   -1.000
 5637.00    2.39636   2.28902   -1.000
 5638.00    2.38269   2.28692   -1.000
 5639.00    2.37964   2.28559   -1.000
 5640.00    2.39669   2.28497   -1.000
 5641.00    2.40418   2.28568   -1.000
 5642.00    2.38977   2.28802   -1.000
 5643.00    2.39461   2.29142   -1.000
 5644.00    2.41238   2.29463   -1.000
 5645.00    2.41962   2.29686   -1.000
 5646.00    2.41869   2.29836   -1.000
 5647.00    2.42807   2.29947   -1.000
 5648.00    2.42782   2.30053   -1.000
 5649.00    2.41967   2.30196   -1.000
 5650.00    2.42912   2.30380   -1.000
 5651.00    2.44113   2.30574   -1.000
 5652.00    2.44175   2.30665   -1.000
 5653.00    2.43791   2.30473   -1.000
 5654.00    2.43913   2.29790   -1.000
 5655.00    2.42240   2.28487   -1.000
 5656.00    2.39637   2.26818   -1.000
 5657.00    2.36919   2.25391   -1.000
 5658.00    2.33730   2.24848   -1.000
 5659.00    2.34185   2.25318   -1.000
 5660.00    2.38580   2.26319   -1.000
 5661.00    2.40878   2.27412   -1.000
 5662.00    2.40816   2.28453   -1.000
 5663.00    2.40157   2.29454   -1.000
 5664.00    2.40150   2.30228   -1.000
 5665.00    2.41676   2.30444   -1.000
 5666.00    2.41541   2.30120   -1.000
 5667.00    2.40672   2.29664   -1.000
 5668.00    2.39087   2.29508   -1.000
 5669.00    2.38028   2.29806   -1.000
 5670.00    2.40436   2.30409   -1.000
 5671.00    2.42430   2.31098   -1.000
 5672.00    2.43743   2.31703   -1.000
 5673.00    2.45185   2.32147   -1.000
 5674.00    2.45012   2.32437   -1.000
 5675.00    2.44921   2.32625   -1.000
 5676.00    2.45903   2.32745   -1.000
 5677.00    2.45824   2.32754   -1.000
 5678.00    2.46423   2.32569   -1.000
 5679.00    2.45825   2.32112   -1.000
 5680.00    2.45584   2.31395   -1.000
 5681.00    2.45231   2.30528   -1.000
 5682.00    2.43625   2.29778   -1.000
 5683.00    2.40512   2.29389   -1.000
 5684.00    2.38435   2.29439   -1.000
 5685.00    2.39905   2.29732   -1.000
 5686.00    2.40656   2.29999   -1.000
 5687.00    2.40379   2.30133   -1.000
 5688.00    2.41325   2.30268   -1.000
 5689.00    2.42759   2.30625   -1.000
 5690.00    2.44552   2.31273   -1.000
 5691.00    2.45500   2.32083   -1.000
 5692.00    2.46060   2.32817   -1.000
 5693.00    2.46491   2.33322   -1.000
 5694.00    2.46344   2.33569   -1.000
 5695.00    2.46030   2.33610   -1.000
 5696.00    2.45352   2.33455   -1.000
 5697.00    2.43351   2.33094   -1.000
 5698.00    2.42432   2.32551   -1.000
 5699.00    2.41533   2.31937   -1.000
 5700.00    2.39323   2.31456   -1.000
 5701.00    2.37297   2.31305   -1.000
 5702.00    2.36594   2.31499   -1.000
 5703.00    2.38760   2.31837   -1.000
 5704.00    2.40472   2.31996   -1.000
 5705.00    2.41653   2.31701   -1.000
 5706.00    2.43325   2.30913   -1.000
 5707.00    2.42484   2.29787   -1.000
 5708.00    2.39015   2.28672   -1.000
 5709.00    2.36541   2.27984   -1.000
 5710.00    2.35668   2.28047   -1.000
 5711.00    2.37531   2.28889   -1.000
 5712.00    2.42079   2.30227   -1.000
 5713.00    2.44287   2.31603   -1.000
 5714.00    2.44956   2.32729   -1.000
 5715.00    2.45027   2.33543   -1.000
 5716.00    2.44516   2.34157   -1.000
 5717.00    2.45328   2.34689   -1.000
 5718.00    2.45792   2.35169   -1.000
 5719.00    2.46646   2.35594   -1.000
 5720.00    2.47979   2.35926   -1.000
 5721.00    2.48541   2.36155   -1.000
 5722.00    2.47317   2.36270   -1.000
 5723.00    2.46706   2.36242   -1.000
 5724.00    2.48201   2.35998   -1.000
 5725.00    2.48423   2.35562   -1.000
 5726.00    2.46641   2.35092   -1.000
 5727.00    2.47629   2.34800   -1.000
 5728.00    2.48561   2.34784   -1.000
 5729.00    2.49362   2.34968   -1.000
 5730.00    2.48533   2.35239   -1.000
 5731.00    2.47185   2.35548   -1.000
 5732.00    2.46814   2.35941   -1.000
 5733.00    2.49021   2.36370   -1.000
 5734.00    2.50871   2.36772   -1.000
 5735.00    2.49645   2.37074   -1.000
 5736.00    2.49108   2.37234   -1.000
 5737.00    2.49969   2.37331   -1.000
 5738.00    2.50856   2.37376   -1.000
 5739.00    2.50270   2.37392   -1.000
 5740.00    2.50103   2.37379   -1.000
 5741.00    2.48837   2.37360   -1.000
 5742.00    2.48080   2.37385   -1.000
 5743.00    2.47912   2.37501   -1.000
 5744.00    2.47320   2.37659   -1.000
 5745.00    2.47807   2.37747   -1.000
 5746.00    2.48190   2.37723   -1.000
 5747.00    2.47860   2.37689   -1.000
 5748.00    2.48936   2.37710   -1.000
 5749.00    2.49855   2.37730   -1.000
 5750.00    2.50462   2.37561   -1.000
 5751.00    2.51390   2.37124   -1.000
 5752.00    2.50818   2.36641   -1.000
 5753.00    2.49031   2.36450   -1.000
 5754.00    2.47968   2.36792   -1.000
 5755.00    2.48097   2.37569   -1.000
 5756.00    2.49974   2.38483   -1.000
 5757.00    2.51946   2.39152   -1.000
 5758.00    2.51949   2.39374   -1.000
 5759.00    2.51403   2.39111   -1.000
 5760.00    2.51929   2.38563   -1.000
 5761.00    2.51898   2.38103   -1.000
 5762.00    2.50223   2.38094   -1.000
 5763.00    2.48996   2.38617   -1.000
 5764.00    2.49885   2.39404   -1.000
 5765.00    2.51943   2.40102   -1.000
 5766.00    2.53045   2.40467   -1.000
 5767.00    2.53025   2.40572   -1.000
 5768.00    2.52005   2.40531   -1.000
 5769.00    2.50741   2.40433   -1.000
 5770.00    2.49245   2.40292   -1.000
 5771.00    2.47662   2.40089   -1.000
 5772.00    2.46819   2.39814   -1.000
 5773.00    2.45933   2.39460   -1.000
 5774.00    2.45089   2.39116   -1.000
 5775.00    2.40456   2.38833   95.986
 5776.00    2.32968   2.38582   -1.000
 5777.00    2.29293   2.38265   -1.000
 5778.00    2.32195   2.37774   -1.000
 5779.00    2.36675   2.37174  101.052
 5780.00    2.41237   2.36604   -1.000
 5781.00    2.45741   2.36242   -1.000
 5782.00    2.49003   2.36164   -1.000
 5783.00    2.50100   2.36359   -1.000
 5784.00    2.48917   2.36724   -1.000
 5785.00    2.47898   2.37177   -1.000
 5786.00    2.48910   2.37656   -1.000
 5787.00    2.51452   2.38147   -1.000
 5788.00    2.53294   2.38575   -1.000
 5789.00    2.52923   2.38905   -1.000
 5790.00    2.49008   2.39186   -1.000
 5791.00    2.46432   2.39539   -1.000
 5792.00    2.46947   2.40061   -1.000
 5793.00    2.46139   2.40687   -1.000
 5794.00    2.46503   2.41197   -1.000
 5795.00    2.49869   2.41413   -1.000
 5796.00    2.51915   2.41361   -1.000
 5797.00    2.51501   2.41279   -1.000
 5798.00    2.53441   2.41399   -1.000
 5799.00    2.55788   2.41755   -1.000
 5800.00    2.56114   2.42188   -1.000
 5801.00    2.55904   2.42474   -1.000
 5802.00    2.55408   2.42531   -1.000
 5803.00    2.55434   2.42457   -1.000
 5804.00    2.55872   2.42387   -1.000
 5805.00    2.54838   2.42487   -1.000
 5806.00    2.54852   2.42735   -1.000
 5807.00    2.54318   2.43029   -1.000
 5808.00    2.54003   2.43282   -1.000
 5809.00    2.55205   2.43467   -1.000
 5810.00    2.54924   2.43624   -1.000
 5811.00    2.55435   2.43746   -1.000
 5812.00    2.57076   2.43755   -1.000
 5813.00    2.56599   2.43617   -1.000
 5814.00    2.55823   2.43396   -1.000
 5815.00    2.56696   2.43279   -1.000
 5816.00    2.57700   2.43390   -1.000
 5817.00    2.58266   2.43718   -1.000
 5818.00    2.58880   2.44117   -1.000
 5819.00    2.60207   2.44452   -1.000
 5820.00    2.60643   2.44708   -1.000
 5821.00    2.59545   2.44885   -1.000
 5822.00    2.60571   2.45003   -1.000
 5823.00    2.62815   2.45045   -1.000
 5824.00    2.62454   2.45086   -1.000
 5825.00    2.61357   2.45197   -1.000
 5826.00    2.61395   2.45420   -1.000
 5827.00    2.61440   2.45720   -1.000
 5828.00    2.60909   2.45966   -1.000
 5829.00    2.61335   2.46083   -1.000
 5830.00    2.62220   2.46043   -1.000
 5831.00    2.62097   2.45883   -1.000
 5832.00    2.62766   2.45692   -1.000
 5833.00    2.62778   2.45521   -1.000
 5834.00    2.61915   2.45459   -1.000
 5835.00    2.60464   2.45537   -1.000
 5836.00    2.59041   2.45766   -1.000
 5837.00    2.58794   2.46089   -1.000
 5838.00    2.59471   2.46421   -1.000
 5839.00    2.58853   2.46668   -1.000
 5840.00    2.58461   2.46753   -1.000
 5841.00    2.59233   2.46629   -1.000
 5842.00    2.59342   2.46342   -1.000
 5843.00    2.59443   2.45984   -1.000
 5844.00    2.59406   2.45661   -1.000
 5845.00    2.58316   2.45432   -1.000
 5846.00    2.58417   2.45309   -1.000
 5847.00    2.58598   2.45236   -1.000
 5848.00    2.58641   2.45139   -1.000
 5849.00    2.58626   2.44889   -1.000
 5850.00    2.60056   2.44371   -1.000
 5851.00    2.60201   2.43615   -1.000
 5852.00    2.57433   2.42821   -1.000
 5853.00    2.56941   2.42157   -1.000
 5854.00    2.58169   2.41604   -1.000
 5855.00    2.56306   2.41012   -1.000
 5856.00    2.54633   2.40446   -1.000
 5857.00    2.56796   2.40198   -1.000
 5858.00    2.58256   2.40561   -1.000
 5859.00    2.57323   2.41426   -1.000
 5860.00    2.57628   2.42469   -1.000
 5861.00    2.58762   2.43338   -1.000
 5862.00    2.58474   2.43900   -1.000
 5863.00    2.59596   2.44128   -1.000
 5864.00    2.61777   2.44074   -1.000
 5865.00    2.62333   2.43907   -1.000
 5866.00    2.61004   2.43895   -1.000
 5867.00    2.60431   2.44188   -1.000
 5868.00    2.60228   2.44753   -1.000
 5869.00    2.59680   2.45329   -1.000
 5870.00    2.60971   2.45675   -1.000
 5871.00    2.62145   2.45700   -1.000
 5872.00    2.62903   2.45458   -1.000
 5873.00    2.63130   2.45078   -1.000
 5874.00    2.62419   2.44699   -1.000
 5875.00    2.61986   2.44400   -1.000
 5876.00    2.61503   2.44147   -1.000
 5877.00    2.60659   2.43868   -1.000
 5878.00    2.59351   2.43522   -1.000
 5879.00    2.59069   2.43142   -1.000
 5880.00    2.59175   2.42778   -1.000
 5881.00    2.58461   2.42398   -1.000
 5882.00    2.55820   2.41916   -1.000
 5883.00    2.46695   2.41212   -1.000
 5884.00    2.28418   2.40102   -1.000
 5885.00    1.99561   2.38153   -1.000
 5886.00    1.75521   2.34863   -1.000
 5887.00    1.78372   2.30197   -1.000
 5888.00    2.00417   2.25447   -1.000
 5889.00    2.15076   2.22364   -1.000
 5890.00    2.09634   2.22143   -1.000
 5891.00    1.91944   2.23932   -1.000
 5892.00    1.77781   2.25793   -1.000
 5893.00    1.84732   2.26187   -1.000
 5894.00    2.09663   2.25312   -1.000
 5895.00    2.29537   2.24805   -1.000
 5896.00    2.36961   2.25839   -1.000
 5897.00    2.41946   2.28583   -1.000
 5898.00    2.49462   2.32051   -1.000
 5899.00    2.55577   2.35305   -1.000
 5900.00    2.58454   2.37903   -1.000
 5901.00    2.59728   2.39835   -1.000
 5902.00    2.61625   2.41207   -1.000
 5903.00    2.62223   2.42139   -1.000
 5904.00    2.61546   2.42775   -1.000
 5905.00    2.60967   2.43208   -1.000
 5906.00    2.60813   2.43545   -1.000
 5907.00    2.59931   2.43835   -1.000
 5908.00    2.58032   2.44087   -1.000
 5909.00    2.59030   2.44238   -1.000
 5910.00    2.61125   2.44182   -1.000
 5911.00    2.61265   2.43830   -1.000
 5912.00    2.60423   2.43219   -1.000
 5913.00    2.59761   2.42508   -1.000
 5914.00    2.58760   2.41965   -1.000
 5915.00    2.56066   2.41752   -1.000
 5916.00    2.54496   2.41930   -1.000
 5917.00    2.55543   2.42362   -1.000
 5918.00    2.56637   2.42884   -1.000
 5919.00    2.56683   2.43356   -1.000
 5920.00    2.57299   2.43737   -1.000
 5921.00    2.57834   2.44043   -1.000
 5922.00    2.58241   2.44374   -1.000
 5923.00    2.60643   2.44789   -1.000
 5924.00    2.61358   2.45256   -1.000
 5925.00    2.61218   2.45673   -1.000
 5926.00    2.63783   2.45860   -1.000
 5927.00    2.63850   2.45765   -1.000
 5928.00    2.61954   2.45508   -1.000
 5929.00    2.60855   2.45334   -1.000
 5930.00    2.59311   2.45362   -1.000
 5931.00    2.59984   2.45569   -1.000
 5932.00    2.62338   2.45740   -1.000
 5933.00    2.62929   2.45788   -1.000
 5934.00    2.61931   2.45764   -1.000
 5935.00    2.61836   2.45790   -1.000
 5936.00    2.63335   2.45872   -1.000
 5937.00    2.62965   2.45878   -1.000
 5938.00    2.61496   2.45675   -1.000
 5939.00    2.61068   2.45307   -1.000
 5940.00    2.61809   2.44935   -1.000
 5941.00    2.61286   2.44741   -1.000
 5942.00    2.59118   2.44818   -1.000
 5943.00    2.58735   2.45092   -1.000
 5944.00    2.58855   2.45418   -1.000
 5945.00    2.59692   2.45632   -1.000
 5946.00    2.61338   2.45677   -1.000
 5947.00    2.62214   2.45700   -1.000
 5948.00    2.60615   2.45850   -1.000
 5949.00    2.60062   2.46123   -1.000
 5950.00    2.63195   2.46428   -1.000
 5951.00    2.64534   2.46596   -1.000
 5952.00    2.63040   2.46614   -1.000
 5953.00    2.62733   2.46493   -1.000
 5954.00    2.61907   2.46299   -1.000
 5955.00    2.60686   2.46140   -1.000
 5956.00    2.61220   2.46170   -1.000
 5957.00    2.61146   2.46503   -1.000
 5958.00    2.61458   2.47089   -1.000
 5959.00    2.65432   2.47769   -1.000
 5960.00    2.66445   2.48332   -1.000
 5961.00    2.65306   2.48649   -1.000
 5962.00    2.66648   2.48684   -1.000
 5963.00    2.66747   2.48491   -1.000
 5964.00    2.65317   2.48194   -1.000
 5965.00    2.63020   2.47968   -1.000
 5966.00    2.61161   2.47922   -1.000
 5967.00    2.60823   2.48082   -1.000
 5968.00    2.62442   2.48378   -1.000
 5969.00    2.64135   2.48700   -1.000
 5970.00    2.63143   2.48956   -1.000
 5971.00    2.63644   2.49075   -1.000
 5972.00    2.64690   2.49057   -1.000
 5973.00    2.64116   2.48883   -1.000
 5974.00    2.63496   2.48592   -1.000
 5975.00    2.63361   2.48286   -1.000
 5976.00    2.63978   2.48081   -1.000
 5977.00    2.64263   2.48149   -1.000
 5978.00    2.65639   2.48438   -1.000
 5979.00    2.65711   2.48813   -1.000
 5980.00    2.65036   2.49017   -1.000
 5981.00    2.66640   2.48924   -1.000
 5982.00    2.67211   2.48589   -1.000
 5983.00    2.65689   2.48249   -1.000
 5984.00    2.64629   2.48135   -1.000
 5985.00    2.65435   2.48313   -1.000
 5986.00    2.66106   2.48703   -1.000
 5987.00    2.63528   2.49126   -1.000
 5988.00    2.61973   2.49450   -1.000
 5989.00    2.63951   2.49660   -1.000
 5990.00    2.65479   2.49866   -1.000
 5991.00    2.66159   2.50215   -1.000
 5992.00    2.65317   2.50725   -1.000
 5993.00    2.64571   2.51229   -1.000
 5994.00    2.66254   2.51519   -1.000
 5995.00    2.66755   2.51541   -1.000
 5996.00    2.65543   2.51403   -1.000
 5997.00    2.65395   2.51295   -1.000
 5998.00    2.66809   2.51257   -1.000
 5999.00    2.66820   2.51226   -1.000
 6000.00    2.65096   2.51123   -1.000
 6001.00    2.63617   2.50920   -1.000
 6002.00    2.64104   2.50706   -1.000
 6003.00    2.63825   2.50479   -1.000
 6004.00    2.63825   2.50200   -1.000
 6005.00    2.63915   2.49839   -1.000
 6006.00    2.60806   2.49492   -1.000
 6007.00    2.57539   2.49381   -1.000
 6008.00    2.57123   2.49643   -1.000
 6009.00    2.59695   2.50145   -1.000
 6010.00    2.62795   2.50654   -1.000
 6011.00    2.64962   2.50980   -1.000
 6012.00    2.67396   2.51154   -1.000
 6013.00    2.67229   2.51286   -1.000
 6014.00    2.67124   2.51374   -1.000
 6015.00    2.66523   2.51397   -1.000
 6016.00    2.65661   2.51300   -1.000
 6017.00    2.65661   2.51098   -1.000
 6018.00    2.65959   2.50846   -1.000
 6019.00    2.66329   2.50608   -1.000
 6020.00    2.65540   2.50459   -1.000
 6021.00    2.64615   2.50453   -1.000
 6022.00    2.64813   2.50631   -1.000
 6023.00    2.63819   2.51008   -1.000
 6024.00    2.63990   2.51540   -1.000
 6025.00    2.65253   2.52113   -1.000
 6026.00    2.64952   2.52618   -1.000
 6027.00    2.66278   2.53012   -1.000
 6028.00    2.68212   2.53305   -1.000
 6029.00    2.68864   2.53551   -1.000
 6030.00    2.66483   2.53772   -1.000
 6031.00    2.64490   2.53997   -1.000
 6032.00    2.65638   2.54243   -1.000
 6033.00    2.67845   2.54500   -1.000
 6034.00    2.67620   2.54715   -1.000
 6035.00    2.66239   2.54768   -1.000
 6036.00    2.66139   2.54578   -1.000
 6037.00    2.67393   2.54170   -1.000
 6038.00    2.68253   2.53664   -1.000
 6039.00    2.67834   2.53221   -1.000
 6040.00    2.67883   2.52883   -1.000
 6041.00    2.67810   2.52652   -1.000
 6042.00    2.68525   2.52732   -1.000
 6043.00    2.69491   2.53188   -1.000
 6044.00    2.69963   2.54003   -1.000
 6045.00    2.71299   2.54831   -1.000
 6046.00    2.70913   2.55415   -1.000
 6047.00    2.70096   2.55680   -1.000
 6048.00    2.71084   2.55714   -1.000
 6049.00    2.70294   2.55595   -1.000
 6050.00    2.69337   2.55392   -1.000
 6051.00    2.70377   2.55193   -1.000
 6052.00    2.71281   2.54999   -1.000
 6053.00    2.71417   2.54821   -1.000
 6054.00    2.70381   2.54618   -1.000
 6055.00    2.68755   2.54435   -1.000
 6056.00    2.68077   2.54310   -1.000
 6057.00    2.68316   2.54286   -1.000
 6058.00    2.78280   2.54353   -1.000
 6059.00    2.81356   2.54408   -1.000
 6060.00    2.71781   2.54304   -1.000
 6061.00    2.07562   2.53853   -1.000
 6062.00    1.02824   2.53074   -1.000
 6063.00    1.41010   2.52223   -1.000
 6064.00    2.39848   2.51731   -1.000
 6065.00    2.52296   2.51909  103.869
 6066.00    2.43410   2.52730   -1.000
 6067.00    2.04605   2.53843   -1.000
 6068.00    1.18056   2.54883   -1.000
 6069.00    1.88269   2.55635   -1.000
 6070.00    2.75758   2.56126   -1.000
 6071.00    2.71453   2.56438   -1.000
 6072.00    2.69711   2.56614   -1.000
 6073.00    2.69292   2.56645   -1.000
 6074.00    2.69122   2.56495   -1.000
 6075.00    2.69436   2.56204   -1.000
 6076.00    2.69244   2.55860   -1.000
 6077.00    2.69232   2.55570   -1.000
 6078.00    2.70905   2.55368   -1.000
 6079.00    2.70872   2.55220   -1.000
 6080.00    2.69164   2.55067   -1.000
 6081.00    2.67813   2.54917   -1.000
 6082.00    2.66455   2.54816   -1.000
 6083.00    2.68534   2.54830   -1.000
 6084.00    2.70808   2.54976   -1.000
 6085.00    2.70688   2.55231   -1.000
 6086.00    2.70966   2.55526   -1.000
 6087.00    2.71584   2.55753   -1.000
 6088.00    2.72940   2.55817   -1.000
 6089.00    2.73141   2.55710   -1.000
 6090.00    2.71884   2.55568   -1.000
 6091.00    2.71620   2.55558   -1.000
 6092.00    2.71588   2.55783   -1.000
 6093.00    2.70414   2.56206   -1.000
 6094.00    2.71033   2.56707   -1.000
 6095.00    2.71657   2.57177   -1.000
 6096.00    2.70653   2.57501   -1.000
 6097.00    2.69684   2.57552   -1.000
 6098.00    2.69912   2.57158   -1.000
 6099.00    2.69595   2.56235   -1.000
 6100.00    2.67716   2.54892   -1.000
 6101.00    2.64312   2.53618   -1.000
 6102.00    2.62982   2.52913   -1.000
 6103.00    2.64461   2.53125   -1.000
 6104.00    2.66522   2.54034   -1.000
 6105.00    2.68361   2.55239   -1.000
 6106.00    2.68871   2.56333   -1.000
 6107.00    2.70311   2.57181   -1.000
 6108.00    2.70079   2.57745   -1.000
 6109.00    2.67322   2.58049   -1.000
 6110.00    2.67189   2.58126   -1.000
 6111.00    2.70036   2.58106   -1.000
 6112.00    2.71317   2.58090   -1.000
 6113.00    2.69936   2.58153   -1.000
 6114.00    2.69528   2.58243   -1.000
 6115.00    2.69071   2.58241   -1.000
 6116.00    2.67747   2.57960   -1.000
 6117.00    2.68773   2.57122   -1.000
 6118.00    2.69950   2.55727   -1.000
 6119.00    2.68994   2.53958   -1.000
 6120.00    2.66948   2.52385   -1.000
 6121.00    2.64304   2.51642   -1.000
 6122.00    2.64544   2.52005   -1.000
 6123.00    2.66425   2.53293   -1.000
 6124.00    2.68509   2.54864   -1.000
 6125.00    2.69148   2.56137   -1.000
 6126.00    2.68175   2.56938   -1.000
 6127.00    2.68818   2.57421   -1.000
 6128.00    2.70264   2.57853   -1.000
 6129.00    2.70738   2.58365   -1.000
 6130.00    2.70538   2.58856   -1.000
 6131.00    2.70813   2.59038   -1.000
 6132.00    2.72441   2.58541   -1.000
 6133.00    2.72112   2.57135   -1.000
 6134.00    2.68726   2.54920   -1.000
 6135.00    2.64654   2.52611   -1.000
 6136.00    2.60076   2.51062   -1.000
 6137.00    2.58295   2.50799   -1.000
 6138.00    2.60781   2.51474   -1.000
 6139.00    2.64712   2.52426   -1.000
 6140.00    2.66164   2.53288   -1.000
 6141.00    2.63240   2.54170   -1.000
 6142.00    2.61779   2.55280   -1.000
 6143.00    2.66213   2.56482   -1.000
 6144.00    2.70494   2.57439   -1.000
 6145.00    2.69694   2.57920   -1.000
 6146.00    2.68383   2.57931   -1.000
 6147.00    2.68566   2.57687   -1.000
 6148.00    2.68082   2.57423   -1.000
 6149.00    2.67831   2.57346   -1.000
 6150.00    2.68979   2.57497   -1.000
 6151.00    2.68350   2.57799   -1.000
 6152.00    2.67730   2.58049   -1.000
 6153.00    2.66265   2.58109   -1.000
 6154.00    2.65403   2.57935   -1.000
 6155.00    2.66746   2.57600   -1.000
 6156.00    2.67565   2.57126   -1.000
 6157.00    2.66896   2.56362   -1.000
 6158.00    2.65065   2.55021   -1.000
 6159.00    2.62914   2.52992   -1.000
 6160.00    2.60196   2.50648   -1.000
 6161.00    2.54908   2.48804   -1.000
 6162.00    2.51965   2.48169   -1.000
 6163.00    2.54432   2.48813   -1.000
 6164.00    2.58366   2.50121   -1.000
 6165.00    2.60263   2.51348   -1.000
 6166.00    2.59198   2.52018   -1.000
 6167.00    2.58283   2.52144   -1.000
 6168.00    2.57115   2.52058   -1.000
 6169.00    2.56984   2.52217   -1.000
 6170.00    2.57059   2.52860   -1.000
 6171.00    2.58038   2.53902   -1.000
 6172.00    2.60305   2.55044   -1.000
 6173.00    2.62141   2.56061   -1.000
 6174.00    2.61491   2.56855   -1.000
 6175.00    2.60600   2.57434   -1.000
 6176.00    2.60950   2.57805   -1.000
 6177.00    2.61315   2.58015   -1.000
 6178.00    2.60321   2.58140  101.980
 6179.00    2.61387   2.58271   -1.000
 6180.00    2.63127   2.58475   -1.000
 6181.00    2.64382   2.58743   -1.000
 6182.00    2.63699   2.58999   -1.000
 6183.00    2.63887   2.59145   -1.000
 6184.00    2.65191   2.59084   -1.000
 6185.00    2.66941   2.58740   -1.000
 6186.00    2.68093   2.58066   -1.000
 6187.00    2.66685   2.57038   -1.000
 6188.00    2.63625   2.55745   -1.000
 6189.00    2.61400   2.54462   -1.000
 6190.00    2.60302   2.53695   -1.000
 6191.00    2.58311   2.53848   -1.000
 6192.00    2.57196   2.54914  102.917
 6193.00    2.60234   2.56423   -1.000
 6194.00    2.64363   2.57811   -1.000
 6195.00    2.65772   2.58696   -1.000
 6196.00    2.64998   2.59014   -1.000
 6197.00    2.63746   2.58876   -1.000
 6198.00    2.59324   2.58606  104.500
 6199.00    2.54542   2.58515   -1.000
 6200.00    2.54424   2.58810   -1.000
 6201.00    2.59077   2.59392  102.606
 6202.00    2.61842   2.60049  102.489
 6203.00    2.63175   2.60606  102.427
 6204.00    2.65087   2.61013   -1.000
 6205.00    2.66122   2.61290   -1.000
 6206.00    2.67110   2.61443   -1.000
 6207.00    2.67331   2.61452   -1.000
 6208.00    2.67461   2.61277   -1.000
 6209.00    2.67742   2.60884   -1.000
 6210.00    2.67763   2.60241   -1.000
 6211.00    2.66796   2.59381   -1.000
 6212.00    2.67044   2.58448   -1.000
 6213.00    2.66590   2.57658   -1.000
 6214.00    2.64815   2.57153   -1.000
 6215.00    2.64608   2.56871   -1.000
 6216.00    2.65735   2.56653   -1.000
 6217.00    2.66596   2.56413   -1.000
 6218.00    2.67545   2.56259   -1.000
 6219.00    2.41073   2.56342   -1.000
 6220.00    2.35640   2.56716   -1.000
 6221.00    2.58707   2.57237  107.640
 6222.00    2.68689   2.57738   -1.000
 6223.00    2.68053   2.58112   -1.000
 6224.00    2.66801   2.58334   -1.000
 6225.00    2.68228   2.58310   -1.000
 6226.00    2.69186   2.57861   -1.000
 6227.00    2.67430   2.56881   -1.000
 6228.00    2.65465   2.55540   -1.000
 6229.00    2.62618   2.54318   -1.000
 6230.00    2.59485   2.53785   -1.000
 6231.00    2.58676   2.54213   -1.000
 6232.00    2.61231   2.55400   -1.000
 6233.00    2.65044   2.56812   -1.000
 6234.00    2.66172   2.57882   -1.000
 6235.00    2.66505   2.58346   -1.000
 6236.00    2.67149   2.58221   -1.000
 6237.00    2.66050   2.57787   -1.000
 6238.00    2.64775   2.57296   -1.000
 6239.00    2.63333   2.56917   -1.000
 6240.00    2.62199   2.56605   -1.000
 6241.00    2.62801   2.56236   -1.000
 6242.00    2.63515   2.55719   -1.000
 6243.00    2.63925   2.55145   -1.000
 6244.00    2.64123   2.54785   -1.000
 6245.00    2.62746   2.54900   -1.000
 6246.00    2.61272   2.55554   -1.000
 6247.00    2.61687   2.56476   -1.000
 6248.00    2.62312   2.57194   -1.000
 6249.00    2.63343   2.57288   -1.000
 6250.00    2.63315   2.56703   -1.000
 6251.00    2.61520   2.55728   -1.000
 6252.00    2.60030   2.54834   -1.000
 6253.00    2.59029   2.54330   -1.000
 6254.00    2.58956   2.54227   -1.000
 6255.00    2.58525   2.54365   -1.000
 6256.00    2.58721   2.54649   -1.000
 6257.00    2.58702   2.55124   -1.000
 6258.00    2.60187   2.55878   -1.000
 6259.00    2.61457   2.56850   -1.000
 6260.00    2.60951   2.57875   -1.000
 6261.00    2.62107   2.58734   -1.000
 6262.00    2.63277   2.59346   -1.000
 6263.00    2.61829   2.59705  107.645
 6264.00    2.59593   2.59936  106.895
 6265.00    2.58505   2.60143  106.956
 6266.00    2.59170   2.60332  107.502
 6267.00    2.60969   2.60425  107.545
 6268.00    2.62599   2.60351  107.207
 6269.00    2.63029   2.60140   -1.000
 6270.00    2.61689   2.59799  107.063
 6271.00    2.59036   2.59246  107.730
 6272.00    2.56218   2.58329  108.596
 6273.00    2.52982   2.56967   -1.000
 6274.00    2.47196   2.55303   -1.000
 6275.00    2.39486   2.53627   -1.000
 6276.00    2.35587   2.52314   -1.000
 6277.00    2.33265   2.51568   -1.000
 6278.00    2.28953   2.51503   -1.000
 6279.00    2.23733   2.52074   -1.000
 6280.00    2.21558   2.53228   -1.000
 6281.00    2.24862   2.54803   -1.000
 6282.00    2.32129   2.56559   -1.000
 6283.00    2.40624   2.58179   -1.000
 6284.00    2.47517   2.59450   -1.000
 6285.00    2.52631   2.60257   -1.000
 6286.00    2.55989   2.60628   -1.000
 6287.00    2.60045   2.60619  107.267
 6288.00    2.59785   2.60352  108.106
 6289.00    2.58662   2.59973  108.467
 6290.00    2.58854   2.59641  108.587
 6291.00    2.59130   2.59381  108.761
 6292.00    2.59078   2.59140  109.439
 6293.00    2.58192   2.58791  110.219
 6294.00    2.55493   2.58306  110.524
 6295.00    2.51654   2.57741   -1.000
 6296.00    2.44832   2.57247   -1.000
 6297.00    2.42019   2.56957   -1.000
 6298.00    2.49000   2.56867   -1.000
 6299.00    2.58049   2.56944  111.326
 6300.00    2.58696   2.57170  110.970
 6301.00    2.55937   2.57633  109.343
 6302.00    2.54234   2.58378   -1.000
 6303.00    2.56527   2.59279  106.871
 6304.00    2.57093   2.60152  105.924
 6305.00    2.57028   2.60872   -1.000
 6306.00    2.58823   2.61425  105.875
 6307.00    2.60623   2.61872  106.552
 6308.00    2.61167   2.62212  107.050
 6309.00    2.59556   2.62418  107.472
 6310.00    2.60349   2.62433  107.662
 6311.00    2.62018   2.62234  108.418
 6312.00    2.58982   2.61875  108.998
 6313.00    2.57395   2.61445   -1.000
 6314.00    2.57616   2.61030   -1.000
 6315.00    2.56938   2.60686   -1.000
 6316.00    2.56480   2.60498   -1.000
 6317.00    2.56204   2.60576   -1.000
 6318.00    2.56302   2.60996   -1.000
 6319.00    2.58824   2.61708  105.933
 6320.00    2.61888   2.62520  105.585
 6321.00    2.62128   2.63303  105.066
 6322.00    2.61077   2.64019  104.668
 6323.00    2.63783   2.64651  104.552
 6324.00    2.65839   2.65140  104.151
 6325.00    2.64870   2.65421  104.077
 6326.00    2.65495   2.65510  104.180
 6327.00    2.64889   2.65507  104.249
 6328.00    2.64304   2.65518  103.982
 6329.00    2.68458   2.65593   -1.000
 6330.00    2.66104   2.65655  103.920
 6331.00    2.51337   2.65527   -1.000
 6332.00    2.57588   2.65047   -1.000
 6333.00    2.63983   2.64250  106.972
 6334.00    2.61218   2.63446  106.273
 6335.00    2.60191   2.63008  105.210
 6336.00    2.61745   2.63184  104.067
 6337.00    2.62144   2.63855  103.398
 6338.00    2.61628   2.64726   -1.000
 6339.00    2.62530   2.65484  102.844
 6340.00    2.64763   2.65950  103.585
 6341.00    2.63903   2.66076  103.956
 6342.00    2.62603   2.65957   -1.000
 6343.00    2.61612   2.65751   -1.000
 6344.00    2.59731   2.65657   -1.000
 6345.00    2.59471   2.65802   -1.000
 6346.00    2.62757   2.66212   -1.000
 6347.00    2.64574   2.66824  101.854
 6348.00    2.63429   2.67475   -1.000
 6349.00    2.62038   2.67992   -1.000
 6350.00    2.63436   2.68211   -1.000
 6351.00    2.63833   2.68099   -1.000
 6352.00    2.63845   2.67743   -1.000
 6353.00    2.62804   2.67299   -1.000
 6354.00    2.61810   2.66889   -1.000
 6355.00    2.62283   2.66549   -1.000
 6356.00    2.61324   2.66237   -1.000
 6357.00    2.58816   2.65947   -1.000
 6358.00    2.55430   2.65693   -1.000
 6359.00    2.54724   2.65520   -1.000
 6360.00    2.52833   2.65422   -1.000
 6361.00    2.55108   2.65409   -1.000
 6362.00    2.57781   2.65546   -1.000
 6363.00    2.58108   2.65865   -1.000
 6364.00    2.59545   2.66331   -1.000
 6365.00    2.60213   2.66824   -1.000
 6366.00    2.59456   2.67218   -1.000
 6367.00    2.59680   2.67415   -1.000
 6368.00    2.60587   2.67401   -1.000
 6369.00    2.61891   2.67260   -1.000
 6370.00    2.61438   2.67182   -1.000
 6371.00    2.60155   2.67301   -1.000
 6372.00    2.59201   2.67610   -1.000
 6373.00    2.58592   2.67971   -1.000
 6374.00    2.56236   2.68209   -1.000
 6375.00    2.55410   2.68256   -1.000
 6376.00    2.56983   2.68144   -1.000
 6377.00    2.57138   2.67922   -1.000
 6378.00    2.57034   2.67655   -1.000
 6379.00    2.55594   2.67393   -1.000
 6380.00    2.54073   2.67211   -1.000
 6381.00    2.54658   2.67157   -1.000
 6382.00    2.55433   2.67249   -1.000
 6383.00    2.56539   2.67450   -1.000
 6384.00    2.56226   2.67719   -1.000
 6385.00    2.54228   2.67983   -1.000
 6386.00    2.52489   2.68183   -1.000
 6387.00    2.50938   2.68224   -1.000
 6388.00    2.50813   2.68013   -1.000
 6389.00    2.50671   2.67494   -1.000
 6390.00    2.48807   2.66705   -1.000
 6391.00    2.47456   2.65884   -1.000
 6392.00    2.42851   2.65392   -1.000
 6393.00    2.39958   2.65469   -1.000
 6394.00    2.40570   2.66024   -1.000
 6395.00    2.41589   2.66597   -1.000
 6396.00    2.41445   2.66746   -1.000
 6397.00    2.40097   2.66354   -1.000
 6398.00    2.36522   2.65753   -1.000
 6399.00    2.34191   2.65499   -1.000
 6400.00    2.32664   2.65930   -1.000
 6401.00    2.32692   2.66957   -1.000
 6402.00    2.33407   2.68103   -1.000
 6403.00    2.33529   2.68892   -1.000
 6404.00    2.32637   2.69069   -1.000
 6405.00    2.31035   2.68689   -1.000
 6406.00    2.29417   2.68044   -1.000
 6407.00    2.27628   2.67532   -1.000
 6408.00    2.25029   2.67336   -1.000
 6409.00    2.22720   2.67482   -1.000
 6410.00    2.21173   2.67773   -1.000
 6411.00    2.18928   2.68066   -1.000
 6412.00    2.19617   2.68386   -1.000
 6413.00    2.20629   2.68701   -1.000
 6414.00    2.17673   2.68979   -1.000
 6415.00    2.16544   2.69104   -1.000
 6416.00    2.15753   2.68997   -1.000
 6417.00    2.12866   2.68601   -1.000
 6418.00    2.08605   2.68036   -1.000
 6419.00    2.06863   2.67575   -1.000
 6420.00    2.04079   2.67555   -1.000
 6421.00    2.00186   2.68142   -1.000
 6422.00    1.97987   2.69179   -1.000
 6423.00    1.98590   2.70329   -1.000
 6424.00    1.99574   2.71241   -1.000
 6425.00    1.96885   2.71690   -1.000
 6426.00    1.93853   2.71570   -1.000
 6427.00    1.93417   2.70909   -1.000
 6428.00    0.57083   2.69937   -1.000
