###################################################################
## OUTPUT of StarlightChains_v04.for    [Cid@UFSC - 01/Apr/2007] ##
###################################################################

## Some input info
NGC6528_c_1.cxt                          [arq_obs]
Base.BC03.S                              [arq_base]
NGC6528_c_1.msk                          [arq_masks]
StCv04.C99.config                        [arq_config]
  150                                    [N_base]
    0                                    [N_YAV_components = # of components with extra extinction!]
    0                                    [i_FitPowerLaw (1/0 = Yes/No)]
-9.99                                    [alpha_PowerLaw]
CCM                                      [red_law_option]
 1.458241                                [q_norm = A(l_norm)/A(V)]

## (Re)Sampling Parameters
 3359.00                                 [l_ini (A)]
 6428.00                                 [l_fin (A)]
    1.00                                 [dl    (A)]     (OBS: dl_cushion =    50.00 A)

## Normalization info
 4020.00                                 [l_norm (A) - for base]
 4010.00                                 [llow_norm (A) - window for f_obs]
 4060.00                                 [lupp_norm (A) - window for f_obs]
3.081180E-15                             [fobs_norm (in input units)]

## S/N
 4730.00                                 [llow_SN (A) - window for S/N]
 4780.00                                 [lupp_SN (A) - window for S/N]
  26.871                                 [S/N in S/N window]
  13.196                                 [S/N in norm. window]
 236.951                                 [S/N_err in S/N window]
 116.363                                 [S/N_err in norm. window]
  1.0000                                 [fscale_chi2]

## etc...
  2147483602                             [idum_orig]
  3066                                   [NOl_eff]
  1292                                   [Nl_eff]
  1774    NSIGMA                         [Ntot_cliped & clip_method]
  4835530                                [Nglobal_steps]
   7                                     [N_chains]
  26                                     [NEX0s_base = N_base in EX0s-fits]
 0   0   1       80   2.0   2.880E+02    [Clip-Bug, RC-Crash & Burn-In warning-flags, n_censored_weights, wei_nsig_threshold & wei_limit]
   193    192.914    192.906      0.008  [idt_all, wdt_TotTime, wdt_UsrTime & wdt_SysTime (sec)]

## Synthesis Results - Best model ##

 2.27408E+00                             [chi2/Nl_eff]
     2.36918                             [adev (%)]

   101.06345                             [sum-of-x (%)]
 2.98173E-14                             [Flux_tot (units of input spectrum!)]
 2.95577E-09                             [Mini_tot (???)]
 1.47105E-09                             [Mcor_tot (???)]

 -33.44                                  [v0_min  (km/s)]
  99.97                                  [vd_min  (km/s)]
 1.6821                                  [AV_min  (mag)]
 0.0000                                  [YAV_min (mag)]

# j     x_j(%)      Mini_j(%)     Mcor_j(%)     age_j(yr)     Z_j      (L/M)_j    YAV?  Mstars   component_j        a/Fe...       SSP_chi2r SSP_adev(%)   SSP_AV   SSP_x(%)
  1      0.0000     0.0000E+00    0.0000E+00    1.000000E+06  0.00010  8.160E-03    0   1.0000   age020_m22            0.0000     2.9690E+03    54.3378   4.0000   102.8425
  2      1.7964     3.7678E-04    7.5706E-04    3.160000E+06  0.00010  4.759E-02    0   1.0000   age045_m22            0.0000     2.4352E+02     9.1385   4.0000   101.0413
  3     16.8003     8.6799E-03    1.6711E-02    5.010000E+06  0.00010  1.932E-02    0   0.9582   age055_m22            0.0000     4.6619E+02    15.1916   4.0000    95.2817
  4      0.0000     0.0000E+00    0.0000E+00    6.610000E+06  0.00010  9.973E-03    0   0.9297   age061_m22            0.0000     2.9518E+03    53.3070   4.0000   106.0411
  5      0.0000     0.0000E+00    0.0000E+00    8.710000E+06  0.00010  7.690E-03    0   0.9030   age067_m22            0.0000     2.9015E+03    53.0469   4.0000   106.6230
  6      0.0000     0.0000E+00    0.0000E+00    1.000000E+07  0.00010  6.375E-03    0   0.8902   age070_m22            0.0000     2.8965E+03    53.1657   4.0000   106.8759
  7      0.0000     0.0000E+00    0.0000E+00    1.445000E+07  0.00010  4.874E-03    0   0.8589   age078_m22            0.0000     2.3950E+03    49.2143   4.0000   110.2668
  8      0.0000     0.0000E+00    0.0000E+00    2.512000E+07  0.00010  4.103E-03    0   0.8174   age090_m22            0.0000     1.5030E+03    39.6462   4.0000   115.7215
  9      0.8879     2.4254E-03    3.8158E-03    4.000000E+07  0.00010  3.654E-03    0   0.7830   age104_m22            0.0000     1.0534E+03    31.9631   4.0000   117.9718
 10      0.0000     0.0000E+00    0.0000E+00    5.500000E+07  0.00010  3.093E-03    0   0.7597   age110_m22            0.0000     9.1975E+02    29.2561   4.0000   118.1877
 11      0.0000     0.0000E+00    0.0000E+00    1.015200E+08  0.00010  2.431E-03    0   0.7138   age116_m22            0.0000     6.3428E+02    21.3473   4.0000   115.6589
 12      0.0000     0.0000E+00    0.0000E+00    1.609000E+08  0.00010  1.319E-03    0   0.6775   age120_m22            0.0000     3.8346E+02    12.7416   4.0000   108.4044
 13      0.0000     0.0000E+00    0.0000E+00    2.861200E+08  0.00010  1.075E-03    0   0.6412   age125_m22            0.0000     5.2842E+02    17.2207   4.0000   112.3599
 14      0.0000     0.0000E+00    0.0000E+00    5.088000E+08  0.00010  7.183E-04    0   0.6083   age130_m22            0.0000     5.1907E+02    15.4288   4.0000   108.5105
 15      0.0000     0.0000E+00    0.0000E+00    9.047900E+08  0.00010  4.524E-04    0   0.5785   age135_m22            0.0000     5.1300E+02    14.8822   3.8995   107.3364
 16      0.0000     0.0000E+00    0.0000E+00    1.278050E+09  0.00010  3.018E-04    0   0.5588   age138_m22            0.0000     3.5500E+02    12.1730   3.3733   106.2993
 17      0.0000     0.0000E+00    0.0000E+00    1.434000E+09  0.00010  2.691E-04    0   0.5532   age139_m22            0.0000     3.2374E+02    11.6444   3.2165   105.9195
 18      0.0000     0.0000E+00    0.0000E+00    2.500000E+09  0.00010  1.582E-04    0   0.5296   age150_m22            0.0000     3.1800E+02    11.4648   3.1084   106.8981
 19      0.0000     0.0000E+00    0.0000E+00    4.250000E+09  0.00010  1.007E-04    0   0.5110   age158_m22            0.0000     2.5939E+02    10.2647   2.9476   105.6908
 20      0.0000     0.0000E+00    0.0000E+00    6.250000E+09  0.00010  6.869E-05    0   0.4985   age166_m22            0.0000     2.1309E+02     9.1692   2.8772   103.4191
 21      0.0000     0.0000E+00    0.0000E+00    7.500000E+09  0.00010  5.873E-05    0   0.4931   age171_m22            0.0000     2.1223E+02     9.1163   2.8685   102.9446
 22      0.0000     0.0000E+00    0.0000E+00    1.000000E+10  0.00010  4.481E-05    0   0.4854   age181_m22            0.0000     2.0758E+02     9.0411   2.8293   102.5790
 23      0.0000     0.0000E+00    0.0000E+00    1.300000E+10  0.00010  3.489E-05    0   0.4791   age193_m22            0.0000     1.9763E+02     8.8405   2.7694   102.0750
 24      0.0000     0.0000E+00    0.0000E+00    1.500000E+10  0.00010  3.035E-05    0   0.4766   age201_m22            0.0000     1.9221E+02     8.7260   2.7310   101.9029
 25      0.0000     0.0000E+00    0.0000E+00    1.800000E+10  0.00010  2.510E-05    0   0.4735   age213_m22            0.0000     1.8096E+02     8.4668   2.6621   101.3638
 26      0.0000     0.0000E+00    0.0000E+00    1.000000E+06  0.00040  8.458E-03    0   1.0000   age020_m32            0.0000     3.0073E+03    54.4690   4.0000   103.6023
 27      0.0078     1.9477E-06    3.9136E-06    3.160000E+06  0.00040  3.973E-02    0   1.0000   age045_m32            0.0000     1.3577E+03    37.3143   4.0000   114.7975
 28      0.0000     0.0000E+00    0.0000E+00    5.010000E+06  0.00040  1.935E-02    0   0.9532   age055_m32            0.0000     1.9576E+03    43.5055   4.0000   109.4590
 29      0.0000     0.0000E+00    0.0000E+00    6.610000E+06  0.00040  1.204E-02    0   0.9243   age061_m32            0.0000     2.5730E+03    50.3335   4.0000   108.4363
 30      0.0000     0.0000E+00    0.0000E+00    8.710000E+06  0.00040  9.433E-03    0   0.9001   age067_m32            0.0000     2.4662E+03    49.5943   4.0000   109.5533
 31      0.0000     0.0000E+00    0.0000E+00    1.000000E+07  0.00040  8.053E-03    0   0.8877   age070_m32            0.0000     2.3770E+03    48.8042   4.0000   110.0240
 32      0.0000     0.0000E+00    0.0000E+00    1.445000E+07  0.00040  7.027E-03    0   0.8578   age078_m32            0.0000     1.3699E+03    36.6811   4.0000   112.8690
 33      0.0000     0.0000E+00    0.0000E+00    2.512000E+07  0.00040  4.707E-03    0   0.8166   age090_m32            0.0000     9.2207E+02    29.1142   4.0000   113.7912
 34      0.8154     2.1915E-03    3.4465E-03    4.000000E+07  0.00040  3.714E-03    0   0.7827   age104_m32            0.0000     6.9768E+02    23.7570   4.0000   114.2963
 35      0.0000     0.0000E+00    0.0000E+00    5.500000E+07  0.00040  2.982E-03    0   0.7593   age110_m32            0.0000     6.4624E+02    22.2595   4.0000   114.4089
 36      0.0000     0.0000E+00    0.0000E+00    1.015200E+08  0.00040  2.188E-03    0   0.7143   age116_m32            0.0000     5.1797E+02    17.7790   4.0000   113.4280
 37      0.0000     0.0000E+00    0.0000E+00    1.609000E+08  0.00040  1.690E-03    0   0.6856   age120_m32            0.0000     4.9360E+02    15.9397   4.0000   111.6083
 38      0.0000     0.0000E+00    0.0000E+00    2.861200E+08  0.00040  1.152E-03    0   0.6509   age125_m32            0.0000     4.8637E+02    14.5464   4.0000   107.7832
 39      0.0000     0.0000E+00    0.0000E+00    5.088000E+08  0.00040  7.331E-04    0   0.6182   age130_m32            0.0000     4.9172E+02    14.4051   3.9210   106.3016
 40      0.0000     0.0000E+00    0.0000E+00    9.047900E+08  0.00040  3.960E-04    0   0.5890   age135_m32            0.0000     3.5547E+02    12.4991   3.4413   105.7849
 41      0.0000     0.0000E+00    0.0000E+00    1.278050E+09  0.00040  2.854E-04    0   0.5687   age138_m32            0.0000     3.3259E+02    11.8079   3.1657   107.8639
 42      0.0000     0.0000E+00    0.0000E+00    1.434000E+09  0.00040  2.531E-04    0   0.5632   age139_m32            0.0000     3.2760E+02    11.6950   3.1102   107.7833
 43      0.0000     0.0000E+00    0.0000E+00    2.500000E+09  0.00040  1.488E-04    0   0.5386   age150_m32            0.0000     2.7467E+02    10.7618   2.8457   106.2994
 44      0.0000     0.0000E+00    0.0000E+00    4.250000E+09  0.00040  9.082E-05    0   0.5199   age158_m32            0.0000     1.9364E+02     8.8366   2.7361   103.6247
 45      2.2795     3.5765E-01    3.6477E-01    6.250000E+09  0.00040  6.362E-05    0   0.5076   age166_m32            0.0000     1.5745E+02     7.6885   2.6895   100.7990
 46      6.5116     1.2289E+00    1.2413E+00    7.500000E+09  0.00040  5.289E-05    0   0.5027   age171_m32            0.0000     1.4656E+02     7.4259   2.6489    99.6143
 47      3.5704     8.9724E-01    8.9204E-01    1.000000E+10  0.00040  3.972E-05    0   0.4948   age181_m32            0.0000     1.3474E+02     7.2095   2.5808    98.2922
 48      0.0193     5.8692E-03    5.7432E-03    1.300000E+10  0.00040  3.283E-05    0   0.4870   age193_m32            0.0000     1.4729E+02     7.6544   2.5456   100.7136
 49      0.0000     0.0000E+00    0.0000E+00    1.500000E+10  0.00040  2.925E-05    0   0.4854   age201_m32            0.0000     1.5868E+02     8.0214   2.5328   102.1149
 50      0.0000     0.0000E+00    0.0000E+00    1.800000E+10  0.00040  2.469E-05    0   0.4819   age213_m32            0.0000     1.6055E+02     8.1059   2.4958   102.5425
 51      0.0000     0.0000E+00    0.0000E+00    1.000000E+06  0.00400  1.114E-02    0   1.0000   age020_m42            0.0000     2.8282E+03    53.0651   4.0000   104.1559
 52      0.2036     4.9900E-05    1.0025E-04    3.160000E+06  0.00400  4.073E-02    0   0.9999   age045_m42            0.0000     8.7899E+02    29.5193   4.0000   114.0616
 53      0.0000     0.0000E+00    0.0000E+00    5.010000E+06  0.00400  2.534E-02    0   0.9488   age055_m42            0.0000     1.5763E+03    40.1850   4.0000   111.4189
 54      0.4292     1.6585E-04    3.0725E-04    6.610000E+06  0.00400  2.583E-02    0   0.9220   age061_m42            0.0000     6.9875E+02    25.0365   4.0000   112.4370
 55      0.3592     2.1015E-04    3.7931E-04    8.710000E+06  0.00400  1.706E-02    0   0.8983   age067_m42            0.0000     5.9268E+02    20.9150   4.0000   108.2619
 56      0.0000     0.0000E+00    0.0000E+00    1.000000E+07  0.00400  1.271E-02    0   0.8862   age070_m42            0.0000     6.3256E+02    20.6828   4.0000   106.9241
 57      0.0000     0.0000E+00    0.0000E+00    1.445000E+07  0.00400  7.666E-03    0   0.8571   age078_m42            0.0000     1.0898E+03    31.3019   4.0000   108.5812
 58      0.0000     0.0000E+00    0.0000E+00    2.512000E+07  0.00400  5.070E-03    0   0.8174   age090_m42            0.0000     4.9984E+02    17.3249   4.0000   106.5202
 59      0.0000     0.0000E+00    0.0000E+00    4.000000E+07  0.00400  3.505E-03    0   0.7851   age104_m42            0.0000     2.7836E+02    11.4809   4.0000   103.3706
 60      0.0000     0.0000E+00    0.0000E+00    5.500000E+07  0.00400  3.059E-03    0   0.7629   age110_m42            0.0000     3.2376E+02    11.8621   4.0000   108.1653
 61      0.0000     0.0000E+00    0.0000E+00    1.015200E+08  0.00400  2.268E-03    0   0.7207   age116_m42            0.0000     4.1798E+02    14.0414   4.0000   110.4907
 62      0.0002     1.4329E-06    1.9952E-06    1.609000E+08  0.00400  1.720E-03    0   0.6930   age120_m42            0.0000     4.0264E+02    13.0809   4.0000   108.4674
 63      0.0000     0.0000E+00    0.0000E+00    2.861200E+08  0.00400  1.079E-03    0   0.6613   age125_m42            0.0000     3.8116E+02    12.4318   3.7428   106.6793
 64      0.0000     0.0000E+00    0.0000E+00    5.088000E+08  0.00400  6.261E-04    0   0.6313   age130_m42            0.0000     4.1198E+02    13.0380   3.5492   109.6665
 65      0.0000     0.0000E+00    0.0000E+00    9.047900E+08  0.00400  3.535E-04    0   0.6024   age135_m42            0.0000     2.9798E+02    11.1833   3.1420   110.4928
 66      0.0000     0.0000E+00    0.0000E+00    1.278050E+09  0.00400  2.677E-04    0   0.5837   age138_m42            0.0000     1.1958E+02     7.9815   2.4560   107.8486
 67      0.0000     0.0000E+00    0.0000E+00    1.434000E+09  0.00400  1.910E-04    0   0.5716   age139_m42            0.0000     1.5939E+02     8.7235   2.6173   108.8313
 68      0.0000     0.0000E+00    0.0000E+00    2.500000E+09  0.00400  9.818E-05    0   0.5463   age150_m42            0.0000     6.7485E+01     6.2379   2.3268   104.4356
 69      0.0000     0.0000E+00    0.0000E+00    4.250000E+09  0.00400  5.491E-05    0   0.5269   age158_m42            0.0000     4.0518E+01     5.1048   2.2062   101.7308
 70      0.0000     0.0000E+00    0.0000E+00    6.250000E+09  0.00400  3.857E-05    0   0.5151   age166_m42            0.0000     2.7837E+01     4.7377   2.0755   100.3469
 71      0.0000     0.0000E+00    0.0000E+00    7.500000E+09  0.00400  3.243E-05    0   0.5110   age171_m42            0.0000     2.3127E+01     4.6270   1.9970    99.7008
 72      0.0000     0.0000E+00    0.0000E+00    1.000000E+10  0.00400  2.424E-05    0   0.5028   age181_m42            0.0000     1.9228E+01     4.5542   1.9180    98.9549
 73      0.0000     0.0000E+00    0.0000E+00    1.300000E+10  0.00400  1.883E-05    0   0.4927   age193_m42            0.0000     1.7352E+01     4.4930   1.8832    98.5112
 74      0.0000     0.0000E+00    0.0000E+00    1.500000E+10  0.00400  1.685E-05    0   0.4919   age201_m42            0.0000     1.7324E+01     4.3999   1.8892    98.5520
 75      0.0000     0.0000E+00    0.0000E+00    1.800000E+10  0.00400  1.452E-05    0   0.4874   age213_m42            0.0000     1.7532E+01     4.2710   1.9084    98.8274
 76      0.0000     0.0000E+00    0.0000E+00    1.000000E+06  0.00800  1.286E-02    0   1.0000   age020_m52            0.0000     2.7182E+03    52.3579   4.0000   106.3711
 77      0.0000     0.0000E+00    0.0000E+00    3.160000E+06  0.00800  3.147E-02    0   0.9966   age045_m52            0.0000     2.5562E+03    50.6318   4.0000   108.1364
 78      0.0000     0.0000E+00    0.0000E+00    5.010000E+06  0.00800  2.664E-02    0   0.9443   age055_m52            0.0000     1.8155E+03    43.2766   4.0000   111.0972
 79      0.0000     0.0000E+00    0.0000E+00    6.610000E+06  0.00800  2.151E-02    0   0.9177   age061_m52            0.0000     2.8936E+02    12.2212   4.0000   101.2956
 80      0.0003     2.1095E-07    3.7926E-07    8.710000E+06  0.00800  1.628E-02    0   0.8948   age067_m52            0.0000     5.6819E+02    19.8930   4.0000   108.2984
 81      0.0000     0.0000E+00    0.0000E+00    1.000000E+07  0.00800  1.215E-02    0   0.8827   age070_m52            0.0000     9.5002E+02    28.9075   4.0000   111.2257
 82      0.0000     0.0000E+00    0.0000E+00    1.445000E+07  0.00800  8.739E-03    0   0.8552   age078_m52            0.0000     9.7432E+02    29.7534   4.0000   113.1552
 83      0.0000     0.0000E+00    0.0000E+00    2.512000E+07  0.00800  5.676E-03    0   0.8162   age090_m52            0.0000     5.8006E+02    19.2872   4.0000   112.3299
 84      0.0000     0.0000E+00    0.0000E+00    4.000000E+07  0.00800  3.939E-03    0   0.7841   age104_m52            0.0000     4.6101E+02    15.5636   4.0000   111.5113
 85      0.0000     0.0000E+00    0.0000E+00    5.500000E+07  0.00800  3.155E-03    0   0.7627   age110_m52            0.0000     4.4926E+02    15.1907   4.0000   112.3337
 86      0.0000     0.0000E+00    0.0000E+00    1.015200E+08  0.00800  2.206E-03    0   0.7226   age116_m52            0.0000     4.0170E+02    13.6359   4.0000   111.8556
 87      0.0000     0.0000E+00    0.0000E+00    1.609000E+08  0.00800  1.596E-03    0   0.6963   age120_m52            0.0000     3.7585E+02    12.3363   4.0000   108.4127
 88      0.0000     0.0000E+00    0.0000E+00    2.861200E+08  0.00800  1.002E-03    0   0.6665   age125_m52            0.0000     4.0864E+02    13.1041   3.7871   108.6837
 89      0.0000     0.0000E+00    0.0000E+00    5.088000E+08  0.00800  5.759E-04    0   0.6377   age130_m52            0.0000     3.8662E+02    13.0477   3.4309   112.6259
 90      0.0000     0.0000E+00    0.0000E+00    9.047900E+08  0.00800  2.972E-04    0   0.6086   age135_m52            0.0000     2.2543E+02    10.7677   2.8640   112.0489
 91      0.0000     0.0000E+00    0.0000E+00    1.278050E+09  0.00800  2.242E-04    0   0.5907   age138_m52            0.0000     8.8606E+01     7.3785   2.2697   110.6877
 92      0.0000     0.0000E+00    0.0000E+00    1.434000E+09  0.00800  1.645E-04    0   0.5787   age139_m52            0.0000     9.0892E+01     7.2325   2.4154   110.2383
 93      0.0000     0.0000E+00    0.0000E+00    2.500000E+09  0.00800  7.723E-05    0   0.5519   age150_m52            0.0000     3.7939E+01     5.6632   2.0636   106.6807
 94      0.0001     2.4098E-05    2.5759E-05    4.250000E+09  0.00800  4.151E-05    0   0.5320   age158_m52            0.0000     2.8509E+01     5.2311   1.9837   104.3698
 95      0.0000     0.0000E+00    0.0000E+00    6.250000E+09  0.00800  3.010E-05    0   0.5197   age166_m52            0.0000     1.9001E+01     5.0488   1.7850   102.8867
 96      0.0000     0.0000E+00    0.0000E+00    7.500000E+09  0.00800  2.467E-05    0   0.5139   age171_m52            0.0000     1.8422E+01     5.1342   1.7426   102.4392
 97      0.0000     0.0000E+00    0.0000E+00    1.000000E+10  0.00800  1.862E-05    0   0.5054   age181_m52            0.0000     1.9991E+01     5.6827   1.6097   101.9098
 98      0.0103     7.1664E-03    7.1824E-03    1.300000E+10  0.00800  1.433E-05    0   0.4988   age193_m52            0.0000     2.3610E+01     6.2405   1.5174   102.3143
 99      0.0000     0.0000E+00    0.0000E+00    1.500000E+10  0.00800  1.244E-05    0   0.4936   age201_m52            0.0000     2.5839E+01     6.4097   1.4931   102.6342
100      0.0000     0.0000E+00    0.0000E+00    1.800000E+10  0.00800  1.070E-05    0   0.4888   age213_m52            0.0000     2.8430E+01     6.6013   1.4598   102.4249
101      0.0000     0.0000E+00    0.0000E+00    1.000000E+06  0.02000  1.989E-02    0   1.0000   age020_m62            0.0000     2.7562E+03    52.1331   4.0000   105.0973
102      0.0000     0.0000E+00    0.0000E+00    3.160000E+06  0.02000  3.772E-02    0   0.9858   age045_m62            0.0000     2.4518E+03    49.3558   4.0000   107.6618
103      0.0000     0.0000E+00    0.0000E+00    5.010000E+06  0.02000  3.227E-02    0   0.9342   age055_m62            0.0000     1.3068E+03    36.5624   4.0000   113.7705
104      0.0000     0.0000E+00    0.0000E+00    6.610000E+06  0.02000  2.387E-02    0   0.9090   age061_m62            0.0000     1.0881E+03    30.8502   4.0000   110.6537
105      0.0000     0.0000E+00    0.0000E+00    8.710000E+06  0.02000  1.102E-02    0   0.8861   age067_m62            0.0000     9.6658E+02    21.8376   4.0000   102.1907
106      0.0000     0.0000E+00    0.0000E+00    1.000000E+07  0.02000  1.011E-02    0   0.8751   age070_m62            0.0000     8.3407E+02    21.6251   4.0000   104.5094
107      0.0000     0.0000E+00    0.0000E+00    1.445000E+07  0.02000  7.331E-03    0   0.8472   age078_m62            0.0000     7.4020E+02    21.9950   4.0000   105.7498
108      0.0000     0.0000E+00    0.0000E+00    2.512000E+07  0.02000  4.206E-03    0   0.8099   age090_m62            0.0000     6.5659E+02    19.8636   4.0000   103.9201
109      0.0000     0.0000E+00    0.0000E+00    4.000000E+07  0.02000  3.373E-03    0   0.7799   age104_m62            0.0000     4.1305E+02    14.6559   4.0000   108.9256
110      0.0000     0.0000E+00    0.0000E+00    5.500000E+07  0.02000  2.747E-03    0   0.7595   age110_m62            0.0000     3.9457E+02    13.3712   4.0000   110.8041
111      0.0000     0.0000E+00    0.0000E+00    1.015200E+08  0.02000  1.878E-03    0   0.7221   age116_m62            0.0000     4.1968E+02    13.1791   4.0000   112.1911
112      0.0000     0.0000E+00    0.0000E+00    1.609000E+08  0.02000  1.378E-03    0   0.6978   age120_m62            0.0000     4.3916E+02    13.2910   4.0000   110.8114
113      0.0000     0.0000E+00    0.0000E+00    2.861200E+08  0.02000  8.869E-04    0   0.6700   age125_m62            0.0000     5.0222E+02    13.9798   3.7739   111.2124
114      0.0000     0.0000E+00    0.0000E+00    5.088000E+08  0.02000  4.834E-04    0   0.6430   age130_m62            0.0000     4.0897E+02    13.2877   3.3030   113.9877
115      0.0000     0.0000E+00    0.0000E+00    9.047900E+08  0.02000  2.312E-04    0   0.6152   age135_m62            0.0000     2.0865E+02    10.0230   2.6822   113.9844
116      0.0000     0.0000E+00    0.0000E+00    1.278050E+09  0.02000  1.387E-04    0   0.5927   age138_m62            0.0000     9.6352E+01     7.1876   2.2920   109.9396
117      0.0000     0.0000E+00    0.0000E+00    1.434000E+09  0.02000  1.168E-04    0   0.5865   age139_m62            0.0000     7.8389E+01     6.7328   2.2587   108.4681
118      0.0000     0.0000E+00    0.0000E+00    2.500000E+09  0.02000  5.505E-05    0   0.5610   age150_m62            0.0000     3.0471E+01     5.5065   1.8787   105.5971
119      0.0000     0.0000E+00    0.0000E+00    4.250000E+09  0.02000  3.070E-05    0   0.5407   age158_m62            0.0000     2.6349E+01     6.3067   1.5795   105.2637
120      0.0000     0.0000E+00    0.0000E+00    6.250000E+09  0.02000  2.104E-05    0   0.5277   age166_m62            0.0000     3.1751E+01     7.0865   1.4493   105.4815
121      0.0000     0.0000E+00    0.0000E+00    7.500000E+09  0.02000  1.770E-05    0   0.5223   age171_m62            0.0000     3.7449E+01     7.5780   1.3615   105.7466
122      0.6089     4.6863E-01    4.8220E-01    1.000000E+10  0.02000  1.297E-05    0   0.5121   age181_m62            0.0000     5.2430E+01     8.5559   1.2031   106.0417
123     10.1476     1.0452E+01    1.0599E+01    1.300000E+10  0.02000  9.691E-06    0   0.5047   age193_m62            0.0000     6.5125E+01     9.1020   1.1246   106.1865
124     11.9775     1.4301E+01    1.4364E+01    1.500000E+10  0.02000  8.360E-06    0   0.4999   age201_m62            0.0000     7.7839E+01     9.7095   1.0532   106.3226
125     29.4562     4.2544E+01    4.2280E+01    1.800000E+10  0.02000  6.911E-06    0   0.4946   age213_m62            0.0000     9.5614E+01    10.5468   0.9770   106.4597
126      0.0000     0.0000E+00    0.0000E+00    1.000000E+06  0.05000  2.651E-02    0   0.9998   age020_m72            0.0000     2.7087E+03    52.0643   4.0000   106.4251
127      0.0000     0.0000E+00    0.0000E+00    3.160000E+06  0.05000  4.817E-02    0   0.9577   age045_m72            0.0000     2.0247E+03    45.8517   4.0000   111.4504
128      0.0000     0.0000E+00    0.0000E+00    5.010000E+06  0.05000  3.101E-02    0   0.9147   age055_m72            0.0000     1.4281E+03    37.5882   4.0000   112.0590
129      0.0000     0.0000E+00    0.0000E+00    6.610000E+06  0.05000  1.472E-02    0   0.8877   age061_m72            0.0000     1.0692E+03    27.1472   4.0000   105.7565
130      0.0000     0.0000E+00    0.0000E+00    8.710000E+06  0.05000  1.050E-02    0   0.8638   age067_m72            0.0000     1.4702E+03    36.7801   4.0000   110.0801
131      0.0000     0.0000E+00    0.0000E+00    1.000000E+07  0.05000  8.954E-03    0   0.8524   age070_m72            0.0000     1.7761E+03    42.8559   4.0000   112.3578
132      0.0000     0.0000E+00    0.0000E+00    1.445000E+07  0.05000  6.392E-03    0   0.8262   age078_m72            0.0000     1.6300E+03    41.3985   4.0000   113.2866
133      0.0000     0.0000E+00    0.0000E+00    2.512000E+07  0.05000  4.207E-03    0   0.7902   age090_m72            0.0000     9.9561E+02    31.8556   4.0000   114.7260
134      0.0000     0.0000E+00    0.0000E+00    4.000000E+07  0.05000  3.198E-03    0   0.7618   age104_m72            0.0000     5.1587E+02    18.7138   4.0000   115.2856
135      0.0000     0.0000E+00    0.0000E+00    5.500000E+07  0.05000  2.593E-03    0   0.7432   age110_m72            0.0000     5.0234E+02    17.0284   4.0000   115.5988
136      0.0000     0.0000E+00    0.0000E+00    1.015200E+08  0.05000  1.716E-03    0   0.7092   age116_m72            0.0000     4.7471E+02    15.0979   4.0000   114.0316
137      0.0000     0.0000E+00    0.0000E+00    1.609000E+08  0.05000  1.218E-03    0   0.6876   age120_m72            0.0000     4.6336E+02    13.4958   4.0000   110.3179
138      0.0000     0.0000E+00    0.0000E+00    2.861200E+08  0.05000  7.047E-04    0   0.6618   age125_m72            0.0000     4.6222E+02    13.3899   3.5573   111.5649
139      0.0000     0.0000E+00    0.0000E+00    5.088000E+08  0.05000  3.590E-04    0   0.6356   age130_m72            0.0000     3.3088E+02    11.9759   2.9557   114.6866
140      0.0000     0.0000E+00    0.0000E+00    9.047900E+08  0.05000  1.484E-04    0   0.6088   age135_m72            0.0000     9.8502E+01     8.0104   2.1819   109.1983
141      0.0000     0.0000E+00    0.0000E+00    1.278050E+09  0.05000  9.435E-05    0   0.5924   age138_m72            0.0000     4.9398E+01     7.4429   1.7613   106.3504
142      0.0000     0.0000E+00    0.0000E+00    1.434000E+09  0.05000  7.827E-05    0   0.5847   age139_m72            0.0000     4.0435E+01     6.9617   1.7745   105.7875
143      0.0000     0.0000E+00    0.0000E+00    2.500000E+09  0.05000  3.759E-05    0   0.5583   age150_m72            0.0000     3.3184E+01     7.2959   1.4516   104.8374
144      0.0000     0.0000E+00    0.0000E+00    4.250000E+09  0.05000  1.842E-05    0   0.5374   age158_m72            0.0000     5.4673E+01     8.1530   1.1574   103.7056
145      2.6611     2.2007E+00    2.3179E+00    6.250000E+09  0.05000  1.207E-05    0   0.5242   age166_m72            0.0000     8.7186E+01     9.7753   0.9149   103.1305
146      2.5201     2.5173E+00    2.6215E+00    7.500000E+09  0.05000  9.993E-06    0   0.5183   age171_m72            0.0000     9.3426E+01     9.9979   0.8711   103.0247
147      1.1897     1.6287E+00    1.6628E+00    1.000000E+10  0.05000  7.291E-06    0   0.5081   age181_m72            0.0000     1.2427E+02    11.2805   0.7427   102.7827
148      0.0675     1.2680E-01    1.2785E-01    1.300000E+10  0.05000  5.316E-06    0   0.5018   age193_m72            0.0000     1.7741E+02    13.2332   0.5448   102.5812
149      0.2027     4.5000E-01    4.4956E-01    1.500000E+10  0.05000  4.497E-06    0   0.4972   age201_m72            0.0000     2.0643E+02    14.1793   0.4654   102.7912
150      8.5406     2.2800E+01    2.2558E+01    1.800000E+10  0.05000  3.739E-06    0   0.4924   age213_m72            0.0000     2.4373E+02    15.4648   0.3461   102.9992


## Synthesis Results - Average & Chains ##

# j      x_j: min, <> & last-chain-values for 1 ...  7 chains
  1      0.0000      0.0376      0.0000      0.0000      0.0000      0.0000      0.0000      0.0000      0.0000
  2      1.7964      0.4004      0.8286      0.5324      0.6326      0.7230      0.4398      0.5115      0.4669
  3     16.8003     15.6956     16.0212     15.7147     15.3165     15.5797     15.8448     15.8034     16.3781
  4      0.0000      0.0392      0.0000      0.0013      0.0000      0.0907      0.0000      0.0119      0.0000
  5      0.0000      0.0404      0.1385      0.0000      0.0000      0.0000      0.0000      0.0000      0.0339
  6      0.0000      0.0471      0.1169      0.0000      0.1389      0.0000      0.0790      0.0000      0.0000
  7      0.0000      0.0526      0.0673      0.0333      0.2752      0.0128      0.0722      0.0000      0.0000
  8      0.0000      0.0427      0.0000      0.1374      0.1302      0.0000      0.0000      0.0000      0.0000
  9      0.8879      0.1111      0.1035      0.1033      0.1328      0.0000      0.0000      0.0822      0.3933
 10      0.0000      0.0531      0.0000      0.0000      0.1197      0.0000      0.0000      0.0000      0.0000
 11      0.0000      0.0523      0.0000      0.2183      0.0000      0.1204      0.4900      0.0000      0.0049
 12      0.0000      0.0211      0.1478      0.0000      0.0000      0.0000      0.0000      0.0479      0.0000
 13      0.0000      0.0176      0.0000      0.0000      0.0000      0.1850      0.0017      0.0000      0.1081
 14      0.0000      0.0139      0.0000      0.0000      0.0000      0.0000      0.0000      0.0097      0.0000
 15      0.0000      0.0134      0.0000      0.0058      0.0000      0.0000      0.0000      0.0000      0.0000
 16      0.0000      0.0188      0.0000      0.0000      0.0000      0.0000      0.0000      0.0000      0.0000
 17      0.0000      0.0218      0.0000      0.0000      0.0000      0.0099      0.0161      0.0000      0.0000
 18      0.0000      0.0344      0.2283      0.0045      0.0000      0.0000      0.0000      0.0000      0.0114
 19      0.0000      0.0550      0.0000      0.1857      0.0000      0.0000      0.0000      0.0000      0.0379
 20      0.0000      0.0665      0.0000      0.0000      0.0098      0.2151      0.0000      0.0000      0.0025
 21      0.0000      0.0812      0.0194      0.0000      0.5000      0.0000      0.1811      0.0000      0.0000
 22      0.0000      0.0692      0.0000      0.0000      0.0000      0.0000      0.0000      0.2763      0.0000
 23      0.0000      0.0764      0.0217      0.0000      0.0000      0.0585      0.5702      0.0000      0.0500
 24      0.0000      0.0707      0.0000      0.0000      0.0000      0.0000      0.0000      0.1172      0.0910
 25      0.0000      0.0736      0.0000      0.0000      0.0463      0.0000      0.0000      0.2801      0.0238
 26      0.0000      0.0347      0.0000      0.0000      0.0000      0.0258      0.0288      0.0000      0.0000
 27      0.0078      0.0627      0.0000      0.0202      0.1009      0.1886      0.0000      0.3897      0.2846
 28      0.0000      0.0240      0.0914      0.0726      0.0000      0.0000      0.1379      0.0240      0.0049
 29      0.0000      0.0499      0.0000      0.0000      0.0000      0.1921      0.0000      0.0218      0.0000
 30      0.0000      0.0480      0.0000      0.0000      0.0000      0.0000      0.0000      0.0000      0.0000
 31      0.0000      0.0492      0.0213      0.0061      0.1168      0.0439      0.0980      0.0000      0.0000
 32      0.0000      0.0899      0.0000      0.0000      0.0000      0.0440      0.2442      0.0000      0.0397
 33      0.0000      0.1206      0.1402      0.5660      0.0343      0.1994      0.2143      0.0000      0.0927
 34      0.8154      0.0896      0.4801      0.1162      0.0000      0.4686      0.2381      0.1580      0.3208
 35      0.0000      0.0464      0.2878      0.0691      0.0761      0.0126      0.0000      0.0000      0.0000
 36      0.0000      0.0377      0.0000      0.0000      0.0000      0.0588      0.0000      0.0162      0.0000
 37      0.0000      0.0394      0.0210      0.0000      0.0000      0.0000      0.2535      0.0000      0.0000
 38      0.0000      0.0157      0.0000      0.0000      0.0000      0.0000      0.0535      0.0000      0.0000
 39      0.0000      0.0203      0.0152      0.0954      0.0000      0.0000      0.0000      0.0000      0.0000
 40      0.0000      0.0178      0.0000      0.0504      0.0000      0.0000      0.0308      0.0000      0.0627
 41      0.0000      0.0268      0.0000      0.0000      0.0000      0.0585      0.0189      0.0000      0.0000
 42      0.0000      0.0284      0.0000      0.0000      0.0000      0.0000      0.0000      0.0000      0.0000
 43      0.0000      0.0502      0.0000      0.0000      0.0000      0.0000      0.0000      0.0022      0.0000
 44      0.0000      0.0822      0.2793      0.0000      0.0557      0.0900      0.0000      0.3215      0.0000
 45      2.2795      0.9661      0.9370      1.4804      1.7074      0.8772      0.9930      0.9467      0.8534
 46      6.5116      6.1846      5.7310      6.2569      6.3705      7.0942      6.3746      6.1686      6.5562
 47      3.5704      5.1793      4.8561      4.9444      5.4825      5.1108      5.3820      5.0948      5.1876
 48      0.0193      0.1068      1.0991      0.0000      0.0131      0.0000      0.0000      0.0000      0.3664
 49      0.0000      0.0623      0.0000      0.0378      0.0000      0.0144      0.0000      0.0000      0.0000
 50      0.0000      0.0702      0.0000      0.1950      0.0000      0.0000      0.0695      0.0457      0.0000
 51      0.0000      0.0366      0.0081      0.0000      0.0000      0.1093      0.2242      0.0000      0.0000
 52      0.2036      0.1541      0.2183      0.5151      0.4951      0.1400      0.0600      0.2077      0.2900
 53      0.0000      0.0704      0.0646      0.0000      0.0000      0.0000      0.1684      0.0000      0.0933
 54      0.4292      0.0955      0.1159      0.2114      0.1969      0.2595      0.1121      0.4375      0.6261
 55      0.3592      0.2599      0.3321      0.1190      0.1156      0.4073      0.2748      0.2397      0.2065
 56      0.0000      0.1929      0.0000      0.1096      0.2728      0.2334      0.2642      0.4949      0.0000
 57      0.0000      0.0851      0.0347      0.0000      0.0001      0.0000      0.0000      0.1962      0.0396
 58      0.0000      0.0569      0.0000      0.2603      0.0629      0.0000      0.0000      0.3698      0.0000
 59      0.0000      0.0285      0.0000      0.0000      0.0090      0.0000      0.0000      0.0056      0.0000
 60      0.0000      0.0244      0.0000      0.0000      0.0102      0.0000      0.0000      0.0000      0.0000
 61      0.0000      0.0267      0.0000      0.1553      0.0000      0.0195      0.0000      0.0000      0.0000
 62      0.0002      0.0195      0.0000      0.0000      0.0000      0.0000      0.0000      0.0000      0.2596
 63      0.0000      0.0123      0.0000      0.0000      0.0000      0.0000      0.0000      0.0029      0.0000
 64      0.0000      0.0210      0.0000      0.0000      0.0000      0.0000      0.0000      0.0000      0.0000
 65      0.0000      0.0292      0.0000      0.1107      0.0000      0.0000      0.0112      0.0000      0.0000
 66      0.0000      0.0378      0.0000      0.0000      0.0000      0.0000      0.0000      0.0169      0.0278
 67      0.0000      0.0258      0.0000      0.0000      0.0000      0.0000      0.0000      0.0000      0.0000
 68      0.0000      0.0397      0.0000      0.0000      0.0000      0.0263      0.0000      0.0000      0.0000
 69      0.0000      0.0543      0.0000      0.0000      0.0000      0.0000      0.0355      0.0000      0.0000
 70      0.0000      0.0572      0.0000      0.0492      0.0076      0.0000      0.0880      0.0000      0.0000
 71      0.0000      0.0553      0.0000      0.0000      0.0163      0.0000      0.0139      0.0000      0.0000
 72      0.0000      0.0564      0.0273      0.0000      0.0000      0.0000      0.0322      0.0000      0.0000
 73      0.0000      0.0538      0.0000      0.0000      0.0000      0.0000      0.0540      0.0000      0.1061
 74      0.0000      0.0573      0.0000      0.0000      0.0000      0.0553      0.0000      0.0000      0.0000
 75      0.0000      0.0553      0.0000      0.0000      0.0178      0.0285      0.0000      0.0000      0.0000
 76      0.0000      0.0272      0.0000      0.0000      0.0000      0.0000      0.0000      0.0000      0.0000
 77      0.0000      0.0359      0.1199      0.0000      0.0000      0.0000      0.0000      0.0000      0.0000
 78      0.0000      0.0327      0.0000      0.0000      0.0000      0.0000      0.0000      0.0000      0.0000
 79      0.0000      0.0721      0.2016      0.0000      0.1467      0.2952      0.0000      0.0000      0.0000
 80      0.0003      0.0523      0.0554      0.0000      0.0261      0.1869      0.0000      0.1963      0.2493
 81      0.0000      0.0365      0.0000      0.0000      0.0000      0.0480      0.2400      0.0000      0.0000
 82      0.0000      0.0421      0.0917      0.0000      0.0000      0.0460      0.0000      0.0000      0.0000
 83      0.0000      0.0448      0.0000      0.0000      0.0000      0.0322      0.0000      0.0000      0.0000
 84      0.0000      0.0383      0.0000      0.0000      0.0000      0.1350      0.0000      0.2267      0.0000
 85      0.0000      0.0273      0.0000      0.0000      0.0000      0.0000      0.0000      0.0000      0.0155
 86      0.0000      0.0177      0.0015      0.0000      0.0000      0.0013      0.0000      0.0000      0.0689
 87      0.0000      0.0151      0.1429      0.0000      0.1376      0.0000      0.0000      0.0000      0.0080
 88      0.0000      0.0128      0.0000      0.0000      0.0000      0.0000      0.0000      0.0000      0.0000
 89      0.0000      0.0200      0.0112      0.0000      0.0007      0.0000      0.0000      0.0000      0.0000
 90      0.0000      0.0186      0.0000      0.0077      0.0000      0.0000      0.0000      0.0000      0.0081
 91      0.0000      0.0402      0.0100      0.0000      0.0000      0.0000      0.0000      0.0143      0.0000
 92      0.0000      0.0344      0.0000      0.0000      0.0000      0.0000      0.0000      0.0434      0.0000
 93      0.0000      0.0689      0.0219      0.0000      0.1087      0.0000      0.0000      0.0307      0.0000
 94      0.0001      0.1006      0.1909      0.0661      0.0797      0.0212      0.0000      0.0000      0.2611
 95      0.0000      0.1534      0.1109      0.0000      0.0820      0.2078      0.0340      0.4213      0.0000
 96      0.0000      0.1345      0.0000      0.5658      0.0000      0.0000      0.0000      0.0304      0.0000
 97      0.0000      0.1513      0.4572      0.0536      0.0233      0.0000      0.6308      0.0000      0.0309
 98      0.0103      0.1496      0.0025      0.0000      0.0452      0.1605      0.0292      0.2996      0.4841
 99      0.0000      0.1593      0.0000      0.0000      0.0008      0.0000      0.0000      0.1488      0.0000
100      0.0000      0.1343      0.0711      0.1338      0.0000      0.0000      0.3219      0.0000      0.0000
101      0.0000      0.0500      0.0777      0.0048      0.0000      0.0000      0.0000      0.0000      0.0000
102      0.0000      0.0235      0.0143      0.1052      0.0000      0.0000      0.0000      0.0000      0.0000
103      0.0000      0.0869      0.0000      0.0000      0.2229      0.0954      0.1890      0.0507      0.0000
104      0.0000      0.0582      0.0000      0.1049      0.1202      0.1277      0.0000      0.0000      0.0000
105      0.0000      0.1026      0.0000      0.0527      0.1432      0.0000      0.1431      0.0000      0.0489
106      0.0000      0.0638      0.0000      0.1699      0.0157      0.0000      0.0000      0.1531      0.0703
107      0.0000      0.0669      0.0287      0.4053      0.0000      0.0020      0.0112      0.1294      0.0073
108      0.0000      0.0254      0.0000      0.0000      0.0848      0.0000      0.0000      0.0681      0.0000
109      0.0000      0.0265      0.0728      0.0000      0.1602      0.0069      0.0000      0.0000      0.0000
110      0.0000      0.0200      0.0000      0.0000      0.0000      0.0000      0.0100      0.0000      0.0000
111      0.0000      0.0146      0.0570      0.0229      0.0000      0.0000      0.0000      0.0000      0.0000
112      0.0000      0.0143      0.0000      0.0000      0.0000      0.0000      0.0000      0.0000      0.0000
113      0.0000      0.0111      0.0000      0.0000      0.0686      0.0000      0.0000      0.0000      0.0000
114      0.0000      0.0193      0.0000      0.0000      0.0000      0.0000      0.1674      0.0000      0.0000
115      0.0000      0.0273      0.0000      0.0000      0.0000      0.0298      0.0000      0.0000      0.0000
116      0.0000      0.0363      0.0000      0.0000      0.0000      0.0000      0.0256      0.0000      0.0000
117      0.0000      0.0362      0.0000      0.0435      0.0000      0.0000      0.0000      0.2469      0.0000
118      0.0000      0.0780      0.1385      0.0000      0.0000      0.0377      0.0000      0.0000      0.2004
119      0.0000      0.1351      0.0000      0.1682      0.0000      0.0000      0.0000      0.0000      0.0719
120      0.0000      0.1579      0.1248      0.0000      0.0417      0.0000      0.0000      0.4029      0.0000
121      0.0000      0.1937      0.0000      0.0000      0.0000      0.0000      0.0000      0.0000      0.0738
122      0.6089      0.2493      0.2851      0.3854      0.0000      0.3277      0.1794      0.2177      0.8164
123     10.1476      9.4887      9.6778      9.9964     10.0188     10.5091      9.3252      9.5988      9.6477
124     11.9775     11.7445     11.5894     12.0023     12.2012     11.5673     12.0499     10.9188     11.4712
125     29.4562     30.4056     30.8391     29.8445     30.7407     30.7939     30.0826     30.4885     30.7068
126      0.0000      0.0277      0.0318      0.0528      0.0000      0.0239      0.0000      0.0000      0.0000
127      0.0000      0.0316      0.0000      0.0725      0.0000      0.1240      0.0000      0.1717      0.1517
128      0.0000      0.0461      0.0685      0.0000      0.0552      0.0918      0.0000      0.0000      0.1189
129      0.0000      0.0451      0.1013      0.0000      0.2289      0.0000      0.0000      0.0000      0.0000
130      0.0000      0.0351      0.0000      0.0000      0.0000      0.0122      0.0000      0.0000      0.0438
131      0.0000      0.0459      0.0000      0.0000      0.0251      0.0000      0.0000      0.0511      0.0000
132      0.0000      0.0387      0.1222      0.2344      0.1511      0.0000      0.0463      0.0000      0.0234
133      0.0000      0.0242      0.0000      0.0000      0.0852      0.0000      0.0000      0.1162      0.0000
134      0.0000      0.0150      0.0000      0.0000      0.0000      0.0000      0.0000      0.0000      0.0000
135      0.0000      0.0173      0.0000      0.0000      0.0566      0.0132      0.0000      0.0000      0.0000
136      0.0000      0.0152      0.0000      0.0000      0.0000      0.0000      0.0000      0.0000      0.0000
137      0.0000      0.0116      0.0000      0.0329      0.0000      0.0000      0.0000      0.0000      0.0000
138      0.0000      0.0117      0.0000      0.0000      0.0000      0.0000      0.0000      0.0901      0.0000
139      0.0000      0.0168      0.0000      0.0000      0.0000      0.0000      0.0000      0.0000      0.0000
140      0.0000      0.0362      0.0125      0.0000      0.0000      0.0000      0.0000      0.0000      0.0000
141      0.0000      0.0490      0.0000      0.0000      0.0254      0.0000      0.0000      0.0000      0.0000
142      0.0000      0.0569      0.0000      0.0439      0.0630      0.0000      0.0000      0.0434      0.0000
143      0.0000      0.1111      0.0000      0.0000      0.0000      0.0000      0.1072      0.4633      0.0000
144      0.0000      0.3502      0.6396      0.4391      0.4766      0.2126      0.4666      0.6590      0.1135
145      2.6611      1.1368      1.3824      1.9948      1.1236      0.9375      1.0622      0.9440      1.3276
146      2.5201      0.9318      0.9475      1.3299      0.5478      0.6313      1.6791      1.4196      0.9600
147      1.1897      0.8620      0.7736      0.6346      1.0352      1.7057      1.0032      0.6939      0.8513
148      0.0675      0.4153      0.4235      0.3324      0.6041      0.2572      0.4172      0.4922      0.4431
149      0.2027      0.5839      0.5671      0.5053      0.8880      0.5122      0.5466      0.6975      0.3352
150      8.5406      9.0980      9.1411      8.9366      8.7775      9.1977      9.1251      9.2429      9.4246

# j      m_j: min, <> & last-chain-values for 1 ...  7 chains
  1  0.0000E+00  9.1260E-05  0.0000E+00  0.0000E+00  0.0000E+00  0.0000E+00  0.0000E+00  0.0000E+00  0.0000E+00
  2  7.5706E-04  1.6662E-04  3.4328E-04  2.2238E-04  2.6151E-04  2.9779E-04  1.8223E-04  2.1270E-04  1.9311E-04
  3  1.6711E-02  1.5417E-02  1.5666E-02  1.5493E-02  1.4944E-02  1.5146E-02  1.5496E-02  1.5510E-02  1.5987E-02
  4  0.0000E+00  7.2467E-05  0.0000E+00  2.3465E-06  0.0000E+00  1.6582E-04  0.0000E+00  2.1990E-05  0.0000E+00
  5  0.0000E+00  9.4060E-05  3.2072E-04  0.0000E+00  0.0000E+00  0.0000E+00  0.0000E+00  0.0000E+00  7.8409E-05
  6  0.0000E+00  1.3015E-04  3.2196E-04  0.0000E+00  3.8168E-04  0.0000E+00  2.1761E-04  0.0000E+00  0.0000E+00
  7  0.0000E+00  1.8359E-04  2.3389E-04  1.1652E-04  9.5418E-04  4.4337E-05  2.5080E-04  0.0000E+00  0.0000E+00
  8  0.0000E+00  1.6831E-04  0.0000E+00  5.4399E-04  5.1023E-04  0.0000E+00  0.0000E+00  0.0000E+00  0.0000E+00
  9  3.8158E-03  4.7134E-04  4.3736E-04  4.4010E-04  5.5979E-04  0.0000E+00  0.0000E+00  3.4867E-04  1.6585E-03
 10  0.0000E+00  2.5822E-04  0.0000E+00  0.0000E+00  5.7857E-04  0.0000E+00  0.0000E+00  0.0000E+00  0.0000E+00
 11  0.0000E+00  3.0403E-04  0.0000E+00  1.2739E-03  0.0000E+00  6.9302E-04  2.8369E-03  0.0000E+00  2.8562E-05
 12  0.0000E+00  2.1459E-04  1.4968E-03  0.0000E+00  0.0000E+00  0.0000E+00  0.0000E+00  4.8692E-04  0.0000E+00
 13  0.0000E+00  2.0827E-04  0.0000E+00  0.0000E+00  0.0000E+00  2.1627E-03  1.9539E-05  0.0000E+00  1.2693E-03
 14  0.0000E+00  2.3342E-04  0.0000E+00  0.0000E+00  0.0000E+00  0.0000E+00  0.0000E+00  1.6267E-04  0.0000E+00
 15  0.0000E+00  3.3943E-04  0.0000E+00  1.4704E-04  0.0000E+00  0.0000E+00  0.0000E+00  0.0000E+00  0.0000E+00
 16  0.0000E+00  6.8814E-04  0.0000E+00  0.0000E+00  0.0000E+00  0.0000E+00  0.0000E+00  0.0000E+00  0.0000E+00
 17  0.0000E+00  8.8861E-04  0.0000E+00  0.0000E+00  0.0000E+00  3.9765E-04  6.5224E-04  0.0000E+00  0.0000E+00
 18  0.0000E+00  2.2784E-03  1.5066E-02  2.9759E-04  0.0000E+00  0.0000E+00  0.0000E+00  0.0000E+00  7.5383E-04
 19  0.0000E+00  5.5250E-03  0.0000E+00  1.8731E-02  0.0000E+00  0.0000E+00  0.0000E+00  0.0000E+00  3.7880E-03
 20  0.0000E+00  9.5572E-03  0.0000E+00  0.0000E+00  1.3976E-03  3.0601E-02  0.0000E+00  0.0000E+00  3.5513E-04
 21  0.0000E+00  1.3507E-02  3.2135E-03  0.0000E+00  8.2578E-02  0.0000E+00  2.9983E-02  0.0000E+00  0.0000E+00
 22  0.0000E+00  1.4853E-02  0.0000E+00  0.0000E+00  0.0000E+00  0.0000E+00  0.0000E+00  5.9222E-02  0.0000E+00
 23  0.0000E+00  2.0766E-02  5.8834E-03  0.0000E+00  0.0000E+00  1.5759E-02  1.5438E-01  0.0000E+00  1.3518E-02
 24  0.0000E+00  2.1978E-02  0.0000E+00  0.0000E+00  0.0000E+00  0.0000E+00  0.0000E+00  3.6417E-02  2.8113E-02
 25  0.0000E+00  2.7502E-02  0.0000E+00  0.0000E+00  1.7171E-02  0.0000E+00  0.0000E+00  1.0458E-01  8.8400E-03
 26  0.0000E+00  8.1346E-05  0.0000E+00  0.0000E+00  0.0000E+00  5.9816E-05  6.7209E-05  0.0000E+00  0.0000E+00
 27  3.9136E-06  3.1276E-05  0.0000E+00  1.0084E-05  4.9984E-05  9.3066E-05  0.0000E+00  1.9410E-04  1.4096E-04
 28  0.0000E+00  2.3420E-05  8.8801E-05  7.1116E-05  0.0000E+00  0.0000E+00  1.3395E-04  2.3366E-05  4.7067E-06
 29  0.0000E+00  7.5817E-05  0.0000E+00  0.0000E+00  0.0000E+00  2.8912E-04  0.0000E+00  3.3193E-05  0.0000E+00
 30  0.0000E+00  9.0738E-05  0.0000E+00  0.0000E+00  0.0000E+00  0.0000E+00  0.0000E+00  0.0000E+00  0.0000E+00
 31  0.0000E+00  1.0738E-04  4.6382E-05  1.3264E-05  2.5322E-04  9.4826E-05  2.1306E-04  0.0000E+00  0.0000E+00
 32  0.0000E+00  2.1732E-04  0.0000E+00  0.0000E+00  0.0000E+00  1.0518E-04  5.8776E-04  0.0000E+00  9.5438E-05
 33  0.0000E+00  4.1451E-04  4.7943E-04  1.9520E-03  1.1694E-04  6.7819E-04  7.3316E-04  0.0000E+00  3.1664E-04
 34  3.4465E-03  3.7414E-04  1.9949E-03  4.8683E-04  0.0000E+00  1.9355E-03  9.8930E-04  6.5895E-04  1.3305E-03
 35  0.0000E+00  2.3401E-04  1.4446E-03  3.4971E-04  3.8095E-04  6.2833E-05  0.0000E+00  0.0000E+00  0.0000E+00
 36  0.0000E+00  2.4363E-04  0.0000E+00  0.0000E+00  0.0000E+00  3.7650E-04  0.0000E+00  1.0482E-04  0.0000E+00
 37  0.0000E+00  3.1695E-04  1.6771E-04  0.0000E+00  0.0000E+00  0.0000E+00  2.0275E-03  0.0000E+00  0.0000E+00
 38  0.0000E+00  1.7620E-04  0.0000E+00  0.0000E+00  0.0000E+00  0.0000E+00  5.9559E-04  0.0000E+00  0.0000E+00
 39  0.0000E+00  3.3889E-04  2.5189E-04  1.5986E-03  0.0000E+00  0.0000E+00  0.0000E+00  0.0000E+00  0.0000E+00
 40  0.0000E+00  5.2430E-04  0.0000E+00  1.4910E-03  0.0000E+00  0.0000E+00  9.0251E-04  0.0000E+00  1.8350E-03
 41  0.0000E+00  1.0563E-03  0.0000E+00  0.0000E+00  0.0000E+00  2.2846E-03  7.4107E-04  0.0000E+00  0.0000E+00
 42  0.0000E+00  1.2523E-03  0.0000E+00  0.0000E+00  0.0000E+00  0.0000E+00  0.0000E+00  0.0000E+00  0.0000E+00
 43  0.0000E+00  3.5975E-03  0.0000E+00  0.0000E+00  0.0000E+00  0.0000E+00  0.0000E+00  1.5860E-04  0.0000E+00
 44  0.0000E+00  9.3156E-03  3.1527E-02  0.0000E+00  6.2743E-03  1.0096E-02  0.0000E+00  3.6420E-02  0.0000E+00
 45  3.6477E-01  1.5267E-01  1.4740E-01  2.3480E-01  2.6799E-01  1.3718E-01  1.5623E-01  1.4946E-01  1.3400E-01
 46  1.2413E+00  1.1642E+00  1.0740E+00  1.1822E+00  1.1911E+00  1.3217E+00  1.1947E+00  1.1602E+00  1.2264E+00
 47  8.9204E-01  1.2778E+00  1.1927E+00  1.2244E+00  1.3435E+00  1.2479E+00  1.3220E+00  1.2559E+00  1.2718E+00
 48  5.7432E-03  3.1385E-02  3.2144E-01  0.0000E+00  3.8175E-03  0.0000E+00  0.0000E+00  0.0000E+00  1.0696E-01
 49  0.0000E+00  2.0467E-02  0.0000E+00  1.2466E-02  0.0000E+00  4.6922E-03  0.0000E+00  0.0000E+00  0.0000E+00
 50  0.0000E+00  2.7137E-02  0.0000E+00  7.5658E-02  0.0000E+00  0.0000E+00  2.6753E-02  1.7637E-02  0.0000E+00
 51  0.0000E+00  6.5032E-05  1.4338E-05  0.0000E+00  0.0000E+00  1.9227E-04  3.9678E-04  0.0000E+00  0.0000E+00
 52  1.0025E-04  7.4925E-05  1.0568E-04  2.5136E-04  2.3911E-04  6.7390E-05  2.9051E-05  1.0088E-04  1.4012E-04
 53  0.0000E+00  5.2241E-05  4.7701E-05  0.0000E+00  0.0000E+00  0.0000E+00  1.2434E-04  0.0000E+00  6.8753E-05
 54  3.0725E-04  6.7547E-05  8.1569E-05  1.5000E-04  1.3827E-04  1.8155E-04  7.8896E-05  3.0904E-04  4.3987E-04
 55  3.7931E-04  2.7107E-04  3.4481E-04  1.2461E-04  1.1973E-04  4.2036E-04  2.8537E-04  2.4981E-04  2.1405E-04
 56  0.0000E+00  2.6632E-04  0.0000E+00  1.5189E-04  3.7413E-04  3.1895E-04  3.6319E-04  6.8286E-04  0.0000E+00
 57  0.0000E+00  1.8853E-04  7.6550E-05  0.0000E+00  1.9827E-07  0.0000E+00  0.0000E+00  4.3409E-04  8.7117E-05
 58  0.0000E+00  1.8156E-04  0.0000E+00  8.3416E-04  1.9941E-04  0.0000E+00  0.0000E+00  1.1799E-03  0.0000E+00
 59  0.0000E+00  1.2634E-04  0.0000E+00  0.0000E+00  3.9554E-05  0.0000E+00  0.0000E+00  2.4633E-05  0.0000E+00
 60  0.0000E+00  1.2045E-04  0.0000E+00  0.0000E+00  5.0005E-05  0.0000E+00  0.0000E+00  0.0000E+00  0.0000E+00
 61  0.0000E+00  1.6825E-04  0.0000E+00  9.8093E-04  0.0000E+00  1.2126E-04  0.0000E+00  0.0000E+00  0.0000E+00
 62  1.9952E-06  1.5596E-04  0.0000E+00  0.0000E+00  0.0000E+00  0.0000E+00  0.0000E+00  0.0000E+00  2.0588E-03
 63  0.0000E+00  1.4965E-04  0.0000E+00  0.0000E+00  0.0000E+00  0.0000E+00  0.0000E+00  3.4736E-05  0.0000E+00
 64  0.0000E+00  4.1976E-04  0.0000E+00  0.0000E+00  0.0000E+00  0.0000E+00  0.0000E+00  0.0000E+00  0.0000E+00
 65  0.0000E+00  9.8486E-04  0.0000E+00  3.7513E-03  0.0000E+00  0.0000E+00  3.7591E-04  0.0000E+00  0.0000E+00
 66  0.0000E+00  1.6307E-03  0.0000E+00  0.0000E+00  0.0000E+00  0.0000E+00  0.0000E+00  7.2720E-04  1.1944E-03
 67  0.0000E+00  1.5274E-03  0.0000E+00  0.0000E+00  0.0000E+00  0.0000E+00  0.0000E+00  0.0000E+00  0.0000E+00
 68  0.0000E+00  4.3784E-03  0.0000E+00  0.0000E+00  0.0000E+00  2.8645E-03  0.0000E+00  0.0000E+00  0.0000E+00
 69  0.0000E+00  1.0327E-02  0.0000E+00  0.0000E+00  0.0000E+00  0.0000E+00  6.7112E-03  0.0000E+00  0.0000E+00
 70  0.0000E+00  1.5132E-02  0.0000E+00  1.3070E-02  2.0013E-03  0.0000E+00  2.3171E-02  0.0000E+00  0.0000E+00
 71  0.0000E+00  1.7270E-02  0.0000E+00  0.0000E+00  5.0380E-03  0.0000E+00  4.3095E-03  0.0000E+00  0.0000E+00
 72  0.0000E+00  2.3156E-02  1.1161E-02  0.0000E+00  0.0000E+00  0.0000E+00  1.3153E-02  0.0000E+00  0.0000E+00
 73  0.0000E+00  2.7867E-02  0.0000E+00  0.0000E+00  0.0000E+00  0.0000E+00  2.7885E-02  0.0000E+00  5.4659E-02
 74  0.0000E+00  3.3128E-02  0.0000E+00  0.0000E+00  0.0000E+00  3.1642E-02  0.0000E+00  0.0000E+00  0.0000E+00
 75  0.0000E+00  3.6751E-02  0.0000E+00  0.0000E+00  1.1785E-02  1.8720E-02  0.0000E+00  0.0000E+00  0.0000E+00
 76  0.0000E+00  4.1935E-05  0.0000E+00  0.0000E+00  0.0000E+00  0.0000E+00  0.0000E+00  0.0000E+00  0.0000E+00
 77  0.0000E+00  2.2523E-05  7.4832E-05  0.0000E+00  0.0000E+00  0.0000E+00  0.0000E+00  0.0000E+00  0.0000E+00
 78  0.0000E+00  2.2971E-05  0.0000E+00  0.0000E+00  0.0000E+00  0.0000E+00  0.0000E+00  0.0000E+00  0.0000E+00
 79  0.0000E+00  6.0887E-05  1.6955E-04  0.0000E+00  1.2311E-04  2.4690E-04  0.0000E+00  0.0000E+00  0.0000E+00
 80  3.7926E-07  5.6897E-05  5.9985E-05  0.0000E+00  2.8257E-05  2.0136E-04  0.0000E+00  2.1354E-04  2.6969E-04
 81  0.0000E+00  5.2473E-05  0.0000E+00  0.0000E+00  0.0000E+00  6.8348E-05  3.4378E-04  0.0000E+00  0.0000E+00
 82  0.0000E+00  8.1526E-05  1.7696E-04  0.0000E+00  0.0000E+00  8.8202E-05  0.0000E+00  0.0000E+00  0.0000E+00
 83  0.0000E+00  1.2771E-04  0.0000E+00  0.0000E+00  0.0000E+00  9.0841E-05  0.0000E+00  0.0000E+00  0.0000E+00
 84  0.0000E+00  1.5089E-04  0.0000E+00  0.0000E+00  0.0000E+00  5.2692E-04  0.0000E+00  8.9305E-04  0.0000E+00
 85  0.0000E+00  1.3092E-04  0.0000E+00  0.0000E+00  0.0000E+00  0.0000E+00  0.0000E+00  0.0000E+00  7.3783E-05
 86  0.0000E+00  1.1477E-04  9.5189E-06  0.0000E+00  0.0000E+00  8.2622E-06  0.0000E+00  0.0000E+00  4.4445E-04
 87  0.0000E+00  1.3029E-04  1.2296E-03  0.0000E+00  1.1810E-03  0.0000E+00  0.0000E+00  0.0000E+00  6.8809E-05
 88  0.0000E+00  1.6800E-04  0.0000E+00  0.0000E+00  0.0000E+00  0.0000E+00  0.0000E+00  0.0000E+00  0.0000E+00
 89  0.0000E+00  4.3909E-04  2.4413E-04  0.0000E+00  1.4342E-05  0.0000E+00  0.0000E+00  0.0000E+00  0.0000E+00
 90  0.0000E+00  7.5300E-04  0.0000E+00  3.1474E-04  0.0000E+00  0.0000E+00  0.0000E+00  0.0000E+00  3.2532E-04
 91  0.0000E+00  2.0951E-03  5.1903E-04  0.0000E+00  0.0000E+00  0.0000E+00  0.0000E+00  7.4711E-04  0.0000E+00
 92  0.0000E+00  2.3975E-03  0.0000E+00  0.0000E+00  0.0000E+00  0.0000E+00  0.0000E+00  3.0246E-03  0.0000E+00
 93  0.0000E+00  9.7586E-03  3.0816E-03  0.0000E+00  1.5284E-02  0.0000E+00  0.0000E+00  4.3482E-03  0.0000E+00
 94  2.5759E-05  2.5539E-02  4.8233E-02  1.6835E-02  2.0102E-02  5.3151E-03  0.0000E+00  0.0000E+00  6.5869E-02
 95  0.0000E+00  5.2448E-02  3.7760E-02  0.0000E+00  2.7839E-02  7.0323E-02  1.1559E-02  1.4394E-01  0.0000E+00
 96  0.0000E+00  5.5491E-02  0.0000E+00  2.3429E-01  0.0000E+00  0.0000E+00  0.0000E+00  1.2551E-02  0.0000E+00
 97  0.0000E+00  8.1331E-02  2.4465E-01  2.8916E-02  1.2443E-02  0.0000E+00  3.3761E-01  0.0000E+00  1.6486E-02
 98  7.1824E-03  1.0312E-01  1.7446E-03  0.0000E+00  3.0975E-02  1.0951E-01  2.0036E-02  2.0634E-01  3.3165E-01
 99  0.0000E+00  1.2522E-01  0.0000E+00  0.0000E+00  6.3828E-04  0.0000E+00  0.0000E+00  1.1680E-01  0.0000E+00
100  0.0000E+00  1.2150E-01  6.4028E-02  1.2148E-01  0.0000E+00  0.0000E+00  2.8996E-01  0.0000E+00  0.0000E+00
101  0.0000E+00  4.9746E-05  7.7011E-05  4.8246E-06  0.0000E+00  0.0000E+00  0.0000E+00  0.0000E+00  0.0000E+00
102  0.0000E+00  1.2160E-05  7.3627E-06  5.4648E-05  0.0000E+00  0.0000E+00  0.0000E+00  0.0000E+00  0.0000E+00
103  0.0000E+00  4.9847E-05  0.0000E+00  0.0000E+00  1.2692E-04  5.4158E-05  1.0791E-04  2.9067E-05  0.0000E+00
104  0.0000E+00  4.3881E-05  0.0000E+00  7.9439E-05  9.0083E-05  9.5327E-05  0.0000E+00  0.0000E+00  0.0000E+00
105  0.0000E+00  1.6338E-04  0.0000E+00  8.4227E-05  2.2644E-04  0.0000E+00  2.2696E-04  0.0000E+00  7.7423E-05
106  0.0000E+00  1.0941E-04  0.0000E+00  2.9241E-04  2.6749E-05  0.0000E+00  0.0000E+00  2.6224E-04  1.1982E-04
107  0.0000E+00  1.5323E-04  6.5348E-05  9.3117E-04  0.0000E+00  4.4227E-06  2.5576E-05  2.9590E-04  1.6583E-05
108  0.0000E+00  9.6698E-05  0.0000E+00  0.0000E+00  3.2138E-04  0.0000E+00  0.0000E+00  2.5953E-04  0.0000E+00
109  0.0000E+00  1.2123E-04  3.3206E-04  0.0000E+00  7.2861E-04  3.1454E-05  0.0000E+00  0.0000E+00  0.0000E+00
110  0.0000E+00  1.0958E-04  0.0000E+00  0.0000E+00  0.0000E+00  0.0000E+00  5.4388E-05  0.0000E+00  0.0000E+00
111  0.0000E+00  1.1116E-04  4.3222E-04  1.7533E-04  0.0000E+00  0.0000E+00  0.0000E+00  0.0000E+00  0.0000E+00
112  0.0000E+00  1.4365E-04  0.0000E+00  0.0000E+00  0.0000E+00  0.0000E+00  0.0000E+00  0.0000E+00  0.0000E+00
113  0.0000E+00  1.6562E-04  0.0000E+00  0.0000E+00  1.0198E-03  0.0000E+00  0.0000E+00  0.0000E+00  0.0000E+00
114  0.0000E+00  5.0715E-04  0.0000E+00  0.0000E+00  0.0000E+00  0.0000E+00  4.3917E-03  0.0000E+00  0.0000E+00
115  0.0000E+00  1.4401E-03  0.0000E+00  0.0000E+00  0.0000E+00  1.5568E-03  0.0000E+00  0.0000E+00  0.0000E+00
116  0.0000E+00  3.0760E-03  0.0000E+00  0.0000E+00  0.0000E+00  0.0000E+00  2.1585E-03  0.0000E+00  0.0000E+00
117  0.0000E+00  3.5956E-03  0.0000E+00  4.3433E-03  0.0000E+00  0.0000E+00  0.0000E+00  2.4531E-02  0.0000E+00
118  0.0000E+00  1.5742E-02  2.7829E-02  0.0000E+00  0.0000E+00  7.5238E-03  0.0000E+00  0.0000E+00  4.0201E-02
119  0.0000E+00  4.7118E-02  0.0000E+00  5.8902E-02  0.0000E+00  0.0000E+00  0.0000E+00  0.0000E+00  2.4911E-02
120  0.0000E+00  7.8427E-02  6.1716E-02  0.0000E+00  2.0562E-02  0.0000E+00  0.0000E+00  1.9999E-01  0.0000E+00
121  0.0000E+00  1.1318E-01  0.0000E+00  0.0000E+00  0.0000E+00  0.0000E+00  0.0000E+00  0.0000E+00  4.2863E-02
122  4.8220E-01  1.9493E-01  2.2195E-01  3.0249E-01  0.0000E+00  2.5365E-01  1.3969E-01  1.7010E-01  6.3440E-01
123  1.0599E+01  9.7871E+00  9.9371E+00  1.0349E+01  1.0265E+01  1.0728E+01  9.5763E+00  9.8924E+00  9.8885E+00
124  1.4364E+01  1.3909E+01  1.3663E+01  1.4267E+01  1.4353E+01  1.3558E+01  1.4208E+01  1.2920E+01  1.3500E+01
125  4.2280E+01  4.3097E+01  4.3515E+01  4.2459E+01  4.3280E+01  4.3198E+01  4.2452E+01  4.3178E+01  4.3250E+01
126  0.0000E+00  2.0663E-05  2.3669E-05  3.9584E-05  0.0000E+00  1.7700E-05  0.0000E+00  0.0000E+00  0.0000E+00
127  0.0000E+00  1.2439E-05  0.0000E+00  2.8636E-05  0.0000E+00  4.8322E-05  0.0000E+00  6.7537E-05  5.9349E-05
128  0.0000E+00  2.6946E-05  3.9862E-05  0.0000E+00  3.2003E-05  5.3051E-05  0.0000E+00  0.0000E+00  6.9027E-05
129  0.0000E+00  5.3887E-05  1.2045E-04  0.0000E+00  2.7154E-04  0.0000E+00  0.0000E+00  0.0000E+00  0.0000E+00
130  0.0000E+00  5.7123E-05  0.0000E+00  0.0000E+00  0.0000E+00  1.9663E-05  0.0000E+00  0.0000E+00  7.0889E-05
131  0.0000E+00  8.6564E-05  0.0000E+00  0.0000E+00  4.6966E-05  0.0000E+00  0.0000E+00  9.6266E-05  0.0000E+00
132  0.0000E+00  9.8962E-05  3.1135E-04  6.0223E-04  3.8418E-04  0.0000E+00  1.1795E-04  0.0000E+00  5.9464E-05
133  0.0000E+00  9.0011E-05  0.0000E+00  0.0000E+00  3.1488E-04  0.0000E+00  0.0000E+00  4.3206E-04  0.0000E+00
134  0.0000E+00  7.0969E-05  0.0000E+00  0.0000E+00  0.0000E+00  0.0000E+00  0.0000E+00  0.0000E+00  0.0000E+00
135  0.0000E+00  9.7999E-05  0.0000E+00  0.0000E+00  3.1887E-04  7.4074E-05  0.0000E+00  0.0000E+00  0.0000E+00
136  0.0000E+00  1.2423E-04  0.0000E+00  0.0000E+00  0.0000E+00  0.0000E+00  0.0000E+00  0.0000E+00  0.0000E+00
137  0.0000E+00  1.2922E-04  0.0000E+00  3.6880E-04  0.0000E+00  0.0000E+00  0.0000E+00  0.0000E+00  0.0000E+00
138  0.0000E+00  2.1716E-04  0.0000E+00  0.0000E+00  0.0000E+00  0.0000E+00  0.0000E+00  1.6737E-03  0.0000E+00
139  0.0000E+00  5.8784E-04  0.0000E+00  0.0000E+00  0.0000E+00  0.0000E+00  0.0000E+00  0.0000E+00  0.0000E+00
140  0.0000E+00  2.9418E-03  1.0140E-03  0.0000E+00  0.0000E+00  0.0000E+00  0.0000E+00  0.0000E+00  0.0000E+00
141  0.0000E+00  6.0974E-03  0.0000E+00  0.0000E+00  3.1433E-03  0.0000E+00  0.0000E+00  0.0000E+00  0.0000E+00
142  0.0000E+00  8.4193E-03  0.0000E+00  6.5126E-03  9.2621E-03  0.0000E+00  0.0000E+00  6.4170E-03  0.0000E+00
143  0.0000E+00  3.2678E-02  0.0000E+00  0.0000E+00  0.0000E+00  0.0000E+00  3.1395E-02  1.3618E-01  0.0000E+00
144  0.0000E+00  2.0234E-01  3.6788E-01  2.5467E-01  2.7356E-01  1.2157E-01  2.6840E-01  3.8049E-01  6.5177E-02
145  2.3179E+00  9.7782E-01  1.1837E+00  1.7222E+00  9.5996E-01  7.9811E-01  9.0968E-01  8.1127E-01  1.1348E+00
146  2.6215E+00  9.5717E-01  9.6895E-01  1.3712E+00  5.5894E-01  6.4180E-01  1.7172E+00  1.4570E+00  9.7989E-01
147  1.6628E+00  1.1898E+00  1.0629E+00  8.7908E-01  1.4192E+00  2.3299E+00  1.3785E+00  9.5687E-01  1.1675E+00
148  1.2785E-01  7.7636E-01  7.8826E-01  6.2373E-01  1.1218E+00  4.7580E-01  7.7654E-01  9.1940E-01  8.2309E-01
149  4.4956E-01  1.2786E+00  1.2362E+00  1.1105E+00  1.9313E+00  1.1100E+00  1.1916E+00  1.5261E+00  7.2943E-01
150  2.2558E+01  2.3730E+01  2.3735E+01  2.3395E+01  2.2740E+01  2.3742E+01  2.3696E+01  2.4087E+01  2.4427E+01

# AV, chi2 & Mass for <> & i_chain = 1 ...  7 solutions
AV       1.6821      1.6811      1.6802      1.6804      1.6810      1.6783      1.6769      1.6800      1.6806
chi2 2.2741E+00  2.3130E+00  2.3019E+00  2.3001E+00  2.3005E+00  2.3011E+00  2.3046E+00  2.3030E+00  2.2989E+00
Mass 1.4710E-09  1.4876E-09  1.4926E-09  1.4807E-09  1.4976E-09  1.4975E-09  1.4859E-09  1.4868E-09  1.4961E-09
 -33.86                                  [v0_min (km/s) before EX0s...]
 100.17                                  [vd_min (km/s) before EX0s...]


## Synthetic spectrum (Best Model) ##l_obs f_obs f_syn wei
 3070    [Nl_obs]
 3359.00    0.26439   0.36866   -1.000
 3360.00    0.26493   0.35844   -1.000
 3361.00    0.26729   0.36922   -1.000
 3362.00    0.25188   0.39403   -1.000
 3363.00    0.24632   0.41941   -1.000
 3364.00    0.25785   0.43248   -1.000
 3365.00    0.28534   0.42863   -1.000
 3366.00    0.29042   0.41304   -1.000
 3367.00    0.30203   0.39432   -1.000
 3368.00    0.29677   0.37834   -1.000
 3369.00    0.28025   0.36736   -1.000
 3370.00    0.31250   0.36203   -1.000
 3371.00    0.29362   0.36420   -1.000
 3372.00    0.27237   0.37628   -1.000
 3373.00    0.26250   0.39741   -1.000
 3374.00    0.29858   0.42210   -1.000
 3375.00    0.33067   0.44201   -1.000
 3376.00    0.32575   0.44947   -1.000
 3377.00    0.31183   0.44253   -1.000
 3378.00    0.32652   0.42747   -1.000
 3379.00    0.32267   0.41474   -1.000
 3380.00    0.30482   0.41170   -1.000
 3381.00    0.31177   0.41843   -1.000
 3382.00    0.29574   0.42975   -1.000
 3383.00    0.29520   0.44084   -1.000
 3384.00    0.30803   0.44959   -1.000
 3385.00    0.32886   0.45501   -1.000
 3386.00    0.34197   0.45659   -1.000
 3387.00    0.36076   0.45541   -1.000
 3388.00    0.35169   0.45322   -1.000
 3389.00    0.36255   0.44972   -1.000
 3390.00    0.36728   0.44305   41.057
 3391.00    0.35162   0.43422   -1.000
 3392.00    0.34571   0.42880   -1.000
 3393.00    0.33428   0.43222   -1.000
 3394.00    0.34380   0.44466   -1.000
 3395.00    0.34495   0.46145   -1.000
 3396.00    0.38390   0.47793   -1.000
 3397.00    0.40739   0.49184   32.579
 3398.00    0.42872   0.50102   32.233
 3399.00    0.42835   0.50328   32.645
 3400.00    0.41565   0.49816   33.999
 3401.00    0.40541   0.48743   34.354
 3402.00    0.40278   0.47479   34.967
 3403.00    0.40689   0.46382   35.599
 3404.00    0.41028   0.45545   36.135
 3405.00    0.43452   0.44852   36.335
 3406.00    0.40644   0.44250   36.889
 3407.00    0.43344   0.43903   37.037
 3408.00    0.42335   0.44018   36.702
 3409.00    0.40435   0.44465   35.657
 3410.00    0.38319   0.44656   35.581
 3411.00    0.39995   0.44043   37.074
 3412.00    0.44024   0.42761   37.655
 3413.00    0.43776   0.41604   37.461
 3414.00    0.43555   0.41416   36.434
 3415.00    0.43765   0.42487   34.835
 3416.00    0.42947   0.44435   33.169
 3417.00    0.42329   0.46619   31.660
 3418.00    0.43326   0.48498   31.547
 3419.00    0.44891   0.49632   31.372
 3420.00    0.46991   0.49676   31.653
 3421.00    0.49215   0.48676   32.575
 3422.00    0.45688   0.47298   33.113
 3423.00    0.43456   0.46343   32.144
 3424.00    0.45547   0.46110   31.375
 3425.00    0.45470   0.46443   34.773
 3426.00    0.46471   0.47206  288.011
 3427.00    0.48249   0.48410  288.011
 3428.00    0.48310   0.49823   -1.000
 3429.00    0.50613   0.50663  288.011
 3430.00    0.48081   0.50244  151.647
 3431.00    0.45984   0.48810   31.342
 3432.00    0.47236   0.47406   34.827
 3433.00    0.43623   0.46908   -1.000
 3434.00    0.43198   0.47209   -1.000
 3435.00    0.44092   0.47420   31.311
 3436.00    0.44904   0.46757   32.843
 3437.00    0.43905   0.45022   34.903
 3438.00    0.42502   0.42518   37.537
 3439.00    0.41695   0.39856   38.855
 3440.00    0.39356   0.37720   38.875
 3441.00    0.38398   0.36652   38.528
 3442.00    0.39158   0.36795   36.905
 3443.00    0.39500   0.37830   34.872
 3444.00    0.42071   0.39298   33.034
 3445.00    0.43533   0.40971   36.084
 3446.00    0.43527   0.42825  288.011
 3447.00    0.44095   0.44816  288.011
 3448.00    0.45659   0.46620  288.011
 3449.00    0.48074   0.47612  288.011
 3450.00    0.47827   0.47439  288.011
 3451.00    0.46497   0.46583  288.011
 3452.00    0.48063   0.45978   -1.000
 3453.00    0.50518   0.46119   -1.000
 3454.00    0.48122   0.46653   -1.000
 3455.00    0.49313   0.46775   -1.000
 3456.00    0.47023   0.45997  140.136
 3457.00    0.46336   0.44506   31.290
 3458.00    0.46058   0.42908   31.632
 3459.00    0.45757   0.41788   35.745
 3460.00    0.46390   0.41529   -1.000
 3461.00    0.43703   0.42285   -1.000
 3462.00    0.44051   0.43714  284.147
 3463.00    0.46287   0.44941   -1.000
 3464.00    0.47213   0.45405   -1.000
 3465.00    0.48828   0.45460   -1.000
 3466.00    0.49044   0.45853   -1.000
 3467.00    0.48813   0.46885   -1.000
 3468.00    0.49988   0.48189   -1.000
 3469.00    0.50363   0.49038   -1.000
 3470.00    0.50698   0.48859   -1.000
 3471.00    0.50598   0.47547   -1.000
 3472.00    0.50282   0.45436   -1.000
 3473.00    0.48581   0.43120   31.660
 3474.00    0.45767   0.41282   32.583
 3475.00    0.43771   0.40559   36.662
 3476.00    0.45599   0.41186   -1.000
 3477.00    0.45409   0.42798   -1.000
 3478.00    0.46439   0.44654   -1.000
 3479.00    0.51395   0.46077   -1.000
 3480.00    0.52763   0.46682   -1.000
 3481.00    0.49989   0.46467   -1.000
 3482.00    0.46488   0.45853  272.767
 3483.00    0.47077   0.45536   -1.000
 3484.00    0.49832   0.46012   -1.000
 3485.00    0.50084   0.47087   -1.000
 3486.00    0.49690   0.47928   -1.000
 3487.00    0.48347   0.47691  277.867
 3488.00    0.50346   0.46236   -1.000
 3489.00    0.52100   0.44306   -1.000
 3490.00    0.49059   0.42980   -1.000
 3491.00    0.47307   0.42841   -1.000
 3492.00    0.49834   0.43612   -1.000
 3493.00    0.49276   0.44490   -1.000
 3494.00    0.48307   0.44803   -1.000
 3495.00    0.47770   0.44572   -1.000
 3496.00    0.45358   0.44540  279.588
 3497.00    0.45696   0.45482  260.193
 3498.00    0.47703   0.47336  249.136
 3499.00    0.50858   0.49238   -1.000
 3500.00    0.53104   0.50551   -1.000
 3501.00    0.53210   0.51387   -1.000
 3502.00    0.55215   0.51952   -1.000
 3503.00    0.55990   0.52078   -1.000
 3504.00    0.53969   0.51604   -1.000
 3505.00    0.54431   0.50765   -1.000
 3506.00    0.53612   0.49981   -1.000
 3507.00    0.53982   0.49336   -1.000
 3508.00    0.52156   0.48578   -1.000
 3509.00    0.51327   0.47571   -1.000
 3510.00    0.51732   0.46391   -1.000
 3511.00    0.51481   0.45160   -1.000
 3512.00    0.51438   0.44082   -1.000
 3513.00    0.47784   0.43619   -1.000
 3514.00    0.45726   0.44372   -1.000
 3515.00    0.46846   0.46469  250.162
 3516.00    0.49024   0.49089  248.349
 3517.00    0.51628   0.50925  256.472
 3518.00    0.52137   0.51105   -1.000
 3519.00    0.54509   0.49682   -1.000
 3520.00    0.52596   0.47384   -1.000
 3521.00    0.50534   0.45000   -1.000
 3522.00    0.50097   0.42929   31.411
 3523.00    0.46659   0.41301   32.315
 3524.00    0.45654   0.40418   38.053
 3525.00    0.43864   0.40762   -1.000
 3526.00    0.42938   0.42482  275.504
 3527.00    0.44291   0.45085  262.564
 3528.00    0.46349   0.47609  260.236
 3529.00    0.52321   0.49199   -1.000
 3530.00    0.53561   0.49678   -1.000
 3531.00    0.51307   0.49599   -1.000
 3532.00    0.49997   0.49647  258.091
 3533.00    0.50382   0.50090  252.856
 3534.00    0.52619   0.50753   -1.000
 3535.00    0.53787   0.51389   -1.000
 3536.00    0.54647   0.51977   -1.000
 3537.00    0.53561   0.52606  245.580
 3538.00    0.54987   0.53119   -1.000
 3539.00    0.53862   0.53203  252.550
 3540.00    0.54131   0.52839   -1.000
 3541.00    0.51007   0.52475   -1.000
 3542.00    0.50675   0.52600   -1.000
 3543.00    0.51765   0.53161   -1.000
 3544.00    0.52581   0.53632  253.798
 3545.00    0.53175   0.53607  258.746
 3546.00    0.52028   0.53194  259.400
 3547.00    0.52666   0.52802  258.578
 3548.00    0.52600   0.52623  257.748
 3549.00    0.51612   0.52454  262.228
 3550.00    0.51394   0.51960  270.391
 3551.00    0.51294   0.51008  277.570
 3552.00    0.51013   0.49842   -1.000
 3553.00    0.50498   0.48973   -1.000
 3554.00    0.49634   0.48745  272.266
 3555.00    0.48109   0.48998  274.142
 3556.00    0.46228   0.49303   -1.000
 3557.00    0.45786   0.49419   -1.000
 3558.00    0.47083   0.49504   -1.000
 3559.00    0.46825   0.49883   -1.000
 3560.00    0.46308   0.50555   -1.000
 3561.00    0.46363   0.50967   -1.000
 3562.00    0.48050   0.50353  110.608
 3563.00    0.50523   0.48423   31.789
 3564.00    0.48329   0.45781   32.759
 3565.00    0.45916   0.43550   32.404
 3566.00    0.43020   0.42340   32.481
 3567.00    0.42760   0.41778   33.504
 3568.00    0.44134   0.41234   33.768
 3569.00    0.42447   0.40645   32.596
 3570.00    0.40481   0.40497   38.400
 3571.00    0.40170   0.41168  288.011
 3572.00    0.40637   0.42429   -1.000
 3573.00    0.43139   0.43712  288.011
 3574.00    0.46895   0.44606   -1.000
 3575.00    0.46143   0.44859   -1.000
 3576.00    0.45493   0.44290  112.161
 3577.00    0.45304   0.42885   33.107
 3578.00    0.42616   0.40888   35.596
 3579.00    0.41745   0.38821   37.181
 3580.00    0.40460   0.37292   37.387
 3581.00    0.38632   0.36614   37.705
 3582.00    0.37857   0.36594   38.730
 3583.00    0.37922   0.36716   39.860
 3584.00    0.38321   0.36605   39.841
 3585.00    0.36666   0.36390   37.775
 3586.00    0.37315   0.36604   35.801
 3587.00    0.38059   0.37717   33.728
 3588.00    0.39049   0.39797   38.721
 3589.00    0.41774   0.42446  286.972
 3590.00    0.44027   0.44948  278.488
 3591.00    0.46647   0.46681  277.127
 3592.00    0.49253   0.47631   -1.000
 3593.00    0.51017   0.48417   -1.000
 3594.00    0.49332   0.49650  250.088
 3595.00    0.47783   0.51359   -1.000
 3596.00    0.49770   0.53084   -1.000
 3597.00    0.53938   0.54470  234.787
 3598.00    0.54222   0.55417  239.535
 3599.00    0.55621   0.55659  251.659
 3600.00    0.56153   0.54799   -1.000
 3601.00    0.55156   0.52844   -1.000
 3602.00    0.53659   0.50383   -1.000
 3603.00    0.50931   0.48223   -1.000
 3604.00    0.48683   0.46819   -1.000
 3605.00    0.47204   0.45976   -1.000
 3606.00    0.47407   0.45187   -1.000
 3607.00    0.47772   0.44277   -1.000
 3608.00    0.46950   0.43657   -1.000
 3609.00    0.45111   0.43900   -1.000
 3610.00    0.46780   0.45124   -1.000
 3611.00    0.48972   0.46864   -1.000
 3612.00    0.50371   0.48584   -1.000
 3613.00    0.50838   0.50052  254.481
 3614.00    0.51708   0.51002  259.899
 3615.00    0.50093   0.50870  283.424
 3616.00    0.50169   0.49242  100.422
 3617.00    0.49105   0.46655   39.174
 3618.00    0.47044   0.44660   -1.000
 3619.00    0.46139   0.44626   -1.000
 3620.00    0.48348   0.46612   -1.000
 3621.00    0.52054   0.49584   -1.000
 3622.00    0.52823   0.52473  239.798
 3623.00    0.54164   0.54993  230.523
 3624.00    0.56791   0.57439  222.333
 3625.00    0.59368   0.59837  220.881
 3626.00    0.59020   0.61495   -1.000
 3627.00    0.59839   0.61387   -1.000
 3628.00    0.61034   0.58946   -1.000
 3629.00    0.58764   0.54749   -1.000
 3630.00    0.56076   0.50465   -1.000
 3631.00    0.52740   0.47783   -1.000
 3632.00    0.49488   0.47318   -1.000
 3633.00    0.50368   0.48534   -1.000
 3634.00    0.51774   0.50414   -1.000
 3635.00    0.51987   0.52285  241.656
 3636.00    0.53956   0.54123  231.470
 3637.00    0.55581   0.56120  225.593
 3638.00    0.56721   0.58066   -1.000
 3639.00    0.55719   0.59375   -1.000
 3640.00    0.58841   0.59525  242.264
 3641.00    0.60591   0.58427   -1.000
 3642.00    0.57507   0.56482  260.647
 3643.00    0.55337   0.54249  264.948
 3644.00    0.54713   0.52094   -1.000
 3645.00    0.53559   0.50163   -1.000
 3646.00    0.52611   0.48622   -1.000
 3647.00    0.49408   0.47881   -1.000
 3648.00    0.49586   0.48398  251.465
 3649.00    0.50529   0.50273  239.653
 3650.00    0.52591   0.53107  230.692
 3651.00    0.55495   0.56165  225.709
 3652.00    0.58541   0.58722  223.214
 3653.00    0.59912   0.60522  222.015
 3654.00    0.61860   0.61871  219.483
 3655.00    0.63276   0.63184  216.823
 3656.00    0.63904   0.64568  214.112
 3657.00    0.64060   0.65781   -1.000
 3658.00    0.64623   0.66489   -1.000
 3659.00    0.65859   0.66506  217.351
 3660.00    0.65537   0.65820  220.050
 3661.00    0.64691   0.64640  223.311
 3662.00    0.63191   0.63408  223.800
 3663.00    0.62817   0.62559  221.762
 3664.00    0.62261   0.62189  223.148
 3665.00    0.60848   0.61982   -1.000
 3666.00    0.62414   0.61486  230.645
 3667.00    0.62102   0.60571   -1.000
 3668.00    0.61278   0.59673   -1.000
 3669.00    0.60243   0.59510  223.141
 3670.00    0.59834   0.60374  219.715
 3671.00    0.61760   0.61790  219.190
 3672.00    0.63455   0.62981  219.300
 3673.00    0.64061   0.63410  221.496
 3674.00    0.64006   0.62883  228.507
 3675.00    0.65054   0.61419   -1.000
 3676.00    0.62396   0.59222   -1.000
 3677.00    0.61640   0.56764   -1.000
 3678.00    0.59489   0.54767   -1.000
 3679.00    0.56489   0.53911   -1.000
 3680.00    0.55764   0.54380   -1.000
 3681.00    0.56890   0.55650  232.056
 3682.00    0.59259   0.56769   -1.000
 3683.00    0.59693   0.56876   -1.000
 3684.00    0.56890   0.55693   -1.000
 3685.00    0.56911   0.53768   -1.000
 3686.00    0.56353   0.52299   -1.000
 3687.00    0.54210   0.52439   -1.000
 3688.00    0.54612   0.54526  218.686
 3689.00    0.56912   0.57826  214.498
 3690.00    0.59940   0.60905  217.469
 3691.00    0.63004   0.62493  222.747
 3692.00    0.65061   0.62354   -1.000
 3693.00    0.64957   0.61360   -1.000
 3694.00    0.62508   0.60603   -1.000
 3695.00    0.62016   0.60686  216.972
 3696.00    0.62836   0.61701  210.232
 3697.00    0.64157   0.63371  205.649
 3698.00    0.64737   0.65111  204.840
 3699.00    0.65433   0.66157  210.428
 3700.00    0.66753   0.65780  223.054
 3701.00    0.66232   0.63521   -1.000
 3702.00    0.63709   0.59543   -1.000
 3703.00    0.60342   0.54810   -1.000
 3704.00    0.57617   0.50670   -1.000
 3705.00    0.53944   0.48128   -1.000
 3706.00    0.51516   0.47366   -1.000
 3707.00    0.52738   0.47971   -1.000
 3708.00    0.52386   0.49612   -1.000
 3709.00    0.52718   0.52196  227.182
 3710.00    0.55568   0.55506  214.823
 3711.00    0.58610   0.59053  206.045
 3712.00    0.62542   0.62163  202.346
 3713.00    0.65739   0.64122   -1.000
 3714.00    0.68118   0.64433   -1.000
 3715.00    0.68254   0.62953   -1.000
 3716.00    0.65125   0.59781   -1.000
 3717.00    0.61202   0.55253   -1.000
 3718.00    0.56764   0.50061   -1.000
 3719.00    0.51107   0.45338   42.996
 3720.00    0.45122   0.42481   -1.000
 3721.00    0.43394   0.42437  252.974
 3722.00    0.46964   0.45009   -1.000
 3723.00    0.50606   0.48959   -1.000
 3724.00    0.55272   0.52610   -1.000
 3725.00    0.58864   0.54706   -1.000
 3726.00    0.60202   0.55190   -1.000
 3727.00    0.59741   0.54975   -1.000
 3728.00    0.57816   0.54712   -1.000
 3729.00    0.57450   0.54052   -1.000
 3730.00    0.57948   0.52138   -1.000
 3731.00    0.55287   0.48592   32.168
 3732.00    0.50943   0.44069   35.280
 3733.00    0.46522   0.39868   35.604
 3734.00    0.42089   0.37229   33.283
 3735.00    0.39445   0.36950   42.585
 3736.00    0.41479   0.39129   -1.000
 3737.00    0.44917   0.43137   -1.000
 3738.00    0.47087   0.47847  232.544
 3739.00    0.50407   0.51873  234.576
 3740.00    0.54633   0.53982  245.716
 3741.00    0.56140   0.53698   -1.000
 3742.00    0.55819   0.51527   -1.000
 3743.00    0.54085   0.48554   -1.000
 3744.00    0.52111   0.45752   -1.000
 3745.00    0.48431   0.43458   32.168
 3746.00    0.45652   0.41515   33.724
 3747.00    0.45807   0.39965   46.989
 3748.00    0.45179   0.39378   -1.000
 3749.00    0.42282   0.40501   -1.000
 3750.00    0.43495   0.43598  234.813
 3751.00    0.49719   0.48085   -1.000
 3752.00    0.55057   0.52891   -1.000
 3753.00    0.56460   0.56875  210.743
 3754.00    0.58604   0.58907  227.741
 3755.00    0.61115   0.58324   -1.000
 3756.00    0.60565   0.55595   -1.000
 3757.00    0.57394   0.52290   -1.000
 3758.00    0.53897   0.50112   -1.000
 3759.00    0.52014   0.49715   -1.000
 3760.00    0.51885   0.50462   -1.000
 3761.00    0.53821   0.51285   -1.000
 3762.00    0.54165   0.51602   -1.000
 3763.00    0.53204   0.51471   -1.000
 3764.00    0.53723   0.51125   -1.000
 3765.00    0.54576   0.50754   -1.000
 3766.00    0.56138   0.50608   -1.000
 3767.00    0.54736   0.50904   -1.000
 3768.00    0.55430   0.51658   -1.000
 3769.00    0.57900   0.52805   -1.000
 3770.00    0.59100   0.54337   -1.000
 3771.00    0.59575   0.56190   -1.000
 3772.00    0.61259   0.58079   -1.000
 3773.00    0.61593   0.59568   -1.000
 3774.00    0.63054   0.60451   -1.000
 3775.00    0.63935   0.60967   -1.000
 3776.00    0.62028   0.61557  208.873
 3777.00    0.62557   0.62502  202.504
 3778.00    0.64315   0.63773  198.952
 3779.00    0.65212   0.65115  197.704
 3780.00    0.65845   0.66228  196.949
 3781.00    0.66710   0.66889  198.578
 3782.00    0.67626   0.66873  205.251
 3783.00    0.68739   0.65854   -1.000
 3784.00    0.66890   0.63637   -1.000
 3785.00    0.64505   0.60504   -1.000
 3786.00    0.60614   0.57194   -1.000
 3787.00    0.56871   0.54597   -1.000
 3788.00    0.55645   0.53337   -1.000
 3789.00    0.55020   0.53388   -1.000
 3790.00    0.54065   0.54032  244.199
 3791.00    0.55015   0.54307  253.272
 3792.00    0.55189   0.53602   -1.000
 3793.00    0.53047   0.51969   -1.000
 3794.00    0.50278   0.49873  286.217
 3795.00    0.49971   0.47700   -1.000
 3796.00    0.50377   0.45734   -1.000
 3797.00    0.49829   0.44505   -1.000
 3798.00    0.48414   0.44826   -1.000
 3799.00    0.48231   0.47165  231.706
 3800.00    0.49919   0.51012  223.456
 3801.00    0.52138   0.55143   -1.000
 3802.00    0.55349   0.58385   -1.000
 3803.00    0.57887   0.60089   -1.000
 3804.00    0.58469   0.60252   -1.000
 3805.00    0.57271   0.59460   -1.000
 3806.00    0.55576   0.58667   -1.000
 3807.00    0.55400   0.58670   -1.000
 3808.00    0.55614   0.59513   -1.000
 3809.00    0.56972   0.60409   -1.000
 3810.00    0.59666   0.60331  239.610
 3811.00    0.59680   0.58765   -1.000
 3812.00    0.56361   0.56042  268.386
 3813.00    0.53013   0.53049  274.386
 3814.00    0.48607   0.50708   -1.000
 3815.00    0.46189   0.49478   -1.000
 3816.00    0.46329   0.49044   -1.000
 3817.00    0.46797   0.48573   -1.000
 3818.00    0.47617   0.47537  288.011
 3819.00    0.46756   0.46280  286.801
 3820.00    0.44560   0.45566  279.466
 3821.00    0.44421   0.45605  288.011
 3822.00    0.45367   0.45716   76.552
 3823.00    0.45318   0.45112   32.871
 3824.00    0.43305   0.43836   33.206
 3825.00    0.41257   0.42617   32.812
 3826.00    0.40323   0.42088   32.273
 3827.00    0.39562   0.42316   32.084
 3828.00    0.40598   0.42858   32.886
 3829.00    0.42523   0.43083   34.818
 3830.00    0.43237   0.42538   37.014
 3831.00    0.42451   0.41198   37.415
 3832.00    0.41083   0.39514   36.349
 3833.00    0.39999   0.38158   35.118
 3834.00    0.38651   0.37592   34.922
 3835.00    0.39530   0.37795   35.732
 3836.00    0.41304   0.38380   36.030
 3837.00    0.41663   0.39038   34.809
 3838.00    0.42391   0.39884   49.839
 3839.00    0.42426   0.41340   -1.000
 3840.00    0.41910   0.43704   -1.000
 3841.00    0.45035   0.46820   -1.000
 3842.00    0.48355   0.50096   -1.000
 3843.00    0.49564   0.52823   -1.000
 3844.00    0.50472   0.54577   -1.000
 3845.00    0.51190   0.55387   -1.000
 3846.00    0.50845   0.55485   -1.000
 3847.00    0.51151   0.55061   -1.000
 3848.00    0.50644   0.54344   -1.000
 3849.00    0.50854   0.53749   -1.000
 3850.00    0.50424   0.53662   -1.000
 3851.00    0.50005   0.54016   -1.000
 3852.00    0.50925   0.54276   -1.000
 3853.00    0.51866   0.53946   -1.000
 3854.00    0.49980   0.52959   -1.000
 3855.00    0.47382   0.51546   69.495
 3856.00    0.47807   0.49939   31.614
 3857.00    0.49572   0.48410   32.565
 3858.00    0.48730   0.47473   48.445
 3859.00    0.47167   0.47696  275.304
 3860.00    0.46799   0.49250   -1.000
 3861.00    0.47781   0.51591   -1.000
 3862.00    0.51697   0.53693   -1.000
 3863.00    0.54085   0.54787  255.043
 3864.00    0.53879   0.54863  259.316
 3865.00    0.52949   0.54468   -1.000
 3866.00    0.51623   0.54045   -1.000
 3867.00    0.50448   0.53589   -1.000
 3868.00    0.50476   0.52846   69.682
 3869.00    0.50428   0.51762   47.940
 3870.00    0.49568   0.50759  288.011
 3871.00    0.48332   0.50509   -1.000
 3872.00    0.48174   0.51400   -1.000
 3873.00    0.49228   0.53136   -1.000
 3874.00    0.52569   0.54751   -1.000
 3875.00    0.56185   0.55197   -1.000
 3876.00    0.56452   0.54253   -1.000
 3877.00    0.53994   0.52718   -1.000
 3878.00    0.51283   0.51590  288.011
 3879.00    0.50253   0.51290  288.011
 3880.00    0.50114   0.51644   -1.000
 3881.00    0.49969   0.52306   -1.000
 3882.00    0.50270   0.52949   -1.000
 3883.00    0.52302   0.53037  258.035
 3884.00    0.54722   0.51986   -1.000
 3885.00    0.53753   0.49856   -1.000
 3886.00    0.51473   0.47637   -1.000
 3887.00    0.52078   0.46666   -1.000
 3888.00    0.54129   0.47801   -1.000
 3889.00    0.55600   0.50953   -1.000
 3890.00    0.58815   0.55189   -1.000
 3891.00    0.64045   0.59156   -1.000
 3892.00    0.67195   0.61729   -1.000
 3893.00    0.66499   0.62677   -1.000
 3894.00    0.64962   0.62687   -1.000
 3895.00    0.64692   0.62587   -1.000
 3896.00    0.65472   0.62677   -1.000
 3897.00    0.66969   0.62779   -1.000
 3898.00    0.66499   0.62755   -1.000
 3899.00    0.64873   0.62749   -1.000
 3900.00    0.65360   0.62860   -1.000
 3901.00    0.65941   0.62853   -1.000
 3902.00    0.67491   0.62428   -1.000
 3903.00    0.67017   0.61670   -1.000
 3904.00    0.63678   0.61120   -1.000
 3905.00    0.60946   0.61451  205.675
 3906.00    0.61475   0.63004  195.575
 3907.00    0.65128   0.65530  192.273
 3908.00    0.68340   0.68290  190.538
 3909.00    0.71000   0.70562  189.007
 3910.00    0.72796   0.72054  189.314
 3911.00    0.73827   0.72834  192.334
 3912.00    0.75114   0.72996   -1.000
 3913.00    0.75190   0.72582   -1.000
 3914.00    0.74218   0.71683   -1.000
 3915.00    0.72207   0.70409   -1.000
 3916.00    0.71037   0.68762   -1.000
 3917.00    0.69936   0.66662   -1.000
 3918.00    0.68523   0.64186   -1.000
 3919.00    0.65929   0.61714   -1.000
 3920.00    0.63125   0.59819   -1.000
 3921.00    0.60556   0.58923   -1.000
 3922.00    0.59431   0.58921  235.335
 3923.00    0.59943   0.59142  251.843
 3924.00    0.60484   0.58729   -1.000
 3925.00    0.60017   0.57118   70.742
 3926.00    0.58327   0.54282   36.832
 3927.00    0.52929   0.50640   43.155
 3928.00    0.46080   0.46715   50.720
 3929.00    0.39729   0.42776   59.773
 3930.00    0.33546   0.38807   68.023
 3931.00    0.31123   0.34931   70.223
 3932.00    0.31541   0.31823   64.242
 3933.00    0.31952   0.30520   54.434
 3934.00    0.32236   0.31651   44.834
 3935.00    0.33140   0.34947   37.223
 3936.00    0.36331   0.39556   54.550
 3937.00    0.41003   0.44571   -1.000
 3938.00    0.46299   0.49187   -1.000
 3939.00    0.51373   0.52801  266.206
 3940.00    0.55262   0.55105  264.871
 3941.00    0.57006   0.56202  258.761
 3942.00    0.56038   0.56714  240.559
 3943.00    0.54639   0.57520   -1.000
 3944.00    0.55618   0.59129   -1.000
 3945.00    0.59303   0.61361   -1.000
 3946.00    0.64681   0.63660  207.686
 3947.00    0.68086   0.65657   -1.000
 3948.00    0.69660   0.67381   -1.000
 3949.00    0.72059   0.68877   -1.000
 3950.00    0.74475   0.69981   -1.000
 3951.00    0.74958   0.70661   -1.000
 3952.00    0.73681   0.71138   -1.000
 3953.00    0.73992   0.71483   -1.000
 3954.00    0.76014   0.71455   -1.000
 3955.00    0.75050   0.70858   -1.000
 3956.00    0.72303   0.69842   -1.000
 3957.00    0.71464   0.68575   -1.000
 3958.00    0.71370   0.66707   -1.000
 3959.00    0.69740   0.63716   -1.000
 3960.00    0.64798   0.59749   -1.000
 3961.00    0.57615   0.55610   64.448
 3962.00    0.51531   0.52035   34.794
 3963.00    0.47439   0.48946   41.705
 3964.00    0.44368   0.45576   51.327
 3965.00    0.41128   0.41335   60.185
 3966.00    0.36985   0.36511   61.423
 3967.00    0.33838   0.32321   53.736
 3968.00    0.32381   0.30199   44.173
 3969.00    0.33583   0.30932   36.616
 3970.00    0.37100   0.34326   55.273
 3971.00    0.41772   0.39540   -1.000
 3972.00    0.46988   0.45569   -1.000
 3973.00    0.53151   0.51653  220.477
 3974.00    0.59987   0.57346   -1.000
 3975.00    0.65831   0.62503   -1.000
 3976.00    0.68793   0.67160  183.545
 3977.00    0.71364   0.71314  177.238
 3978.00    0.76109   0.74783  176.780
 3979.00    0.80169   0.77202   -1.000
 3980.00    0.82136   0.78407   -1.000
 3981.00    0.82056   0.78685   -1.000
 3982.00    0.81189   0.78723   -1.000
 3983.00    0.81740   0.79195   -1.000
 3984.00    0.82334   0.80351   -1.000
 3985.00    0.82399   0.82002  165.542
 3986.00    0.83452   0.83748  165.015
 3987.00    0.85525   0.85162  164.874
 3988.00    0.87708   0.86020  162.459
 3989.00    0.88532   0.86516   -1.000
 3990.00    0.88760   0.87079  157.410
 3991.00    0.90589   0.87890   -1.000
 3992.00    0.93123   0.88607   -1.000
 3993.00    0.94252   0.88668   -1.000
 3994.00    0.93566   0.87857   -1.000
 3995.00    0.90652   0.86614   -1.000
 3996.00    0.88131   0.85840   -1.000
 3997.00    0.88217   0.86251   -1.000
 3998.00    0.89410   0.87908  152.446
 3999.00    0.92159   0.90205  150.175
 4000.00    0.95386   0.92270   -1.000
 4001.00    0.96912   0.93249   -1.000
 4002.00    0.98137   0.92545   -1.000
 4003.00    0.97951   0.90223   -1.000
 4004.00    0.93672   0.87437   -1.000
 4005.00    0.89061   0.85870   -1.000
 4006.00    0.86979   0.86531  152.320
 4007.00    0.89238   0.88993  150.552
 4008.00    0.94615   0.91857   -1.000
 4009.00    0.97507   0.94073   -1.000
 4010.00    0.97241   0.95460  150.745
 4011.00    0.97423   0.96332  150.603
 4012.00    0.98687   0.97021  148.935
 4013.00    1.00000   0.97654   -1.000
 4014.00    1.01819   0.98134   -1.000
 4015.00    1.02620   0.98380   -1.000
 4016.00    1.02441   0.98551   -1.000
 4017.00    1.01388   0.98908   -1.000
 4018.00    1.01451   0.99469  149.377
 4019.00    1.03459   0.99918   -1.000
 4020.00    1.04002   0.99862   -1.000
 4021.00    1.02334   0.99239   -1.000
 4022.00    1.00775   0.98326   -1.000
 4023.00    0.99746   0.97574  146.963
 4024.00    0.99735   0.97472  142.819
 4025.00    1.01471   0.98295   -1.000
 4026.00    1.04051   0.99571   -1.000
 4027.00    1.05968   0.99983   -1.000
 4028.00    1.05676   0.98181   -1.000
 4029.00    1.01427   0.94020   -1.000
 4030.00    0.94547   0.88921   -1.000
 4031.00    0.88274   0.84784   -1.000
 4032.00    0.85460   0.82993   -1.000
 4033.00    0.85962   0.84057  148.126
 4034.00    0.87803   0.87728  141.884
 4035.00    0.92168   0.92988  139.171
 4036.00    0.98739   0.98300  140.468
 4037.00    1.04504   1.02076   -1.000
 4038.00    1.08122   1.03562   -1.000
 4039.00    1.08363   1.03082   -1.000
 4040.00    1.06719   1.01411   -1.000
 4041.00    1.05572   0.98648   -1.000
 4042.00    1.04067   0.94298   -1.000
 4043.00    0.99845   0.88557   -1.000
 4044.00    0.90577   0.83223   -1.000
 4045.00    0.81414   0.80985  153.334
 4046.00    0.80053   0.83188   -1.000
 4047.00    0.87618   0.88632  143.812
 4048.00    0.96675   0.94813  143.545
 4049.00    1.01573   0.99537  146.094
 4050.00    1.04152   1.01934   -1.000
 4051.00    1.05228   1.02170   -1.000
 4052.00    1.04025   1.00922   -1.000
 4053.00    1.01164   0.98933   -1.000
 4054.00    0.98630   0.96810  157.395
 4055.00    0.97674   0.94942   -1.000
 4056.00    0.95454   0.93677  153.266
 4057.00    0.92937   0.93415  148.948
 4058.00    0.92894   0.94059  148.878
 4059.00    0.94507   0.94589  155.784
 4060.00    0.96962   0.93585   -1.000
 4061.00    0.97403   0.90558   -1.000
 4062.00    0.92046   0.86843   -1.000
 4063.00    0.84267   0.84395  159.189
 4064.00    0.82376   0.84363   -1.000
 4065.00    0.87228   0.86536  150.490
 4066.00    0.92349   0.89697   -1.000
 4067.00    0.95378   0.92418   -1.000
 4068.00    0.98813   0.93617   -1.000
 4069.00    1.01084   0.92895   -1.000
 4070.00    0.99897   0.91038   -1.000
 4071.00    0.95104   0.89742   -1.000
 4072.00    0.93013   0.89937   -1.000
 4073.00    0.96003   0.90880   -1.000
 4074.00    0.97582   0.90883   -1.000
 4075.00    0.95161   0.89390   -1.000
 4076.00    0.89643   0.87802  165.190
 4077.00    0.86183   0.88044   -1.000
 4078.00    0.88928   0.90967   -1.000
 4079.00    0.94996   0.95529  145.591
 4080.00    1.00955   0.99735  149.524
 4081.00    1.04906   1.01920   -1.000
 4082.00    1.05583   1.01959   -1.000
 4083.00    1.03287   1.01125   -1.000
 4084.00    1.00775   1.01063  143.588
 4085.00    1.00652   1.02659  138.533
 4086.00    1.03036   1.05496   -1.000
 4087.00    1.08137   1.08379  138.712
 4088.00    1.13008   1.10077   -1.000
 4089.00    1.14053   1.10128   -1.000
 4090.00    1.11746   1.08943   -1.000
 4091.00    1.08507   1.07304  145.831
 4092.00    1.07145   1.05503  150.729
 4093.00    1.07601   1.03309   -1.000
 4094.00    1.06974   1.00479   -1.000
 4095.00    1.02055   0.97222   -1.000
 4096.00    0.95628   0.94081  167.683
 4097.00    0.92757   0.91160  180.453
 4098.00    0.91761   0.88023   -1.000
 4099.00    0.90284   0.84526   -1.000
 4100.00    0.86965   0.81535   -1.000
 4101.00    0.82824   0.80496   -1.000
 4102.00    0.82614   0.82380  160.965
 4103.00    0.86315   0.86712  154.431
 4104.00    0.91477   0.92008  151.944
 4105.00    0.96709   0.96619  152.467
 4106.00    1.01605   0.99575  154.810
 4107.00    1.03360   1.00706   -1.000
 4108.00    1.01396   1.00466  157.406
 4109.00    0.99106   0.99692  154.470
 4110.00    0.96360   0.99294   -1.000
 4111.00    0.94979   0.99815   -1.000
 4112.00    0.95482   1.01270   -1.000
 4113.00    0.97945   1.03157   -1.000
 4114.00    1.02534   1.04695   -1.000
 4115.00    1.04626   1.05152  153.308
 4116.00    1.04264   1.04332  156.661
 4117.00    1.03134   1.02704  156.301
 4118.00    1.01756   1.01145  154.469
 4119.00    0.99686   1.00382  153.860
 4120.00    0.99871   1.00534  153.024
 4121.00    1.01389   1.01281  150.733
 4122.00    1.00847   1.02317  149.252
 4123.00    1.01808   1.03446  150.199
 4124.00    1.03836   1.04344  152.964
 4125.00    1.05470   1.04545  155.155
 4126.00    1.04524   1.03842  156.122
 4127.00    1.01826   1.02450  157.569
 4128.00    0.99500   1.00626  161.268
 4129.00    0.97937   0.98389  166.439
 4130.00    0.96421   0.95850  168.976
 4131.00    0.94428   0.93607  165.871
 4132.00    0.91872   0.92779  158.592
 4133.00    0.91152   0.94096   -1.000
 4134.00    0.92739   0.97253   -1.000
 4135.00    0.96454   1.01151   -1.000
 4136.00    1.01361   1.04617   -1.000
 4137.00    1.04390   1.06893   -1.000
 4138.00    1.06459   1.07630  152.260
 4139.00    1.06685   1.06439  163.138
 4140.00    1.04986   1.03084   -1.000
 4141.00    1.01986   0.98208   -1.000
 4142.00    0.95238   0.93700  165.143
 4143.00    0.86664   0.91580   -1.000
 4144.00    0.84998   0.92603   -1.000
 4145.00    0.90909   0.95692   -1.000
 4146.00    0.96550   0.98766   -1.000
 4147.00    0.99790   1.00429  161.947
 4148.00    1.00504   1.00614  162.062
 4149.00    0.97878   1.00076   -1.000
 4150.00    0.94557   0.99466   -1.000
 4151.00    0.94029   0.98938   -1.000
 4152.00    0.94199   0.98404   -1.000
 4153.00    0.94038   0.97913   -1.000
 4154.00    0.96736   0.97788  160.492
 4155.00    1.10875   0.98454   -1.000
 4156.00    1.15993   1.00077   -1.000
 4157.00    0.90707   1.02470   -1.000
 4158.00    0.79988   1.05166   -1.000
 4159.00    0.95419   1.07646   -1.000
 4160.00    1.05135   1.09629   -1.000
 4161.00    1.05585   1.10972   -1.000
 4162.00    1.05282   1.11470   -1.000
 4163.00    1.05752   1.10886   -1.000
 4164.00    1.04313   1.09288   -1.000
 4165.00    1.01396   1.07233   -1.000
 4166.00    0.98752   1.05601   -1.000
 4167.00    0.96583   1.04825   -1.000
 4168.00    0.96718   1.04546   -1.000
 4169.00    0.98811   1.03798   -1.000
 4170.00    0.99263   1.01866   -1.000
 4171.00    0.95582   0.99156   -1.000
 4172.00    0.90023   0.96859   -1.000
 4173.00    0.87799   0.96006   -1.000
 4174.00    0.88970   0.96628   -1.000
 4175.00    0.92328   0.97973   -1.000
 4176.00    0.94998   0.99394   -1.000
 4177.00    0.94285   1.00705   -1.000
 4178.00    0.93717   1.01825   -1.000
 4179.00    0.95809   1.02619   -1.000
 4180.00    0.97192   1.03078   -1.000
 4181.00    0.96678   1.03583   -1.000
 4182.00    0.97654   1.04567   -1.000
 4183.00    1.00662   1.05744   -1.000
 4184.00    1.03882   1.06271   -1.000
 4185.00    1.05620   1.05601  162.793
 4186.00    1.02678   1.04244  159.858
 4187.00    0.98638   1.03369   -1.000
 4188.00    0.97830   1.03654   -1.000
 4189.00    1.00339   1.04862   -1.000
 4190.00    1.02738   1.06341   -1.000
 4191.00    1.03699   1.07594   -1.000
 4192.00    1.05463   1.08184   -1.000
 4193.00    1.07150   1.07506  165.986
 4194.00    1.04781   1.05193  169.861
 4195.00    0.97989   1.01801   -1.000
 4196.00    0.93480   0.98424   -1.000
 4197.00    0.93064   0.95984   -1.000
 4198.00    0.93112   0.94755   -1.000
 4199.00    0.93761   0.94591  165.559
 4200.00    0.94049   0.95268  163.513
 4201.00    0.93883   0.96736   -1.000
 4202.00    0.94051   0.99113   -1.000
 4203.00    0.97038   1.02357   -1.000
 4204.00    1.02366   1.05994   -1.000
 4205.00    1.05241   1.09331   -1.000
 4206.00    1.08805   1.11830   -1.000
 4207.00    1.11706   1.13196  150.946
 4208.00    1.11783   1.13525  150.138
 4209.00    1.10981   1.13267   -1.000
 4210.00    1.07748   1.12824   -1.000
 4211.00    1.06764   1.12090   -1.000
 4212.00    1.07750   1.10533   -1.000
 4213.00    1.05836   1.08186   -1.000
 4214.00    1.01017   1.06277   -1.000
 4215.00    0.97302   1.06370   -1.000
 4216.00    0.99661   1.09075   -1.000
 4217.00    1.08471   1.13269   -1.000
 4218.00    1.16216   1.17068  139.777
 4219.00    1.18680   1.18869  143.905
 4220.00    1.19741   1.17863  152.543
 4221.00    1.18380   1.13809   -1.000
 4222.00    1.12827   1.06947   -1.000
 4223.00    1.04621   0.98133   -1.000
 4224.00    0.93472   0.89363   -1.000
 4225.00    0.82671   0.83259  179.947
 4226.00    0.74619   0.82175   -1.000
 4227.00    0.75145   0.86615   -1.000
 4228.00    0.87874   0.94703   -1.000
 4229.00    1.01314   1.02960   -1.000
 4230.00    1.10257   1.08626  150.333
 4231.00    1.15111   1.10819   -1.000
 4232.00    1.14629   1.10293   -1.000
 4233.00    1.11206   1.08514   -1.000
 4234.00    1.08312   1.06875  158.958
 4235.00    1.05484   1.06181  156.044
 4236.00    1.04126   1.06698   -1.000
 4237.00    1.05289   1.08343   -1.000
 4238.00    1.07293   1.10791   -1.000
 4239.00    1.09469   1.13670   -1.000
 4240.00    1.12675   1.16770   -1.000
 4241.00    1.15254   1.19935   -1.000
 4242.00    1.18377   1.22935   -1.000
 4243.00    1.22042   1.25209   -1.000
 4244.00    1.26369   1.25833  153.284
 4245.00    1.28108   1.24070   -1.000
 4246.00    1.23588   1.20093   -1.000
 4247.00    1.15848   1.15072  160.521
 4248.00    1.10016   1.10665  157.365
 4249.00    1.07019   1.08019  152.803
 4250.00    1.03616   1.07272   -1.000
 4251.00    1.02622   1.07583   -1.000
 4252.00    1.05336   1.07988   -1.000
 4253.00    1.06271   1.08345   -1.000
 4254.00    1.04574   1.09331   -1.000
 4255.00    1.05615   1.11214   -1.000
 4256.00    1.11503   1.12812  158.436
 4257.00    1.16342   1.12562   -1.000
 4258.00    1.14522   1.10474   -1.000
 4259.00    1.07796   1.08526  152.526
 4260.00    1.03276   1.09142   -1.000
 4261.00    1.03797   1.13093   -1.000
 4262.00    1.09643   1.19019   -1.000
 4263.00    1.18708   1.24490   -1.000
 4264.00    1.25433   1.27657   -1.000
 4265.00    1.28197   1.27902  148.617
 4266.00    1.26609   1.25391  153.931
 4267.00    1.22479   1.20561   -1.000
 4268.00    1.17345   1.14110   -1.000
 4269.00    1.10613   1.07025   -1.000
 4270.00    1.02210   1.00753  175.678
 4271.00    0.93356   0.96716   -1.000
 4272.00    0.89745   0.95761   -1.000
 4273.00    0.91862   0.97898   -1.000
 4274.00    0.95032   1.02535   -1.000
 4275.00    0.98969   1.08676   -1.000
 4276.00    1.06430   1.14870   -1.000
 4277.00    1.15982   1.19299   -1.000
 4278.00    1.22034   1.20962  156.736
 4279.00    1.20711   1.20382  155.270
 4280.00    1.16295   1.19098   -1.000
 4281.00    1.13383   1.18281   -1.000
 4282.00    1.11988   1.17960   -1.000
 4283.00    1.13908   1.17585   -1.000
 4284.00    1.14448   1.16699   -1.000
 4285.00    1.10587   1.15113   -1.000
 4286.00    1.07727   1.12674   -1.000
 4287.00    1.06417   1.09368   -1.000
 4288.00    1.02962   1.05839   -1.000
 4289.00    0.96914   1.03510   -1.000
 4290.00    0.94766   1.03598   -1.000
 4291.00    0.99203   1.05917   -1.000
 4292.00    1.06758   1.08835   -1.000
 4293.00    1.11669   1.10656  165.023
 4294.00    1.11645   1.10617  171.935
 4295.00    1.08967   1.08716  184.958
 4296.00    1.05628   1.05128  199.705
 4297.00    1.02181   1.00319   -1.000
 4298.00    0.95548   0.95331  202.422
 4299.00    0.87232   0.91578   -1.000
 4300.00    0.83572   0.89914   -1.000
 4301.00    0.84904   0.90079   -1.000
 4302.00    0.87177   0.91013   -1.000
 4303.00    0.89046   0.91601   -1.000
 4304.00    0.90622   0.91055  207.168
 4305.00    0.90040   0.89142  214.333
 4306.00    0.86037   0.86538  212.864
 4307.00    0.81733   0.84698   -1.000
 4308.00    0.79690   0.85058   -1.000
 4309.00    0.81915   0.88164   -1.000
 4310.00    0.87273   0.93573   -1.000
 4311.00    0.93747   1.00404   -1.000
 4312.00    1.00982   1.08080   -1.000
 4313.00    1.08188   1.16482   -1.000
 4314.00    1.15643   1.25312   -1.000
 4315.00    1.25110   1.33734   -1.000
 4316.00    1.37382   1.40279   -1.000
 4317.00    1.46625   1.43709   -1.000
 4318.00    1.48588   1.43838   -1.000
 4319.00    1.45136   1.41280   -1.000
 4320.00    1.38432   1.36527  154.899
 4321.00    1.32126   1.29759   -1.000
 4322.00    1.26373   1.21479   -1.000
 4323.00    1.17105   1.13421   -1.000
 4324.00    1.04916   1.08429   -1.000
 4325.00    0.96718   1.08883   -1.000
 4326.00    0.99292   1.14865   -1.000
 4327.00    1.13590   1.23895   -1.000
 4328.00    1.29764   1.32359   -1.000
 4329.00    1.37205   1.38044  134.686
 4330.00    1.36995   1.41069   -1.000
 4331.00    1.36628   1.42757   -1.000
 4332.00    1.38366   1.43931   -1.000
 4333.00    1.40507   1.44107   -1.000
 4334.00    1.43146   1.42035  153.310
 4335.00    1.43829   1.36729   -1.000
 4336.00    1.37282   1.28462   -1.000
 4337.00    1.26493   1.19059   -1.000
 4338.00    1.14572   1.11454   -1.000
 4339.00    1.07167   1.08002  163.611
 4340.00    1.05274   1.09431   -1.000
 4341.00    1.10109   1.14737   -1.000
 4342.00    1.19066   1.21833   -1.000
 4343.00    1.26356   1.28650   -1.000
 4344.00    1.30801   1.34201   -1.000
 4345.00    1.34373   1.38508   -1.000
 4346.00    1.37073   1.41750   -1.000
 4347.00    1.37933   1.43589   -1.000
 4348.00    1.40408   1.43075   -1.000
 4349.00    1.42043   1.39659   -1.000
 4350.00    1.37560   1.34429   -1.000
 4351.00    1.25886   1.29884   -1.000
 4352.00    1.19459   1.28350   -1.000
 4353.00    1.22230   1.30250   -1.000
 4354.00    1.28222   1.34100   -1.000
 4355.00    1.33622   1.37862   -1.000
 4356.00    1.38176   1.40293   -1.000
 4357.00    1.40246   1.41342  137.930
 4358.00    1.39636   1.41871   -1.000
 4359.00    1.37106   1.42964   -1.000
 4360.00    1.37557   1.45041   -1.000
 4361.00    1.42531   1.47698   -1.000
 4362.00    1.46459   1.50160   -1.000
 4363.00    1.47743   1.51754   -1.000
 4364.00    1.50461   1.51961  137.087
 4365.00    1.51268   1.50444  139.546
 4366.00    1.46559   1.47538  138.854
 4367.00    1.39955   1.44400   -1.000
 4368.00    1.37165   1.42055   -1.000
 4369.00    1.37290   1.40562   -1.000
 4370.00    1.37867   1.39122  143.107
 4371.00    1.37152   1.36862  148.952
 4372.00    1.35363   1.33677  150.541
 4373.00    1.33060   1.30471   -1.000
 4374.00    1.27507   1.28780  138.636
 4375.00    1.26469   1.29639   -1.000
 4376.00    1.29124   1.32534   -1.000
 4377.00    1.33624   1.35420   -1.000
 4378.00    1.38511   1.35967   -1.000
 4379.00    1.39961   1.32744   -1.000
 4380.00    1.36289   1.25749   -1.000
 4381.00    1.27899   1.16603   -1.000
 4382.00    1.15271   1.08410   -1.000
 4383.00    1.00862   1.04368   -1.000
 4384.00    0.94627   1.05957   -1.000
 4385.00    1.02724   1.11856   -1.000
 4386.00    1.17420   1.18756   -1.000
 4387.00    1.27114   1.23931   -1.000
 4388.00    1.29929   1.26752   -1.000
 4389.00    1.28493   1.28197  140.366
 4390.00    1.27442   1.29439   -1.000
 4391.00    1.29833   1.30948  142.993
 4392.00    1.33049   1.32622  143.396
 4393.00    1.34528   1.34404  138.135
 4394.00    1.32860   1.36629   -1.000
 4395.00    1.34397   1.39464   -1.000
 4396.00    1.40394   1.42151   -1.000
 4397.00    1.45856   1.43373   -1.000
 4398.00    1.47374   1.42441   -1.000
 4399.00    1.42877   1.39897   -1.000
 4400.00    1.35090   1.36577  143.113
 4401.00    1.32185   1.32664  150.876
 4402.00    1.31892   1.27987   -1.000
 4403.00    1.25957   1.23097   -1.000
 4404.00    1.16652   1.19709   -1.000
 4405.00    1.12271   1.19437   -1.000
 4406.00    1.16673   1.22433   -1.000
 4407.00    1.23531   1.27749   -1.000
 4408.00    1.28432   1.34271   -1.000
 4409.00    1.33903   1.40911   -1.000
 4410.00    1.41639   1.46166   -1.000
 4411.00    1.47829   1.48250  137.144
 4412.00    1.50938   1.46486   -1.000
 4413.00    1.47879   1.42190   -1.000
 4414.00    1.37516   1.38046  139.154
 4415.00    1.27878   1.36756   -1.000
 4416.00    1.28292   1.39309   -1.000
 4417.00    1.36806   1.44350   -1.000
 4418.00    1.42827   1.49192   -1.000
 4419.00    1.46910   1.51629   -1.000
 4420.00    1.48114   1.51127   -1.000
 4421.00    1.42745   1.48784   -1.000
 4422.00    1.36281   1.46399   -1.000
 4423.00    1.33666   1.45178   -1.000
 4424.00    1.34451   1.45176   -1.000
 4425.00    1.35400   1.45779   -1.000
 4426.00    1.36161   1.46504   -1.000
 4427.00    1.39927   1.47089   -1.000
 4428.00    1.41465   1.47356   -1.000
 4429.00    1.41007   1.47245   -1.000
 4430.00    1.38481   1.46745   -1.000
 4431.00    1.38624   1.45703   -1.000
 4432.00    1.41838   1.43822   -1.000
 4433.00    1.40613   1.41452  140.774
 4434.00    1.34666   1.40149   -1.000
 4435.00    1.32260   1.41606   -1.000
 4436.00    1.35562   1.46038   -1.000
 4437.00    1.44274   1.51447   -1.000
 4438.00    1.53746   1.55024  134.011
 4439.00    1.58954   1.55176   -1.000
 4440.00    1.56384   1.52529   -1.000
 4441.00    1.49530   1.49449  137.260
 4442.00    1.43423   1.48412   -1.000
 4443.00    1.43019   1.50474   -1.000
 4444.00    1.50804   1.54633   -1.000
 4445.00    1.58449   1.58896  128.149
 4446.00    1.60102   1.61771  129.340
 4447.00    1.60680   1.62976   -1.000
 4448.00    1.62787   1.63013  130.134
 4449.00    1.61232   1.62197  130.603
 4450.00    1.60040   1.60394  134.666
 4451.00    1.59498   1.57267  140.730
 4452.00    1.57800   1.52748   -1.000
 4453.00    1.51616   1.47450   -1.000
 4454.00    1.43056   1.42764  140.362
 4455.00    1.37853   1.39893   -1.000
 4456.00    1.37830   1.38914  140.581
 4457.00    1.39255   1.38955  141.923
 4458.00    1.40188   1.39093  143.247
 4459.00    1.40091   1.39287  141.197
 4460.00    1.37855   1.40229   -1.000
 4461.00    1.34737   1.42591   -1.000
 4462.00    1.37106   1.46283   -1.000
 4463.00    1.45749   1.50289   -1.000
 4464.00    1.52402   1.53344  133.005
 4465.00    1.52309   1.54789   -1.000
 4466.00    1.51302   1.54878   -1.000
 4467.00    1.51708   1.54448   -1.000
 4468.00    1.51567   1.54432   -1.000
 4469.00    1.48945   1.55599   -1.000
 4470.00    1.48140   1.58304   -1.000
 4471.00    1.54309   1.62080   -1.000
 4472.00    1.62816   1.65992   -1.000
 4473.00    1.68449   1.69273  120.910
 4474.00    1.69613   1.71695   -1.000
 4475.00    1.69012   1.73330   -1.000
 4476.00    1.71630   1.73835   -1.000
 4477.00    1.75911   1.72437   -1.000
 4478.00    1.76329   1.68800   -1.000
 4479.00    1.68911   1.63957   -1.000
 4480.00    1.59482   1.60198  128.852
 4481.00    1.53442   1.59585   -1.000
 4482.00    1.54808   1.62581   -1.000
 4483.00    1.60937   1.67702   -1.000
 4484.00    1.68331   1.72520   -1.000
 4485.00    1.76327   1.74914  127.281
 4486.00    1.77811   1.74059   -1.000
 4487.00    1.72926   1.70827  129.941
 4488.00    1.66286   1.67237  126.746
 4489.00    1.60275   1.65129   -1.000
 4490.00    1.57629   1.64833   -1.000
 4491.00    1.59160   1.65219   -1.000
 4492.00    1.63085   1.64781  132.277
 4493.00    1.63198   1.63296  131.560
 4494.00    1.56369   1.61993   -1.000
 4495.00    1.52266   1.62356   -1.000
 4496.00    1.54662   1.64780   -1.000
 4497.00    1.58481   1.68219   -1.000
 4498.00    1.64949   1.71282   -1.000
 4499.00    1.70714   1.73322   -1.000
 4500.00    1.71235   1.74852   -1.000
 4501.00    1.70307   1.76905   -1.000
 4502.00    1.72633   1.79984   -1.000
 4503.00    1.80290   1.83542   -1.000
 4504.00    1.87584   1.86359  118.734
 4505.00    1.88266   1.87517  118.990
 4506.00    1.84866   1.87134  118.227
 4507.00    1.81133   1.86172   -1.000
 4508.00    1.80862   1.85423   -1.000
 4509.00    1.83239   1.84923  120.227
 4510.00    1.83371   1.84115  122.438
 4511.00    1.80981   1.82466  123.431
 4512.00    1.76105   1.80113   -1.000
 4513.00    1.70818   1.77797   -1.000
 4514.00    1.67808   1.76223   -1.000
 4515.00    1.71159   1.75569   -1.000
 4516.00    1.74924   1.75587  123.276
 4517.00    1.73950   1.76102  120.853
 4518.00    1.71244   1.77188   -1.000
 4519.00    1.74010   1.78741   -1.000
 4520.00    1.80081   1.80056  125.895
 4521.00    1.81326   1.80132  127.201
 4522.00    1.76994   1.78374  129.159
 4523.00    1.72012   1.74915   -1.000
 4524.00    1.68652   1.70279  136.697
 4525.00    1.64441   1.64957  138.682
 4526.00    1.58029   1.59562  138.055
 4527.00    1.51884   1.55105   -1.000
 4528.00    1.46024   1.52598   -1.000
 4529.00    1.44585   1.52448   -1.000
 4530.00    1.47796   1.54069   -1.000
 4531.00    1.53287   1.56178   -1.000
 4532.00    1.58152   1.57682  139.181
 4533.00    1.58046   1.58462  132.033
 4534.00    1.54219   1.59562   -1.000
 4535.00    1.52109   1.62274   -1.000
 4536.00    1.60059   1.66831   -1.000
 4537.00    1.73223   1.71923  123.537
 4538.00    1.78671   1.75624   -1.000
 4539.00    1.75805   1.77013  123.061
 4540.00    1.71359   1.76727   -1.000
 4541.00    1.69082   1.76094   -1.000
 4542.00    1.71545   1.75817   -2.000
 4543.00    1.59158   1.75667   -2.000
 4544.00    0.59647   1.75175   -2.000
 4545.00    0.05253   1.74237   -1.000
 4546.00    0.12713   1.73165   -1.000
 4547.00    0.97123   1.72218   -1.000
 4548.00    0.67008   1.71564   -1.000
 4549.00    1.08462   1.71397   -1.000
 4550.00    1.60138   1.71721   -1.000
 4551.00    1.69200   1.72084   -1.000
 4552.00    1.70335   1.71957  129.920
 4553.00    1.69069   1.71560   -1.000
 4554.00    1.68037   1.71943   -1.000
 4555.00    1.68762   1.74160   -1.000
 4556.00    1.76104   1.78272   -1.000
 4557.00    1.84338   1.83201  118.339
 4558.00    1.89425   1.87398  118.362
 4559.00    1.89374   1.89865  120.752
 4560.00    1.89319   1.90360  123.777
 4561.00    1.89767   1.89065  126.032
 4562.00    1.87816   1.86492  125.109
 4563.00    1.82390   1.83567  122.126
 4564.00    1.75775   1.81611   -1.000
 4565.00    1.74829   1.81678   -1.000
 4566.00    1.81180   1.83729   -1.000
 4567.00    1.87830   1.86500  121.235
 4568.00    1.92372   1.88290   -1.000
 4569.00    1.92247   1.88193   -1.000
 4570.00    1.85500   1.86819  120.638
 4571.00    1.79292   1.85633   -1.000
 4572.00    1.78515   1.85874   -1.000
 4573.00    1.82340   1.87481   -1.000
 4574.00    1.87250   1.89304  119.683
 4575.00    1.88071   1.90105  121.565
 4576.00    1.86177   1.89253   -1.000
 4577.00    1.84632   1.86783  127.789
 4578.00    1.81390   1.83237  127.801
 4579.00    1.76053   1.79626   -1.000
 4580.00    1.71912   1.77120   -1.000
 4581.00    1.73223   1.76306   -1.000
 4582.00    1.77184   1.76767  126.067
 4583.00    1.78447   1.77635  124.632
 4584.00    1.77733   1.78395  121.511
 4585.00    1.73811   1.79414   -1.000
 4586.00    1.74487   1.81354   -1.000
 4587.00    1.79724   1.84193   -1.000
 4588.00    1.86409   1.86955  122.116
 4589.00    1.91640   1.88359   -1.000
 4590.00    1.87941   1.87801  124.646
 4591.00    1.80774   1.85680   -1.000
 4592.00    1.75025   1.83062   -1.000
 4593.00    1.73738   1.80925   -1.000
 4594.00    1.74285   1.79723   -1.000
 4595.00    1.73960   1.79474   -1.000
 4596.00    1.74395   1.79948   -1.000
 4597.00    1.75708   1.80799   -1.000
 4598.00    1.80312   1.81609  124.246
 4599.00    1.81091   1.82099  123.105
 4600.00    1.80336   1.82244  121.714
 4601.00    1.78368   1.82247   -1.000
 4602.00    1.80206   1.82320  121.596
 4603.00    1.82077   1.82628  120.388
 4604.00    1.82526   1.83491  118.109
 4605.00    1.80315   1.85372   -1.000
 4606.00    1.82327   1.88570   -1.000
 4607.00    1.91744   1.92661  114.420
 4608.00    2.00490   1.96565   -1.000
 4609.00    2.06222   1.98998   -1.000
 4610.00    2.03473   1.99360   -1.000
 4611.00    1.98267   1.98256  117.602
 4612.00    1.96523   1.96879  116.589
 4613.00    1.96560   1.96308  116.059
 4614.00    1.98570   1.96852  116.715
 4615.00    1.99613   1.98088  117.585
 4616.00    2.01687   1.99326   -1.000
 4617.00    2.02193   2.00143  116.540
 4618.00    2.01736   2.00536  114.746
 4619.00    2.00439   2.00756  114.529
 4620.00    1.98760   2.01044  114.801
 4621.00    2.00215   2.01346  115.035
 4622.00    2.02190   2.01397  116.017
 4623.00    2.00196   2.00986  116.382
 4624.00    1.98399   2.00189  116.347
 4625.00    1.96545   1.99288  117.024
 4626.00    1.97358   1.98605  117.328
 4627.00    1.97007   1.98390  116.812
 4628.00    1.95201   1.98652   -1.000
 4629.00    1.94188   1.99170   -1.000
 4630.00    1.96447   1.99584   -1.000
 4631.00    1.99238   1.99488  118.815
 4632.00    1.97231   1.98603  118.831
 4633.00    1.92864   1.97001   -1.000
 4634.00    1.90512   1.95029   -1.000
 4635.00    1.90097   1.92944   -1.000
 4636.00    1.88053   1.90774   -1.000
 4637.00    1.85638   1.88652   -1.000
 4638.00    1.81982   1.87052   -1.000
 4639.00    1.80046   1.86531   -1.000
 4640.00    1.82577   1.87242   -1.000
 4641.00    1.86786   1.88515  117.543
 4642.00    1.91396   1.89163  120.785
 4643.00    1.90749   1.88126   -1.000
 4644.00    1.87485   1.85239  124.921
 4645.00    1.81338   1.81482  122.904
 4646.00    1.75458   1.78435   -1.000
 4647.00    1.73091   1.77632   -1.000
 4648.00    1.73775   1.79563   -1.000
 4649.00    1.81174   1.83482   -1.000
 4650.00    1.88770   1.87871  119.048
 4651.00    1.90985   1.91231  121.731
 4652.00    1.94166   1.92778  123.253
 4653.00    1.93026   1.92678  122.371
 4654.00    1.88934   1.91941   -1.000
 4655.00    1.84328   1.92036   -1.000
 4656.00    1.84669   1.94028   -1.000
 4657.00    1.92856   1.97924   -1.000
 4658.00    2.03070   2.02516  112.449
 4659.00    2.10148   2.05951   -1.000
 4660.00    2.10593   2.06827   -1.000
 4661.00    2.03344   2.04845  117.869
 4662.00    1.95928   2.00763   -1.000
 4663.00    1.89290   1.95522   -1.000
 4664.00    1.88082   1.89796  129.877
 4665.00    1.86059   1.84094  130.370
 4666.00    1.77834   1.79280  126.597
 4667.00    1.66109   1.76701   -1.000
 4668.00    1.62881   1.77351   -1.000
 4669.00    1.69296   1.80981   -1.000
 4670.00    1.80356   1.85987   -1.000
 4671.00    1.89119   1.90452  117.038
 4672.00    1.92684   1.93385  115.595
 4673.00    1.92197   1.94977   -1.000
 4674.00    1.92820   1.96041   -1.000
 4675.00    1.94432   1.96848  116.680
 4676.00    1.97533   1.97051  119.018
 4677.00    1.98512   1.96062  121.009
 4678.00    1.94356   1.93872  122.227
 4679.00    1.89037   1.91242  120.851
 4680.00    1.85448   1.89225   -1.000
 4681.00    1.83069   1.88619   -1.000
 4682.00    1.84815   1.89489   -1.000
 4683.00    1.91017   1.91231  116.599
 4684.00    1.95956   1.92891   -1.000
 4685.00    1.96832   1.93811   -1.000
 4686.00    1.95576   1.93921  117.286
 4687.00    1.92958   1.93563  118.093
 4688.00    1.92442   1.93178  118.373
 4689.00    1.94644   1.92969  117.044
 4690.00    1.93850   1.93018  115.306
 4691.00    1.92332   1.93458  112.768
 4692.00    1.92365   1.94483  111.272
 4693.00    1.95608   1.96044  111.734
 4694.00    1.99535   1.97630  114.852
 4695.00    2.01836   1.98421   -1.000
 4696.00    2.03098   1.97708   -1.000
 4697.00    1.99924   1.95401   -1.000
 4698.00    1.93831   1.92186  119.755
 4699.00    1.89061   1.89066  121.840
 4700.00    1.89391   1.86806   -1.000
 4701.00    1.89698   1.85657   -1.000
 4702.00    1.85751   1.85641  118.522
 4703.00    1.84442   1.86554  120.041
 4704.00    1.88004   1.87893  122.447
 4705.00    1.94170   1.88877   -1.000
 4706.00    1.96821   1.89060   -1.000
 4707.00    1.93081   1.88748   -1.000
 4708.00    1.87743   1.88804  116.266
 4709.00    1.88124   1.89841  115.040
 4710.00    1.92936   1.91625  116.071
 4711.00    1.98579   1.93330   -1.000
 4712.00    2.00867   1.94295   -1.000
 4713.00    1.96527   1.94711  116.052
 4714.00    1.92803   1.95490   -1.000
 4715.00    1.93962   1.97532   -1.000
 4716.00    1.99739   2.00918  112.648
 4717.00    2.06785   2.04918  112.262
 4718.00    2.09909   2.08514  113.181
 4719.00    2.12422   2.10993  113.998
 4720.00    2.15582   2.12190   -1.000
 4721.00    2.12790   2.12375  112.149
 4722.00    2.09703   2.12081  112.281
 4723.00    2.07484   2.11540   -1.000
 4724.00    2.08428   2.10333  119.311
 4725.00    2.12972   2.07622   -1.000
 4726.00    2.07778   2.03163   -1.000
 4727.00    1.95869   1.97809  120.436
 4728.00    1.86226   1.93288   -1.000
 4729.00    1.83637   1.91106   -1.000
 4730.00    1.88504   1.91578   -1.000
 4731.00    1.92065   1.93969  116.341
 4732.00    1.97206   1.96947  115.692
 4733.00    2.00741   1.99462  116.902
 4734.00    2.02967   2.01060  117.080
 4735.00    2.03892   2.01979  115.588
 4736.00    2.00255   2.02773  115.604
 4737.00    2.01207   2.03842   -1.000
 4738.00    2.06532   2.05154  116.438
 4739.00    2.10412   2.06324   -1.000
 4740.00    2.09962   2.07065   -1.000
 4741.00    2.07086   2.07497  114.464
 4742.00    2.04981   2.08009   -1.000
 4743.00    2.08770   2.08862  113.726
 4744.00    2.12698   2.10157  112.572
 4745.00    2.10866   2.11825  112.323
 4746.00    2.11005   2.13630   -1.000
 4747.00    2.14502   2.15288  112.569
 4748.00    2.13830   2.16452   -1.000
 4749.00    2.13434   2.16903   -1.000
 4750.00    2.14607   2.16452  115.639
 4751.00    2.11836   2.15035   -1.000
 4752.00    2.08545   2.12892   -1.000
 4753.00    2.05329   2.10605   -1.000
 4754.00    2.03340   2.08853   -1.000
 4755.00    2.03063   2.08117   -1.000
 4756.00    2.02399   2.08395   -1.000
 4757.00    2.01609   2.09314   -1.000
 4758.00    2.00897   2.10257   -1.000
 4759.00    2.01479   2.10507   -1.000
 4760.00    2.01578   2.09502   -1.000
 4761.00    1.97527   2.07098   -1.000
 4762.00    1.92578   2.03744   -1.000
 4763.00    1.91056   2.00235   -1.000
 4764.00    1.89772   1.97416   -1.000
 4765.00    1.87393   1.95978   -1.000
 4766.00    1.88566   1.96455   -1.000
 4767.00    1.89542   1.98971   -1.000
 4768.00    1.96460   2.02786   -1.000
 4769.00    2.01696   2.06494   -1.000
 4770.00    2.05548   2.08993   -1.000
 4771.00    2.03417   2.10311   -1.000
 4772.00    2.01258   2.11431   -1.000
 4773.00    2.04426   2.13264   -1.000
 4774.00    2.08989   2.15766   -1.000
 4775.00    2.12429   2.18207   -1.000
 4776.00    2.10025   2.19837   -1.000
 4777.00    2.10747   2.20388   -1.000
 4778.00    2.09982   2.19896   -1.000
 4779.00    2.09776   2.18481   -1.000
 4780.00    2.08385   2.16316   -1.000
 4781.00    2.07420   2.13666   -1.000
 4782.00    2.04492   2.10984   -1.000
 4783.00    2.01336   2.08800   -1.000
 4784.00    1.99685   2.07497   -1.000
 4785.00    1.99764   2.07004   -1.000
 4786.00    1.99432   2.06992   -1.000
 4787.00    1.99313   2.07230   -1.000
 4788.00    2.01380   2.07773   -1.000
 4789.00    2.02832   2.08896   -1.000
 4790.00    2.02007   2.11005   -1.000
 4791.00    2.05973   2.14384   -1.000
 4792.00    2.11559   2.18872   -1.000
 4793.00    2.16638   2.23650   -1.000
 4794.00    2.21402   2.27446   -1.000
 4795.00    2.23287   2.29103   -1.000
 4796.00    2.22765   2.28203   -1.000
 4797.00    2.17789   2.25421   -1.000
 4798.00    2.11626   2.22264   -1.000
 4799.00    2.07850   2.20327   -1.000
 4800.00    2.07474   2.20482   -1.000
 4801.00    2.12657   2.22375   -1.000
 4802.00    2.20347   2.24587   -1.000
 4803.00    2.21301   2.25576   -1.000
 4804.00    2.16042   2.24597   -1.000
 4805.00    2.11797   2.22207   -1.000
 4806.00    2.08012   2.19612   -1.000
 4807.00    2.05808   2.17945   -1.000
 4808.00    2.05871   2.17707   -1.000
 4809.00    2.06486   2.18738   -1.000
 4810.00    2.08955   2.20374   -1.000
 4811.00    2.12601   2.21948   -1.000
 4812.00    2.13604   2.23161   -1.000
 4813.00    2.12056   2.24197   -1.000
 4814.00    2.13219   2.25430   -1.000
 4815.00    2.16792   2.27077   -1.000
 4816.00    2.19517   2.29072   -1.000
 4817.00    2.21006   2.31079   -1.000
 4818.00    2.22385   2.32569   -1.000
 4819.00    2.24799   2.32911   -1.000
 4820.00    2.25781   2.31607   -1.000
 4821.00    2.24839   2.28648   -1.000
 4822.00    2.17201   2.24830   -1.000
 4823.00    2.10912   2.21541   -1.000
 4824.00    2.09005   2.20024   -1.000
 4825.00    2.13887   2.20441   -1.000
 4826.00    2.19470   2.21774   -1.000
 4827.00    2.17791   2.22681   -1.000
 4828.00    2.13649   2.22515   -1.000
 4829.00    2.15687   2.21467   -1.000
 4830.00    2.16402   2.20093   -1.000
 4831.00    2.12541   2.19035   -1.000
 4832.00    2.12183   2.18898   -1.000
 4833.00    2.12016   2.20020   -1.000
 4834.00    2.16277   2.22007   -1.000
 4835.00    2.19906   2.23959   -1.000
 4836.00    2.19811   2.24894   -1.000
 4837.00    2.18717   2.24434   -1.000
 4838.00    2.17495   2.22842   -1.000
 4839.00    2.13639   2.20841   -1.000
 4840.00    2.09856   2.19207   -1.000
 4841.00    2.10031   2.18418   -1.000
 4842.00    2.10931   2.18658   -1.000
 4843.00    2.08483   2.19929   -1.000
 4844.00    2.10551   2.21991   -1.000
 4845.00    2.19205   2.24174   -1.000
 4846.00    2.22836   2.25566   -1.000
 4847.00    2.18723   2.25755   -1.000
 4848.00    2.12415   2.25200   -1.000
 4849.00    2.11050   2.24731   -1.000
 4850.00    2.14493   2.24656   -1.000
 4851.00    2.15850   2.24341   -1.000
 4852.00    2.16284   2.22883   -1.000
 4853.00    2.14490   2.19879   -1.000
 4854.00    2.09544   2.15923   -1.000
 4855.00    2.00583   2.12038   -1.000
 4856.00    1.97114   2.08626   -1.000
 4857.00    2.02174   2.04764   -1.000
 4858.00    2.01505   1.98886   -1.000
 4859.00    1.93732   1.90788   -1.000
 4860.00    1.77858   1.82662   -1.000
 4861.00    1.65909   1.78176   -1.000
 4862.00    1.69028   1.79570   -1.000
 4863.00    1.83544   1.86189   -1.000
 4864.00    1.93524   1.95099  119.607
 4865.00    1.98959   2.03398   -1.000
 4866.00    2.03968   2.09395   -1.000
 4867.00    2.04208   2.12479   -1.000
 4868.00    2.04748   2.12544   -1.000
 4869.00    2.03402   2.09935   -1.000
 4870.00    1.98770   2.05873   -1.000
 4871.00    1.90851   2.02513   -1.000
 4872.00    1.90360   2.01916   -1.000
 4873.00    1.96628   2.04675   -1.000
 4874.00    2.03463   2.09562   -1.000
 4875.00    2.05288   2.14772   -1.000
 4876.00    2.08486   2.19263   -1.000
 4877.00    2.10124   2.22860   -1.000
 4878.00    2.15262   2.25618   -1.000
 4879.00    2.19850   2.27255   -1.000
 4880.00    2.19123   2.27475   -1.000
 4881.00    2.10353   2.26347   -1.000
 4882.00    2.07571   2.24372   -1.000
 4883.00    2.11140   2.21970   -1.000
 4884.00    2.11086   2.19265   -1.000
 4885.00    2.04660   2.16423   -1.000
 4886.00    2.00483   2.13843   -1.000
 4887.00    2.00673   2.11674   -1.000
 4888.00    2.04093   2.09606   -1.000
 4889.00    2.05265   2.07497   -1.000
 4890.00    2.01150   2.06364   -1.000
 4891.00    1.99095   2.08062   -1.000
 4892.00    2.03630   2.13908   -1.000
 4893.00    2.19860   2.23104   -1.000
 4894.00    2.35354   2.33061  107.943
 4895.00    2.39835   2.40965  110.393
 4896.00    2.40839   2.45317   -1.000
 4897.00    2.43770   2.46218  114.147
 4898.00    2.42627   2.44650  113.529
 4899.00    2.35103   2.41868   -1.000
 4900.00    2.27974   2.38915   -1.000
 4901.00    2.27557   2.36513   -1.000
 4902.00    2.27097   2.35073   -1.000
 4903.00    2.25610   2.34948   -1.000
 4904.00    2.28134   2.36222   -1.000
 4905.00    2.33415   2.38199   -1.000
 4906.00    2.37876   2.39366  117.784
 4907.00    2.36699   2.38348  119.121
 4908.00    2.31565   2.35091   -1.000
 4909.00    2.24098   2.31092   -1.000
 4910.00    2.21648   2.28356   -1.000
 4911.00    2.23454   2.28223   -1.000
 4912.00    2.26149   2.30601   -1.000
 4913.00    2.29313   2.34212   -1.000
 4914.00    2.35221   2.37138  116.157
 4915.00    2.36231   2.37442  122.625
 4916.00    2.36207   2.33610   -1.000
 4917.00    2.31507   2.25536   -1.000
 4918.00    2.17416   2.15067   -1.000
 4919.00    2.03766   2.05785  120.515
 4920.00    1.95110   2.01036   -1.000
 4921.00    2.00183   2.02060  118.773
 4922.00    2.12654   2.07407   -1.000
 4923.00    2.20561   2.14399   -1.000
 4924.00    2.24840   2.21174   -1.000
 4925.00    2.27828   2.27402  111.070
 4926.00    2.32682   2.33510  110.322
 4927.00    2.35201   2.39523   -1.000
 4928.00    2.41587   2.44743   -1.000
 4929.00    2.44528   2.48159   -1.000
 4930.00    2.43940   2.48908   -1.000
 4931.00    2.42374   2.46866   -1.000
 4932.00    2.36081   2.42857   -1.000
 4933.00    2.27119   2.38409   -1.000
 4934.00    2.25764   2.34651   -1.000
 4935.00    2.28666   2.31592   -1.000
 4936.00    2.26921   2.28410  121.529
 4937.00    2.20777   2.24949   -1.000
 4938.00    2.14220   2.22595   -1.000
 4939.00    2.12477   2.23260   -1.000
 4940.00    2.20439   2.27622   -1.000
 4941.00    2.34727   2.34272  110.819
 4942.00    2.43023   2.40863  111.611
 4943.00    2.46671   2.45608  111.769
 4944.00    2.50044   2.48138  110.698
 4945.00    2.49130   2.49220  109.422
 4946.00    2.43873   2.50007   -1.000
 4947.00    2.42649   2.51288   -1.000
 4948.00    2.44060   2.53082   -1.000
 4949.00    2.44076   2.54825   -1.000
 4950.00    2.44941   2.55790   -1.000
 4951.00    2.44110   2.55441   -1.000
 4952.00    2.43288   2.53319   -1.000
 4953.00    2.40485   2.48910   -1.000
 4954.00    2.33926   2.41848   -1.000
 4955.00    2.27836   2.32551   -1.000
 4956.00    2.15121   2.23138   -1.000
 4957.00    2.00218   2.16983   -1.000
 4958.00    1.99266   2.16686   -1.000
 4959.00    2.12464   2.22083   -1.000
 4960.00    2.25785   2.29975   -1.000
 4961.00    2.28910   2.36652   -1.000
 4962.00    2.30661   2.39807   -1.000
 4963.00    2.31478   2.39312   -1.000
 4964.00    2.30233   2.36347   -1.000
 4965.00    2.23921   2.32595   -1.000
 4966.00    2.21670   2.29608   -1.000
 4967.00    2.20977   2.28385   -1.000
 4968.00    2.19765   2.29178   -1.000
 4969.00    2.22077   2.31671   -1.000
 4970.00    2.25285   2.35283   -1.000
 4971.00    2.28999   2.39252   -1.000
 4972.00    2.33576   2.42798   -1.000
 4973.00    2.35500   2.45219   -1.000
 4974.00    2.37657   2.46056   -1.000
 4975.00    2.35822   2.45175   -1.000
 4976.00    2.33357   2.42729   -1.000
 4977.00    2.30607   2.39097   -1.000
 4978.00    2.22256   2.34687   -1.000
 4979.00    2.18760   2.29641   -1.000
 4980.00    2.17270   2.23923   -1.000
 4981.00    2.11883   2.17884   -1.000
 4982.00    2.03929   2.12774   -1.000
 4983.00    1.98589   2.10346   -1.000
 4984.00    2.02224   2.11781   -1.000
 4985.00    2.10305   2.16698   -1.000
 4986.00    2.18416   2.23351   -1.000
 4987.00    2.26072   2.29451   -1.000
 4988.00    2.32583   2.33434  118.972
 4989.00    2.30433   2.35032   -1.000
 4990.00    2.26367   2.35170   -1.000
 4991.00    2.25833   2.35082   -1.000
 4992.00    2.26691   2.35435   -1.000
 4993.00    2.28206   2.36254   -1.000
 4994.00    2.28452   2.37232   -1.000
 4995.00    2.28755   2.37935   -1.000
 4996.00    2.29893   2.37693   -1.000
 4997.00    2.29603   2.35840   -1.000
 4998.00    2.25774   2.32133   -1.000
 4999.00    2.19833   2.27467   -1.000
 5000.00    2.12355   2.23161   -1.000
 5001.00    2.08692   2.20221   -1.000
 5002.00    2.13630   2.18459   -1.000
 5003.00    2.16854   2.16928  125.884
 5004.00    2.15316   2.15067  122.618
 5005.00    2.09164   2.13420   -1.000
 5006.00    2.05181   2.13381   -1.000
 5007.00    2.07719   2.15694   -1.000
 5008.00    2.16399   2.19502   -1.000
 5009.00    2.22929   2.22601  128.221
 5010.00    2.20794   2.22986   -1.000
 5011.00    2.15535   2.20245   -1.000
 5012.00    2.08138   2.15698   -1.000
 5013.00    2.01428   2.11570   -1.000
 5014.00    2.01307   2.09536   -1.000
 5015.00    2.04025   2.09992   -1.000
 5016.00    2.10744   2.12101  122.556
 5017.00    2.11523   2.14737   -1.000
 5018.00    2.10978   2.17175   -1.000
 5019.00    2.13437   2.19079   -1.000
 5020.00    2.16689   2.20409   -1.000
 5021.00    2.18248   2.21389   -1.000
 5022.00    2.16515   2.22606   -1.000
 5023.00    2.16040   2.24518   -1.000
 5024.00    2.22115   2.26886   -1.000
 5025.00    2.27061   2.28845  119.473
 5026.00    2.27249   2.29904   -1.000
 5027.00    2.23364   2.30538   -1.000
 5028.00    2.22448   2.31953   -1.000
 5029.00    2.28293   2.34958   -1.000
 5030.00    2.34694   2.39290   -1.000
 5031.00    2.36894   2.43726   -1.000
 5032.00    2.42550   2.46624   -1.000
 5033.00    2.45640   2.46779  123.187
 5034.00    2.39174   2.43911   -1.000
 5035.00    2.27143   2.38971   -1.000
 5036.00    2.18291   2.33255   -1.000
 5037.00    2.18681   2.27475   -1.000
 5038.00    2.19373   2.21550   -1.000
 5039.00    2.12040   2.15734   -1.000
 5040.00    1.99606   2.11699   -1.000
 5041.00    1.96052   2.11819   -1.000
 5042.00    2.06392   2.17349   -1.000
 5043.00    2.22972   2.26966   -1.000
 5044.00    2.31136   2.37343   -1.000
 5045.00    1.44875   2.44954   -1.000
 5046.00    0.21503   2.47677   -1.000
 5047.00    0.10692   2.45540   -1.000
 5048.00    0.86770   2.40341   -1.000
 5049.00    2.12505   2.34810   -1.000
 5050.00    2.24575   2.31289   -1.000
 5051.00    2.25381   2.30984   -1.000
 5052.00    2.29636   2.33647   -1.000
 5053.00    2.35144   2.38138   -1.000
 5054.00    2.41159   2.43036  112.523
 5055.00    2.45859   2.47334  112.701
 5056.00    2.49904   2.50671  112.558
 5057.00    2.50118   2.53362   -1.000
 5058.00    2.49734   2.55767   -1.000
 5059.00    2.50282   2.57895   -1.000
 5060.00    2.52585   2.59154   -1.000
 5061.00    2.56885   2.58499  121.279
 5062.00    2.56308   2.55258  122.209
 5063.00    2.47759   2.49694  120.578
 5064.00    2.35418   2.43400   -1.000
 5065.00    2.26618   2.38273   -1.000
 5066.00    2.29589   2.35545   -1.000
 5067.00    2.34049   2.35165  117.407
 5068.00    2.34288   2.36285   -1.000
 5069.00    2.37196   2.37857  119.035
 5070.00    2.39594   2.39106  117.554
 5071.00    2.37231   2.39711   -1.000
 5072.00    2.34674   2.39925   -1.000
 5073.00    2.36828   2.40150   -1.000
 5074.00    2.39908   2.40496  118.283
 5075.00    2.39637   2.40410  122.733
 5076.00    2.37463   2.38993  128.065
 5077.00    2.35787   2.35659  128.794
 5078.00    2.31607   2.30714  125.927
 5079.00    2.21174   2.25638   -1.000
 5080.00    2.12735   2.22240   -1.000
 5081.00    2.13619   2.21692   -1.000
 5082.00    2.19935   2.23857   -1.000
 5083.00    2.25655   2.27776   -1.000
 5084.00    2.30147   2.32439   -1.000
 5085.00    2.35868   2.37082  115.944
 5086.00    2.39977   2.41146  115.124
 5087.00    2.42387   2.44371  114.501
 5088.00    2.45449   2.46816  113.801
 5089.00    2.45928   2.48895   -1.000
 5090.00    2.46934   2.51043   -1.000
 5091.00    2.49844   2.53342   -1.000
 5092.00    2.52208   2.55273   -1.000
 5093.00    2.54975   2.55788  118.069
 5094.00    2.55045   2.53964  120.891
 5095.00    2.46998   2.49678   -1.000
 5096.00    2.38566   2.43884   -1.000
 5097.00    2.32153   2.38232   -1.000
 5098.00    2.26562   2.34540   -1.000
 5099.00    2.23840   2.33837   -1.000
 5100.00    2.29006   2.36004   -1.000
 5101.00    2.38187   2.39525  118.291
 5102.00    2.42989   2.42490  119.778
 5103.00    2.40946   2.43589   -1.000
 5104.00    2.37386   2.42657   -1.000
 5105.00    2.34390   2.40351   -1.000
 5106.00    2.30752   2.37535   -1.000
 5107.00    2.29751   2.35022   -1.000
 5108.00    2.29396   2.33572   -1.000
 5109.00    2.29287   2.33698   -1.000
 5110.00    2.30405   2.35585   -1.000
 5111.00    2.35191   2.38838   -1.000
 5112.00    2.40824   2.42828   -1.000
 5113.00    2.43938   2.46960   -1.000
 5114.00    2.48054   2.50884   -1.000
 5115.00    2.52928   2.54409  112.777
 5116.00    2.55871   2.57202  114.338
 5117.00    2.57168   2.58718  116.100
 5118.00    2.55778   2.58410   -1.000
 5119.00    2.53026   2.55993   -1.000
 5120.00    2.48953   2.51632   -1.000
 5121.00    2.43662   2.45928   -1.000
 5122.00    2.35681   2.39880   -1.000
 5123.00    2.26930   2.34607   -1.000
 5124.00    2.22206   2.31062   -1.000
 5125.00    2.23712   2.29505   -1.000
 5126.00    2.28754   2.29521  122.512
 5127.00    2.29769   2.30454  120.765
 5128.00    2.28387   2.31949   -1.000
 5129.00    2.29771   2.34127   -1.000
 5130.00    2.33332   2.37110   -1.000
 5131.00    2.40160   2.40654  115.899
 5132.00    2.45856   2.44200  116.040
 5133.00    2.46946   2.47077  118.367
 5134.00    2.49974   2.48730  121.116
 5135.00    2.53466   2.48645   -1.000
 5136.00    2.52368   2.46612   -1.000
 5137.00    2.45394   2.43258  121.763
 5138.00    2.35616   2.39770   -1.000
 5139.00    2.32313   2.37380   -1.000
 5140.00    2.36040   2.36380  123.422
 5141.00    2.37984   2.36307  121.581
 5142.00    2.33372   2.36592   -1.000
 5143.00    2.31319   2.36888   -1.000
 5144.00    2.36091   2.36865  122.497
 5145.00    2.35454   2.36426  121.062
 5146.00    2.30612   2.35697   -1.000
 5147.00    2.29610   2.35168   -1.000
 5148.00    2.31213   2.35093   -1.000
 5149.00    2.32411   2.35094   -1.000
 5150.00    2.34334   2.34685  124.009
 5151.00    2.30766   2.33886   -1.000
 5152.00    2.27990   2.33394   -1.000
 5153.00    2.28323   2.34284   -1.000
 5154.00    2.31725   2.37187   -1.000
 5155.00    2.40590   2.42006  112.924
 5156.00    2.49597   2.47729  113.016
 5157.00    2.57457   2.53005   -1.000
 5158.00    2.59027   2.56644  114.249
 5159.00    2.57670   2.58054  115.660
 5160.00    2.56507   2.57045  117.975
 5161.00    2.51689   2.53528  123.578
 5162.00    2.46061   2.47336  134.572
 5163.00    2.41001   2.38245   -1.000
 5164.00    2.32448   2.26223   -1.000
 5165.00    2.12096   2.12160  150.138
 5166.00    1.85092   1.98646   -1.000
 5167.00    1.67169   1.88575   -1.000
 5168.00    1.66439   1.83604   -1.000
 5169.00    1.82070   1.82293   -1.000
 5170.00    1.91638   1.81689   -1.000
 5171.00    1.81327   1.80851  134.362
 5172.00    1.65785   1.81400   -1.000
 5173.00    1.66308   1.86510   -1.000
 5174.00    1.90113   1.96721   -1.000
 5175.00    2.17999   2.09539   -1.000
 5176.00    2.32463   2.21111   -1.000
 5177.00    2.37520   2.28409   -1.000
 5178.00    2.43904   2.30253   -1.000
 5179.00    2.41014   2.26469   -1.000
 5180.00    2.26865   2.17396   -1.000
 5181.00    2.11558   2.05208   -1.000
 5182.00    1.89439   1.93638   -1.000
 5183.00    1.67916   1.87787   -1.000
 5184.00    1.67087   1.90603   -1.000
 5185.00    1.93869   2.01261   -1.000
 5186.00    2.21576   2.15669   -1.000
 5187.00    2.36468   2.28750   -1.000
 5188.00    2.41287   2.37310   -1.000
 5189.00    2.45803   2.40320   -1.000
 5190.00    2.45697   2.38757   -1.000
 5191.00    2.37682   2.34774  124.497
 5192.00    2.30649   2.31195  122.678
 5193.00    2.29445   2.29880  120.735
 5194.00    2.34541   2.31632  118.352
 5195.00    2.37885   2.35748  116.587
 5196.00    2.41941   2.41142  115.863
 5197.00    2.48084   2.46794  116.016
 5198.00    2.53178   2.51657  117.259
 5199.00    2.56001   2.54743  119.572
 5200.00    2.55466   2.55178  122.563
 5201.00    2.53094   2.52524  126.468
 5202.00    2.50032   2.46695   -1.000
 5203.00    2.43310   2.38346   -1.000
 5204.00    2.34150   2.28930   -1.000
 5205.00    2.26926   2.20321   -1.000
 5206.00    2.23527   2.14293   -1.000
 5207.00    2.21806   2.11890   -1.000
 5208.00    2.21107   2.13642   -1.000
 5209.00    2.24867   2.19488   -1.000
 5210.00    2.33693   2.28550   -1.000
 5211.00    2.46032   2.38985   -1.000
 5212.00    2.59420   2.48061   -1.000
 5213.00    2.66044   2.53768   -1.000
 5214.00    2.64965   2.55746   -1.000
 5215.00    2.60766   2.55660   -1.000
 5216.00    2.58418   2.55964  112.827
 5217.00    2.60837   2.58220  112.096
 5218.00    2.64119   2.62355  112.106
 5219.00    2.69384   2.66728   -1.000
 5220.00    2.73267   2.69411   -1.000
 5221.00    2.73622   2.68802   -1.000
 5222.00    2.70941   2.64305   -1.000
 5223.00    2.61871   2.56315   -1.000
 5224.00    2.47513   2.46586  126.088
 5225.00    2.33481   2.37929   -1.000
 5226.00    2.25824   2.33493   -1.000
 5227.00    2.29282   2.34962   -1.000
 5228.00    2.46794   2.41504   -1.000
 5229.00    2.65759   2.49719   -1.000
 5230.00    2.74340   2.56026   -1.000
 5231.00    2.74438   2.58500   -1.000
 5232.00    2.68264   2.58169   -1.000
 5233.00    2.61468   2.57839   -1.000
 5234.00    2.61472   2.59648  110.990
 5235.00    2.67538   2.64251   -1.000
 5236.00    2.76690   2.70153   -1.000
 5237.00    2.84093   2.75444   -1.000
 5238.00    2.86026   2.78824   -1.000
 5239.00    2.82767   2.80142   -1.000
 5240.00    2.78456   2.80195  110.355
 5241.00    2.76794   2.79897   -1.000
 5242.00    2.78618   2.79691  113.443
 5243.00    2.80954   2.79172  116.849
 5244.00    2.83031   2.77424   -1.000
 5245.00    2.79793   2.73849   -1.000
 5246.00    2.68717   2.68869  119.424
 5247.00    2.59370   2.63806   -1.000
 5248.00    2.58173   2.59965  118.958
 5249.00    2.59925   2.58017  117.372
 5250.00    2.56921   2.57939  116.539
 5251.00    2.58123   2.59124  116.398
 5252.00    2.64303   2.61013   -1.000
 5253.00    2.67563   2.63281   -1.000
 5254.00    2.66693   2.66152  109.596
 5255.00    2.67609   2.70265   -1.000
 5256.00    2.75994   2.75349  110.882
 5257.00    2.85933   2.80175   -1.000
 5258.00    2.89995   2.82533   -1.000
 5259.00    2.87154   2.80613   -1.000
 5260.00    2.81285   2.73958   -1.000
 5261.00    2.71486   2.63589   -1.000
 5262.00    2.56760   2.51538   -1.000
 5263.00    2.41708   2.40207  127.770
 5264.00    2.30701   2.31402  126.818
 5265.00    2.26819   2.25814  130.474
 5266.00    2.31355   2.22672   -1.000
 5267.00    2.37614   2.20342   -1.000
 5268.00    2.35776   2.18473   -1.000
 5269.00    2.23760   2.18239   -1.000
 5270.00    2.23128   2.21804  117.480
 5271.00    2.39067   2.29641   -1.000
 5272.00    2.59709   2.39643   -1.000
 5273.00    2.70119   2.49466   -1.000
 5274.00    2.71070   2.57432   -1.000
 5275.00    2.71768   2.64333   -1.000
 5276.00    2.78431   2.71005   -1.000
 5277.00    2.89441   2.76867   -1.000
 5278.00    2.96946   2.80547   -1.000
 5279.00    2.98276   2.80613   -1.000
 5280.00    2.91875   2.77373   -1.000
 5281.00    2.83126   2.72626   -1.000
 5282.00    2.76902   2.69292   -1.000
 5283.00    2.72831   2.69591   -1.000
 5284.00    2.74979   2.74277  107.805
 5285.00    2.90386   2.81757   -1.000
 5286.00    3.03900   2.89535   -1.000
 5287.00    3.09427   2.95518   -1.000
 5288.00    3.09171   2.99051   -1.000
 5289.00    3.08881   3.00754   -1.000
 5290.00    3.09984   3.01227   -1.000
 5291.00    3.08320   3.00695   -1.000
 5292.00    3.05327   2.98922   -1.000
 5293.00    3.03257   2.95406   -1.000
 5294.00    3.01611   2.89740   -1.000
 5295.00    2.93991   2.82175   -1.000
 5296.00    2.78856   2.74076   -1.000
 5297.00    2.66130   2.67776  114.713
 5298.00    2.64423   2.65206  113.855
 5299.00    2.74078   2.66689   -1.000
 5300.00    2.85157   2.71293   -1.000
 5301.00    2.89810   2.77557   -1.000
 5302.00    2.93745   2.84565   -1.000
 5303.00    3.02707   2.91601   -1.000
 5304.00    3.12641   2.97596   -1.000
 5305.00    3.17289   3.01735   -1.000
 5306.00    3.15991   3.03853   -1.000
 5307.00    3.13631   3.04731   -1.000
 5308.00    3.14559   3.05426   -1.000
 5309.00    3.18566   3.06173   -1.000
 5310.00    3.20796   3.06622   -1.000
 5311.00    3.20553   3.06244   -1.000
 5312.00    3.17221   3.04844   -1.000
 5313.00    3.12992   3.02775   -1.000
 5314.00    3.09904   3.00448   -1.000
 5315.00    3.08164   2.98297   -1.000
 5316.00    3.06273   2.96733   -1.000
 5317.00    3.05789   2.95795   -1.000
 5318.00    3.07220   2.95320   -1.000
 5319.00    3.07500   2.94760   -1.000
 5320.00    3.07815   2.93350   -1.000
 5321.00    3.04818   2.90468   -1.000
 5322.00    2.98435   2.85801   -1.000
 5323.00    2.91773   2.79429   -1.000
 5324.00    2.86879   2.71617   -1.000
 5325.00    2.86691   2.62497   -1.000
 5326.00    2.79842   2.53477   -1.000
 5327.00    2.60430   2.46578   -1.000
 5328.00    2.45262   2.44964  113.243
 5329.00    2.49883   2.49744  112.204
 5330.00    2.72238   2.59497   -1.000
 5331.00    2.91342   2.71078   -1.000
 5332.00    2.99866   2.81389   -1.000
 5333.00    3.04638   2.89312   -1.000
 5334.00    3.09362   2.94757   -1.000
 5335.00    3.13964   2.97713   -1.000
 5336.00    3.13691   2.97906   -1.000
 5337.00    3.09546   2.95028   -1.000
 5338.00    3.03459   2.89855   -1.000
 5339.00    2.94772   2.84138   -1.000
 5340.00    2.86433   2.80351   -1.000
 5341.00    2.85589   2.79729   -1.000
 5342.00    2.94772   2.82013   -1.000
 5343.00    3.05432   2.85319   -1.000
 5344.00    3.08756   2.87639   -1.000
 5345.00    3.05921   2.88146   -1.000
 5346.00    3.05155   2.87196   -1.000
 5347.00    3.04340   2.85892   -1.000
 5348.00    3.00258   2.85629   -1.000
 5349.00    2.99079   2.87403   -1.000
 5350.00    3.05806   2.91415   -1.000
 5351.00    3.16567   2.97142   -1.000
 5352.00    3.21811   3.03299   -1.000
 5353.00    3.22798   3.09061   -1.000
 5354.00    3.23389   3.13831   -1.000
 5355.00    3.27594   3.17377   -1.000
 5356.00    3.32095   3.19616   -1.000
 5357.00    3.31871   3.20327   -1.000
 5358.00    3.31219   3.19467   -1.000
 5359.00    3.30569   3.17169   -1.000
 5360.00    3.26217   3.13784   -1.000
 5361.00    3.18323   3.09797   -1.000
 5362.00    3.14529   3.05726   -1.000
 5363.00    3.13396   3.01929   -1.000
 5364.00    3.09652   2.98544   -1.000
 5365.00    3.06066   2.95526   -1.000
 5366.00    3.05576   2.92417   -1.000
 5367.00    3.05613   2.88389   -1.000
 5368.00    3.04118   2.83024   -1.000
 5369.00    2.95690   2.77052   -1.000
 5370.00    2.82085   2.72703   -1.000
 5371.00    2.77308   2.72624   -1.000
 5372.00    2.87708   2.77582   -1.000
 5373.00    3.07500   2.86272   -1.000
 5374.00    3.24168   2.95447   -1.000
 5375.00    3.30035   3.02624   -1.000
 5376.00    3.28077   3.06921   -1.000
 5377.00    3.25494   3.08892   -1.000
 5378.00    3.27056   3.09489   -1.000
 5379.00    3.28478   3.09069   -1.000
 5380.00    3.27091   3.07768   -1.000
 5381.00    3.22934   3.05913   -1.000
 5382.00    3.19034   3.04234   -1.000
 5383.00    3.17517   3.03492   -1.000
 5384.00    3.17945   3.03835   -1.000
 5385.00    3.21607   3.04619   -1.000
 5386.00    3.24174   3.04720   -1.000
 5387.00    3.22983   3.03305   -1.000
 5388.00    3.17932   3.00213   -1.000
 5389.00    3.10218   2.96213   -1.000
 5390.00    3.04765   2.92334   -1.000
 5391.00    3.02159   2.89268   -1.000
 5392.00    3.01704   2.87019   -1.000
 5393.00    3.02544   2.84952   -1.000
 5394.00    3.02664   2.82454   -1.000
 5395.00    2.99649   2.79585   -1.000
 5396.00    2.91276   2.77510   -1.000
 5397.00    2.87768   2.77601   -1.000
 5398.00    2.93965   2.80349   -1.000
 5399.00    3.03133   2.84781   -1.000
 5400.00    3.07957   2.88701   -1.000
 5401.00    3.09090   2.89869   -1.000
 5402.00    3.08444   2.87185   -1.000
 5403.00    3.01125   2.81195   -1.000
 5404.00    2.87466   2.74159   -1.000
 5405.00    2.77134   2.68975   -1.000
 5406.00    2.77018   2.67207   -1.000
 5407.00    2.86888   2.68902   -1.000
 5408.00    2.95808   2.72441   -1.000
 5409.00    2.95612   2.76829   -1.000
 5410.00    2.95695   2.81971   -1.000
 5411.00    3.03541   2.87802   -1.000
 5412.00    3.14502   2.94054   -1.000
 5413.00    3.22104   2.99758   -1.000
 5414.00    3.24642   3.04427   -1.000
 5415.00    3.25960   3.08150   -1.000
 5416.00    3.29639   3.10861   -1.000
 5417.00    3.32221   3.12372   -1.000
 5418.00    3.30652   3.12436   -1.000
 5419.00    3.26704   3.11203   -1.000
 5420.00    3.23589   3.09415   -1.000
 5421.00    3.24457   3.07641   -1.000
 5422.00    3.25312   3.06273   -1.000
 5423.00    3.20797   3.05829   -1.000
 5424.00    3.16232   3.06386   -1.000
 5425.00    3.20313   3.07495   -1.000
 5426.00    3.28160   3.07770   -1.000
 5427.00    3.27855   3.05565   -1.000
 5428.00    3.16583   3.00979   -1.000
 5429.00    3.04027   2.95469   -1.000
 5430.00    3.02562   2.91051   -1.000
 5431.00    3.08591   2.88514   -1.000
 5432.00    3.10040   2.87104   -1.000
 5433.00    3.05362   2.86321   -1.000
 5434.00    3.00679   2.86546   -1.000
 5435.00    3.00213   2.89067   -1.000
 5436.00    3.06048   2.94641   -1.000
 5437.00    3.16596   3.02482   -1.000
 5438.00    3.26982   3.10994   -1.000
 5439.00    3.36141   3.18286   -1.000
 5440.00    3.39561   3.23236   -1.000
 5441.00    3.38277   3.25150   -1.000
 5442.00    3.34399   3.23608   -1.000
 5443.00    3.28492   3.18473   -1.000
 5444.00    3.23403   3.10326   -1.000
 5445.00    3.12409   3.01268   -1.000
 5446.00    2.94014   2.94184  110.813
 5447.00    2.87530   2.91464   -1.000
 5448.00    2.98072   2.93377   -1.000
 5449.00    3.13073   2.97736   -1.000
 5450.00    3.21983   3.01654   -1.000
 5451.00    3.25568   3.02683   -1.000
 5452.00    3.21189   3.00230   -1.000
 5453.00    3.13422   2.95428   -1.000
 5454.00    2.99961   2.90646   -1.000
 5455.00    2.91798   2.88435   -1.000
 5456.00    2.96502   2.90326   -1.000
 5457.00    3.07583   2.95312   -1.000
 5458.00    3.20485   3.00936   -1.000
 5459.00    3.25681   3.04403   -1.000
 5460.00    3.22055   3.04588   -1.000
 5461.00    3.14736   3.02575   -1.000
 5462.00    3.08518   3.00304   -1.000
 5463.00    3.05706   2.99472   -1.000
 5464.00    3.08347   3.00560   -1.000
 5465.00    3.13595   3.02998   -1.000
 5466.00    3.17359   3.05626   -1.000
 5467.00    3.18509   3.07437   -1.000
 5468.00    3.18197   3.07939   -1.000
 5469.00    3.16019   3.07143   -1.000
 5470.00    3.13035   3.05377   -1.000
 5471.00    3.13199   3.02982   -1.000
 5472.00    3.13096   3.00010   -1.000
 5473.00    3.09601   2.96398   -1.000
 5474.00    3.05497   2.92366   -1.000
 5475.00    2.99032   2.88720   -1.000
 5476.00    2.91455   2.86962   -1.000
 5477.00    2.91851   2.87620   -1.000
 5478.00    3.02292   2.90057   -1.000
 5479.00    3.11672   2.92859   -1.000
 5480.00    3.11331   2.94805   -1.000
 5481.00    3.02997   2.96471   -1.000
 5482.00    2.98498   2.98903  111.240
 5483.00    3.04555   3.02468  112.668
 5484.00    3.14336   3.06250   -1.000
 5485.00    3.20688   3.08509   -1.000
 5486.00    3.20670   3.08729   -1.000
 5487.00    3.16440   3.07597   -1.000
 5488.00    3.14058   3.06647   -1.000
 5489.00    3.14913   3.06794   -1.000
 5490.00    3.16252   3.07961   -1.000
 5491.00    3.20466   3.09370   -1.000
 5492.00    3.24095   3.10238   -1.000
 5493.00    3.23257   3.10399   -1.000
 5494.00    3.21775   3.09977   -1.000
 5495.00    3.21886   3.09311   -1.000
 5496.00    3.19199   3.08846   -1.000
 5497.00    3.15810   3.08764   -1.000
 5498.00    3.18729   3.08867   -1.000
 5499.00    3.22501   3.08666   -1.000
 5500.00    3.21866   3.07596   -1.000
 5501.00    3.17335   3.05756   -1.000
 5502.00    3.13580   3.03729   -1.000
 5503.00    3.14333   3.01937   -1.000
 5504.00    3.15749   3.00661   -1.000
 5505.00    3.11958   2.99958   -1.000
 5506.00    3.09050   3.00101   -1.000
 5507.00    3.12899   3.01303   -1.000
 5508.00    3.18308   3.02831   -1.000
 5509.00    3.20763   3.03478   -1.000
 5510.00    3.18408   3.02263   -1.000
 5511.00    3.13772   2.99363   -1.000
 5512.00    3.09407   2.96308   -1.000
 5513.00    3.06119   2.94639   -1.000
 5514.00    3.08871   2.95392   -1.000
 5515.00    3.14965   2.98591   -1.000
 5516.00    3.19466   3.03566   -1.000
 5517.00    3.26349   3.09285   -1.000
 5518.00    3.34830   3.14625   -1.000
 5519.00    3.37899   3.18667   -1.000
 5520.00    3.37796   3.21085   -1.000
 5521.00    3.37958   3.21957   -1.000
 5522.00    3.35724   3.21631   -1.000
 5523.00    3.34984   3.20158   -1.000
 5524.00    3.33718   3.17219   -1.000
 5525.00    3.29076   3.12839   -1.000
 5526.00    3.22301   3.07742   -1.000
 5527.00    3.14252   3.03715   -1.000
 5528.00    3.08288   3.02262   -1.000
 5529.00    3.11506   3.03854   -1.000
 5530.00    3.21697   3.07455   -1.000
 5531.00    3.28027   3.11107   -1.000
 5532.00    3.28430   3.13439   -1.000
 5533.00    3.26466   3.14160   -1.000
 5534.00    3.26498   3.14006   -1.000
 5535.00    3.27082   3.13907   -1.000
 5536.00    3.27492   3.14476   -1.000
 5537.00    3.29755   3.15959   -1.000
 5538.00    3.32441   3.18203   -1.000
 5539.00    3.35721   3.20608   -1.000
 5540.00    3.41183   3.22467   -1.000
 5541.00    3.44724   3.23227   -1.000
 5542.00    3.41956   3.22873   -1.000
 5543.00    3.38439   3.21936   -1.000
 5544.00    3.38933   3.21240   -1.000
 5545.00    3.40207   3.21473   -1.000
 5546.00    3.39069   3.22902   -1.000
 5547.00    3.40619   3.25271   -1.000
 5548.00    3.46480   3.27934   -1.000
 5549.00    3.51528   3.30081   -1.000
 5550.00    3.51470   3.30940   -1.000
 5551.00    3.48710   3.30273   -1.000
 5552.00    3.46023   3.28486   -1.000
 5553.00    3.42212   3.26322   -1.000
 5554.00    3.38685   3.24501   -1.000
 5555.00    3.37980   3.23405   -1.000
 5556.00    3.38775   3.22963   -1.000
 5557.00    3.39418   3.22889   -1.000
 5558.00    3.39473   3.22789   -1.000
 5559.00    3.40318   3.22348   -1.000
 5560.00    3.40461   3.21416   -1.000
 5561.00    3.36790   3.20022   -1.000
 5562.00    3.32602   3.18361   -1.000
 5563.00    3.31411   3.16754   -1.000
 5564.00    3.31518   3.15353   -1.000
 5565.00    3.30489   3.14205   -1.000
 5566.00    3.29033   3.13312   -1.000
 5567.00    3.29125   3.12770   -1.000
 5568.00    3.31083   3.12719   -1.000
 5569.00    3.33380   3.13051   -1.000
 5570.00    3.37468   3.13511   -1.000
 5571.00    3.47102   3.13963   -1.000
 5572.00    3.56702   3.14544   -1.000
 5573.00    3.62493   3.15629   -1.000
 5574.00    3.57548   3.17321   -1.000
 5575.00    3.40576   3.19519   -1.000
 5576.00    3.35339   3.21865   -1.000
 5577.00    3.40101   3.23835   -1.000
 5578.00    3.42106   3.25254   -1.000
 5579.00    3.41867   3.26060   -1.000
 5580.00    3.41885   3.25947   -1.000
 5581.00    3.42127   3.24783   -1.000
 5582.00    3.40352   3.22467   -1.000
 5583.00    3.36311   3.18684   -1.000
 5584.00    3.33483   3.13407   -1.000
 5585.00    3.28202   3.06929   -1.000
 5586.00    3.18578   3.00346   -1.000
 5587.00    3.09867   2.95369   -1.000
 5588.00    3.05657   2.93230   -1.000
 5589.00    3.08856   2.94297   -1.000
 5590.00    3.15733   2.97576   -1.000
 5591.00    3.20370   3.01765   -1.000
 5592.00    3.21163   3.05896   -1.000
 5593.00    3.21037   3.09636   -1.000
 5594.00    3.24921   3.12924   -1.000
 5595.00    3.32377   3.15290   -1.000
 5596.00    3.36823   3.16029   -1.000
 5597.00    3.31953   3.14637   -1.000
 5598.00    3.23373   3.11422   -1.000
 5599.00    3.18334   3.07620   -1.000
 5600.00    3.16120   3.04767   -1.000
 5601.00    3.14459   3.04163   -1.000
 5602.00    3.15055   3.06480   -1.000
 5603.00    3.20894   3.11501   -1.000
 5604.00    3.29085   3.18258   -1.000
 5605.00    3.37550   3.25227   -1.000
 5606.00    3.46949   3.30861   -1.000
 5607.00    3.51304   3.34544   -1.000
 5608.00    3.48550   3.36504   -1.000
 5609.00    3.45555   3.37271   -1.000
 5610.00    3.45357   3.36954   -1.000
 5611.00    3.47898   3.35023   -1.000
 5612.00    3.49036   3.30716   -1.000
 5613.00    3.42132   3.24121   -1.000
 5614.00    3.28380   3.16808   -1.000
 5615.00    3.17487   3.11039   -1.000
 5616.00    3.16587   3.08703   -1.000
 5617.00    3.23137   3.09856   -1.000
 5618.00    3.28352   3.13195   -1.000
 5619.00    3.27341   3.16873   -1.000
 5620.00    3.28384   3.19373   -1.000
 5621.00    3.33050   3.20051   -1.000
 5622.00    3.33135   3.18854   -1.000
 5623.00    3.26534   3.16365   -1.000
 5624.00    3.18942   3.14173   -1.000
 5625.00    3.18075   3.13763   -1.000
 5626.00    3.24861   3.15808   -1.000
 5627.00    3.33914   3.19851   -1.000
 5628.00    3.41250   3.24427   -1.000
 5629.00    3.44504   3.28330   -1.000
 5630.00    3.46317   3.30919   -1.000
 5631.00    3.47467   3.31887   -1.000
 5632.00    3.44676   3.31325   -1.000
 5633.00    3.40899   3.29548   -1.000
 5634.00    3.38521   3.27042   -1.000
 5635.00    3.35687   3.24407   -1.000
 5636.00    3.33065   3.22181   -1.000
 5637.00    3.32216   3.20682   -1.000
 5638.00    3.32954   3.19852   -1.000
 5639.00    3.33026   3.19370   -1.000
 5640.00    3.31781   3.19053   -1.000
 5641.00    3.30416   3.19012   -1.000
 5642.00    3.29992   3.19454   -1.000
 5643.00    3.31618   3.20594   -1.000
 5644.00    3.35575   3.22251   -1.000
 5645.00    3.37711   3.23908   -1.000
 5646.00    3.38514   3.25225   -1.000
 5647.00    3.40885   3.26119   -1.000
 5648.00    3.41621   3.26778   -1.000
 5649.00    3.41132   3.27560   -1.000
 5650.00    3.42717   3.28573   -1.000
 5651.00    3.45932   3.29491   -1.000
 5652.00    3.47904   3.29789   -1.000
 5653.00    3.46673   3.28935   -1.000
 5654.00    3.43583   3.26653   -1.000
 5655.00    3.40244   3.23152   -1.000
 5656.00    3.35654   3.18910   -1.000
 5657.00    3.26405   3.14820   -1.000
 5658.00    3.17091   3.11980   -1.000
 5659.00    3.18085   3.10992   -1.000
 5660.00    3.25845   3.11949   -1.000
 5661.00    3.30795   3.14406   -1.000
 5662.00    3.31082   3.17395   -1.000
 5663.00    3.31605   3.20413   -1.000
 5664.00    3.35722   3.23245   -1.000
 5665.00    3.39417   3.25276   -1.000
 5666.00    3.38931   3.26198   -1.000
 5667.00    3.36148   3.26302   -1.000
 5668.00    3.34789   3.26312   -1.000
 5669.00    3.36083   3.27109   -1.000
 5670.00    3.39186   3.29053   -1.000
 5671.00    3.42999   3.31874   -1.000
 5672.00    3.49195   3.35018   -1.000
 5673.00    3.55456   3.37849   -1.000
 5674.00    3.57214   3.39856   -1.000
 5675.00    3.55911   3.40939   -1.000
 5676.00    3.55660   3.41157   -1.000
 5677.00    3.56190   3.40570   -1.000
 5678.00    3.56494   3.39171   -1.000
 5679.00    3.54951   3.36894   -1.000
 5680.00    3.51209   3.33997   -1.000
 5681.00    3.47537   3.31187   -1.000
 5682.00    3.43609   3.29095   -1.000
 5683.00    3.42889   3.27896   -1.000
 5684.00    3.46706   3.27461   -1.000
 5685.00    3.48255   3.27359   -1.000
 5686.00    3.44203   3.27220   -1.000
 5687.00    3.39448   3.27402   -1.000
 5688.00    3.39518   3.28585   -1.000
 5689.00    3.44906   3.31096   -1.000
 5690.00    3.51865   3.34593   -1.000
 5691.00    3.58433   3.38106   -1.000
 5692.00    3.63205   3.40743   -1.000
 5693.00    3.62348   3.42032   -1.000
 5694.00    3.59388   3.41896   -1.000
 5695.00    3.58311   3.40525   -1.000
 5696.00    3.56139   3.38217   -1.000
 5697.00    3.51951   3.35270   -1.000
 5698.00    3.45501   3.31987   -1.000
 5699.00    3.38692   3.28844   -1.000
 5700.00    3.33137   3.26523   -1.000
 5701.00    3.28876   3.25377   -1.000
 5702.00    3.30344   3.25217   -1.000
 5703.00    3.36775   3.25461   -1.000
 5704.00    3.40510   3.25072   -1.000
 5705.00    3.39045   3.23301   -1.000
 5706.00    3.33485   3.20216   -1.000
 5707.00    3.27620   3.16600   -1.000
 5708.00    3.23518   3.13722   -1.000
 5709.00    3.22147   3.12570   -1.000
 5710.00    3.24998   3.13641   -1.000
 5711.00    3.29089   3.17013   -1.000
 5712.00    3.35048   3.22046   -1.000
 5713.00    3.44553   3.27783   -1.000
 5714.00    3.53184   3.33304   -1.000
 5715.00    3.58565   3.37801   -1.000
 5716.00    3.60479   3.41154   -1.000
 5717.00    3.60863   3.43772   -1.000
 5718.00    3.61157   3.46067   -1.000
 5719.00    3.63416   3.48349   -1.000
 5720.00    3.66614   3.50661   -1.000
 5721.00    3.69098   3.52700   -1.000
 5722.00    3.72102   3.53927   -1.000
 5723.00    3.72579   3.53861   -1.000
 5724.00    3.70419   3.52433   -1.000
 5725.00    3.67189   3.50129   -1.000
 5726.00    3.61435   3.47819   -1.000
 5727.00    3.57054   3.46245   -1.000
 5728.00    3.58717   3.45650   -1.000
 5729.00    3.63172   3.45797   -1.000
 5730.00    3.62810   3.46300   -1.000
 5731.00    3.58006   3.47131   -1.000
 5732.00    3.59647   3.48417   -1.000
 5733.00    3.68511   3.50077   -1.000
 5734.00    3.73812   3.51662   -1.000
 5735.00    3.72177   3.52497   11.060
 5736.00    3.67933   3.52447   11.081
 5737.00    3.64917   3.51918   11.102
 5738.00    3.63756   3.51365   11.096
 5739.00    3.64105   3.51053   11.076
 5740.00    3.64867   3.50988   11.023
 5741.00    3.65204   3.51245   10.951
 5742.00    3.65154   3.51924   10.967
 5743.00    3.65411   3.52931   11.065
 5744.00    3.68009   3.53895   11.135
 5745.00    3.72179   3.54270   11.106
 5746.00    3.73359   3.53908   11.054
 5747.00    3.68425   3.53077   11.099
 5748.00    3.64331   3.52181   11.223
 5749.00    3.67698   3.51333   11.347
 5750.00    3.71337   3.50048   11.386
 5751.00    3.69212   3.48040   11.287
 5752.00    3.63239   3.45816   11.093
 5753.00    3.57314   3.44651   10.932
 5754.00    3.56300   3.45639   10.910
 5755.00    3.59911   3.48617   11.008
 5756.00    3.66255   3.52140   11.149
 5757.00    3.72043   3.54275   11.301
 5758.00    3.72588   3.53833   11.393
 5759.00    3.67364   3.51055   11.330
 5760.00    3.59665   3.47336   11.147
 5761.00    3.53020   3.44621   10.985
 5762.00    3.50545   3.44418   10.918
 5763.00    3.55268   3.46922   10.903
 5764.00    3.63521   3.51290   10.888
 5765.00    3.71081   3.56013   10.895
 5766.00    3.73912   3.59574   10.929
 5767.00    3.73462   3.61378   10.981
 5768.00    3.71456   3.61697   11.048
 5769.00    3.67765   3.60950   11.091
 5770.00    3.65910   3.59583   11.107
 5771.00    3.64676   3.58042   11.097
 5772.00    3.60734   3.56626   11.050
 5773.00    3.54594   3.55594   11.022
 5774.00    3.47647   3.55054   11.044
 5775.00    3.40892   3.54710   11.162
 5776.00    3.36237   3.53953   11.390
 5777.00    3.37003   3.51951   11.582
 5778.00    3.43876   3.48148   11.615
 5779.00    3.47402   3.42766   11.571
 5780.00    3.44318   3.36885   11.528
 5781.00    3.39371   3.31785   11.486
 5782.00    3.36987   3.28404   11.388
 5783.00    3.37084   3.27280   11.240
 5784.00    3.38987   3.28373   11.131
 5785.00    3.42809   3.31154   11.112
 5786.00    3.48600   3.35163   11.154
 5787.00    3.56896   3.39662   11.162
 5788.00    3.64457   3.43657   11.092
 5789.00    3.65934   3.46674   11.008
 5790.00    3.61642   3.49052   10.939
 5791.00    3.58567   3.51494   10.912
 5792.00    3.58664   3.54392   10.954
 5793.00    3.63033   3.57461   11.027
 5794.00    3.70725   3.59835   11.016
 5795.00    3.75343   3.60927   10.900
 5796.00    3.75634   3.61046   10.750
 5797.00    3.74620   3.61236   10.682
 5798.00    3.75261   3.62482   10.739
 5799.00    3.78849   3.64891   10.829
 5800.00    3.83216   3.67556   10.916
 5801.00    3.83690   3.69114   10.979
 5802.00    3.82683   3.68825   10.977
 5803.00    3.80211   3.67020   10.938
 5804.00    3.72691   3.64746   10.902
 5805.00    3.68828   3.63087   10.891
 5806.00    3.70173   3.62619   10.885
 5807.00    3.70317   3.63222   10.853
 5808.00    3.72140   3.64384   10.817
 5809.00    3.75821   3.65499   10.821
 5810.00    3.77384   3.66097   10.891
 5811.00    3.78675   3.65815   10.958
 5812.00    3.79543   3.64498   10.935
 5813.00    3.77826   3.62406   10.861
 5814.00    3.75512   3.60349   10.797
 5815.00    3.72546   3.59257   10.742
 5816.00    3.71656   3.59791   10.701
 5817.00    3.75143   3.61946   10.701
 5818.00    3.79718   3.64953   10.735
 5819.00    3.84612   3.67647   10.735
 5820.00    3.88047   3.69193   10.716
 5821.00    3.88492   3.69609   10.697
 5822.00    3.86079   3.69408   10.684
 5823.00    3.84321   3.69199   10.683
 5824.00    3.85357   3.69355   10.699
 5825.00    3.88506   3.69923   10.692
 5826.00    3.90029   3.70736   10.685
 5827.00    3.89020   3.71588   10.678
 5828.00    3.89512   3.72292   10.686
 5829.00    3.89278   3.72716   10.744
 5830.00    3.88808   3.72693   10.781
 5831.00    3.88919   3.72126   10.759
 5832.00    3.87564   3.71102   10.732
 5833.00    3.86186   3.69940   10.750
 5834.00    3.85169   3.68927   10.780
 5835.00    3.85636   3.68265   10.763
 5836.00    3.87524   3.68161   10.695
 5837.00    3.86183   3.68677   10.630
 5838.00    3.83046   3.69734   10.616
 5839.00    3.82346   3.71272   10.644
 5840.00    3.84592   3.72984   10.684
 5841.00    3.88267   3.74299   10.747
 5842.00    3.89800   3.74621   10.808
 5843.00    3.88802   3.73638   10.860
 5844.00    3.84335   3.71509   10.868
 5845.00    3.77875   3.68797   10.874
 5846.00    3.74230   3.66131   10.924
 5847.00    3.73406   3.63941   10.993
 5848.00    3.73442   3.62215   11.090
 5849.00    3.73500   3.60623   11.162
 5850.00    3.71202   3.58825   11.189
 5851.00    3.66266   3.56685   11.202
 5852.00    3.61812   3.54334   11.286
 5853.00    3.61403   3.51884   11.399
 5854.00    3.63827   3.49353   11.374
 5855.00    3.63685   3.46824   11.242
 5856.00    3.58832   3.44600   11.133
 5857.00    3.53818   3.43429   11.082
 5858.00    3.54907   3.43918   11.040
 5859.00    3.60554   3.46110   11.015
 5860.00    3.64649   3.49197   11.033
 5861.00    3.65699   3.52009   11.071
 5862.00    3.66075   3.53782   11.121
 5863.00    3.65849   3.54451   11.130
 5864.00    3.64852   3.54416   11.049
 5865.00    3.63373   3.54394   10.949
 5866.00    3.61544   3.54884   10.889
 5867.00    3.61164   3.56133   10.875
 5868.00    3.65614   3.58176   10.897
 5869.00    3.70437   3.60459   10.908
 5870.00    3.71817   3.62188   10.895
 5871.00    3.71394   3.62984   10.913
 5872.00    3.68615   3.62987   10.958
 5873.00    3.69467   3.62465   10.983
 5874.00    3.73304   3.61551   11.048
 5875.00    3.74605   3.60193   11.127
 5876.00    3.70980   3.58223   11.147
 5877.00    3.66854   3.55702   11.122
 5878.00    3.61173   3.53061   11.112
 5879.00    3.55112   3.50902   11.149
 5880.00    3.50252   3.49428   11.171
 5881.00    3.42860   3.48469   11.200
 5882.00    3.26398   3.47589   11.310
 5883.00    2.98625   3.45758   -1.000
 5884.00    2.69278   3.41491   -1.000
 5885.00    2.48450   3.33334   -1.000
 5886.00    2.44583   3.20282   -1.000
 5887.00    2.52941   3.03264   -1.000
 5888.00    2.50903   2.85376   -1.000
 5889.00    2.30832   2.71169   -1.000
 5890.00    2.11947   2.63951   -1.000
 5891.00    2.09417   2.63895   -1.000
 5892.00    2.27932   2.67911   -1.000
 5893.00    2.56456   2.71962   12.620
 5894.00    2.73425   2.74611   12.177
 5895.00    2.77600   2.77225   11.805
 5896.00    2.83859   2.82391   11.528
 5897.00    3.02028   2.91817   11.310
 5898.00    3.23984   3.04597   11.213
 5899.00    3.39916   3.17713   11.194
 5900.00    3.49561   3.28929   11.191
 5901.00    3.57657   3.37366   11.204
 5902.00    3.62083   3.42993   11.205
 5903.00    3.61131   3.46336   11.186
 5904.00    3.60708   3.48266   11.161
 5905.00    3.62428   3.49562   11.183
 5906.00    3.65480   3.50764   11.207
 5907.00    3.67405   3.52176   11.219
 5908.00    3.65228   3.53664   11.254
 5909.00    3.62154   3.54707   11.388
 5910.00    3.63381   3.54764   11.499
 5911.00    3.66011   3.53550   11.500
 5912.00    3.62927   3.51233   11.439
 5913.00    3.56306   3.48523   11.390
 5914.00    3.49576   3.46368   11.345
 5915.00    3.47264   3.45692   11.313
 5916.00    3.50139   3.46751   11.275
 5917.00    3.55541   3.49030   11.267
 5918.00    3.62420   3.51602   11.278
 5919.00    3.67695   3.53695   11.246
 5920.00    3.65853   3.54965   11.206
 5921.00    3.63145   3.55641   11.183
 5922.00    3.65807   3.56173   11.172
 5923.00    3.65839   3.56904   11.187
 5924.00    3.66815   3.57826   11.255
 5925.00    3.68321   3.58484   11.345
 5926.00    3.68122   3.58424   11.357
 5927.00    3.67186   3.57568   11.265
 5928.00    3.64440   3.56405   11.196
 5929.00    3.60914   3.55550   11.250
 5930.00    3.62822   3.55347   11.335
 5931.00    3.66693   3.55717   11.365
 5932.00    3.67108   3.56280   11.311
 5933.00    3.66759   3.56779   11.217
 5934.00    3.63640   3.57317   11.163
 5935.00    3.62802   3.58155   11.187
 5936.00    3.66696   3.59359   11.289
 5937.00    3.70642   3.60428   11.366
 5938.00    3.72657   3.60659   11.372
 5939.00    3.71775   3.59925   11.315
 5940.00    3.66673   3.58801   11.247
 5941.00    3.64230   3.58010   11.198
 5942.00    3.65360   3.58125   11.214
 5943.00    3.68173   3.59195   11.303
 5944.00    3.71376   3.60581   11.421
 5945.00    3.73954   3.61395   11.468
 5946.00    3.74171   3.61185   11.424
 5947.00    3.71774   3.60200   11.375
 5948.00    3.68678   3.58911   11.390
 5949.00    3.66085   3.57835   11.392
 5950.00    3.64383   3.57240   11.371
 5951.00    3.62218   3.57015   11.368
 5952.00    3.61194   3.56852   11.407
 5953.00    3.61702   3.56607   11.431
 5954.00    3.65036   3.56349   11.398
 5955.00    3.68890   3.56287   11.282
 5956.00    3.65135   3.56603   11.167
 5957.00    3.62315   3.57561   11.111
 5958.00    3.64939   3.59478   11.094
 5959.00    3.69918   3.62151   11.113
 5960.00    3.74275   3.64855   11.169
 5961.00    3.76482   3.66808   11.212
 5962.00    3.77304   3.67609   11.251
 5963.00    3.76254   3.67402   11.239
 5964.00    3.74028   3.66841   11.162
 5965.00    3.72506   3.66572   11.122
 5966.00    3.73321   3.67021   11.117
 5967.00    3.76072   3.68281   11.097
 5968.00    3.77608   3.70016   11.081
 5969.00    3.78455   3.71610   11.128
 5970.00    3.79938   3.72603   11.214
 5971.00    3.80598   3.72711   11.301
 5972.00    3.78964   3.71722   11.382
 5973.00    3.77171   3.69650   11.439
 5974.00    3.74567   3.66901   11.407
 5975.00    3.70768   3.64086   11.315
 5976.00    3.68211   3.61964   11.260
 5977.00    3.66824   3.61094   11.276
 5978.00    3.70003   3.61437   11.358
 5979.00    3.73058   3.62251   11.458
 5980.00    3.74997   3.62615   11.523
 5981.00    3.76647   3.61908   11.499
 5982.00    3.74588   3.60300   11.390
 5983.00    3.66589   3.58672   11.310
 5984.00    3.63226   3.58020   11.269
 5985.00    3.67295   3.58926   11.218
 5986.00    3.72787   3.61187   11.221
 5987.00    3.76169   3.63943   11.248
 5988.00    3.78581   3.66397   11.207
 5989.00    3.81262   3.68430   11.118
 5990.00    3.83265   3.70236   11.074
 5991.00    3.82669   3.71943   11.134
 5992.00    3.81649   3.73471   11.215
 5993.00    3.83686   3.74448   11.269
 5994.00    3.85540   3.74412   11.296
 5995.00    3.83281   3.73176   11.283
 5996.00    3.77629   3.71182   11.287
 5997.00    3.75315   3.69232   11.346
 5998.00    3.76164   3.67999   11.390
 5999.00    3.77391   3.67587   11.392
 6000.00    3.77418   3.67641   11.365
 6001.00    3.75320   3.67724   11.365
 6002.00    3.72648   3.67537   11.436
 6003.00    3.72634   3.66869   11.548
 6004.00    3.73272   3.65709   11.568
 6005.00    3.70521   3.64221   11.454
 6006.00    3.66388   3.62782   11.329
 6007.00    3.64017   3.62014   11.314
 6008.00    3.65208   3.62348   11.391
 6009.00    3.70111   3.63637   11.458
 6010.00    3.74430   3.65121   11.419
 6011.00    3.77883   3.65916   11.405
 6012.00    3.76921   3.65748   11.449
 6013.00    3.73332   3.65055   11.477
 6014.00    3.72027   3.64410   11.455
 6015.00    3.73205   3.64075   11.478
 6016.00    3.74252   3.63791   11.547
 6017.00    3.75273   3.63334   11.523
 6018.00    3.76559   3.62925   11.447
 6019.00    3.74478   3.62771   11.413
 6020.00    3.73079   3.63015   11.398
 6021.00    3.76140   3.63955   11.338
 6022.00    3.78476   3.65736   11.298
 6023.00    3.80033   3.68126   11.233
 6024.00    3.83888   3.70827   11.180
 6025.00    3.88354   3.73618   11.160
 6026.00    3.89812   3.76319   11.161
 6027.00    3.89282   3.78767   11.184
 6028.00    3.90365   3.80913   11.171
 6029.00    3.92292   3.82786   11.124
 6030.00    3.92915   3.84442   11.092
 6031.00    3.93099   3.86032   11.084
 6032.00    3.93805   3.87674   11.067
 6033.00    3.95089   3.89232   11.073
 6034.00    3.96697   3.90397   11.130
 6035.00    3.98382   3.90827   11.160
 6036.00    3.98459   3.90340   11.192
 6037.00    3.98355   3.89156   11.178
 6038.00    3.97496   3.87784   11.160
 6039.00    3.95356   3.86709   11.109
 6040.00    3.94879   3.86333   11.024
 6041.00    3.95396   3.86836   11.015
 6042.00    3.96640   3.88103   11.021
 6043.00    3.98659   3.89823   11.005
 6044.00    4.02296   3.91634   11.012
 6045.00    4.03632   3.93186   11.047
 6046.00    4.04079   3.94234   11.075
 6047.00    4.04800   3.94808   11.086
 6048.00    4.06183   3.94906   11.106
 6049.00    4.06379   3.94488   11.148
 6050.00    4.03927   3.93472   11.184
 6051.00    4.02413   3.91819   11.242
 6052.00    4.00836   3.89581   11.281
 6053.00    3.99030   3.87074   11.269
 6054.00    3.96666   3.84863   11.213
 6055.00    3.95527   3.83437   11.155
 6056.00    3.94157   3.83026   11.158
 6057.00    3.93957   3.83545   11.184
 6058.00    3.94827   3.84528   11.325
 6059.00    4.00958   3.85190   11.543
 6060.00    4.05293   3.84858   11.243
 6061.00    3.99486   3.83305   -1.000
 6062.00    3.95144   3.80985    4.223
 6063.00    3.27276   3.78953   -1.000
 6064.00    2.31361   3.78316   -1.000
 6065.00    3.20355   3.79724   -1.000
 6066.00    3.87028   3.83040   10.930
 6067.00    3.97781   3.87479   10.757
 6068.00    3.97539   3.91864   10.941
 6069.00    3.90197   3.95303   11.048
 6070.00    4.04395   3.97509   11.063
 6071.00    4.13539   3.98636   11.096
 6072.00    4.13139   3.98797   11.152
 6073.00    4.10651   3.98008   11.216
 6074.00    4.09931   3.96306   11.300
 6075.00    4.08806   3.93834   11.372
 6076.00    4.02657   3.90866   11.387
 6077.00    3.96303   3.87742   11.395
 6078.00    3.96909   3.84823   11.425
 6079.00    3.95280   3.82431   11.429
 6080.00    3.94448   3.80782   11.421
 6081.00    3.94184   3.79868   11.410
 6082.00    3.93694   3.79670   11.379
 6083.00    3.92517   3.80178   11.334
 6084.00    3.93322   3.81188   11.347
 6085.00    3.95292   3.82216   11.412
 6086.00    3.95341   3.82809   11.464
 6087.00    3.96650   3.82729   11.465
 6088.00    3.99752   3.81984   11.398
 6089.00    3.98022   3.80930   11.338
 6090.00    3.93826   3.80191   11.275
 6091.00    3.91671   3.80369   11.224
 6092.00    3.94804   3.81671   11.222
 6093.00    3.98841   3.83736   11.248
 6094.00    4.00152   3.86007   11.258
 6095.00    4.01223   3.87969   11.260
 6096.00    3.98279   3.89149   11.378
 6097.00    4.00128   3.89133   11.643
 6098.00    4.03738   3.87569   11.845
 6099.00    3.99803   3.84398   11.791
 6100.00    3.94741   3.80127   11.577
 6101.00    3.86820   3.75955   11.395
 6102.00    3.77243   3.73395   11.341
 6103.00    3.77658   3.73480   11.377
 6104.00    3.85342   3.76224   11.408
 6105.00    3.92703   3.80370   11.406
 6106.00    3.96945   3.84422   11.383
 6107.00    3.97642   3.87517   11.336
 6108.00    3.99067   3.89625   11.328
 6109.00    4.03244   3.91094   11.275
 6110.00    4.01179   3.92214   11.243
 6111.00    3.95437   3.93153   11.279
 6112.00    3.96178   3.94005   11.352
 6113.00    3.96646   3.94658   11.375
 6114.00    3.94863   3.94722   11.424
 6115.00    3.97778   3.93769   11.579
 6116.00    4.01466   3.91546   11.733
 6117.00    3.98701   3.88054   11.849
 6118.00    3.94735   3.83522   11.870
 6119.00    3.92205   3.78545   11.697
 6120.00    3.86685   3.74261   11.539
 6121.00    3.79943   3.71888   11.521
 6122.00    3.79716   3.72073   11.583
 6123.00    3.86350   3.74526   11.578
 6124.00    3.92429   3.78034   11.552
 6125.00    3.96111   3.81272   11.465
 6126.00    3.89548   3.83724   11.357
 6127.00    3.84844   3.85815   11.324
 6128.00    3.86260   3.88053   11.343
 6129.00    3.86069   3.90405   11.442
 6130.00    3.90110   3.92086   11.688
 6131.00    3.94559   3.91783   12.029
 6132.00    3.93373   3.88476   12.339
 6133.00    3.87994   3.82261   12.402
 6134.00    3.76589   3.74592   12.121
 6135.00    3.63876   3.67795   11.776
 6136.00    3.54332   3.64099   11.626
 6137.00    3.54541   3.64577   11.635
 6138.00    3.58743   3.68744   11.656
 6139.00    3.71360   3.74750   11.551
 6140.00    3.81319   3.80653   11.412
 6141.00    3.80883   3.85444   11.383
 6142.00    3.82267   3.89145   11.431
 6143.00    3.88578   3.92023   11.503
 6144.00    3.91086   3.93772   11.586
 6145.00    3.92067   3.93975   11.655
 6146.00    3.89924   3.92663   11.662
 6147.00    3.88053   3.90431   11.622
 6148.00    3.83753   3.88120   11.543
 6149.00    3.82978   3.86401   11.523
 6150.00    3.83082   3.85534   11.612
 6151.00    3.81779   3.85232   11.677
 6152.00    3.78455   3.84978   11.689
 6153.00    3.74395   3.84200   11.734
 6154.00    3.76739   3.82603   11.853
 6155.00    3.74518   3.80072   12.073
 6156.00    3.66703   3.76334   12.430
 6157.00    3.65271   3.70883   12.795
 6158.00    3.59385   3.63399   12.938
 6159.00    3.46509   3.54548   12.768
 6160.00    3.34815   3.45908   12.423
 6161.00    3.25917   3.39587   12.220
 6162.00    3.21032   3.37199   12.159
 6163.00    3.28004   3.38995   12.186
 6164.00    3.37525   3.43500   12.337
 6165.00    3.44372   3.48295   12.466
 6166.00    3.48736   3.51647   12.389
 6167.00    3.46131   3.53154   12.156
 6168.00    3.41262   3.53691   11.980
 6169.00    3.38136   3.54468   11.980
 6170.00    3.39493   3.56503   11.992
 6171.00    3.45562   3.59845   11.964
 6172.00    3.53214   3.63641   11.941
 6173.00    3.55304   3.66879   11.909
 6174.00    3.59034   3.69190   11.851
 6175.00    3.56513   3.70916   11.807
 6176.00    3.53402   3.72444   11.770
 6177.00    3.55768   3.74074   11.716
 6178.00    3.58209   3.75902   11.684
 6179.00    3.60773   3.77721   11.705
 6180.00    3.64909   3.79172   11.746
 6181.00    3.66220   3.79912   11.837
 6182.00    3.66039   3.79659   11.966
 6183.00    3.65044   3.78168   12.090
 6184.00    3.60158   3.75473   12.206
 6185.00    3.53684   3.71888   12.295
 6186.00    3.57674   3.67757   12.454
 6187.00    3.61129   3.63477   12.538
 6188.00    3.48696   3.59600   12.408
 6189.00    3.37648   3.56747   12.104
 6190.00    3.34785   3.55550   11.901
 6191.00    3.35332   3.56471   11.823
 6192.00    3.43007   3.59587   11.804
 6193.00    3.54059   3.64111   11.878
 6194.00    3.60383   3.68575   12.015
 6195.00    3.64299   3.71693   12.115
 6196.00    3.62261   3.73043   12.107
 6197.00    3.56108   3.73087   11.988
 6198.00    3.49547   3.72665   11.837
 6199.00    3.45879   3.72764   -1.000
 6200.00    3.45608   3.73984   -1.000
 6201.00    3.50126   3.76331   -1.000
 6202.00    3.57422   3.79109   11.780
 6203.00    3.62770   3.81594   11.825
 6204.00    3.64016   3.83426   11.825
 6205.00    3.63158   3.84483   11.876
 6206.00    3.63060   3.84777   11.984
 6207.00    3.62667   3.84176   12.078
 6208.00    3.59195   3.82457   12.196
 6209.00    3.56569   3.79407   12.381
 6210.00    3.54319   3.75041   12.508
 6211.00    3.50224   3.69769   12.543
 6212.00    3.46908   3.64324   12.383
 6213.00    3.42084   3.59578   12.320
 6214.00    3.39203   3.56287   12.411
 6215.00    3.44850   3.54711   12.368
 6216.00    3.52293   3.54541   12.277
 6217.00    3.54430   3.55113   12.350
 6218.00    3.53789   3.55848   13.255
 6219.00    3.47709   3.56546   12.855
 6220.00    3.40453   3.57340   12.253
 6221.00    3.42511   3.58463   12.210
 6222.00    3.50406   3.59802   12.219
 6223.00    3.57538   3.61009   12.287
 6224.00    3.59885   3.61693   12.453
 6225.00    3.61283   3.61471   12.660
 6226.00    3.58695   3.59994   12.823
 6227.00    3.52893   3.57234   12.773
 6228.00    3.49806   3.53712   12.591
 6229.00    3.43658   3.50565   12.352
 6230.00    3.34865   3.49126   12.151
 6231.00    3.31824   3.50327   12.092
 6232.00    3.35334   3.54033   12.171
 6233.00    3.39132   3.58975   12.295
 6234.00    3.47523   3.63410   12.420
 6235.00    3.57842   3.65935   12.552
 6236.00    3.61421   3.66013   12.606
 6237.00    3.53959   3.63997   12.602
 6238.00    3.50440   3.60855   12.693
 6239.00    3.43990   3.57502   12.777
 6240.00    3.37625   3.54616   12.770
 6241.00    3.38103   3.52527   12.689
 6242.00    3.38916   3.51426   12.564
 6243.00    3.35545   3.51508   12.404
 6244.00    3.34104   3.52954   12.274
 6245.00    3.36802   3.55697   12.260
 6246.00    3.40411   3.59142   12.373
 6247.00    3.47074   3.62299   12.601
 6248.00    3.52684   3.64155   12.758
 6249.00    3.52022   3.64050   12.846
 6250.00    3.48830   3.62022   12.882
 6251.00    3.42402   3.58756   12.877
 6252.00    3.35636   3.55115   12.994
 6253.00    3.33737   3.51806   13.110
 6254.00    3.34349   3.49234   13.056
 6255.00    3.32799   3.47484   12.860
 6256.00    3.29679   3.46759   12.666
 6257.00    3.28329   3.47481   12.494
 6258.00    3.30318   3.50076   12.300
 6259.00    3.33373   3.54482   12.238
 6260.00    3.41930   3.59855   12.334
 6261.00    3.51214   3.65044   12.417
 6262.00    3.55103   3.69077   12.362
 6263.00    3.57209   3.71578   12.272
 6264.00    3.54814   3.72680   12.314
 6265.00    3.50013   3.72952   12.377
 6266.00    3.50573   3.73010   12.361
 6267.00    3.52654   3.73251   12.319
 6268.00    3.51822   3.73744   12.289
 6269.00    3.51107   3.74376   12.322
 6270.00    3.50269   3.75060   12.411
 6271.00    3.49375   3.75555   -1.000
 6272.00    3.43421   3.75476   -1.000
 6273.00    3.36388   3.74484   -1.000
 6274.00    3.32052   3.72539   -1.000
 6275.00    3.27387   3.69896   -1.000
 6276.00    3.24367   3.67037   -1.000
 6277.00    3.21363   3.64512   -1.000
 6278.00    3.16877   3.62839   -1.000
 6279.00    3.13156   3.62463   -1.000
 6280.00    3.14642   3.63616   -1.000
 6281.00    3.21818   3.66264   -1.000
 6282.00    3.35447   3.70037   -1.000
 6283.00    3.48793   3.74334   -1.000
 6284.00    3.54837   3.78493   12.191
 6285.00    3.56495   3.82017   12.256
 6286.00    3.61952   3.84585   12.361
 6287.00    3.66206   3.85988   12.453
 6288.00    3.72558   3.86092   12.477
 6289.00    3.72453   3.84965   12.491
 6290.00    3.68335   3.82951   12.513
 6291.00    3.67058   3.80568   12.611
 6292.00    3.66223   3.78195   12.694
 6293.00    3.63579   3.75995   12.713
 6294.00    3.64471   3.73926   12.693
 6295.00    3.63086   3.72021   12.640
 6296.00    3.58245   3.70397   12.583
 6297.00    3.55042   3.69259   12.692
 6298.00    3.54990   3.68763   12.837
 6299.00    3.57732   3.68791   12.728
 6300.00    3.58467   3.69148   12.525
 6301.00    3.57882   3.69937   12.372
 6302.00    3.58580   3.71459   12.267
 6303.00    3.62149   3.73973   12.155
 6304.00    3.65595   3.77284   12.136
 6305.00    3.67602   3.80891   12.190
 6306.00    3.71454   3.84175   12.274
 6307.00    3.77727   3.86599   12.321
 6308.00    3.82610   3.87748   12.372
 6309.00    3.83443   3.87505   12.382
 6310.00    3.81102   3.86064   12.499
 6311.00    3.73783   3.83934   12.543
 6312.00    3.69264   3.81550   12.534
 6313.00    3.68574   3.79124   12.521
 6314.00    3.67559   3.76804   12.540
 6315.00    3.66086   3.74830   12.493
 6316.00    3.66538   3.73662   12.339
 6317.00    3.66782   3.73694   12.219
 6318.00    3.67462   3.75074   12.173
 6319.00    3.69455   3.77703   12.132
 6320.00    3.74702   3.81229   12.066
 6321.00    3.81133   3.84977   12.029
 6322.00    3.84999   3.88360   12.023
 6323.00    3.89337   3.91187   11.961
 6324.00    3.91837   3.93402   11.974
 6325.00    3.90272   3.95010   11.982
 6326.00    3.92662   3.96081   11.991
 6327.00    3.94401   3.96832   11.946
 6328.00    3.89494   3.97467   11.927
 6329.00    3.93380   3.97949   11.960
 6330.00    3.95301   3.98036   11.990
 6331.00    3.94850   3.97360   12.277
 6332.00    3.98069   3.95723   12.300
 6333.00    3.93630   3.93179   12.194
 6334.00    3.86570   3.90242   12.069
 6335.00    3.82759   3.87926   11.935
 6336.00    3.81965   3.87107   11.879
 6337.00    3.83539   3.88038   11.820
 6338.00    3.88322   3.90054   11.831
 6339.00    3.93694   3.92028   11.941
 6340.00    3.98522   3.93144   11.956
 6341.00    3.96559   3.93189   11.922
 6342.00    3.92656   3.92579   11.856
 6343.00    3.91261   3.92190   11.772
 6344.00    3.90121   3.92843   11.729
 6345.00    3.88896   3.94819   11.733
 6346.00    3.92684   3.97805   11.706
 6347.00    3.97396   4.00929   11.718
 6348.00    3.98408   4.03423   11.770
 6349.00    3.99940   4.04772   11.824
 6350.00    3.97889   4.04761   11.963
 6351.00    3.98135   4.03440   12.065
 6352.00    3.96826   4.01055   12.068
 6353.00    3.92005   3.97954   12.104
 6354.00    3.88324   3.94476   12.246
 6355.00    3.84784   3.90858   12.296
 6356.00    3.85120   3.87222   12.243
 6357.00    3.81782   3.83562   12.204
 6358.00    3.74648   3.80042   12.194
 6359.00    3.74492   3.77155   12.151
 6360.00    3.74763   3.75488   12.069
 6361.00    3.75572   3.75442   11.992
 6362.00    3.77051   3.77124   11.928
 6363.00    3.79479   3.80413   11.851
 6364.00    3.84849   3.84896   11.772
 6365.00    3.90426   3.89931   11.744
 6366.00    3.98158   3.94848   11.753
 6367.00    4.03085   3.99180   11.712
 6368.00    4.07048   4.02718   11.665
 6369.00    4.09691   4.05490   11.699
 6370.00    4.09091   4.07624   11.707
 6371.00    4.09457   4.09353   11.733
 6372.00    4.10539   4.10685   11.777
 6373.00    4.10541   4.11463   11.838
 6374.00    4.10654   4.11474   11.920
 6375.00    4.10730   4.10668   11.964
 6376.00    4.09366   4.09243   11.970
 6377.00    4.06572   4.07518   11.994
 6378.00    4.04299   4.05877   11.990
 6379.00    4.00419   4.04728   11.957
 6380.00    3.98986   4.04350   12.017
 6381.00    4.00390   4.04672   12.042
 6382.00    4.01826   4.05480   12.031
 6383.00    4.03118   4.06513   12.070
 6384.00    4.01118   4.07606   12.108
 6385.00    4.00661   4.08621   12.212
 6386.00    4.01277   4.09390   12.307
 6387.00    4.00789   4.09592   12.451
 6388.00    4.01236   4.08834   12.643
 6389.00    3.98966   4.06994   12.747
 6390.00    3.95546   4.04349   12.702
 6391.00    3.91474   4.01580   12.505
 6392.00    3.83706   3.99568   12.491
 6393.00    3.77353   3.99018   12.573
 6394.00    3.77142   3.99886   12.769
 6395.00    3.82182   4.01371   13.068
 6396.00    3.87799   4.02284   13.156
 6397.00    3.89567   4.02000   13.010
 6398.00    3.84804   4.01023   12.798
 6399.00    3.76551   4.00547   12.741
 6400.00    3.71430   4.01656   -1.000
 6401.00    3.73997   4.04461   -1.000
 6402.00    3.80133   4.08042   -1.000
 6403.00    3.85011   4.10844   13.248
 6404.00    3.83510   4.11896   -1.000
 6405.00    3.77960   4.11255   -1.000
 6406.00    3.72443   4.09582   -1.000
 6407.00    3.64890   4.07728   -1.000
 6408.00    3.61474   4.06270   -1.000
 6409.00    3.61128   4.05401   -1.000
 6410.00    3.58477   4.05014   -1.000
 6411.00    3.54888   4.05028   -1.000
 6412.00    3.51633   4.05491   -1.000
 6413.00    3.47905   4.06422   -1.000
 6414.00    3.46000   4.07496   -1.000
 6415.00    3.45268   4.08043   -1.000
 6416.00    3.44643   4.07621   -1.000
 6417.00    3.40033   4.06229   -1.000
 6418.00    3.36733   4.04410   -1.000
 6419.00    3.32158   4.03127   -1.000
 6420.00    3.23981   4.03252   -1.000
 6421.00    3.22379   4.05153   -1.000
 6422.00    3.27234   4.08462   -1.000
 6423.00    3.31029   4.12226   -1.000
 6424.00    3.29020   4.15265   -1.000
 6425.00    3.25878   4.16844   -1.000
 6426.00    3.24540   4.16635   -1.000
 6427.00    0.11408   4.14817   -1.000
 6428.00    0.00000   4.11997   -2.000
