###################################################################
## OUTPUT of StarlightChains_v04.for    [Cid@UFSC - 01/Apr/2007] ##
###################################################################

## Some input info
NGC6624_a_1.cxt                          [arq_obs]
Base.BC03.S                              [arq_base]
NGC6624_a_1.msk                          [arq_masks]
StCv04.C99.config                        [arq_config]
  150                                    [N_base]
    0                                    [N_YAV_components = # of components with extra extinction!]
    0                                    [i_FitPowerLaw (1/0 = Yes/No)]
-9.99                                    [alpha_PowerLaw]
CCM                                      [red_law_option]
 1.458241                                [q_norm = A(l_norm)/A(V)]

## (Re)Sampling Parameters
 3359.00                                 [l_ini (A)]
 6428.00                                 [l_fin (A)]
    1.00                                 [dl    (A)]     (OBS: dl_cushion =    50.00 A)

## Normalization info
 4020.00                                 [l_norm (A) - for base]
 4010.00                                 [llow_norm (A) - window for f_obs]
 4060.00                                 [lupp_norm (A) - window for f_obs]
1.685692E-14                             [fobs_norm (in input units)]

## S/N
 4730.00                                 [llow_SN (A) - window for S/N]
 4780.00                                 [lupp_SN (A) - window for S/N]
  42.348                                 [S/N in S/N window]
  28.608                                 [S/N in norm. window]
  94.289                                 [S/N_err in S/N window]
  63.698                                 [S/N_err in norm. window]
  1.0000                                 [fscale_chi2]

## etc...
  2147483597                             [idum_orig]
  3066                                   [NOl_eff]
  1157                                   [Nl_eff]
  1909    NSIGMA                         [Ntot_cliped & clip_method]
  2590560                                [Nglobal_steps]
   7                                     [N_chains]
  15                                     [NEX0s_base = N_base in EX0s-fits]
 0   0   1      375   2.0   1.181E+03    [Clip-Bug, RC-Crash & Burn-In warning-flags, n_censored_weights, wei_nsig_threshold & wei_limit]
   115    114.657    114.648      0.008  [idt_all, wdt_TotTime, wdt_UsrTime & wdt_SysTime (sec)]

## Synthesis Results - Best model ##

 2.78874E+00                             [chi2/Nl_eff]
     1.41129                             [adev (%)]

   101.54313                             [sum-of-x (%)]
 3.29715E-14                             [Flux_tot (units of input spectrum!)]
 1.51546E-09                             [Mini_tot (???)]
 7.70516E-10                             [Mcor_tot (???)]

  -2.89                                  [v0_min  (km/s)]
  77.62                                  [vd_min  (km/s)]
 0.4881                                  [AV_min  (mag)]
 0.0000                                  [YAV_min (mag)]

# j     x_j(%)      Mini_j(%)     Mcor_j(%)     age_j(yr)     Z_j      (L/M)_j    YAV?  Mstars   component_j        a/Fe...       SSP_chi2r SSP_adev(%)   SSP_AV   SSP_x(%)
  1      0.0000     0.0000E+00    0.0000E+00    1.000000E+06  0.00010  8.160E-03    0   1.0000   age020_m22            0.0000     1.5816E+03    33.3473   4.0000    69.0753
  2      3.6043     1.6228E-03    3.1916E-03    3.160000E+06  0.00010  4.759E-02    0   1.0000   age045_m22            0.0000     4.4255E+02    10.8188   2.9941    85.6263
  3      0.0000     0.0000E+00    0.0000E+00    5.010000E+06  0.00010  1.932E-02    0   0.9582   age055_m22            0.0000     4.9050E+02    16.7068   3.3038    73.2561
  4      0.0000     0.0000E+00    0.0000E+00    6.610000E+06  0.00010  9.973E-03    0   0.9297   age061_m22            0.0000     1.5004E+03    32.5231   4.0000    71.4225
  5      0.0000     0.0000E+00    0.0000E+00    8.710000E+06  0.00010  7.690E-03    0   0.9030   age067_m22            0.0000     1.4738E+03    32.1879   4.0000    71.8822
  6      0.0000     0.0000E+00    0.0000E+00    1.000000E+07  0.00010  6.375E-03    0   0.8902   age070_m22            0.0000     1.4789E+03    32.1984   4.0000    72.1446
  7      0.0000     0.0000E+00    0.0000E+00    1.445000E+07  0.00010  4.874E-03    0   0.8589   age078_m22            0.0000     1.1742E+03    28.1344   4.0000    74.8877
  8      0.0000     0.0000E+00    0.0000E+00    2.512000E+07  0.00010  4.103E-03    0   0.8174   age090_m22            0.0000     7.9649E+02    19.2335   4.0000    79.7653
  9      0.0000     0.0000E+00    0.0000E+00    4.000000E+07  0.00010  3.654E-03    0   0.7830   age104_m22            0.0000     8.5922E+02    13.8861   4.0000    82.0756
 10      0.0000     0.0000E+00    0.0000E+00    5.500000E+07  0.00010  3.093E-03    0   0.7597   age110_m22            0.0000     9.2104E+02    12.4964   4.0000    82.9967
 11      0.0000     0.0000E+00    0.0000E+00    1.015200E+08  0.00010  2.431E-03    0   0.7138   age116_m22            0.0000     1.0968E+03    12.0914   3.6949    85.0974
 12      0.0000     0.0000E+00    0.0000E+00    1.609000E+08  0.00010  1.319E-03    0   0.6775   age120_m22            0.0000     1.0856E+03    11.2756   3.1888    88.2300
 13      0.0000     0.0000E+00    0.0000E+00    2.861200E+08  0.00010  1.075E-03    0   0.6412   age125_m22            0.0000     1.7206E+03    10.9409   3.2461    92.0621
 14      0.0000     0.0000E+00    0.0000E+00    5.088000E+08  0.00010  7.183E-04    0   0.6083   age130_m22            0.0000     1.8770E+03    10.6428   2.9800    95.1083
 15      0.0000     0.0000E+00    0.0000E+00    9.047900E+08  0.00010  4.524E-04    0   0.5785   age135_m22            0.0000     1.8405E+03    10.3988   2.7575    97.1203
 16      0.0000     0.0000E+00    0.0000E+00    1.278050E+09  0.00010  3.018E-04    0   0.5588   age138_m22            0.0000     1.1527E+03     9.1118   2.2025    96.5026
 17      0.0000     0.0000E+00    0.0000E+00    1.434000E+09  0.00010  2.691E-04    0   0.5532   age139_m22            0.0000     1.0166E+03     8.7969   2.0377    96.3828
 18      0.0000     0.0000E+00    0.0000E+00    2.500000E+09  0.00010  1.582E-04    0   0.5296   age150_m22            0.0000     9.5763E+02     9.0540   1.9349    96.4185
 19      0.0000     0.0000E+00    0.0000E+00    4.250000E+09  0.00010  1.007E-04    0   0.5110   age158_m22            0.0000     6.9172E+02     8.4240   1.7731    95.3335
 20      0.0000     0.0000E+00    0.0000E+00    6.250000E+09  0.00010  6.869E-05    0   0.4985   age166_m22            0.0000     4.8314E+02     8.0970   1.7088    93.1302
 21      0.0000     0.0000E+00    0.0000E+00    7.500000E+09  0.00010  5.873E-05    0   0.4931   age171_m22            0.0000     4.6687E+02     8.3706   1.7023    92.3336
 22      0.0000     0.0000E+00    0.0000E+00    1.000000E+10  0.00010  4.481E-05    0   0.4854   age181_m22            0.0000     4.5496E+02     8.2942   1.6613    92.1278
 23      0.0000     0.0000E+00    0.0000E+00    1.300000E+10  0.00010  3.489E-05    0   0.4791   age193_m22            0.0000     4.2703E+02     8.0957   1.6009    91.8713
 24      0.0000     0.0000E+00    0.0000E+00    1.500000E+10  0.00010  3.035E-05    0   0.4766   age201_m22            0.0000     4.1288E+02     8.0394   1.5608    91.7525
 25      0.0000     0.0000E+00    0.0000E+00    1.800000E+10  0.00010  2.510E-05    0   0.4735   age213_m22            0.0000     3.7840E+02     7.9369   1.4900    91.3197
 26      0.0000     0.0000E+00    0.0000E+00    1.000000E+06  0.00040  8.458E-03    0   1.0000   age020_m32            0.0000     1.5913E+03    33.4627   4.0000    69.6870
 27      0.0000     0.0000E+00    0.0000E+00    3.160000E+06  0.00040  3.973E-02    0   1.0000   age045_m32            0.0000     6.7123E+02    17.2231   4.0000    79.4273
 28      0.0000     0.0000E+00    0.0000E+00    5.010000E+06  0.00040  1.935E-02    0   0.9532   age055_m32            0.0000     8.5795E+02    23.2894   4.0000    74.5930
 29      0.0000     0.0000E+00    0.0000E+00    6.610000E+06  0.00040  1.204E-02    0   0.9243   age061_m32            0.0000     1.2589E+03    29.5259   4.0000    73.2438
 30      0.0000     0.0000E+00    0.0000E+00    8.710000E+06  0.00040  9.433E-03    0   0.9001   age067_m32            0.0000     1.2051E+03    28.7403   4.0000    74.0793
 31      0.0000     0.0000E+00    0.0000E+00    1.000000E+07  0.00040  8.053E-03    0   0.8877   age070_m32            0.0000     1.1529E+03    27.9488   4.0000    74.5136
 32      0.0000     0.0000E+00    0.0000E+00    1.445000E+07  0.00040  7.027E-03    0   0.8578   age078_m32            0.0000     6.6527E+02    17.3093   4.0000    77.7845
 33      0.0000     0.0000E+00    0.0000E+00    2.512000E+07  0.00040  4.707E-03    0   0.8166   age090_m32            0.0000     6.6434E+02    14.0106   3.9749    79.7688
 34      0.0000     0.0000E+00    0.0000E+00    4.000000E+07  0.00040  3.714E-03    0   0.7827   age104_m32            0.0000     8.0775E+02    13.0062   3.7835    82.4376
 35      0.0000     0.0000E+00    0.0000E+00    5.500000E+07  0.00040  2.982E-03    0   0.7593   age110_m32            0.0000     8.8932E+02    12.6222   3.7236    83.5015
 36      0.0000     0.0000E+00    0.0000E+00    1.015200E+08  0.00040  2.188E-03    0   0.7143   age116_m32            0.0000     1.2772E+03    11.5325   3.4582    87.6771
 37      0.0000     0.0000E+00    0.0000E+00    1.609000E+08  0.00040  1.690E-03    0   0.6856   age120_m32            0.0000     1.5453E+03    11.2104   3.2461    90.3680
 38      0.0000     0.0000E+00    0.0000E+00    2.861200E+08  0.00040  1.152E-03    0   0.6509   age125_m32            0.0000     1.7333E+03    10.5302   2.9763    94.0163
 39      0.0000     0.0000E+00    0.0000E+00    5.088000E+08  0.00040  7.331E-04    0   0.6182   age130_m32            0.0000     1.7650E+03    10.2196   2.7849    95.9179
 40      0.0000     0.0000E+00    0.0000E+00    9.047900E+08  0.00040  3.960E-04    0   0.5890   age135_m32            0.0000     1.1566E+03     8.8722   2.2779    96.6412
 41      0.0000     0.0000E+00    0.0000E+00    1.278050E+09  0.00040  2.854E-04    0   0.5687   age138_m32            0.0000     1.0193E+03     8.8976   1.9970    97.5885
 42      0.0000     0.0000E+00    0.0000E+00    1.434000E+09  0.00040  2.531E-04    0   0.5632   age139_m32            0.0000     1.0017E+03     8.8867   1.9349    97.5514
 43      0.0000     0.0000E+00    0.0000E+00    2.500000E+09  0.00040  1.488E-04    0   0.5386   age150_m32            0.0000     7.7937E+02     8.1130   1.6636    96.7203
 44      5.3041     1.2513E+00    1.2795E+00    4.250000E+09  0.00040  9.082E-05    0   0.5199   age158_m32            0.0000     4.3989E+02     7.3644   1.5521    94.2964
 45      3.6524     1.2301E+00    1.2280E+00    6.250000E+09  0.00040  6.362E-05    0   0.5076   age166_m32            0.0000     2.7601E+02     7.6353   1.5128    91.0857
 46      3.4369     1.3923E+00    1.3766E+00    7.500000E+09  0.00040  5.289E-05    0   0.5027   age171_m32            0.0000     2.4292E+02     7.5123   1.4708    90.2342
 47      4.2768     2.3070E+00    2.2452E+00    1.000000E+10  0.00040  3.972E-05    0   0.4948   age181_m32            0.0000     2.1624E+02     7.2534   1.3985    89.4669
 48      0.0000     0.0000E+00    0.0000E+00    1.300000E+10  0.00040  3.283E-05    0   0.4870   age193_m32            0.0000     2.8551E+02     7.0131   1.3570    91.8889
 49      0.0000     0.0000E+00    0.0000E+00    1.500000E+10  0.00040  2.925E-05    0   0.4854   age201_m32            0.0000     3.4050E+02     6.9671   1.3415    93.2513
 50      0.0000     0.0000E+00    0.0000E+00    1.800000E+10  0.00040  2.469E-05    0   0.4819   age213_m32            0.0000     3.6156E+02     6.9131   1.3008    93.7660
 51      0.0000     0.0000E+00    0.0000E+00    1.000000E+06  0.00400  1.114E-02    0   1.0000   age020_m42            0.0000     1.4675E+03    31.9514   4.0000    70.3039
 52      0.0000     0.0000E+00    0.0000E+00    3.160000E+06  0.00400  4.073E-02    0   0.9999   age045_m42            0.0000     5.1453E+02    12.1987   3.9904    81.1678
 53      0.0000     0.0000E+00    0.0000E+00    5.010000E+06  0.00400  2.534E-02    0   0.9488   age055_m42            0.0000     6.9049E+02    19.6362   4.0000    76.8642
 54      0.0000     0.0000E+00    0.0000E+00    6.610000E+06  0.00400  2.583E-02    0   0.9220   age061_m42            0.0000     6.2150E+02    12.4538   3.8255    81.1548
 55      0.0000     0.0000E+00    0.0000E+00    8.710000E+06  0.00400  1.706E-02    0   0.8983   age067_m42            0.0000     5.6041E+02    14.2744   3.6547    79.0868
 56      0.0000     0.0000E+00    0.0000E+00    1.000000E+07  0.00400  1.271E-02    0   0.8862   age070_m42            0.0000     5.6454E+02    15.7853   3.6460    77.4078
 57      0.0000     0.0000E+00    0.0000E+00    1.445000E+07  0.00400  7.666E-03    0   0.8571   age078_m42            0.0000     5.5144E+02    16.1445   4.0000    75.3875
 58      0.0000     0.0000E+00    0.0000E+00    2.512000E+07  0.00400  5.070E-03    0   0.8174   age090_m42            0.0000     5.6420E+02    15.2693   3.5062    79.2600
 59      0.0000     0.0000E+00    0.0000E+00    4.000000E+07  0.00400  3.505E-03    0   0.7851   age104_m42            0.0000     5.5300E+02    13.5916   3.1734    82.7988
 60      0.0000     0.0000E+00    0.0000E+00    5.500000E+07  0.00400  3.059E-03    0   0.7629   age110_m42            0.0000     8.2784E+02    11.5565   3.2366    86.8342
 61      0.0000     0.0000E+00    0.0000E+00    1.015200E+08  0.00400  2.268E-03    0   0.7207   age116_m42            0.0000     1.4038E+03    10.5688   3.1515    91.5563
 62      0.0000     0.0000E+00    0.0000E+00    1.609000E+08  0.00400  1.720E-03    0   0.6930   age120_m42            0.0000     1.4079E+03     9.7178   2.9837    94.2415
 63      0.0000     0.0000E+00    0.0000E+00    2.861200E+08  0.00400  1.079E-03    0   0.6613   age125_m42            0.0000     1.3966E+03     9.3584   2.5972    95.9522
 64      0.0000     0.0000E+00    0.0000E+00    5.088000E+08  0.00400  6.261E-04    0   0.6313   age130_m42            0.0000     1.4640E+03     9.3781   2.3925    99.0038
 65      0.0000     0.0000E+00    0.0000E+00    9.047900E+08  0.00400  3.535E-04    0   0.6024   age135_m42            0.0000     9.5206E+02     7.9601   1.9513   101.1475
 66      0.0000     0.0000E+00    0.0000E+00    1.278050E+09  0.00400  2.677E-04    0   0.5837   age138_m42            0.0000     3.2368E+02     4.7348   1.1893   103.3646
 67      0.0000     0.0000E+00    0.0000E+00    1.434000E+09  0.00400  1.910E-04    0   0.5716   age139_m42            0.0000     4.6179E+02     5.3285   1.3739   103.1531
 68      0.0000     0.0000E+00    0.0000E+00    2.500000E+09  0.00400  9.818E-05    0   0.5463   age150_m42            0.0000     1.1634E+02     3.0392   1.0684   100.7664
 69      0.0015     5.9111E-04    6.1257E-04    4.250000E+09  0.00400  5.491E-05    0   0.5269   age158_m42            0.0000     4.4857E+01     2.7047   0.9418    98.4177
 70      0.0000     0.0000E+00    0.0000E+00    6.250000E+09  0.00400  3.857E-05    0   0.5151   age166_m42            0.0000     1.9413E+01     2.1711   0.8037    97.9700
 71      0.0000     0.0000E+00    0.0000E+00    7.500000E+09  0.00400  3.243E-05    0   0.5110   age171_m42            0.0000     1.2023E+01     2.0399   0.7162    98.0323
 72      0.0000     0.0000E+00    0.0000E+00    1.000000E+10  0.00400  2.424E-05    0   0.5028   age181_m42            0.0000     1.0789E+01     2.1250   0.6241    98.2072
 73      0.0000     0.0000E+00    0.0000E+00    1.300000E+10  0.00400  1.883E-05    0   0.4927   age193_m42            0.0000     1.9861E+01     2.3594   0.5769    98.3996
 74      0.0013     1.6344E-03    1.5813E-03    1.500000E+10  0.00400  1.685E-05    0   0.4919   age201_m42            0.0000     1.7538E+01     2.3404   0.5857    98.2037
 75      0.0000     0.0000E+00    0.0000E+00    1.800000E+10  0.00400  1.452E-05    0   0.4874   age213_m42            0.0000     1.4695E+01     2.3391   0.6080    98.0837
 76      0.0000     0.0000E+00    0.0000E+00    1.000000E+06  0.00800  1.286E-02    0   1.0000   age020_m52            0.0000     1.4059E+03    31.0885   4.0000    71.9852
 77      0.0000     0.0000E+00    0.0000E+00    3.160000E+06  0.00800  3.147E-02    0   0.9966   age045_m52            0.0000     1.2738E+03    29.5739   4.0000    73.1504
 78      0.0000     0.0000E+00    0.0000E+00    5.010000E+06  0.00800  2.664E-02    0   0.9443   age055_m52            0.0000     8.4447E+02    22.5570   4.0000    76.0674
 79      0.0000     0.0000E+00    0.0000E+00    6.610000E+06  0.00800  2.151E-02    0   0.9177   age061_m52            0.0000     4.3536E+02    13.8965   3.2030    80.7583
 80      0.0000     0.0000E+00    0.0000E+00    8.710000E+06  0.00800  1.628E-02    0   0.8948   age067_m52            0.0000     5.8125E+02    14.8865   3.6090    79.4749
 81      0.0000     0.0000E+00    0.0000E+00    1.000000E+07  0.00800  1.215E-02    0   0.8827   age070_m52            0.0000     6.1415E+02    15.6394   3.9551    77.4988
 82      0.0000     0.0000E+00    0.0000E+00    1.445000E+07  0.00800  8.739E-03    0   0.8552   age078_m52            0.0000     6.5195E+02    15.0283   4.0000    78.4166
 83      0.0000     0.0000E+00    0.0000E+00    2.512000E+07  0.00800  5.676E-03    0   0.8162   age090_m52            0.0000     8.0129E+02    14.2874   3.6186    81.9299
 84      0.0000     0.0000E+00    0.0000E+00    4.000000E+07  0.00800  3.939E-03    0   0.7841   age104_m52            0.0000     8.9576E+02    12.9269   3.4487    84.7055
 85      0.0000     0.0000E+00    0.0000E+00    5.500000E+07  0.00800  3.155E-03    0   0.7627   age110_m52            0.0000     1.0056E+03    12.0027   3.4103    86.7003
 86      0.0000     0.0000E+00    0.0000E+00    1.015200E+08  0.00800  2.206E-03    0   0.7226   age116_m52            0.0000     1.2018E+03    10.5376   3.2041    91.4337
 87      0.0000     0.0000E+00    0.0000E+00    1.609000E+08  0.00800  1.596E-03    0   0.6963   age120_m52            0.0000     1.2904E+03     9.9701   2.9681    93.9248
 88      0.0000     0.0000E+00    0.0000E+00    2.861200E+08  0.00800  1.002E-03    0   0.6665   age125_m52            0.0000     1.5252E+03     9.1977   2.6237    98.9496
 89      0.0000     0.0000E+00    0.0000E+00    5.088000E+08  0.00800  5.759E-04    0   0.6377   age130_m52            0.0000     1.4063E+03     8.4027   2.2076   105.9816
 90      0.0000     0.0000E+00    0.0000E+00    9.047900E+08  0.00800  2.972E-04    0   0.6086   age135_m52            0.0000     6.8932E+02     6.4944   1.5823   109.5692
 91      0.0000     0.0000E+00    0.0000E+00    1.278050E+09  0.00800  2.242E-04    0   0.5907   age138_m52            0.0000     2.0556E+02     3.9186   0.9519   109.6809
 92      0.0000     0.0000E+00    0.0000E+00    1.434000E+09  0.00800  1.645E-04    0   0.5787   age139_m52            0.0000     2.1603E+02     3.8141   1.1196   108.0210
 93      0.0000     0.0000E+00    0.0000E+00    2.500000E+09  0.00800  7.723E-05    0   0.5519   age150_m52            0.0000     4.2385E+01     2.2039   0.7655   105.5831
 94      0.0521     2.6908E-02    2.8155E-02    4.250000E+09  0.00800  4.151E-05    0   0.5320   age158_m52            0.0000     1.4270E+01     1.7096   0.6956   103.1875
 95      2.5603     1.8225E+00    1.8628E+00    6.250000E+09  0.00800  3.010E-05    0   0.5197   age166_m52            0.0000     5.2986E+00     1.7778   0.4810   103.1966
 96      1.8908     1.6422E+00    1.6598E+00    7.500000E+09  0.00800  2.467E-05    0   0.5139   age171_m52            0.0000     8.2516E+00     1.9487   0.4328   103.2087
 97     69.0765     7.9487E+01    7.9012E+01    1.000000E+10  0.00800  1.862E-05    0   0.5054   age181_m52            0.0000     2.6340E+01     2.6552   0.2814   104.1113
 98      0.0000     0.0000E+00    0.0000E+00    1.300000E+10  0.00800  1.433E-05    0   0.4988   age193_m52            0.0000     6.5271E+01     3.4396   0.1647   106.0333
 99      0.0000     0.0000E+00    0.0000E+00    1.500000E+10  0.00800  1.244E-05    0   0.4936   age201_m52            0.0000     8.5925E+01     3.7340   0.1278   106.9883
100      0.0000     0.0000E+00    0.0000E+00    1.800000E+10  0.00800  1.070E-05    0   0.4888   age213_m52            0.0000     1.0106E+02     3.9761   0.0872   107.2120
101      0.0000     0.0000E+00    0.0000E+00    1.000000E+06  0.02000  1.989E-02    0   1.0000   age020_m62            0.0000     1.3870E+03    30.9090   4.0000    71.3166
102      0.0000     0.0000E+00    0.0000E+00    3.160000E+06  0.02000  3.772E-02    0   0.9858   age045_m62            0.0000     1.1829E+03    28.4851   4.0000    72.8935
103      0.0000     0.0000E+00    0.0000E+00    5.010000E+06  0.02000  3.227E-02    0   0.9342   age055_m62            0.0000     6.6540E+02    16.8076   4.0000    78.5812
104      0.0000     0.0000E+00    0.0000E+00    6.610000E+06  0.02000  2.387E-02    0   0.9090   age061_m62            0.0000     5.8033E+02    16.3157   4.0000    76.2273
105      0.0000     0.0000E+00    0.0000E+00    8.710000E+06  0.02000  1.102E-02    0   0.8861   age067_m62            0.0000     7.1693E+02    21.8208   3.6624    71.1311
106      0.0000     0.0000E+00    0.0000E+00    1.000000E+07  0.02000  1.011E-02    0   0.8751   age070_m62            0.0000     6.1170E+02    19.3179   3.6700    74.0346
107      0.0000     0.0000E+00    0.0000E+00    1.445000E+07  0.02000  7.331E-03    0   0.8472   age078_m62            0.0000     5.5826E+02    17.3033   3.6748    75.9861
108      0.0000     0.0000E+00    0.0000E+00    2.512000E+07  0.02000  4.206E-03    0   0.8099   age090_m62            0.0000     5.9624E+02    17.5115   3.5861    75.5804
109      0.0000     0.0000E+00    0.0000E+00    4.000000E+07  0.02000  3.373E-03    0   0.7799   age104_m62            0.0000     7.3659E+02    13.7615   3.3925    83.4718
110      0.0000     0.0000E+00    0.0000E+00    5.500000E+07  0.02000  2.747E-03    0   0.7595   age110_m62            0.0000     9.4875E+02    12.5120   3.3290    86.5856
111      0.0000     0.0000E+00    0.0000E+00    1.015200E+08  0.02000  1.878E-03    0   0.7221   age116_m62            0.0000     1.3839E+03    11.4410   3.1924    91.0927
112      0.0000     0.0000E+00    0.0000E+00    1.609000E+08  0.02000  1.378E-03    0   0.6978   age120_m62            0.0000     1.6177E+03    10.7493   3.0156    94.5548
113      0.0000     0.0000E+00    0.0000E+00    2.861200E+08  0.02000  8.869E-04    0   0.6700   age125_m62            0.0000     1.9426E+03    10.0715   2.5972   100.8912
114      0.0000     0.0000E+00    0.0000E+00    5.088000E+08  0.02000  4.834E-04    0   0.6430   age130_m62            0.0000     1.4903E+03     8.5756   2.0532   108.3242
115      0.0000     0.0000E+00    0.0000E+00    9.047900E+08  0.02000  2.312E-04    0   0.6152   age135_m62            0.0000     6.1578E+02     5.7927   1.3940   111.0300
116      0.0000     0.0000E+00    0.0000E+00    1.278050E+09  0.02000  1.387E-04    0   0.5927   age138_m62            0.0000     2.2219E+02     3.6067   1.0058   107.6066
117      0.0000     0.0000E+00    0.0000E+00    1.434000E+09  0.02000  1.168E-04    0   0.5865   age139_m62            0.0000     1.5945E+02     3.2053   0.9756   106.3497
118      0.0000     0.0000E+00    0.0000E+00    2.500000E+09  0.02000  5.505E-05    0   0.5610   age150_m62            0.0000     1.9711E+01     2.0774   0.5682   105.8288
119      0.0000     0.0000E+00    0.0000E+00    4.250000E+09  0.02000  3.070E-05    0   0.5407   age158_m62            0.0000     2.4718E+01     3.3699   0.2196   108.9969
120      0.0000     0.0000E+00    0.0000E+00    6.250000E+09  0.02000  2.104E-05    0   0.5277   age166_m62            0.0000     6.6534E+01     4.3636   0.0600   111.1029
121      0.0000     0.0000E+00    0.0000E+00    7.500000E+09  0.02000  1.770E-05    0   0.5223   age171_m62            0.0000     8.8972E+01     4.8994  -0.0427   112.3524
122      0.0000     0.0000E+00    0.0000E+00    1.000000E+10  0.02000  1.297E-05    0   0.5121   age181_m62            0.0000     1.5067E+02     5.9807  -0.2310   114.6388
123      0.0000     0.0000E+00    0.0000E+00    1.300000E+10  0.02000  9.691E-06    0   0.5047   age193_m62            0.0000     2.0035E+02     6.6717  -0.3351   116.2235
124      0.0000     0.0000E+00    0.0000E+00    1.500000E+10  0.02000  8.360E-06    0   0.4999   age201_m62            0.0000     2.4351E+02     7.3261  -0.4253   117.5754
125      0.0000     0.0000E+00    0.0000E+00    1.800000E+10  0.02000  6.911E-06    0   0.4946   age213_m62            0.0000     2.9797E+02     8.1870  -0.5255   119.3056
126      0.0000     0.0000E+00    0.0000E+00    1.000000E+06  0.05000  2.651E-02    0   0.9998   age020_m72            0.0000     1.3740E+03    30.6386   4.0000    72.2598
127      0.0000     0.0000E+00    0.0000E+00    3.160000E+06  0.05000  4.817E-02    0   0.9577   age045_m72            0.0000     9.7177E+02    25.0054   4.0000    75.6769
128      0.0000     0.0000E+00    0.0000E+00    5.010000E+06  0.05000  3.101E-02    0   0.9147   age055_m72            0.0000     6.3667E+02    17.8984   4.0000    77.1464
129      0.0000     0.0000E+00    0.0000E+00    6.610000E+06  0.05000  1.472E-02    0   0.8877   age061_m72            0.0000     6.4163E+02    19.1563   3.8699    73.1500
130      0.0000     0.0000E+00    0.0000E+00    8.710000E+06  0.05000  1.050E-02    0   0.8638   age067_m72            0.0000     6.6073E+02    17.8293   4.0000    75.8191
131      0.0000     0.0000E+00    0.0000E+00    1.000000E+07  0.05000  8.954E-03    0   0.8524   age070_m72            0.0000     8.3570E+02    21.8737   4.0000    77.4629
132      0.0000     0.0000E+00    0.0000E+00    1.445000E+07  0.05000  6.392E-03    0   0.8262   age078_m72            0.0000     7.7722E+02    20.2996   4.0000    78.5495
133      0.0000     0.0000E+00    0.0000E+00    2.512000E+07  0.05000  4.207E-03    0   0.7902   age090_m72            0.0000     6.2792E+02    13.3856   4.0000    81.0105
134      0.0000     0.0000E+00    0.0000E+00    4.000000E+07  0.05000  3.198E-03    0   0.7618   age104_m72            0.0000     1.0690E+03    11.2171   3.5624    87.6078
135      0.0000     0.0000E+00    0.0000E+00    5.500000E+07  0.05000  2.593E-03    0   0.7432   age110_m72            0.0000     1.2313E+03    11.2669   3.4752    89.0671
136      0.0000     0.0000E+00    0.0000E+00    1.015200E+08  0.05000  1.716E-03    0   0.7092   age116_m72            0.0000     1.5018E+03    11.0864   3.2768    91.5365
137      0.0000     0.0000E+00    0.0000E+00    1.609000E+08  0.05000  1.218E-03    0   0.6876   age120_m72            0.0000     1.7328E+03    10.4024   2.9823    95.3481
138      0.0000     0.0000E+00    0.0000E+00    2.861200E+08  0.05000  7.047E-04    0   0.6618   age125_m72            0.0000     1.7552E+03     8.8322   2.3592   103.0985
139      0.0000     0.0000E+00    0.0000E+00    5.088000E+08  0.05000  3.590E-04    0   0.6356   age130_m72            0.0000     1.1313E+03     6.9725   1.6690   111.4903
140      0.0000     0.0000E+00    0.0000E+00    9.047900E+08  0.05000  1.484E-04    0   0.6088   age135_m72            0.0000     2.0630E+02     3.9549   0.8650   109.4461
141      0.0000     0.0000E+00    0.0000E+00    1.278050E+09  0.05000  9.435E-05    0   0.5924   age138_m72            0.0000     4.4121E+01     3.6447   0.4217   109.1834
142      0.0000     0.0000E+00    0.0000E+00    1.434000E+09  0.05000  7.827E-05    0   0.5847   age139_m72            0.0000     2.8821E+01     3.3189   0.4379   108.4602
143      0.0000     0.0000E+00    0.0000E+00    2.500000E+09  0.05000  3.759E-05    0   0.5583   age150_m72            0.0000     5.1425E+01     4.4075   0.0720   110.2028
144      5.3844     6.2631E+00    6.6199E+00    4.250000E+09  0.05000  1.842E-05    0   0.5374   age158_m72            0.0000     1.2690E+02     5.9185  -0.2865   112.1598
145      0.9836     1.7461E+00    1.8002E+00    6.250000E+09  0.05000  1.207E-05    0   0.5242   age166_m72            0.0000     2.0706E+02     7.5087  -0.5743   114.4857
146      1.3173     2.8244E+00    2.8792E+00    7.500000E+09  0.05000  9.993E-06    0   0.5183   age171_m72            0.0000     2.1452E+02     7.7403  -0.6254   114.8143
147      0.0000     0.0000E+00    0.0000E+00    1.000000E+10  0.05000  7.291E-06    0   0.5081   age181_m72            0.0000     2.6541E+02     8.9713  -0.7907   116.8890
148      0.0008     3.2875E-03    3.2445E-03    1.300000E+10  0.05000  5.316E-06    0   0.5018   age193_m72            0.0000     3.5447E+02    10.7422  -1.0000   119.7159
149      0.0000     0.0000E+00    0.0000E+00    1.500000E+10  0.05000  4.497E-06    0   0.4972   age201_m72            0.0000     4.2057E+02    11.7450  -1.0000   120.5022
150      0.0000     0.0000E+00    0.0000E+00    1.800000E+10  0.05000  3.739E-06    0   0.4924   age213_m72            0.0000     5.5940E+02    13.9158  -1.0000   120.8311


## Synthesis Results - Average & Chains ##

# j      x_j: min, <> & last-chain-values for 1 ...  7 chains
  1      0.0000      0.0143      0.0000      0.0000      0.0000      0.0000      0.0000      0.0000      0.1214
  2      3.6043      2.4500      2.4516      2.4883      2.2419      2.5373      2.9142      2.6884      2.5393
  3      0.0000      0.0368      0.0903      0.0000      0.0000      0.0000      0.0000      0.0000      0.0000
  4      0.0000      0.0117      0.0000      0.0351      0.0000      0.0000      0.0543      0.0000      0.0653
  5      0.0000      0.0296      0.0605      0.0000      0.0000      0.0513      0.0000      0.0267      0.0000
  6      0.0000      0.0097      0.0705      0.0000      0.0000      0.0000      0.0000      0.0000      0.0000
  7      0.0000      0.0152      0.0000      0.0000      0.0000      0.0442      0.0842      0.0000      0.0000
  8      0.0000      0.0116      0.0000      0.0000      0.0000      0.0000      0.0000      0.0000      0.0000
  9      0.0000      0.0094      0.0000      0.0000      0.0000      0.0000      0.0000      0.0000      0.0000
 10      0.0000      0.0126      0.0469      0.0000      0.0000      0.0000      0.0000      0.0000      0.0000
 11      0.0000      0.0105      0.0000      0.0000      0.0000      0.0000      0.0000      0.0107      0.0000
 12      0.0000      0.0041      0.0000      0.0000      0.0000      0.0000      0.0000      0.0000      0.0000
 13      0.0000      0.0027      0.0000      0.0000      0.0000      0.0000      0.0000      0.0000      0.0000
 14      0.0000      0.0020      0.0000      0.0000      0.0000      0.0000      0.0000      0.0000      0.0000
 15      0.0000      0.0020      0.0000      0.0000      0.0000      0.0000      0.0000      0.0000      0.0000
 16      0.0000      0.0050      0.0000      0.0000      0.0000      0.0000      0.0000      0.0000      0.0000
 17      0.0000      0.0070      0.0000      0.0000      0.0000      0.0000      0.0000      0.0000      0.0000
 18      0.0000      0.0093      0.0000      0.0000      0.0000      0.0000      0.0000      0.0000      0.0556
 19      0.0000      0.0152      0.0000      0.0000      0.0000      0.0000      0.0000      0.0000      0.0000
 20      0.0000      0.0611      0.0000      0.0000      0.0675      0.0686      0.0000      0.0000      0.0000
 21      0.0000      0.1113      0.1619      0.0962      0.1149      0.2182      0.0000      0.2092      0.1197
 22      0.0000      0.0738      0.0000      0.2165      0.0275      0.0892      0.0817      0.0000      0.0000
 23      0.0000      0.0699      0.0000      0.0143      0.2004      0.0000      0.2196      0.2372      0.0614
 24      0.0000      0.0465      0.1864      0.0000      0.0428      0.1475      0.0000      0.0779      0.0000
 25      0.0000      0.1146      0.1466      0.0267      0.1831      0.1628      0.0000      0.0000      0.1153
 26      0.0000      0.0072      0.0000      0.0000      0.0000      0.0000      0.0000      0.0000      0.0000
 27      0.0000      0.0235      0.0000      0.0000      0.0000      0.0000      0.0000      0.0000      0.1502
 28      0.0000      0.0122      0.0000      0.0000      0.0000      0.0000      0.0000      0.0000      0.0000
 29      0.0000      0.0160      0.0000      0.0000      0.0000      0.0505      0.0000      0.1175      0.0000
 30      0.0000      0.0147      0.0000      0.0265      0.0000      0.0501      0.0000      0.0000      0.0000
 31      0.0000      0.0072      0.0000      0.0300      0.0000      0.0000      0.0000      0.0000      0.0000
 32      0.0000      0.0133      0.0000      0.0000      0.0994      0.0403      0.0509      0.0000      0.0000
 33      0.0000      0.0179      0.0375      0.0000      0.0000      0.1053      0.0000      0.0000      0.0000
 34      0.0000      0.0095      0.0000      0.0000      0.0000      0.0000      0.0000      0.0000      0.0000
 35      0.0000      0.0096      0.0000      0.0000      0.0584      0.0000      0.0000      0.0000      0.0000
 36      0.0000      0.0052      0.0000      0.0309      0.0000      0.0000      0.0000      0.0000      0.0000
 37      0.0000      0.0045      0.0000      0.0000      0.0000      0.0000      0.0000      0.0000      0.0000
 38      0.0000      0.0025      0.0000      0.0000      0.0000      0.0000      0.0000      0.0000      0.0000
 39      0.0000      0.0019      0.0000      0.0000      0.0031      0.0000      0.0000      0.0000      0.0000
 40      0.0000      0.0053      0.0000      0.0000      0.0000      0.0000      0.0000      0.0000      0.0319
 41      0.0000      0.0086      0.0000      0.0000      0.0000      0.0000      0.0000      0.0000      0.0000
 42      0.0000      0.0085      0.0000      0.0000      0.0000      0.0000      0.0000      0.0000      0.0116
 43      0.0000      0.2716      0.0000      0.0000      0.0000      0.0000      0.0000      0.0039      0.0786
 44      5.3041      8.9957      8.9966      8.7745      8.8624      8.8735      8.4722      8.6571      8.9233
 45      3.6524      0.6657      0.8463      1.2617      1.6905      1.7560      1.9553      0.7290      0.6092
 46      3.4369      0.5870      1.0406      1.2953      0.6990      0.5182      0.6884      1.8102      1.5204
 47      4.2768      3.8414      4.3094      4.3143      3.7413      4.0350      4.2298      4.0500      4.3193
 48      0.0000      0.1073      0.0402      0.0126      0.0000      0.0008      0.0000      0.0000      0.0176
 49      0.0000      0.0764      0.0000      0.0000      0.0000      0.1240      0.0000      0.0781      0.0098
 50      0.0000      0.0355      0.0000      0.0000      0.0000      0.0000      0.0000      0.0000      0.0000
 51      0.0000      0.0090      0.0000      0.0000      0.0066      0.0003      0.0000      0.0000      0.0000
 52      0.0000      0.0460      0.1014      0.0000      0.0591      0.0000      0.0000      0.0000      0.0414
 53      0.0000      0.0193      0.0000      0.0000      0.0000      0.0000      0.0000      0.1644      0.0000
 54      0.0000      0.0187      0.0000      0.0184      0.0000      0.0000      0.0000      0.0000      0.0000
 55      0.0000      0.0149      0.0000      0.0000      0.0000      0.0000      0.0654      0.0000      0.0000
 56      0.0000      0.0124      0.0000      0.0000      0.0000      0.0000      0.0392      0.0000      0.0008
 57      0.0000      0.0107      0.0000      0.0432      0.0000      0.0000      0.0000      0.0620      0.0000
 58      0.0000      0.0111      0.0000      0.1237      0.0000      0.0000      0.0000      0.0000      0.0000
 59      0.0000      0.0106      0.0000      0.0000      0.0000      0.0000      0.0000      0.0800      0.0000
 60      0.0000      0.0057      0.0000      0.0000      0.0000      0.0000      0.0000      0.0000      0.0000
 61      0.0000      0.0034      0.0000      0.0000      0.0000      0.0000      0.0000      0.0000      0.0000
 62      0.0000      0.0062      0.0000      0.0000      0.0000      0.0000      0.0000      0.0000      0.0000
 63      0.0000      0.0035      0.0000      0.0000      0.0000      0.0000      0.0000      0.0000      0.0000
 64      0.0000      0.0051      0.0000      0.0000      0.0000      0.0000      0.0000      0.0000      0.0000
 65      0.0000      0.0124      0.0074      0.0000      0.0000      0.0000      0.0000      0.0000      0.0000
 66      0.0000      0.0140      0.0000      0.0333      0.0000      0.0000      0.0000      0.0000      0.0000
 67      0.0000      0.0191      0.0000      0.0000      0.0000      0.0034      0.0000      0.1368      0.0000
 68      0.0000      0.0793      0.0133      0.0000      0.0692      0.1722      0.0864      0.0534      0.0000
 69      0.0015      0.1304      0.0000      0.3085      0.2639      0.2187      0.4097      0.0570      0.2126
 70      0.0000      0.2302      0.1346      0.0000      0.3547      0.0073      0.0000      0.0000      0.2991
 71      0.0000      0.2105      0.4042      0.2849      0.1809      0.1514      0.1159      0.0658      0.0766
 72      0.0000      0.1895      0.3832      0.0000      0.1602      0.1126      0.1586      0.0000      0.0000
 73      0.0000      0.1477      0.0718      0.3530      0.0000      0.0000      0.0000      0.2940      0.1040
 74      0.0013      0.1719      0.2124      0.4067      0.0000      0.2116      0.3889      0.0000      0.2847
 75      0.0000      0.1806      0.0877      0.4809      0.4777      0.0000      0.0000      0.0000      0.0000
 76      0.0000      0.0046      0.0000      0.0000      0.0000      0.0000      0.0000      0.0000      0.0000
 77      0.0000      0.0086      0.0000      0.0000      0.0000      0.0000      0.0000      0.0000      0.0000
 78      0.0000      0.0070      0.0000      0.0681      0.0000      0.0000      0.0136      0.0000      0.0000
 79      0.0000      0.0099      0.0000      0.0000      0.0000      0.0000      0.0000      0.0000      0.0100
 80      0.0000      0.0082      0.0000      0.0000      0.0321      0.0056      0.0000      0.0000      0.0000
 81      0.0000      0.0074      0.0000      0.0000      0.0000      0.0117      0.0000      0.0000      0.0000
 82      0.0000      0.0066      0.0000      0.0000      0.0000      0.0000      0.0000      0.0000      0.0000
 83      0.0000      0.0069      0.0000      0.0000      0.0000      0.0195      0.0000      0.0000      0.0000
 84      0.0000      0.0063      0.0000      0.0000      0.0000      0.0000      0.0000      0.0000      0.0000
 85      0.0000      0.0041      0.0000      0.0000      0.0000      0.0000      0.0000      0.0000      0.0000
 86      0.0000      0.0066      0.0000      0.0000      0.0000      0.0000      0.0000      0.0000      0.0000
 87      0.0000      0.0041      0.0000      0.0000      0.0145      0.0000      0.0000      0.0804      0.0000
 88      0.0000      0.0032      0.0000      0.0000      0.0000      0.0000      0.0000      0.0000      0.0000
 89      0.0000      0.0040      0.0000      0.0000      0.0000      0.0000      0.0000      0.0000      0.0000
 90      0.0000      0.0071      0.0000      0.0000      0.0000      0.0000      0.0000      0.0000      0.0000
 91      0.0000      0.0169      0.0000      0.0132      0.0000      0.0000      0.0000      0.0000      0.0000
 92      0.0000      0.0187      0.0000      0.0000      0.0000      0.0000      0.0000      0.0000      0.0000
 93      0.0000      0.0614      0.0000      0.0000      0.0987      0.0000      0.0298      0.0876      0.0600
 94      0.0521      0.2506      0.4719      0.6684      0.8353      0.4146      0.5091      0.2013      0.8631
 95      2.5603      0.7106      0.2771      0.0000      0.7851      1.1252      0.7127      2.1111      1.2441
 96      1.8908      0.5174      2.2742      0.1776      0.3305      0.8393      0.4674      0.0000      0.8651
 97     69.0765     75.8821     74.1709     75.1606     74.4794     73.6431     74.4939     73.5986     73.9375
 98      0.0000      0.1808      0.1843      0.3331      0.0000      0.0000      0.0000      0.0000      0.1604
 99      0.0000      0.1037      0.0000      0.0000      0.0834      0.1466      0.0000      0.1258      0.0000
100      0.0000      0.1211      0.0214      0.0000      0.2200      0.0000      0.0000      0.0048      0.0000
101      0.0000      0.0053      0.0000      0.0108      0.0000      0.0000      0.0000      0.0000      0.0000
102      0.0000      0.0107      0.0000      0.0000      0.0000      0.0000      0.0000      0.0000      0.0000
103      0.0000      0.0159      0.0000      0.0977      0.0000      0.0000      0.0000      0.0507      0.0000
104      0.0000      0.0130      0.0000      0.0108      0.0341      0.0000      0.0558      0.0000      0.0000
105      0.0000      0.0115      0.0000      0.0000      0.0084      0.0000      0.0000      0.0000      0.0000
106      0.0000      0.0158      0.0007      0.0000      0.0000      0.0000      0.0000      0.0000      0.0000
107      0.0000      0.0084      0.0000      0.0000      0.0000      0.0000      0.0000      0.0100      0.0564
108      0.0000      0.0054      0.0000      0.0000      0.0000      0.0000      0.0005      0.0000      0.0000
109      0.0000      0.0043      0.0000      0.0000      0.0000      0.0000      0.0103      0.0000      0.0000
110      0.0000      0.0043      0.0000      0.0000      0.0000      0.0000      0.0000      0.0000      0.0000
111      0.0000      0.0024      0.0151      0.0000      0.0000      0.0000      0.0000      0.0448      0.0000
112      0.0000      0.0029      0.0000      0.0000      0.0000      0.0000      0.0000      0.0000      0.0000
113      0.0000      0.0021      0.0000      0.0000      0.0000      0.0000      0.0000      0.0000      0.0000
114      0.0000      0.0042      0.0000      0.0000      0.0000      0.0000      0.0000      0.0000      0.0000
115      0.0000      0.0212      0.0000      0.0000      0.0000      0.0000      0.0000      0.0000      0.0000
116      0.0000      0.0300      0.0087      0.0000      0.0000      0.0000      0.1339      0.0000      0.0000
117      0.0000      0.0344      0.0262      0.1993      0.0000      0.0000      0.0000      0.0000      0.0000
118      0.0000      0.1178      0.0000      0.0000      0.0000      0.0000      0.1910      0.1305      0.0490
119      0.0000      0.1276      0.0000      0.0000      0.2139      0.1368      0.0632      0.0823      0.0861
120      0.0000      0.0958      0.0000      0.0000      0.0000      0.4997      0.0000      0.0000      0.0000
121      0.0000      0.0770      0.0000      0.0000      0.0000      0.0000      0.0000      0.0000      0.0000
122      0.0000      0.0732      0.0000      0.0000      0.0000      0.0000      0.0000      0.1349      0.0000
123      0.0000      0.0752      0.0060      0.0000      0.0000      0.3030      0.0000      0.0000      0.0298
124      0.0000      0.0727      0.0000      0.0000      0.0000      0.0000      0.0000      0.0000      0.0673
125      0.0000      0.0544      0.0000      0.0000      0.0000      0.0000      0.0276      0.0000      0.0000
126      0.0000      0.0095      0.0000      0.0000      0.0000      0.0000      0.0000      0.0000      0.0000
127      0.0000      0.0085      0.0000      0.0000      0.0000      0.0000      0.0000      0.0000      0.0409
128      0.0000      0.0166      0.0000      0.0000      0.2044      0.1448      0.0000      0.0000      0.0000
129      0.0000      0.0145      0.0848      0.0000      0.0000      0.0000      0.0000      0.0000      0.0000
130      0.0000      0.0105      0.0000      0.0000      0.0212      0.0000      0.0000      0.0000      0.0000
131      0.0000      0.0101      0.0000      0.0000      0.1208      0.0000      0.0000      0.0000      0.0000
132      0.0000      0.0091      0.0000      0.0000      0.0000      0.0000      0.0000      0.0000      0.0197
133      0.0000      0.0030      0.0000      0.0000      0.0000      0.0174      0.0000      0.0000      0.0000
134      0.0000      0.0031      0.0000      0.0000      0.0000      0.0000      0.0000      0.0000      0.0000
135      0.0000      0.0036      0.0000      0.0000      0.0177      0.0000      0.0000      0.0000      0.0000
136      0.0000      0.0031      0.0000      0.0000      0.0000      0.0000      0.0000      0.0000      0.0000
137      0.0000      0.0022      0.0000      0.0000      0.0000      0.0000      0.0000      0.0000      0.0000
138      0.0000      0.0024      0.0000      0.0000      0.0000      0.0075      0.0000      0.0000      0.0000
139      0.0000      0.0079      0.0000      0.0000      0.0000      0.0000      0.0000      0.0000      0.0000
140      0.0000      0.0232      0.0775      0.0000      0.0000      0.0506      0.0000      0.0000      0.0000
141      0.0000      0.0442      0.0000      0.0000      0.1885      0.0000      0.0000      0.0000      0.0000
142      0.0000      0.0586      0.0000      0.0000      0.0188      0.0061      0.0391      0.0000      0.1622
143      0.0000      0.1979      0.3424      0.0754      0.2286      0.4793      0.1872      0.2038      0.0000
144      5.3844      0.9882      1.6401      1.2301      2.6607      2.0521      2.1975      3.3858      1.6653
145      0.9836      0.6809      0.7061      0.9466      0.2862      0.8055      0.9614      0.7640      0.6627
146      1.3173      0.7011      0.9663      1.3869      1.0199      0.7085      1.0401      0.5455      1.2427
147      0.0000      0.1161      0.1578      0.0000      0.0000      0.0000      0.0000      0.1433      0.3081
148      0.0008      0.2770      0.3502      0.6137      0.0892      0.2736      0.4351      0.3574      0.0000
149      0.0000      0.1207      0.0000      0.0000      0.0000      0.1070      0.0000      0.0000      0.1204
150      0.0000      0.1551      0.0000      0.0000      0.1356      0.2241      0.1200      0.0527      0.2535

# j      m_j: min, <> & last-chain-values for 1 ...  7 chains
  1  0.0000E+00  7.2018E-05  0.0000E+00  0.0000E+00  0.0000E+00  0.0000E+00  0.0000E+00  0.0000E+00  6.1245E-04
  2  3.1916E-03  2.1092E-03  2.1339E-03  2.1357E-03  1.9624E-03  2.1952E-03  2.5259E-03  2.3486E-03  2.1960E-03
  3  0.0000E+00  7.4737E-05  1.8551E-04  0.0000E+00  0.0000E+00  0.0000E+00  0.0000E+00  0.0000E+00  0.0000E+00
  4  0.0000E+00  4.4808E-05  0.0000E+00  1.3353E-04  0.0000E+00  0.0000E+00  2.0889E-04  0.0000E+00  2.5050E-04
  5  0.0000E+00  1.4238E-04  2.9431E-04  0.0000E+00  0.0000E+00  2.4810E-04  0.0000E+00  1.3044E-04  0.0000E+00
  6  0.0000E+00  5.5422E-05  4.0753E-04  0.0000E+00  0.0000E+00  0.0000E+00  0.0000E+00  0.0000E+00  0.0000E+00
  7  0.0000E+00  1.0946E-04  0.0000E+00  0.0000E+00  0.0000E+00  3.2067E-04  6.1201E-04  0.0000E+00  0.0000E+00
  8  0.0000E+00  9.4946E-05  0.0000E+00  0.0000E+00  0.0000E+00  0.0000E+00  0.0000E+00  0.0000E+00  0.0000E+00
  9  0.0000E+00  8.2537E-05  0.0000E+00  0.0000E+00  0.0000E+00  0.0000E+00  0.0000E+00  0.0000E+00  0.0000E+00
 10  0.0000E+00  1.2652E-04  4.7734E-04  0.0000E+00  0.0000E+00  0.0000E+00  0.0000E+00  0.0000E+00  0.0000E+00
 11  0.0000E+00  1.2640E-04  0.0000E+00  0.0000E+00  0.0000E+00  0.0000E+00  0.0000E+00  1.3035E-04  0.0000E+00
 12  0.0000E+00  8.6915E-05  0.0000E+00  0.0000E+00  0.0000E+00  0.0000E+00  0.0000E+00  0.0000E+00  0.0000E+00
 13  0.0000E+00  6.4998E-05  0.0000E+00  0.0000E+00  0.0000E+00  0.0000E+00  0.0000E+00  0.0000E+00  0.0000E+00
 14  0.0000E+00  7.0292E-05  0.0000E+00  0.0000E+00  0.0000E+00  0.0000E+00  0.0000E+00  0.0000E+00  0.0000E+00
 15  0.0000E+00  1.0367E-04  0.0000E+00  0.0000E+00  0.0000E+00  0.0000E+00  0.0000E+00  0.0000E+00  0.0000E+00
 16  0.0000E+00  3.8002E-04  0.0000E+00  0.0000E+00  0.0000E+00  0.0000E+00  0.0000E+00  0.0000E+00  0.0000E+00
 17  0.0000E+00  5.8809E-04  0.0000E+00  0.0000E+00  0.0000E+00  0.0000E+00  0.0000E+00  0.0000E+00  0.0000E+00
 18  0.0000E+00  1.2802E-03  0.0000E+00  0.0000E+00  0.0000E+00  0.0000E+00  0.0000E+00  0.0000E+00  7.6668E-03
 19  0.0000E+00  3.1524E-03  0.0000E+00  0.0000E+00  0.0000E+00  0.0000E+00  0.0000E+00  0.0000E+00  0.0000E+00
 20  0.0000E+00  1.8164E-02  0.0000E+00  0.0000E+00  2.0410E-02  2.0506E-02  0.0000E+00  0.0000E+00  0.0000E+00
 21  0.0000E+00  3.8301E-02  5.6315E-02  3.2994E-02  4.0203E-02  7.5423E-02  0.0000E+00  7.3028E-02  4.1361E-02
 22  0.0000E+00  3.2763E-02  0.0000E+00  9.5812E-02  1.2423E-02  3.9794E-02  3.6502E-02  0.0000E+00  0.0000E+00
 23  0.0000E+00  3.9327E-02  0.0000E+00  8.0388E-03  1.1464E-01  0.0000E+00  1.2436E-01  1.3543E-01  3.4718E-02
 24  0.0000E+00  2.9926E-02  1.2124E-01  0.0000E+00  2.7966E-02  9.5339E-02  0.0000E+00  5.0855E-02  0.0000E+00
 25  0.0000E+00  8.8538E-02  1.1453E-01  2.0554E-02  1.4386E-01  1.2643E-01  0.0000E+00  0.0000E+00  8.9534E-02
 26  0.0000E+00  3.4911E-05  0.0000E+00  0.0000E+00  0.0000E+00  0.0000E+00  0.0000E+00  0.0000E+00  0.0000E+00
 27  0.0000E+00  2.4241E-05  0.0000E+00  0.0000E+00  0.0000E+00  0.0000E+00  0.0000E+00  0.0000E+00  1.5561E-04
 28  0.0000E+00  2.4695E-05  0.0000E+00  0.0000E+00  0.0000E+00  0.0000E+00  0.0000E+00  0.0000E+00  0.0000E+00
 29  0.0000E+00  5.0242E-05  0.0000E+00  0.0000E+00  0.0000E+00  1.5969E-04  0.0000E+00  3.7494E-04  0.0000E+00
 30  0.0000E+00  5.7605E-05  0.0000E+00  1.0341E-04  0.0000E+00  1.9683E-04  0.0000E+00  0.0000E+00  0.0000E+00
 31  0.0000E+00  3.2504E-05  0.0000E+00  1.3508E-04  0.0000E+00  0.0000E+00  0.0000E+00  0.0000E+00  0.0000E+00
 32  0.0000E+00  6.6634E-05  0.0000E+00  0.0000E+00  5.0526E-04  2.0275E-04  2.5631E-04  0.0000E+00  0.0000E+00
 33  0.0000E+00  1.2737E-04  2.6914E-04  0.0000E+00  0.0000E+00  7.5201E-04  0.0000E+00  0.0000E+00  0.0000E+00
 34  0.0000E+00  8.1984E-05  0.0000E+00  0.0000E+00  0.0000E+00  0.0000E+00  0.0000E+00  0.0000E+00  0.0000E+00
 35  0.0000E+00  9.9873E-05  0.0000E+00  0.0000E+00  6.1995E-04  0.0000E+00  0.0000E+00  0.0000E+00  0.0000E+00
 36  0.0000E+00  6.9228E-05  0.0000E+00  4.1189E-04  0.0000E+00  0.0000E+00  0.0000E+00  0.0000E+00  0.0000E+00
 37  0.0000E+00  7.4582E-05  0.0000E+00  0.0000E+00  0.0000E+00  0.0000E+00  0.0000E+00  0.0000E+00  0.0000E+00
 38  0.0000E+00  5.6811E-05  0.0000E+00  0.0000E+00  0.0000E+00  0.0000E+00  0.0000E+00  0.0000E+00  0.0000E+00
 39  0.0000E+00  6.5780E-05  0.0000E+00  0.0000E+00  1.1044E-04  0.0000E+00  0.0000E+00  0.0000E+00  0.0000E+00
 40  0.0000E+00  3.2418E-04  0.0000E+00  0.0000E+00  0.0000E+00  0.0000E+00  0.0000E+00  0.0000E+00  1.9552E-03
 41  0.0000E+00  7.0445E-04  0.0000E+00  0.0000E+00  0.0000E+00  0.0000E+00  0.0000E+00  0.0000E+00  0.0000E+00
 42  0.0000E+00  7.7056E-04  0.0000E+00  0.0000E+00  0.0000E+00  0.0000E+00  0.0000E+00  0.0000E+00  1.0644E-03
 43  0.0000E+00  4.0272E-02  0.0000E+00  0.0000E+00  0.0000E+00  0.0000E+00  0.0000E+00  5.8209E-04  1.1712E-02
 44  1.2795E+00  2.1099E+00  2.1333E+00  2.0517E+00  2.1133E+00  2.0915E+00  2.0005E+00  2.0603E+00  2.1023E+00
 45  1.2280E+00  2.1763E-01  2.7968E-01  4.1118E-01  5.6186E-01  5.7687E-01  6.4352E-01  2.4182E-01  2.0004E-01
 46  1.3766E+00  2.2857E-01  4.0970E-01  5.0285E-01  2.7677E-01  2.0280E-01  2.6990E-01  7.1532E-01  5.9471E-01
 47  2.2452E+00  1.9606E+00  2.2237E+00  2.1952E+00  1.9414E+00  2.0696E+00  2.1734E+00  2.0975E+00  2.2144E+00
 48  0.0000E+00  6.5219E-02  2.4679E-02  7.6117E-03  0.0000E+00  5.1623E-04  0.0000E+00  0.0000E+00  1.0772E-02
 49  0.0000E+00  5.1951E-02  0.0000E+00  0.0000E+00  0.0000E+00  8.4734E-02  0.0000E+00  5.3851E-02  6.7145E-03
 50  0.0000E+00  2.8361E-02  0.0000E+00  0.0000E+00  0.0000E+00  0.0000E+00  0.0000E+00  0.0000E+00  0.0000E+00
 51  0.0000E+00  3.3080E-05  0.0000E+00  0.0000E+00  2.4693E-05  1.0347E-06  0.0000E+00  0.0000E+00  0.0000E+00
 52  0.0000E+00  4.6262E-05  1.0315E-04  0.0000E+00  6.0456E-05  0.0000E+00  0.0000E+00  0.0000E+00  4.1846E-05
 53  0.0000E+00  2.9674E-05  0.0000E+00  0.0000E+00  0.0000E+00  0.0000E+00  0.0000E+00  2.5593E-04  0.0000E+00
 54  0.0000E+00  2.7396E-05  0.0000E+00  2.6792E-05  0.0000E+00  0.0000E+00  0.0000E+00  0.0000E+00  0.0000E+00
 55  0.0000E+00  3.2192E-05  0.0000E+00  0.0000E+00  0.0000E+00  0.0000E+00  1.4194E-04  0.0000E+00  0.0000E+00
 56  0.0000E+00  3.5415E-05  0.0000E+00  0.0000E+00  0.0000E+00  0.0000E+00  1.1265E-04  0.0000E+00  2.3222E-06
 57  0.0000E+00  4.9226E-05  0.0000E+00  1.9748E-04  0.0000E+00  0.0000E+00  0.0000E+00  2.8822E-04  0.0000E+00
 58  0.0000E+00  7.3647E-05  0.0000E+00  8.1465E-04  0.0000E+00  0.0000E+00  0.0000E+00  0.0000E+00  0.0000E+00
 59  0.0000E+00  9.7704E-05  0.0000E+00  0.0000E+00  0.0000E+00  0.0000E+00  0.0000E+00  7.4486E-04  0.0000E+00
 60  0.0000E+00  5.8466E-05  0.0000E+00  0.0000E+00  0.0000E+00  0.0000E+00  0.0000E+00  0.0000E+00  0.0000E+00
 61  0.0000E+00  4.4090E-05  0.0000E+00  0.0000E+00  0.0000E+00  0.0000E+00  0.0000E+00  0.0000E+00  0.0000E+00
 62  0.0000E+00  1.0220E-04  0.0000E+00  0.0000E+00  0.0000E+00  0.0000E+00  0.0000E+00  0.0000E+00  0.0000E+00
 63  0.0000E+00  8.8022E-05  0.0000E+00  0.0000E+00  0.0000E+00  0.0000E+00  0.0000E+00  0.0000E+00  0.0000E+00
 64  0.0000E+00  2.0957E-04  0.0000E+00  0.0000E+00  0.0000E+00  0.0000E+00  0.0000E+00  0.0000E+00  0.0000E+00
 65  0.0000E+00  8.6470E-04  5.2106E-04  0.0000E+00  0.0000E+00  0.0000E+00  0.0000E+00  0.0000E+00  0.0000E+00
 66  0.0000E+00  1.2532E-03  0.0000E+00  2.9622E-03  0.0000E+00  0.0000E+00  0.0000E+00  0.0000E+00  0.0000E+00
 67  0.0000E+00  2.3447E-03  0.0000E+00  0.0000E+00  0.0000E+00  4.2291E-04  0.0000E+00  1.7018E-02  0.0000E+00
 68  0.0000E+00  1.8074E-02  3.0543E-03  0.0000E+00  1.6028E-02  3.9460E-02  1.9819E-02  1.2343E-02  0.0000E+00
 69  6.1257E-04  5.1271E-02  0.0000E+00  1.2090E-01  1.0547E-01  8.6396E-02  1.6217E-01  2.2729E-02  8.3967E-02
 70  0.0000E+00  1.2597E-01  7.4478E-02  0.0000E+00  1.9734E-01  4.0040E-03  0.0000E+00  0.0000E+00  1.6439E-01
 71  0.0000E+00  1.3592E-01  2.6384E-01  1.8335E-01  1.1874E-01  9.8204E-02  7.5301E-02  4.3094E-02  4.9693E-02
 72  0.0000E+00  1.6105E-01  3.2921E-01  0.0000E+00  1.3842E-01  9.6163E-02  1.3569E-01  0.0000E+00  0.0000E+00
 73  0.0000E+00  1.5838E-01  7.7837E-02  3.7724E-01  0.0000E+00  0.0000E+00  0.0000E+00  3.1979E-01  1.1204E-01
 74  1.5813E-03  2.0565E-01  2.5689E-01  4.8493E-01  0.0000E+00  2.5434E-01  4.6825E-01  0.0000E+00  3.4201E-01
 75  0.0000E+00  2.4843E-01  1.2191E-01  6.5934E-01  6.6802E-01  0.0000E+00  0.0000E+00  0.0000E+00  0.0000E+00
 76  0.0000E+00  1.4682E-05  0.0000E+00  0.0000E+00  0.0000E+00  0.0000E+00  0.0000E+00  0.0000E+00  0.0000E+00
 77  0.0000E+00  1.1153E-05  0.0000E+00  0.0000E+00  0.0000E+00  0.0000E+00  0.0000E+00  0.0000E+00  0.0000E+00
 78  0.0000E+00  1.0238E-05  0.0000E+00  9.8602E-05  0.0000E+00  0.0000E+00  1.9933E-05  0.0000E+00  0.0000E+00
 79  0.0000E+00  1.7322E-05  0.0000E+00  0.0000E+00  0.0000E+00  0.0000E+00  0.0000E+00  0.0000E+00  1.7530E-05
 80  0.0000E+00  1.8499E-05  0.0000E+00  0.0000E+00  7.3445E-05  1.2702E-05  0.0000E+00  0.0000E+00  0.0000E+00
 81  0.0000E+00  2.2135E-05  0.0000E+00  0.0000E+00  0.0000E+00  3.4878E-05  0.0000E+00  0.0000E+00  0.0000E+00
 82  0.0000E+00  2.6372E-05  0.0000E+00  0.0000E+00  0.0000E+00  0.0000E+00  0.0000E+00  0.0000E+00  0.0000E+00
 83  0.0000E+00  4.0696E-05  0.0000E+00  0.0000E+00  0.0000E+00  1.1532E-04  0.0000E+00  0.0000E+00  0.0000E+00
 84  0.0000E+00  5.1543E-05  0.0000E+00  0.0000E+00  0.0000E+00  0.0000E+00  0.0000E+00  0.0000E+00  0.0000E+00
 85  0.0000E+00  4.0954E-05  0.0000E+00  0.0000E+00  0.0000E+00  0.0000E+00  0.0000E+00  0.0000E+00  0.0000E+00
 86  0.0000E+00  8.8377E-05  0.0000E+00  0.0000E+00  0.0000E+00  0.0000E+00  0.0000E+00  0.0000E+00  0.0000E+00
 87  0.0000E+00  7.3568E-05  0.0000E+00  0.0000E+00  2.6303E-04  0.0000E+00  0.0000E+00  1.4588E-03  0.0000E+00
 88  0.0000E+00  8.6671E-05  0.0000E+00  0.0000E+00  0.0000E+00  0.0000E+00  0.0000E+00  0.0000E+00  0.0000E+00
 89  0.0000E+00  1.8050E-04  0.0000E+00  0.0000E+00  0.0000E+00  0.0000E+00  0.0000E+00  0.0000E+00  0.0000E+00
 90  0.0000E+00  5.9353E-04  0.0000E+00  0.0000E+00  0.0000E+00  0.0000E+00  0.0000E+00  0.0000E+00  0.0000E+00
 91  0.0000E+00  1.8272E-03  0.0000E+00  1.4251E-03  0.0000E+00  0.0000E+00  0.0000E+00  0.0000E+00  0.0000E+00
 92  0.0000E+00  2.6989E-03  0.0000E+00  0.0000E+00  0.0000E+00  0.0000E+00  0.0000E+00  0.0000E+00  0.0000E+00
 93  0.0000E+00  1.7973E-02  0.0000E+00  0.0000E+00  2.9367E-02  0.0000E+00  8.7919E-03  2.6031E-02  1.7650E-02
 94  2.8155E-02  1.3160E-01  2.5053E-01  3.4988E-01  4.4597E-01  2.1878E-01  2.6915E-01  1.0726E-01  4.5523E-01
 95  1.8628E+00  5.0268E-01  1.9819E-01  0.0000E+00  5.6468E-01  7.9988E-01  5.0760E-01  1.5154E+00  8.8403E-01
 96  1.6598E+00  4.4158E-01  1.9623E+00  1.5113E-01  2.8682E-01  7.1986E-01  4.0160E-01  0.0000E+00  7.4164E-01
 97  7.9012E+01  8.4387E+01  8.3391E+01  8.3329E+01  8.4212E+01  8.2302E+01  8.3404E+01  8.3053E+01  8.2594E+01
 98  0.0000E+00  2.5783E-01  2.6571E-01  4.7363E-01  0.0000E+00  0.0000E+00  0.0000E+00  0.0000E+00  2.2972E-01
 99  0.0000E+00  1.6861E-01  0.0000E+00  0.0000E+00  1.3781E-01  2.3942E-01  0.0000E+00  2.0754E-01  0.0000E+00
100  0.0000E+00  2.2668E-01  4.0543E-02  0.0000E+00  4.1873E-01  0.0000E+00  0.0000E+00  9.0229E-03  0.0000E+00
101  0.0000E+00  1.1001E-05  0.0000E+00  2.2153E-05  0.0000E+00  0.0000E+00  0.0000E+00  0.0000E+00  0.0000E+00
102  0.0000E+00  1.1507E-05  0.0000E+00  0.0000E+00  0.0000E+00  0.0000E+00  0.0000E+00  0.0000E+00  0.0000E+00
103  0.0000E+00  1.8895E-05  0.0000E+00  1.1550E-04  0.0000E+00  0.0000E+00  0.0000E+00  6.1068E-05  0.0000E+00
104  0.0000E+00  2.0274E-05  0.0000E+00  1.6849E-05  5.4143E-05  0.0000E+00  8.7670E-05  0.0000E+00  0.0000E+00
105  0.0000E+00  3.8028E-05  0.0000E+00  0.0000E+00  2.8225E-05  0.0000E+00  0.0000E+00  0.0000E+00  0.0000E+00
106  0.0000E+00  5.6190E-05  2.6346E-06  0.0000E+00  0.0000E+00  0.0000E+00  0.0000E+00  0.0000E+00  0.0000E+00
107  0.0000E+00  3.9968E-05  0.0000E+00  0.0000E+00  0.0000E+00  0.0000E+00  0.0000E+00  4.8194E-05  2.6811E-04
108  0.0000E+00  4.2991E-05  0.0000E+00  0.0000E+00  0.0000E+00  0.0000E+00  3.7403E-06  0.0000E+00  0.0000E+00
109  0.0000E+00  4.0950E-05  0.0000E+00  0.0000E+00  0.0000E+00  0.0000E+00  9.8322E-05  0.0000E+00  0.0000E+00
110  0.0000E+00  4.8464E-05  0.0000E+00  0.0000E+00  0.0000E+00  0.0000E+00  0.0000E+00  0.0000E+00  0.0000E+00
111  0.0000E+00  3.8241E-05  2.4102E-04  0.0000E+00  0.0000E+00  0.0000E+00  0.0000E+00  7.1653E-04  0.0000E+00
112  0.0000E+00  5.9992E-05  0.0000E+00  0.0000E+00  0.0000E+00  0.0000E+00  0.0000E+00  0.0000E+00  0.0000E+00
113  0.0000E+00  6.6513E-05  0.0000E+00  0.0000E+00  0.0000E+00  0.0000E+00  0.0000E+00  0.0000E+00  0.0000E+00
114  0.0000E+00  2.2861E-04  0.0000E+00  0.0000E+00  0.0000E+00  0.0000E+00  0.0000E+00  0.0000E+00  0.0000E+00
115  0.0000E+00  2.3096E-03  0.0000E+00  0.0000E+00  0.0000E+00  0.0000E+00  0.0000E+00  0.0000E+00  0.0000E+00
116  0.0000E+00  5.2478E-03  1.5463E-03  0.0000E+00  0.0000E+00  0.0000E+00  2.3594E-02  0.0000E+00  0.0000E+00
117  0.0000E+00  7.0750E-03  5.4432E-03  4.0884E-02  0.0000E+00  0.0000E+00  0.0000E+00  0.0000E+00  0.0000E+00
118  0.0000E+00  4.9193E-02  0.0000E+00  0.0000E+00  0.0000E+00  0.0000E+00  8.0274E-02  5.5304E-02  2.0560E-02
119  0.0000E+00  9.2061E-02  0.0000E+00  0.0000E+00  1.5691E-01  9.9182E-02  4.5880E-02  6.0298E-02  6.2424E-02
120  0.0000E+00  9.8472E-02  0.0000E+00  0.0000E+00  0.0000E+00  5.1605E-01  0.0000E+00  0.0000E+00  0.0000E+00
121  0.0000E+00  9.3102E-02  0.0000E+00  0.0000E+00  0.0000E+00  0.0000E+00  0.0000E+00  0.0000E+00  0.0000E+00
122  0.0000E+00  1.1840E-01  0.0000E+00  0.0000E+00  0.0000E+00  0.0000E+00  0.0000E+00  2.2140E-01  0.0000E+00
123  0.0000E+00  1.6049E-01  1.2925E-02  0.0000E+00  0.0000E+00  6.4971E-01  0.0000E+00  0.0000E+00  6.3876E-02
124  0.0000E+00  1.7819E-01  0.0000E+00  0.0000E+00  0.0000E+00  0.0000E+00  0.0000E+00  0.0000E+00  1.6568E-01
125  0.0000E+00  1.5964E-01  0.0000E+00  0.0000E+00  0.0000E+00  0.0000E+00  8.1485E-02  0.0000E+00  0.0000E+00
126  0.0000E+00  1.4731E-05  0.0000E+00  0.0000E+00  0.0000E+00  0.0000E+00  0.0000E+00  0.0000E+00  0.0000E+00
127  0.0000E+00  6.8980E-06  0.0000E+00  0.0000E+00  0.0000E+00  0.0000E+00  0.0000E+00  0.0000E+00  3.3466E-05
128  0.0000E+00  2.0094E-05  0.0000E+00  0.0000E+00  2.5114E-04  1.7589E-04  0.0000E+00  0.0000E+00  0.0000E+00
129  0.0000E+00  3.5897E-05  2.1177E-04  0.0000E+00  0.0000E+00  0.0000E+00  0.0000E+00  0.0000E+00  0.0000E+00
130  0.0000E+00  3.5287E-05  0.0000E+00  0.0000E+00  7.2519E-05  0.0000E+00  0.0000E+00  0.0000E+00  0.0000E+00
131  0.0000E+00  3.9404E-05  0.0000E+00  0.0000E+00  4.7900E-04  0.0000E+00  0.0000E+00  0.0000E+00  0.0000E+00
132  0.0000E+00  4.8213E-05  0.0000E+00  0.0000E+00  0.0000E+00  0.0000E+00  0.0000E+00  0.0000E+00  1.0492E-04
133  0.0000E+00  2.3129E-05  0.0000E+00  0.0000E+00  0.0000E+00  1.3471E-04  0.0000E+00  0.0000E+00  0.0000E+00
134  0.0000E+00  3.0258E-05  0.0000E+00  0.0000E+00  0.0000E+00  0.0000E+00  0.0000E+00  0.0000E+00  0.0000E+00
135  0.0000E+00  4.2260E-05  0.0000E+00  0.0000E+00  2.1102E-04  0.0000E+00  0.0000E+00  0.0000E+00  0.0000E+00
136  0.0000E+00  5.2646E-05  0.0000E+00  0.0000E+00  0.0000E+00  0.0000E+00  0.0000E+00  0.0000E+00  0.0000E+00
137  0.0000E+00  5.1951E-05  0.0000E+00  0.0000E+00  0.0000E+00  0.0000E+00  0.0000E+00  0.0000E+00  0.0000E+00
138  0.0000E+00  9.2826E-05  0.0000E+00  0.0000E+00  0.0000E+00  2.8865E-04  0.0000E+00  0.0000E+00  0.0000E+00
139  0.0000E+00  5.7522E-04  0.0000E+00  0.0000E+00  0.0000E+00  0.0000E+00  0.0000E+00  0.0000E+00  0.0000E+00
140  0.0000E+00  3.8962E-03  1.3177E-02  0.0000E+00  0.0000E+00  8.5395E-03  0.0000E+00  0.0000E+00  0.0000E+00
141  0.0000E+00  1.1379E-02  0.0000E+00  0.0000E+00  4.9292E-02  0.0000E+00  0.0000E+00  0.0000E+00  0.0000E+00
142  0.0000E+00  1.7942E-02  0.0000E+00  0.0000E+00  5.8487E-03  1.8673E-03  1.2059E-02  0.0000E+00  4.9861E-02
143  0.0000E+00  1.2044E-01  2.1064E-01  4.5743E-02  1.4143E-01  2.9309E-01  1.1469E-01  1.2583E-01  0.0000E+00
144  6.6199E+00  1.1812E+00  1.9820E+00  1.4658E+00  3.2336E+00  2.4651E+00  2.6445E+00  4.1068E+00  1.9995E+00
145  1.8002E+00  1.2116E+00  1.2702E+00  1.6791E+00  5.1769E-01  1.4404E+00  1.7223E+00  1.3794E+00  1.1845E+00
146  2.8792E+00  1.4899E+00  2.0760E+00  2.9381E+00  2.2037E+00  1.5131E+00  2.2252E+00  1.1763E+00  2.6527E+00
147  0.0000E+00  3.3141E-01  4.5565E-01  0.0000E+00  0.0000E+00  0.0000E+00  0.0000E+00  4.1515E-01  8.8355E-01
148  3.2445E-03  1.0714E+00  1.3692E+00  2.3664E+00  3.5060E-01  1.0635E+00  1.6940E+00  1.4026E+00  0.0000E+00
149  0.0000E+00  5.4674E-01  0.0000E+00  0.0000E+00  0.0000E+00  4.8695E-01  0.0000E+00  0.0000E+00  5.4804E-01
150  0.0000E+00  8.3707E-01  0.0000E+00  0.0000E+00  7.4369E-01  1.2154E+00  6.5186E-01  2.8859E-01  1.3742E+00

# AV, chi2 & Mass for <> & i_chain = 1 ...  7 solutions
AV       0.4881      0.4906      0.4895      0.4873      0.4916      0.4882      0.4874      0.4890      0.4905
chi2 2.7887E+00  2.9334E+00  2.8839E+00  2.8840E+00  2.8919E+00  2.8923E+00  2.8648E+00  2.8743E+00  2.8807E+00
Mass 7.7052E-10  7.9517E-10  7.8536E-10  7.9408E-10  7.8311E-10  7.8872E-10  7.8649E-10  7.8193E-10  7.9148E-10
  -3.62                                  [v0_min (km/s) before EX0s...]
  77.01                                  [vd_min (km/s) before EX0s...]


## Synthetic spectrum (Best Model) ##l_obs f_obs f_syn wei
 3070    [Nl_obs]
 3359.00    0.05591   0.37652   -1.000
 3360.00    0.20115   0.34191   -1.000
 3361.00    0.19641   0.33938   -1.000
 3362.00    0.21342   0.36765   -1.000
 3363.00    0.23314   0.40989   -1.000
 3364.00    0.24673   0.44346   -1.000
 3365.00    0.25663   0.45359   -1.000
 3366.00    0.25514   0.44117   -1.000
 3367.00    0.25327   0.41788   -1.000
 3368.00    0.25142   0.39493   -1.000
 3369.00    0.24957   0.37686   -1.000
 3370.00    0.23791   0.36291   -1.000
 3371.00    0.22961   0.35525   -1.000
 3372.00    0.23964   0.36014   -1.000
 3373.00    0.24594   0.38140   -1.000
 3374.00    0.25362   0.41561   -1.000
 3375.00    0.27821   0.45203   -1.000
 3376.00    0.30379   0.47574   -1.000
 3377.00    0.31665   0.47570   -1.000
 3378.00    0.31172   0.45428   -1.000
 3379.00    0.29381   0.42787   -1.000
 3380.00    0.28970   0.41292   -1.000
 3381.00    0.29620   0.41547   -1.000
 3382.00    0.30524   0.43025   -1.000
 3383.00    0.31109   0.44748   -1.000
 3384.00    0.31134   0.46194   -1.000
 3385.00    0.31705   0.47200   -1.000
 3386.00    0.32403   0.47521   -1.000
 3387.00    0.32744   0.47373   -1.000
 3388.00    0.33020   0.47328   -1.000
 3389.00    0.33743   0.47503   -1.000
 3390.00    0.34924   0.47346   -1.000
 3391.00    0.34791   0.46252   -1.000
 3392.00    0.33951   0.44538   -1.000
 3393.00    0.33917   0.43522   -1.000
 3394.00    0.34546   0.44186   -1.000
 3395.00    0.36156   0.46350   -1.000
 3396.00    0.38294   0.49083   -1.000
 3397.00    0.39674   0.51617   -1.000
 3398.00    0.41309   0.53564   -1.000
 3399.00    0.43459   0.54503   -1.000
 3400.00    0.44186   0.54247   -1.000
 3401.00    0.43634   0.53005   -1.000
 3402.00    0.42944   0.51197   -1.000
 3403.00    0.41555   0.49497   -1.000
 3404.00    0.41362   0.48321   -1.000
 3405.00    0.40571   0.47558   -1.000
 3406.00    0.39484   0.46914   -1.000
 3407.00    0.38745   0.46316   -1.000
 3408.00    0.38592   0.46031   -1.000
 3409.00    0.38538   0.46347   -1.000
 3410.00    0.38730   0.47001   -1.000
 3411.00    0.38905   0.47066   -1.000
 3412.00    0.38591   0.45961   -1.000
 3413.00    0.38365   0.44221   -1.000
 3414.00    0.37592   0.43091   -1.000
 3415.00    0.37276   0.43457   -1.000
 3416.00    0.38496   0.45189   -1.000
 3417.00    0.39816   0.47701   -1.000
 3418.00    0.40963   0.50352   -1.000
 3419.00    0.43495   0.52523   -1.000
 3420.00    0.44918   0.53459   -1.000
 3421.00    0.45058   0.52703   -1.000
 3422.00    0.44229   0.50818   -1.000
 3423.00    0.43121   0.49243   -1.000
 3424.00    0.42730   0.48831   -1.000
 3425.00    0.43051   0.49225   -1.000
 3426.00    0.44323   0.49853   -1.000
 3427.00    0.45009   0.50883   -1.000
 3428.00    0.45355   0.52687   -1.000
 3429.00    0.46672   0.54665   -1.000
 3430.00    0.48626   0.55295   -1.000
 3431.00    0.47633   0.53916   -1.000
 3432.00    0.46164   0.51619   -1.000
 3433.00    0.44765   0.50204   -1.000
 3434.00    0.45425   0.50469   -1.000
 3435.00    0.46623   0.51358   -1.000
 3436.00    0.45938   0.51337   -1.000
 3437.00    0.44400   0.49875   -1.000
 3438.00    0.42306   0.47165   -1.000
 3439.00    0.40270   0.43586   -1.000
 3440.00    0.38796   0.39993  206.620
 3441.00    0.37133   0.37451  212.611
 3442.00    0.36568   0.36630  212.535
 3443.00    0.36935   0.37433  209.416
 3444.00    0.37834   0.39218  200.094
 3445.00    0.39760   0.41468  189.070
 3446.00    0.42178   0.44097  179.733
 3447.00    0.43701   0.46957   -1.000
 3448.00    0.45277   0.49689   -1.000
 3449.00    0.47057   0.51740   -1.000
 3450.00    0.48471   0.52291   -1.000
 3451.00    0.48416   0.51210   -1.000
 3452.00    0.47103   0.49743   -1.000
 3453.00    0.47139   0.49193   -1.000
 3454.00    0.47193   0.49668   -1.000
 3455.00    0.48331   0.50208   -1.000
 3456.00    0.48447   0.49761   -1.000
 3457.00    0.47981   0.48168 1181.351
 3458.00    0.46583   0.46078  479.640
 3459.00    0.45690   0.44294  171.530
 3460.00    0.44341   0.43333  172.877
 3461.00    0.44192   0.43665  230.072
 3462.00    0.45206   0.45389 1181.351
 3463.00    0.46764   0.47568   -1.000
 3464.00    0.48838   0.48745 1181.351
 3465.00    0.49669   0.48664   -1.000
 3466.00    0.49650   0.48495   -1.000
 3467.00    0.49578   0.49309   -1.000
 3468.00    0.50426   0.51103   -1.000
 3469.00    0.51708   0.52863   -1.000
 3470.00    0.52754   0.53412   -1.000
 3471.00    0.52844   0.52284   -1.000
 3472.00    0.51458   0.49802   -1.000
 3473.00    0.49182   0.46592   -1.000
 3474.00    0.45937   0.43499   -1.000
 3475.00    0.43526   0.41453   -1.000
 3476.00    0.42518   0.41321  177.687
 3477.00    0.43551   0.43167  233.758
 3478.00    0.46215   0.45965   -1.000
 3479.00    0.48838   0.48484   -1.000
 3480.00    0.51464   0.50011   -1.000
 3481.00    0.52135   0.50283   -1.000
 3482.00    0.51714   0.49543   -1.000
 3483.00    0.51396   0.48602   -1.000
 3484.00    0.51171   0.48490   -1.000
 3485.00    0.52364   0.49727   -1.000
 3486.00    0.53679   0.51488   -1.000
 3487.00    0.55210   0.52184   -1.000
 3488.00    0.54564   0.50913   -1.000
 3489.00    0.51361   0.48306   -1.000
 3490.00    0.47852   0.45920   -1.000
 3491.00    0.46037   0.44926   -1.000
 3492.00    0.46308   0.45342   -1.000
 3493.00    0.48278   0.46282   -1.000
 3494.00    0.49366   0.46735   -1.000
 3495.00    0.48860   0.46283   -1.000
 3496.00    0.48157   0.45663   -1.000
 3497.00    0.48595   0.46232   -1.000
 3498.00    0.50000   0.48419   -1.000
 3499.00    0.52700   0.51212   -1.000
 3500.00    0.54896   0.53315   -1.000
 3501.00    0.55745   0.54570   -1.000
 3502.00    0.57122   0.55435   -1.000
 3503.00    0.58073   0.55768   -1.000
 3504.00    0.57797   0.55198   -1.000
 3505.00    0.56439   0.53922   -1.000
 3506.00    0.55924   0.52710   -1.000
 3507.00    0.56055   0.52151   -1.000
 3508.00    0.55934   0.51888   -1.000
 3509.00    0.55134   0.51227   -1.000
 3510.00    0.53415   0.50117   -1.000
 3511.00    0.52284   0.48794   -1.000
 3512.00    0.50890   0.47338   -1.000
 3513.00    0.49365   0.46094   -1.000
 3514.00    0.48963   0.46045   -1.000
 3515.00    0.49849   0.48086   -1.000
 3516.00    0.52468   0.51686   -1.000
 3517.00    0.55987   0.54909   -1.000
 3518.00    0.57538   0.55993   -1.000
 3519.00    0.56849   0.54617   -1.000
 3520.00    0.53779   0.51919   -1.000
 3521.00    0.50744   0.49106   -1.000
 3522.00    0.49129   0.46627   -1.000
 3523.00    0.46587   0.44310   -1.000
 3524.00    0.45502   0.42248   -1.000
 3525.00    0.44653   0.41349   -1.000
 3526.00    0.44826   0.42597   -1.000
 3527.00    0.46814   0.45801   -1.000
 3528.00    0.49915   0.49676   -1.000
 3529.00    0.52888   0.52629   -1.000
 3530.00    0.54939   0.53804   -1.000
 3531.00    0.54576   0.53539   -1.000
 3532.00    0.53626   0.53051   -1.000
 3533.00    0.54116   0.53276   -1.000
 3534.00    0.55381   0.54133   -1.000
 3535.00    0.56375   0.55065   -1.000
 3536.00    0.55955   0.55896 1181.351
 3537.00    0.56762   0.56927   -1.000
 3538.00    0.56971   0.58184   -1.000
 3539.00    0.57617   0.58977   -1.000
 3540.00    0.57160   0.58736   -1.000
 3541.00    0.56502   0.57901   -1.000
 3542.00    0.56149   0.57484   -1.000
 3543.00    0.56502   0.57937   -1.000
 3544.00    0.56367   0.58706   -1.000
 3545.00    0.55951   0.58996   -1.000
 3546.00    0.55937   0.58573   -1.000
 3547.00    0.55618   0.57889   -1.000
 3548.00    0.55013   0.57549   -1.000
 3549.00    0.55202   0.57664   -1.000
 3550.00    0.55227   0.57714   -1.000
 3551.00    0.54529   0.57071   -1.000
 3552.00    0.53338   0.55643   -1.000
 3553.00    0.52534   0.54082   -1.000
 3554.00    0.51642   0.53293   -1.000
 3555.00    0.51207   0.53552   -1.000
 3556.00    0.51845   0.54214   -1.000
 3557.00    0.52753   0.54547   -1.000
 3558.00    0.52099   0.54403   -1.000
 3559.00    0.51125   0.54270   -1.000
 3560.00    0.51063   0.54726   -1.000
 3561.00    0.51767   0.55731   -1.000
 3562.00    0.52692   0.56228   -1.000
 3563.00    0.52941   0.54728   -1.000
 3564.00    0.50862   0.51038  469.680
 3565.00    0.47073   0.46911  174.553
 3566.00    0.44157   0.44485  179.021
 3567.00    0.43444   0.43953  177.195
 3568.00    0.43731   0.43751  178.244
 3569.00    0.42775   0.42960  183.596
 3570.00    0.41796   0.42274  184.202
 3571.00    0.43159   0.42633  177.596
 3572.00    0.44938   0.44041  232.454
 3573.00    0.46556   0.45680   -1.000
 3574.00    0.47988   0.46960   -1.000
 3575.00    0.48491   0.47839   -1.000
 3576.00    0.48832   0.48243   -1.000
 3577.00    0.48000   0.47761   -1.000
 3578.00    0.47053   0.46083   -1.000
 3579.00    0.44811   0.43319   -1.000
 3580.00    0.41673   0.40332   -1.000
 3581.00    0.39224   0.38300  203.513
 3582.00    0.38178   0.37856  204.609
 3583.00    0.38884   0.38245  206.709
 3584.00    0.38658   0.38086  212.449
 3585.00    0.37399   0.37158  218.315
 3586.00    0.36364   0.36440  217.033
 3587.00    0.37291   0.36993  205.751
 3588.00    0.39223   0.39209  195.083
 3589.00    0.41304   0.42729  183.122
 3590.00    0.44669   0.46617   -1.000
 3591.00    0.48567   0.49718   -1.000
 3592.00    0.51221   0.51344 1181.351
 3593.00    0.51778   0.52021 1181.351
 3594.00    0.52058   0.52999   -1.000
 3595.00    0.53550   0.54901   -1.000
 3596.00    0.55471   0.57218   -1.000
 3597.00    0.57352   0.59086   -1.000
 3598.00    0.58906   0.60295   -1.000
 3599.00    0.60414   0.60873   -1.000
 3600.00    0.60828   0.60303   -1.000
 3601.00    0.59321   0.58139   -1.000
 3602.00    0.56988   0.55000   -1.000
 3603.00    0.53630   0.52094   -1.000
 3604.00    0.51187   0.50335   -1.000
 3605.00    0.50717   0.49706   -1.000
 3606.00    0.51182   0.49324   -1.000
 3607.00    0.50883   0.48311   -1.000
 3608.00    0.50023   0.46837   -1.000
 3609.00    0.47760   0.46067   -1.000
 3610.00    0.47238   0.46821   -1.000
 3611.00    0.48993   0.48718   -1.000
 3612.00    0.51192   0.50693   -1.000
 3613.00    0.52584   0.52411 1181.351
 3614.00    0.53188   0.54106   -1.000
 3615.00    0.54852   0.55205 1181.351
 3616.00    0.55435   0.54293   -1.000
 3617.00    0.52821   0.50998   -1.000
 3618.00    0.47920   0.47087   -1.000
 3619.00    0.45743   0.45401  230.626
 3620.00    0.47636   0.47156   -1.000
 3621.00    0.52039   0.51116   -1.000
 3622.00    0.55936   0.55070   -1.000
 3623.00    0.57645   0.57945   -1.000
 3624.00    0.57599   0.60374   -1.000
 3625.00    0.58396   0.63227   -1.000
 3626.00    0.62628   0.66103   -1.000
 3627.00    0.64898   0.67581   -1.000
 3628.00    0.63493   0.66206   -1.000
 3629.00    0.59841   0.61681   -1.000
 3630.00    0.54712   0.55590   -1.000
 3631.00    0.49982   0.50831   -1.000
 3632.00    0.47941   0.49193   -1.000
 3633.00    0.49408   0.50292   -1.000
 3634.00    0.51002   0.52538   -1.000
 3635.00    0.52736   0.54716   -1.000
 3636.00    0.55121   0.56651   -1.000
 3637.00    0.57676   0.58828   -1.000
 3638.00    0.59569   0.61363   -1.000
 3639.00    0.61639   0.63533   -1.000
 3640.00    0.62992   0.64409   -1.000
 3641.00    0.61856   0.63544   -1.000
 3642.00    0.59720   0.61320   -1.000
 3643.00    0.57236   0.58622   -1.000
 3644.00    0.54781   0.56133   -1.000
 3645.00    0.53765   0.54057 1181.351
 3646.00    0.53248   0.52378   -1.000
 3647.00    0.51675   0.51286   -1.000
 3648.00    0.51464   0.51282   -1.000
 3649.00    0.52523   0.52631 1181.351
 3650.00    0.54797   0.55225   -1.000
 3651.00    0.57467   0.58517   -1.000
 3652.00    0.60112   0.61694   -1.000
 3653.00    0.61983   0.64029   -1.000
 3654.00    0.62934   0.65500   -1.000
 3655.00    0.63800   0.66633   -1.000
 3656.00    0.64586   0.67915   -1.000
 3657.00    0.65743   0.69321   -1.000
 3658.00    0.67216   0.70383   -1.000
 3659.00    0.67567   0.70809   -1.000
 3660.00    0.67691   0.70457   -1.000
 3661.00    0.67695   0.69262   -1.000
 3662.00    0.65743   0.67569   -1.000
 3663.00    0.64419   0.66203   -1.000
 3664.00    0.63702   0.65692   -1.000
 3665.00    0.63542   0.65769   -1.000
 3666.00    0.63857   0.65657   -1.000
 3667.00    0.63536   0.64787   -1.000
 3668.00    0.62257   0.63411   -1.000
 3669.00    0.60943   0.62527   -1.000
 3670.00    0.61026   0.63062   -1.000
 3671.00    0.62934   0.64809   -1.000
 3672.00    0.65199   0.66628   -1.000
 3673.00    0.66271   0.67647   -1.000
 3674.00    0.65721   0.67622   -1.000
 3675.00    0.65247   0.66486   -1.000
 3676.00    0.64282   0.64327 1181.351
 3677.00    0.61395   0.61650   -1.000
 3678.00    0.58925   0.59219   -1.000
 3679.00    0.58163   0.57789 1181.351
 3680.00    0.58222   0.57815   -1.000
 3681.00    0.59656   0.59059   -1.000
 3682.00    0.61263   0.60608   -1.000
 3683.00    0.61627   0.61357 1181.351
 3684.00    0.61739   0.60531   -1.000
 3685.00    0.59660   0.58287   -1.000
 3686.00    0.56952   0.55871   -1.000
 3687.00    0.55414   0.54984   -1.000
 3688.00    0.56786   0.56522   -1.000
 3689.00    0.59355   0.60065   -1.000
 3690.00    0.62573   0.64055   -1.000
 3691.00    0.65143   0.66761   -1.000
 3692.00    0.66092   0.67287   -1.000
 3693.00    0.65569   0.66210   -1.000
 3694.00    0.64205   0.64946   -1.000
 3695.00    0.63982   0.64408   -1.000
 3696.00    0.64365   0.64828   -1.000
 3697.00    0.65475   0.66250   -1.000
 3698.00    0.67876   0.68492   -1.000
 3699.00    0.70421   0.70642   -1.000
 3700.00    0.71894   0.71495 1121.089
 3701.00    0.70879   0.70087   -1.000
 3702.00    0.67396   0.66161   -1.000
 3703.00    0.61969   0.60559   -1.000
 3704.00    0.56342   0.55149   -1.000
 3705.00    0.53774   0.51539   -1.000
 3706.00    0.53401   0.50247   -1.000
 3707.00    0.53986   0.50650   -1.000
 3708.00    0.54983   0.51943   -1.000
 3709.00    0.56078   0.53917   -1.000
 3710.00    0.58245   0.56683   -1.000
 3711.00    0.61121   0.60200   -1.000
 3712.00    0.65242   0.64146   -1.000
 3713.00    0.69046   0.67743   -1.000
 3714.00    0.71449   0.69976   -1.000
 3715.00    0.72073   0.70232   -1.000
 3716.00    0.70565   0.68487   -1.000
 3717.00    0.67587   0.64687   -1.000
 3718.00    0.62323   0.58796   -1.000
 3719.00    0.55522   0.51770   -1.000
 3720.00    0.49070   0.45807   -1.000
 3721.00    0.46131   0.43347   -1.000
 3722.00    0.47907   0.45239   -1.000
 3723.00    0.53385   0.50258   -1.000
 3724.00    0.59677   0.55994   -1.000
 3725.00    0.63585   0.59921   -1.000
 3726.00    0.63883   0.61027   -1.000
 3727.00    0.61883   0.60516   -1.000
 3728.00    0.60936   0.60123   -1.000
 3729.00    0.61474   0.60076   -1.000
 3730.00    0.61497   0.59140   -1.000
 3731.00    0.58850   0.55999   -1.000
 3732.00    0.54589   0.50547   -1.000
 3733.00    0.48673   0.44336   -1.000
 3734.00    0.43215   0.39389   -1.000
 3735.00    0.40601   0.37306   -1.000
 3736.00    0.41432   0.38776   -1.000
 3737.00    0.45126   0.43384   -1.000
 3738.00    0.50587   0.49701   -1.000
 3739.00    0.57157   0.55891   -1.000
 3740.00    0.61107   0.60034   -1.000
 3741.00    0.62035   0.60994   -1.000
 3742.00    0.60720   0.58972   -1.000
 3743.00    0.58013   0.55367   -1.000
 3744.00    0.54521   0.51639   -1.000
 3745.00    0.51065   0.48589   -1.000
 3746.00    0.48883   0.45984   -1.000
 3747.00    0.46709   0.43267   -1.000
 3748.00    0.44021   0.40915   -1.000
 3749.00    0.42739   0.40466   -1.000
 3750.00    0.45473   0.43136   -1.000
 3751.00    0.51680   0.48643   -1.000
 3752.00    0.58110   0.55329   -1.000
 3753.00    0.63907   0.61546   -1.000
 3754.00    0.68385   0.65908   -1.000
 3755.00    0.69851   0.66993   -1.000
 3756.00    0.67477   0.64286   -1.000
 3757.00    0.61339   0.59213   -1.000
 3758.00    0.55259   0.54629   -1.000
 3759.00    0.52962   0.52806 1181.351
 3760.00    0.54870   0.53627   -1.000
 3761.00    0.58223   0.55378   -1.000
 3762.00    0.59983   0.56603   -1.000
 3763.00    0.60217   0.57092   -1.000
 3764.00    0.60417   0.57189   -1.000
 3765.00    0.60982   0.56881   -1.000
 3766.00    0.60233   0.56187   -1.000
 3767.00    0.59230   0.55580   -1.000
 3768.00    0.59209   0.55367   -1.000
 3769.00    0.59652   0.55503   -1.000
 3770.00    0.59917   0.56188   -1.000
 3771.00    0.61107   0.57998   -1.000
 3772.00    0.63493   0.60758   -1.000
 3773.00    0.66593   0.63429   -1.000
 3774.00    0.68241   0.65168   -1.000
 3775.00    0.68572   0.66004   -1.000
 3776.00    0.68644   0.66601   -1.000
 3777.00    0.68514   0.67577   -1.000
 3778.00    0.69092   0.69139 1143.617
 3779.00    0.70489   0.71055   -1.000
 3780.00    0.72873   0.72848 1088.618
 3781.00    0.74175   0.74092 1081.783
 3782.00    0.73761   0.74670   -1.000
 3783.00    0.73946   0.74393   -1.000
 3784.00    0.72820   0.72654 1121.405
 3785.00    0.70211   0.69236   -1.000
 3786.00    0.65711   0.65034   -1.000
 3787.00    0.62278   0.61354   -1.000
 3788.00    0.60523   0.59105   -1.000
 3789.00    0.59638   0.58556   -1.000
 3790.00    0.60073   0.59148   -1.000
 3791.00    0.61300   0.59745   -1.000
 3792.00    0.61580   0.59321   -1.000
 3793.00    0.60252   0.57605   -1.000
 3794.00    0.57642   0.55203   -1.000
 3795.00    0.55203   0.52684   -1.000
 3796.00    0.53173   0.50119   -1.000
 3797.00    0.50953   0.47793   -1.000
 3798.00    0.49522   0.46960   -1.000
 3799.00    0.51533   0.48905   -1.000
 3800.00    0.56069   0.53463   -1.000
 3801.00    0.60575   0.59038   -1.000
 3802.00    0.64108   0.63926 1181.351
 3803.00    0.66597   0.67054   -1.000
 3804.00    0.67915   0.68035   -1.000
 3805.00    0.67241   0.67101 1181.351
 3806.00    0.64728   0.65463   -1.000
 3807.00    0.62944   0.64725   -1.000
 3808.00    0.63776   0.65660   -1.000
 3809.00    0.66202   0.67584   -1.000
 3810.00    0.67749   0.68874   -1.000
 3811.00    0.67409   0.68145   -1.000
 3812.00    0.65174   0.65153 1181.351
 3813.00    0.61077   0.60935 1181.351
 3814.00    0.57230   0.57075 1181.351
 3815.00    0.54305   0.54939   -1.000
 3816.00    0.54216   0.54806   -1.000
 3817.00    0.56565   0.55425   -1.000
 3818.00    0.56687   0.54964   -1.000
 3819.00    0.52905   0.52951 1181.351
 3820.00    0.49958   0.51043   -1.000
 3821.00    0.50099   0.50743   -1.000
 3822.00    0.52167   0.51456   -1.000
 3823.00    0.53037   0.51265   -1.000
 3824.00    0.49967   0.49291   -1.000
 3825.00    0.45978   0.46649  179.655
 3826.00    0.44450   0.44819  181.750
 3827.00    0.44651   0.44318  179.654
 3828.00    0.45550   0.44791  176.707
 3829.00    0.45827   0.45440  175.416
 3830.00    0.45696   0.45250  179.509
 3831.00    0.44362   0.43651  189.741
 3832.00    0.41180   0.41094  202.199
 3833.00    0.39458   0.38732  204.923
 3834.00    0.39644   0.37668   -1.000
 3835.00    0.41105   0.37964   -1.000
 3836.00    0.42055   0.38885   -1.000
 3837.00    0.41686   0.39612   -1.000
 3838.00    0.40939   0.40063  197.323
 3839.00    0.41053   0.41085  191.070
 3840.00    0.43102   0.43685  254.043
 3841.00    0.47685   0.48025 1181.351
 3842.00    0.52637   0.53037   -1.000
 3843.00    0.56864   0.57271   -1.000
 3844.00    0.58221   0.59875   -1.000
 3845.00    0.58305   0.61144   -1.000
 3846.00    0.58746   0.61827   -1.000
 3847.00    0.59552   0.62083   -1.000
 3848.00    0.58680   0.61605   -1.000
 3849.00    0.56554   0.60725   -1.000
 3850.00    0.55582   0.60376   -1.000
 3851.00    0.56293   0.61054   -1.000
 3852.00    0.57245   0.62116   -1.000
 3853.00    0.57532   0.62454   -1.000
 3854.00    0.56808   0.61629   -1.000
 3855.00    0.55191   0.60019   -1.000
 3856.00    0.54000   0.58099   -1.000
 3857.00    0.51871   0.55873   -1.000
 3858.00    0.49388   0.53549   -1.000
 3859.00    0.47130   0.52225   -1.000
 3860.00    0.47115   0.53169   -1.000
 3861.00    0.51042   0.56416   -1.000
 3862.00    0.56359   0.60349   -1.000
 3863.00    0.59720   0.62944   -1.000
 3864.00    0.60770   0.63517   -1.000
 3865.00    0.60238   0.62966   -1.000
 3866.00    0.59054   0.62334   -1.000
 3867.00    0.57971   0.61830   -1.000
 3868.00    0.56111   0.60992   -1.000
 3869.00    0.53877   0.59394   -1.000
 3870.00    0.51242   0.57122   -1.000
 3871.00    0.49239   0.55070   -1.000
 3872.00    0.50002   0.54429   -1.000
 3873.00    0.53364   0.55960   -1.000
 3874.00    0.57779   0.58858   -1.000
 3875.00    0.60795   0.60974 1181.351
 3876.00    0.60332   0.60649 1181.351
 3877.00    0.56936   0.58464   -1.000
 3878.00    0.53517   0.56494   -1.000
 3879.00    0.52327   0.55892   -1.000
 3880.00    0.52426   0.56212   -1.000
 3881.00    0.51273   0.56716   -1.000
 3882.00    0.51351   0.57160   -1.000
 3883.00    0.54847   0.57484   -1.000
 3884.00    0.58835   0.56894   -1.000
 3885.00    0.58818   0.54675   -1.000
 3886.00    0.56419   0.51481   -1.000
 3887.00    0.55445   0.48852   -1.000
 3888.00    0.55327   0.48198   -1.000
 3889.00    0.56292   0.50138   -1.000
 3890.00    0.60194   0.54289   -1.000
 3891.00    0.65678   0.59272   -1.000
 3892.00    0.69110   0.63173   -1.000
 3893.00    0.70066   0.64941   -1.000
 3894.00    0.69659   0.65275   -1.000
 3895.00    0.69673   0.65590   -1.000
 3896.00    0.70684   0.66437   -1.000
 3897.00    0.71889   0.67308   -1.000
 3898.00    0.72012   0.67694   -1.000
 3899.00    0.71035   0.67762   -1.000
 3900.00    0.71076   0.67966   -1.000
 3901.00    0.72081   0.68240   -1.000
 3902.00    0.71263   0.68008   -1.000
 3903.00    0.69833   0.66924   -1.000
 3904.00    0.68576   0.65319   -1.000
 3905.00    0.65695   0.64265   -1.000
 3906.00    0.65279   0.64931 1181.351
 3907.00    0.69663   0.67506   -1.000
 3908.00    0.73569   0.70896   -1.000
 3909.00    0.76380   0.73804   -1.000
 3910.00    0.78418   0.75728   -1.000
 3911.00    0.78903   0.76824   -1.000
 3912.00    0.78925   0.77161   -1.000
 3913.00    0.77726   0.76709   -1.000
 3914.00    0.76589   0.75651   -1.000
 3915.00    0.75657   0.74435   -1.000
 3916.00    0.74638   0.73255   -1.000
 3917.00    0.73062   0.71842   -1.000
 3918.00    0.71901   0.69810   -1.000
 3919.00    0.69201   0.67164   -1.000
 3920.00    0.65580   0.64670   -1.000
 3921.00    0.63144   0.63293   -1.000
 3922.00    0.63384   0.63315 1181.351
 3923.00    0.64842   0.63912   -1.000
 3924.00    0.64370   0.63772   -1.000
 3925.00    0.62000   0.61957 1181.351
 3926.00    0.58185   0.58177 1181.351
 3927.00    0.52265   0.52906  474.793
 3928.00    0.45478   0.46945  198.303
 3929.00    0.39962   0.40953  232.388
 3930.00    0.34198   0.35137  272.789
 3931.00    0.28562   0.29553  321.832
 3932.00    0.24178   0.24806  368.793
 3933.00    0.21456   0.22029  386.013
 3934.00    0.21849   0.22139  356.918
 3935.00    0.24843   0.25249  304.050
 3936.00    0.29781   0.30624  250.627
 3937.00    0.35856   0.37189  207.548
 3938.00    0.42155   0.43917   -1.000
 3939.00    0.48148   0.49794   -1.000
 3940.00    0.52561   0.54149   -1.000
 3941.00    0.54903   0.56706   -1.000
 3942.00    0.55802   0.57858   -1.000
 3943.00    0.56187   0.58839   -1.000
 3944.00    0.57855   0.60770   -1.000
 3945.00    0.61943   0.63649   -1.000
 3946.00    0.66834   0.66459 1171.674
 3947.00    0.69372   0.68421   -1.000
 3948.00    0.70723   0.69829   -1.000
 3949.00    0.72720   0.71288   -1.000
 3950.00    0.75266   0.72629   -1.000
 3951.00    0.76041   0.73306   -1.000
 3952.00    0.74775   0.73595   -1.000
 3953.00    0.75455   0.74099   -1.000
 3954.00    0.77339   0.74541   -1.000
 3955.00    0.77091   0.74306   -1.000
 3956.00    0.74546   0.73482   -1.000
 3957.00    0.73631   0.72703   -1.000
 3958.00    0.74040   0.71978   -1.000
 3959.00    0.73013   0.70018   -1.000
 3960.00    0.68118   0.65723   -1.000
 3961.00    0.60652   0.60058   -1.000
 3962.00    0.54229   0.54774   -1.000
 3963.00    0.50405   0.50469  449.141
 3964.00    0.46325   0.46209  186.732
 3965.00    0.40583   0.40744  222.503
 3966.00    0.33887   0.34177  274.118
 3967.00    0.27508   0.28060  325.354
 3968.00    0.23656   0.24414  339.280
 3969.00    0.24034   0.24419  301.365
 3970.00    0.28350   0.27937  247.816
 3971.00    0.34546   0.33847  204.946
 3972.00    0.41271   0.40812  255.239
 3973.00    0.48478   0.47862   -1.000
 3974.00    0.55536   0.54488   -1.000
 3975.00    0.61864   0.60465  121.893
 3976.00    0.67900   0.65892  113.179
 3977.00    0.73068   0.70944  106.794
 3978.00    0.77477   0.75504  101.144
 3979.00    0.81890   0.79043   97.104
 3980.00    0.84438   0.80931   -1.000
 3981.00    0.84564   0.81232   97.727
 3982.00    0.83028   0.80810   98.782
 3983.00    0.82285   0.80829   97.564
 3984.00    0.84117   0.81878   95.538
 3985.00    0.85884   0.83616   93.769
 3986.00    0.87426   0.85507   92.162
 3987.00    0.89307   0.87179   90.681
 3988.00    0.90692   0.88274   90.229
 3989.00    0.91082   0.88841   90.283
 3990.00    0.90837   0.89414   89.172
 3991.00    0.92041   0.90391   87.034
 3992.00    0.94050   0.91535   85.964
 3993.00    0.94622   0.92106   87.412
 3994.00    0.93803   0.91481   89.522
 3995.00    0.91491   0.89809   91.469
 3996.00    0.88473   0.88147   92.890
 3997.00    0.87476   0.87752   92.672
 3998.00    0.89111   0.89130   89.767
 3999.00    0.92542   0.91703   85.958
 4000.00    0.95994   0.94302   83.586
 4001.00    0.98210   0.96029   82.327
 4002.00    0.99949   0.96184   82.082
 4003.00    0.99093   0.94254   -1.000
 4004.00    0.93790   0.90716   90.520
 4005.00    0.88133   0.87675   93.360
 4006.00    0.87105   0.87285   90.883
 4007.00    0.90965   0.89715   86.090
 4008.00    0.95492   0.93234   83.485
 4009.00    0.98410   0.96058   82.496
 4010.00    0.99832   0.97637   81.815
 4011.00    1.00370   0.98271   81.844
 4012.00    0.99940   0.98545   82.406
 4013.00    1.00254   0.98932   82.491
 4014.00    1.00772   0.99420   81.659
 4015.00    1.00951   0.99659   81.108
 4016.00    1.00245   0.99543   81.955
 4017.00    0.99598   0.99476   82.504
 4018.00    0.99463   0.99874   81.773
 4019.00    1.00682   1.00563   80.974
 4020.00    1.01114   1.01010   81.536
 4021.00    1.00535   1.00866   82.520
 4022.00    1.00462   1.00214   83.007
 4023.00    0.99430   0.99409   83.589
 4024.00    0.98572   0.99065   83.308
 4025.00    0.99722   0.99879   80.863
 4026.00    1.02975   1.01852   78.378
 4027.00    1.05947   1.03640   77.588
 4028.00    1.06001   1.03321   79.170
 4029.00    1.02096   1.00066   83.221
 4030.00    0.95932   0.95072   88.286
 4031.00    0.91499   0.90577   91.066
 4032.00    0.90061   0.88226   91.335
 4033.00    0.90902   0.88538   89.492
 4034.00    0.93733   0.91283   85.992
 4035.00    0.97483   0.95793   81.702
 4036.00    1.02144   1.00832   78.067
 4037.00    1.06460   1.04839   76.174
 4038.00    1.08796   1.06611   76.578
 4039.00    1.07423   1.06181   78.325
 4040.00    1.04537   1.04677   79.863
 4041.00    1.03654   1.02963   80.547
 4042.00    1.03139   1.00296   82.083
 4043.00    0.99144   0.95372   87.461
 4044.00    0.91292   0.89002   95.598
 4045.00    0.83707   0.84599   99.020
 4046.00    0.84015   0.85220   92.701
 4047.00    0.91776   0.90437   84.756
 4048.00    0.99577   0.97012   80.609
 4049.00    1.03666   1.01982   78.825
 4050.00    1.05431   1.04238   78.434
 4051.00    1.04639   1.04188   79.552
 4052.00    1.02166   1.02634   81.746
 4053.00    1.00000   1.00405   83.578
 4054.00    0.98417   0.98255   84.644
 4055.00    0.96451   0.96509   85.270
 4056.00    0.95619   0.95234   85.954
 4057.00    0.94575   0.94815   86.206
 4058.00    0.94998   0.95837   84.403
 4059.00    0.98237   0.97883   81.764
 4060.00    1.01634   0.99057   81.193
 4061.00    1.01516   0.97359   84.159
 4062.00    0.95699   0.93044   90.376
 4063.00    0.89126   0.88991   94.004
 4064.00    0.87765   0.87589   91.250
 4065.00    0.90539   0.88820   87.458
 4066.00    0.93806   0.91398   85.291
 4067.00    0.97192   0.94258   82.817
 4068.00    1.01028   0.96509   -1.000
 4069.00    1.03199   0.97077   -1.000
 4070.00    1.00759   0.95584   -1.000
 4071.00    0.96217   0.93555   86.960
 4072.00    0.94835   0.93073   85.326
 4073.00    0.97391   0.94095   83.036
 4074.00    0.99618   0.94435   -1.000
 4075.00    0.96440   0.92379   -1.000
 4076.00    0.90571   0.88864   95.471
 4077.00    0.85721   0.86698   96.133
 4078.00    0.86761   0.87928   91.589
 4079.00    0.92480   0.92336   85.203
 4080.00    0.98712   0.97508   80.469
 4081.00    1.03194   1.00792   79.382
 4082.00    1.02608   1.01114   81.284
 4083.00    0.99963   0.99522   83.595
 4084.00    0.97575   0.98191   83.964
 4085.00    0.97838   0.98780   82.095
 4086.00    1.01596   1.01430   79.140
 4087.00    1.06088   1.04851   76.256
 4088.00    1.09297   1.07432   74.769
 4089.00    1.10517   1.08222   75.585
 4090.00    1.08959   1.07376   77.136
 4091.00    1.06224   1.05855   78.381
 4092.00    1.04898   1.04446   78.972
 4093.00    1.05193   1.02994   79.496
 4094.00    1.03886   1.00901   81.739
 4095.00    1.00061   0.98034   85.227
 4096.00    0.96590   0.94972   87.291
 4097.00    0.94783   0.92207   88.141
 4098.00    0.92732   0.89114   90.760
 4099.00    0.89358   0.84753   -1.000
 4100.00    0.83026   0.79705  105.408
 4101.00    0.77106   0.76223  109.377
 4102.00    0.76562   0.76415  104.354
 4103.00    0.81745   0.80557   95.637
 4104.00    0.89106   0.86723   89.013
 4105.00    0.94982   0.92476   84.995
 4106.00    0.99256   0.96437   83.194
 4107.00    1.00263   0.98335   83.248
 4108.00    0.99829   0.98579   84.362
 4109.00    0.98353   0.98058   85.903
 4110.00    0.96890   0.97743   86.349
 4111.00    0.96397   0.98322   84.907
 4112.00    0.98276   0.99879   83.122
 4113.00    1.00984   1.01984   81.757
 4114.00    1.02825   1.03914   80.662
 4115.00    1.03619   1.04963   80.295
 4116.00    1.03863   1.04639   81.175
 4117.00    1.02530   1.03036   83.296
 4118.00    0.99963   1.01024   85.518
 4119.00    0.97955   0.99717   85.749
 4120.00    0.98486   0.99582   84.689
 4121.00    0.99486   1.00186   84.150
 4122.00    0.99496   1.00995   83.914
 4123.00    1.00108   1.01892   82.777
 4124.00    1.01604   1.02747   81.703
 4125.00    1.02884   1.03122   81.932
 4126.00    1.02832   1.02611   83.308
 4127.00    1.00942   1.01432   84.747
 4128.00    0.98651   1.00194   85.325
 4129.00    0.97909   0.99038   85.973
 4130.00    0.96684   0.97463   87.637
 4131.00    0.94726   0.95387   90.460
 4132.00    0.92908   0.93747   92.414
 4133.00    0.91720   0.93856   91.422
 4134.00    0.93040   0.96161   -1.000
 4135.00    0.97084   0.99823   83.823
 4136.00    1.01135   1.03508   81.613
 4137.00    1.03245   1.06385   80.341
 4138.00    1.05125   1.08118   79.413
 4139.00    1.06491   1.08323   79.793
 4140.00    1.05317   1.06322   82.359
 4141.00    1.01177   1.01928   87.670
 4142.00    0.93925   0.96597   -1.000
 4143.00    0.88371   0.93171   -1.000
 4144.00    0.89014   0.93492   -1.000
 4145.00    0.94450   0.96830   86.779
 4146.00    0.99545   1.00658   84.407
 4147.00    1.00634   1.02824   84.445
 4148.00    0.99379   1.02985   -1.000
 4149.00    0.98026   1.02150   -1.000
 4150.00    0.96825   1.01360   -1.000
 4151.00    0.96338   1.00858   -1.000
 4152.00    0.96326   1.00297   -1.000
 4153.00    0.95718   0.99467   -1.000
 4154.00    0.94803   0.98715   -1.000
 4155.00    0.94121   0.98635   -1.000
 4156.00    0.97008   0.99573   87.532
 4157.00    0.99952   1.01399   86.929
 4158.00    0.96863   1.03643   -1.000
 4159.00    0.96550   1.05783   -1.000
 4160.00    0.99931   1.07506   -1.000
 4161.00    1.01166   1.08776   -1.000
 4162.00    1.03904   1.09614   -1.000
 4163.00    1.04963   1.09842   -1.000
 4164.00    1.03574   1.09205   -1.000
 4165.00    1.01384   1.07729   -1.000
 4166.00    0.98721   1.05967   -1.000
 4167.00    0.97916   1.04830   -1.000
 4168.00    0.98661   1.04594   -1.000
 4169.00    0.99748   1.04293   -1.000
 4170.00    0.99500   1.02509   -1.000
 4171.00    0.95958   0.99027   -1.000
 4172.00    0.90568   0.95544   -1.000
 4173.00    0.87636   0.94060   -1.000
 4174.00    0.89387   0.94981   -1.000
 4175.00    0.93151   0.96976   -1.000
 4176.00    0.94471   0.98623   -1.000
 4177.00    0.93803   0.99718   -1.000
 4178.00    0.93750   1.00743   -1.000
 4179.00    0.95355   1.01772   -1.000
 4180.00    0.96654   1.02364   -1.000
 4181.00    0.96294   1.02413   -1.000
 4182.00    0.96638   1.02628   -1.000
 4183.00    0.97721   1.03610   -1.000
 4184.00    1.00593   1.04707   -1.000
 4185.00    1.01857   1.04720   85.132
 4186.00    0.99374   1.03420   -1.000
 4187.00    0.95975   1.02018   -1.000
 4188.00    0.94995   1.01745   -1.000
 4189.00    0.97361   1.02527   -1.000
 4190.00    0.99338   1.03710   -1.000
 4191.00    0.99714   1.05065   -1.000
 4192.00    1.01463   1.06360   -1.000
 4193.00    1.03329   1.06808   -1.000
 4194.00    1.02158   1.05458   -1.000
 4195.00    0.98110   1.02339   -1.000
 4196.00    0.93856   0.98767   -1.000
 4197.00    0.92120   0.96131   -1.000
 4198.00    0.91563   0.94909   -1.000
 4199.00    0.92280   0.94727   92.116
 4200.00    0.93633   0.95082   91.059
 4201.00    0.94210   0.95741   90.727
 4202.00    0.94176   0.96860   -1.000
 4203.00    0.95123   0.98761   -1.000
 4204.00    0.96842   1.01332   -1.000
 4205.00    0.98808   1.04077   -1.000
 4206.00    1.00854   1.06586   -1.000
 4207.00    1.03351   1.08500   -1.000
 4208.00    1.04842   1.09436   -1.000
 4209.00    1.04945   1.09505   -1.000
 4210.00    1.04667   1.09335   -1.000
 4211.00    1.04469   1.09296   -1.000
 4212.00    1.04484   1.08817   -1.000
 4213.00    1.02459   1.07007   -1.000
 4214.00    0.97762   1.04264   -1.000
 4215.00    0.94212   1.02406   -1.000
 4216.00    0.95628   1.03115   -1.000
 4217.00    1.01776   1.06413   -1.000
 4218.00    1.07789   1.10504   78.179
 4219.00    1.10947   1.13570   76.520
 4220.00    1.12296   1.14615   76.275
 4221.00    1.11778   1.13158   77.876
 4222.00    1.09115   1.08893   81.966
 4223.00    1.03460   1.01978   88.627
 4224.00    0.95332   0.93423   98.576
 4225.00    0.84939   0.85656  110.216
 4226.00    0.76572   0.82003   -1.000
 4227.00    0.77118   0.84631   -1.000
 4228.00    0.87883   0.92435   -1.000
 4229.00    1.00677   1.01458   82.206
 4230.00    1.07214   1.07641   79.348
 4231.00    1.08850   1.09644   79.690
 4232.00    1.07920   1.08657   81.677
 4233.00    1.05865   1.06402   83.357
 4234.00    1.03658   1.04078   84.544
 4235.00    1.01512   1.02375   86.418
 4236.00    0.99657   1.01578   87.168
 4237.00    0.99237   1.01877   85.935
 4238.00    1.00792   1.03287   84.164
 4239.00    1.02812   1.05462   82.838
 4240.00    1.04888   1.07862   81.398
 4241.00    1.07003   1.10116   80.587
 4242.00    1.08140   1.12110   -1.000
 4243.00    1.09587   1.13786   -1.000
 4244.00    1.11670   1.14694   77.575
 4245.00    1.11429   1.13886   79.459
 4246.00    1.07484   1.10924   -1.000
 4247.00    1.03788   1.06772   85.787
 4248.00    1.00910   1.03103   87.434
 4249.00    0.98422   1.01230   87.859
 4250.00    0.98188   1.01534   -1.000
 4251.00    1.00956   1.03204   84.259
 4252.00    1.04062   1.04621   82.918
 4253.00    1.04096   1.04905   84.137
 4254.00    1.02334   1.04824   85.265
 4255.00    1.02152   1.05678   -1.000
 4256.00    1.04810   1.07259   80.810
 4257.00    1.06829   1.07581   81.580
 4258.00    1.04877   1.05346   85.358
 4259.00    0.99924   1.01938   89.262
 4260.00    0.96047   1.00360   -1.000
 4261.00    0.97461   1.02485   -1.000
 4262.00    1.02884   1.07495   -1.000
 4263.00    1.09166   1.12866   -1.000
 4264.00    1.13327   1.16310   75.903
 4265.00    1.14526   1.17103   76.287
 4266.00    1.13461   1.15724   78.054
 4267.00    1.10436   1.12702   80.624
 4268.00    1.06712   1.08239   83.301
 4269.00    1.03009   1.02685   87.354
 4270.00    0.97592   0.96976   93.108
 4271.00    0.91407   0.92648   97.119
 4272.00    0.88848   0.90987   96.788
 4273.00    0.90248   0.92193   94.414
 4274.00    0.92948   0.95590   91.331
 4275.00    0.96588   1.00446   -1.000
 4276.00    1.01585   1.05800   -1.000
 4277.00    1.07199   1.09901   79.007
 4278.00    1.09423   1.11163   80.366
 4279.00    1.06723   1.09784   83.824
 4280.00    1.02425   1.07686   -1.000
 4281.00    1.00938   1.06761   -1.000
 4282.00    1.02440   1.07027   -1.000
 4283.00    1.04232   1.07110   84.152
 4284.00    1.03890   1.06121   85.817
 4285.00    1.00942   1.04272   -1.000
 4286.00    0.98142   1.02128   -1.000
 4287.00    0.96565   0.99683   92.171
 4288.00    0.93683   0.96738   -1.000
 4289.00    0.89619   0.94145   -1.000
 4290.00    0.87999   0.93566   -1.000
 4291.00    0.91180   0.95644   -1.000
 4292.00    0.97103   0.98975   87.484
 4293.00    1.00792   1.01256   86.861
 4294.00    1.00936   1.01324   87.982
 4295.00    0.99186   0.99428   89.665
 4296.00    0.96441   0.95958   92.635
 4297.00    0.92703   0.91075   98.625
 4298.00    0.86760   0.85572  106.938
 4299.00    0.79945   0.80951  112.446
 4300.00    0.76590   0.78435  111.836
 4301.00    0.77877   0.78139  108.953
 4302.00    0.80086   0.79187  107.356
 4303.00    0.81690   0.80461  105.846
 4304.00    0.83410   0.81067  105.216
 4305.00    0.83786   0.80379   -1.000
 4306.00    0.81921   0.78357   -1.000
 4307.00    0.78010   0.75927  116.437
 4308.00    0.74730   0.74663  117.263
 4309.00    0.75165   0.75712  113.215
 4310.00    0.78870   0.79056  106.468
 4311.00    0.83476   0.83875  100.062
 4312.00    0.88155   0.89545   95.448
 4313.00    0.92607   0.96247   -1.000
 4314.00    0.97773   1.04338   -1.000
 4315.00    1.06005   1.13175   -1.000
 4316.00    1.15461   1.21037   -1.000
 4317.00    1.21722   1.26061   -1.000
 4318.00    1.23333   1.27535   -1.000
 4319.00    1.22177   1.26137   -1.000
 4320.00    1.19281   1.22761   -1.000
 4321.00    1.15246   1.17562   78.220
 4322.00    1.10664   1.10505   82.826
 4323.00    1.03820   1.02488   89.532
 4324.00    0.95052   0.96029   96.064
 4325.00    0.89390   0.94301   -1.000
 4326.00    0.91874   0.98559   -1.000
 4327.00    1.01998   1.06652   -1.000
 4328.00    1.12482   1.14558   75.446
 4329.00    1.17400   1.19454   74.803
 4330.00    1.17117   1.21328   -1.000
 4331.00    1.16427   1.21923   -1.000
 4332.00    1.16884   1.22653   -1.000
 4333.00    1.18658   1.23438   -1.000
 4334.00    1.19797   1.23043   72.872
 4335.00    1.18342   1.19988   75.432
 4336.00    1.13537   1.13547   81.347
 4337.00    1.05136   1.04559   89.280
 4338.00    0.95734   0.95453   97.240
 4339.00    0.87873   0.89287  103.156
 4340.00    0.83990   0.88115   -1.000
 4341.00    0.87616   0.92005   -1.000
 4342.00    0.96388   0.99032   84.720
 4343.00    1.04317   1.06432   80.598
 4344.00    1.08965   1.12320   78.276
 4345.00    1.12556   1.16455   -1.000
 4346.00    1.15187   1.19499   -1.000
 4347.00    1.16254   1.21829   -1.000
 4348.00    1.19057   1.22783   73.727
 4349.00    1.20022   1.21076   75.417
 4350.00    1.14845   1.16603   80.338
 4351.00    1.06614   1.11567   -1.000
 4352.00    1.02153   1.09132   -1.000
 4353.00    1.05218   1.10647   -1.000
 4354.00    1.10816   1.14612   -1.000
 4355.00    1.14831   1.18539   -1.000
 4356.00    1.17806   1.20910   73.895
 4357.00    1.19056   1.21486   74.586
 4358.00    1.17909   1.21014   76.021
 4359.00    1.15559   1.20919   -1.000
 4360.00    1.16589   1.22213   -1.000
 4361.00    1.20601   1.24602   -1.000
 4362.00    1.23377   1.27088   71.809
 4363.00    1.24070   1.28940   -1.000
 4364.00    1.24976   1.29725   -1.000
 4365.00    1.25325   1.28934   71.602
 4366.00    1.22531   1.26444   -1.000
 4367.00    1.17834   1.23283   -1.000
 4368.00    1.15285   1.20947   -1.000
 4369.00    1.15747   1.19889   -1.000
 4370.00    1.16927   1.19317   75.247
 4371.00    1.16681   1.18102   75.506
 4372.00    1.15281   1.15625   77.169
 4373.00    1.12040   1.12309   80.417
 4374.00    1.07954   1.09785   82.416
 4375.00    1.07261   1.09856   80.982
 4376.00    1.10978   1.12804   77.212
 4377.00    1.16551   1.16876   74.267
 4378.00    1.19512   1.19567   73.722
 4379.00    1.19853   1.19298   74.566
 4380.00    1.18301   1.15572   76.756
 4381.00    1.14362   1.08580   -1.000
 4382.00    1.05092   0.99996   -1.000
 4383.00    0.93574   0.93470   98.599
 4384.00    0.88670   0.92349   -1.000
 4385.00    0.94470   0.96815   85.918
 4386.00    1.04607   1.03582   79.859
 4387.00    1.10697   1.08800   78.472
 4388.00    1.11793   1.11056   78.932
 4389.00    1.10401   1.11495   79.595
 4390.00    1.09735   1.11871   79.124
 4391.00    1.11939   1.12898   77.415
 4392.00    1.14746   1.14126   76.524
 4393.00    1.15058   1.14916   77.596
 4394.00    1.13372   1.15559   78.606
 4395.00    1.13215   1.17069   -1.000
 4396.00    1.16589   1.19517   73.750
 4397.00    1.20802   1.21402   72.872
 4398.00    1.20998   1.21173   74.671
 4399.00    1.17341   1.19108   77.316
 4400.00    1.13616   1.16962   -1.000
 4401.00    1.13689   1.15566   77.096
 4402.00    1.15121   1.13964   77.227
 4403.00    1.13334   1.11168   80.827
 4404.00    1.07754   1.08024   84.105
 4405.00    1.04752   1.06638   83.223
 4406.00    1.07335   1.07855   80.895
 4407.00    1.09609   1.10688   79.969
 4408.00    1.09708   1.14270   -1.000
 4409.00    1.12702   1.18628   -1.000
 4410.00    1.19344   1.23354   -1.000
 4411.00    1.24827   1.26801   70.323
 4412.00    1.26664   1.27131   70.597
 4413.00    1.24586   1.24126   73.452
 4414.00    1.18527   1.19645   77.216
 4415.00    1.12466   1.16609   -1.000
 4416.00    1.11389   1.17035   -1.000
 4417.00    1.14872   1.20537   -1.000
 4418.00    1.19649   1.24924   -1.000
 4419.00    1.23240   1.27893   -1.000
 4420.00    1.23666   1.28309   -1.000
 4421.00    1.21140   1.26701   -1.000
 4422.00    1.18088   1.24779   -1.000
 4423.00    1.16534   1.23908   -1.000
 4424.00    1.17326   1.24147   -1.000
 4425.00    1.18176   1.24774   -1.000
 4426.00    1.17788   1.25308   -1.000
 4427.00    1.18168   1.25671   -1.000
 4428.00    1.19354   1.25774   -1.000
 4429.00    1.19526   1.25586   -1.000
 4430.00    1.18181   1.25331   -1.000
 4431.00    1.17731   1.25068   -1.000
 4432.00    1.18524   1.24146   -1.000
 4433.00    1.17027   1.22026   -1.000
 4434.00    1.13256   1.19693   -1.000
 4435.00    1.10836   1.19324   -1.000
 4436.00    1.13926   1.22217   -1.000
 4437.00    1.20742   1.27208   -1.000
 4438.00    1.26772   1.31438   -1.000
 4439.00    1.28996   1.32509   69.245
 4440.00    1.26598   1.30135   -1.000
 4441.00    1.21215   1.26217   -1.000
 4442.00    1.16104   1.23438   -1.000
 4443.00    1.14512   1.23573   -1.000
 4444.00    1.17654   1.26507   -1.000
 4445.00    1.23168   1.30519   -1.000
 4446.00    1.26757   1.33607   -1.000
 4447.00    1.27572   1.34970   -1.000
 4448.00    1.27851   1.35127   -1.000
 4449.00    1.27233   1.34749   -1.000
 4450.00    1.25766   1.33968   -1.000
 4451.00    1.25297   1.32569   -1.000
 4452.00    1.25520   1.30169   -1.000
 4453.00    1.22406   1.26577   -1.000
 4454.00    1.17008   1.22536   -1.000
 4455.00    1.13867   1.19595   -1.000
 4456.00    1.14134   1.18617   -1.000
 4457.00    1.15739   1.18941   -1.000
 4458.00    1.16452   1.19332   76.749
 4459.00    1.15584   1.19246   -1.000
 4460.00    1.14745   1.19145   -1.000
 4461.00    1.14247   1.19925   -1.000
 4462.00    1.15506   1.22101   -1.000
 4463.00    1.19592   1.25188   -1.000
 4464.00    1.23189   1.27942   -1.000
 4465.00    1.24932   1.29398   -1.000
 4466.00    1.24804   1.29472   -1.000
 4467.00    1.23159   1.28701   -1.000
 4468.00    1.21608   1.27873   -1.000
 4469.00    1.20782   1.27882   -1.000
 4470.00    1.21993   1.29435   -1.000
 4471.00    1.25130   1.32469   -1.000
 4472.00    1.29266   1.36034   -1.000
 4473.00    1.32987   1.39067   -1.000
 4474.00    1.35382   1.41163   -1.000
 4475.00    1.36290   1.42617   -1.000
 4476.00    1.36546   1.43609   -1.000
 4477.00    1.37563   1.43387   -1.000
 4478.00    1.37372   1.40881   -1.000
 4479.00    1.33545   1.36298   70.021
 4480.00    1.26776   1.31641   -1.000
 4481.00    1.22240   1.29414   -1.000
 4482.00    1.23061   1.30835   -1.000
 4483.00    1.27591   1.35114   -1.000
 4484.00    1.32910   1.40013   -1.000
 4485.00    1.36543   1.43229   -1.000
 4486.00    1.37896   1.43534   -1.000
 4487.00    1.35997   1.41163   -1.000
 4488.00    1.30754   1.37647   -1.000
 4489.00    1.26899   1.35082   -1.000
 4490.00    1.27016   1.34754   -1.000
 4491.00    1.29577   1.36015   -1.000
 4492.00    1.32425   1.36832   -1.000
 4493.00    1.31697   1.35851   -1.000
 4494.00    1.28141   1.33831   -1.000
 4495.00    1.25511   1.32753   -1.000
 4496.00    1.25939   1.33807   -1.000
 4497.00    1.29793   1.36444   -1.000
 4498.00    1.34044   1.39068   -1.000
 4499.00    1.35810   1.40486   -1.000
 4500.00    1.34653   1.40895   -1.000
 4501.00    1.32931   1.41604   -1.000
 4502.00    1.34482   1.43617   -1.000
 4503.00    1.39545   1.46577   -1.000
 4504.00    1.43730   1.49190   -1.000
 4505.00    1.44453   1.50395   -1.000
 4506.00    1.43342   1.50090   -1.000
 4507.00    1.41612   1.49083   -1.000
 4508.00    1.40691   1.48322   -1.000
 4509.00    1.41221   1.48098   -1.000
 4510.00    1.41490   1.47922   -1.000
 4511.00    1.40535   1.47060   -1.000
 4512.00    1.38709   1.45307   -1.000
 4513.00    1.36788   1.43257   -1.000
 4514.00    1.35161   1.41692   -1.000
 4515.00    1.35217   1.40884   -1.000
 4516.00    1.35607   1.40548   -1.000
 4517.00    1.34930   1.40410   -1.000
 4518.00    1.33933   1.40707   -1.000
 4519.00    1.34602   1.41697   -1.000
 4520.00    1.37346   1.42852   -1.000
 4521.00    1.38296   1.43177   -1.000
 4522.00    1.36204   1.42161   -1.000
 4523.00    1.33629   1.40078   -1.000
 4524.00    1.31916   1.37405   -1.000
 4525.00    1.29838   1.34275   -1.000
 4526.00    1.26952   1.30705   -1.000
 4527.00    1.23141   1.27168   -1.000
 4528.00    1.20536   1.24703   -1.000
 4529.00    1.20807   1.24188   -1.000
 4530.00    1.22515   1.25485   73.512
 4531.00    1.24879   1.27380   72.555
 4532.00    1.26414   1.28389   73.168
 4533.00    1.24528   1.27988   -1.000
 4534.00    1.20536   1.27279   -1.000
 4535.00    1.20058   1.28232   -1.000
 4536.00    1.25386   1.31751   -1.000
 4537.00    1.33457   1.36492   66.511
 4538.00    1.38747   1.40099   65.759
 4539.00    1.39250   1.41368   66.866
 4540.00    1.36814   1.40961   -1.000
 4541.00    1.35247   1.40315   -1.000
 4542.00    1.35549   1.40117   -1.000
 4543.00    1.36030   1.40018   -1.000
 4544.00    1.33916   1.39488   -2.000
 4545.00    0.89673   1.38537   -2.000
 4546.00    0.12535   1.37481   -2.000
 4547.00   -0.01775   1.36356    0.000
 4548.00    0.37996   1.35142   -1.000
 4549.00    0.71594   1.34288   -1.000
 4550.00    0.54184   1.34320   -1.000
 4551.00    1.10648   1.35010   -1.000
 4552.00    1.34582   1.35443   70.692
 4553.00    1.29632   1.35147   -1.000
 4554.00    1.28723   1.34803   -1.000
 4555.00    1.29334   1.35631   -1.000
 4556.00    1.33026   1.38192   -1.000
 4557.00    1.38377   1.41780   65.008
 4558.00    1.41832   1.45035   64.515
 4559.00    1.42719   1.47105   -1.000
 4560.00    1.42642   1.47851   -1.000
 4561.00    1.42256   1.47292   -1.000
 4562.00    1.40270   1.45441   -1.000
 4563.00    1.36411   1.42767   -1.000
 4564.00    1.33218   1.40495   -1.000
 4565.00    1.32576   1.39966   -1.000
 4566.00    1.35581   1.41547   -1.000
 4567.00    1.40146   1.44204   64.507
 4568.00    1.42841   1.46204   64.434
 4569.00    1.42048   1.46399   65.560
 4570.00    1.38600   1.45013   -1.000
 4571.00    1.35451   1.43383   -1.000
 4572.00    1.35476   1.42923   -1.000
 4573.00    1.38646   1.43993   -1.000
 4574.00    1.42174   1.45702   64.790
 4575.00    1.42763   1.46853   64.966
 4576.00    1.41389   1.46830   -1.000
 4577.00    1.40608   1.45560   -1.000
 4578.00    1.39081   1.43187   67.473
 4579.00    1.35566   1.40191   -1.000
 4580.00    1.31882   1.37520   -1.000
 4581.00    1.30591   1.36116   -1.000
 4582.00    1.31837   1.36119   -1.000
 4583.00    1.33574   1.36793   68.447
 4584.00    1.33863   1.37403   68.768
 4585.00    1.33414   1.38003   -1.000
 4586.00    1.34041   1.39275   -1.000
 4587.00    1.36839   1.41554   -1.000
 4588.00    1.40118   1.44104   64.777
 4589.00    1.41715   1.45658   65.139
 4590.00    1.41795   1.45495   66.238
 4591.00    1.39522   1.43882   -1.000
 4592.00    1.35955   1.41768   -1.000
 4593.00    1.34721   1.40129   -1.000
 4594.00    1.35506   1.39310   67.375
 4595.00    1.35995   1.39118   66.987
 4596.00    1.36103   1.39380   66.836
 4597.00    1.36877   1.39975   66.692
 4598.00    1.37872   1.40584   66.834
 4599.00    1.37949   1.40867   67.457
 4600.00    1.36487   1.40828   -1.000
 4601.00    1.35891   1.40795   -1.000
 4602.00    1.36875   1.41003   -1.000
 4603.00    1.38268   1.41352   66.528
 4604.00    1.39225   1.41759   66.583
 4605.00    1.39468   1.42552   66.217
 4606.00    1.40275   1.44222   65.236
 4607.00    1.43028   1.46803   63.879
 4608.00    1.46471   1.49604   62.752
 4609.00    1.48290   1.51558   62.440
 4610.00    1.47789   1.51969   62.987
 4611.00    1.45662   1.51030   -1.000
 4612.00    1.43869   1.49632   -1.000
 4613.00    1.43260   1.48737   -1.000
 4614.00    1.44047   1.48798   -1.000
 4615.00    1.44953   1.49507   -1.000
 4616.00    1.44974   1.50159   -1.000
 4617.00    1.44270   1.50331   -1.000
 4618.00    1.43689   1.50178   -1.000
 4619.00    1.43809   1.50180   -1.000
 4620.00    1.44870   1.50632   -1.000
 4621.00    1.46263   1.51351   -1.000
 4622.00    1.46907   1.51844   -1.000
 4623.00    1.47094   1.51793   -1.000
 4624.00    1.47171   1.51328   63.181
 4625.00    1.46141   1.50792   -1.000
 4626.00    1.45688   1.50433   -1.000
 4627.00    1.46306   1.50313   63.812
 4628.00    1.45882   1.50377   -1.000
 4629.00    1.44661   1.50556   -1.000
 4630.00    1.45836   1.50773   -1.000
 4631.00    1.48241   1.50830   63.221
 4632.00    1.47637   1.50466   63.800
 4633.00    1.45426   1.49604   64.669
 4634.00    1.44046   1.48442   -1.000
 4635.00    1.43003   1.47185   -1.000
 4636.00    1.41532   1.45866   -1.000
 4637.00    1.40003   1.44568   -1.000
 4638.00    1.39520   1.43605   -1.000
 4639.00    1.39276   1.43409   -1.000
 4640.00    1.40556   1.44230   64.753
 4641.00    1.44340   1.45756   63.429
 4642.00    1.47287   1.47050   63.036
 4643.00    1.47504   1.47089   63.702
 4644.00    1.45154   1.45432   65.171
 4645.00    1.41786   1.42487   67.024
 4646.00    1.38431   1.39450   68.250
 4647.00    1.36139   1.37803   67.871
 4648.00    1.36991   1.38391   66.456
 4649.00    1.40066   1.40890   65.147
 4650.00    1.42776   1.44081   64.592
 4651.00    1.44034   1.46540   64.499
 4652.00    1.44451   1.47366   64.724
 4653.00    1.44000   1.46551   65.825
 4654.00    1.41607   1.44931   67.077
 4655.00    1.38885   1.43852   -1.000
 4656.00    1.38786   1.44517   -1.000
 4657.00    1.41549   1.47217   -1.000
 4658.00    1.46746   1.51013   61.618
 4659.00    1.51650   1.54208   60.804
 4660.00    1.52854   1.55392   61.119
 4661.00    1.51090   1.54320   62.208
 4662.00    1.47668   1.51807   63.650
 4663.00    1.45162   1.48792   64.446
 4664.00    1.44036   1.45511   64.917
 4665.00    1.42152   1.41695   66.708
 4666.00    1.36742   1.37618   69.622
 4667.00    1.31129   1.34596   71.378
 4668.00    1.29067   1.34142   -1.000
 4669.00    1.32342   1.36527   -1.000
 4670.00    1.38569   1.40364   65.379
 4671.00    1.43513   1.43788   64.207
 4672.00    1.45647   1.45862   64.051
 4673.00    1.45222   1.46882   64.069
 4674.00    1.44591   1.47699   63.683
 4675.00    1.46085   1.48710   62.769
 4676.00    1.48606   1.49417   62.328
 4677.00    1.49336   1.48987   63.110
 4678.00    1.46650   1.47202   64.477
 4679.00    1.43594   1.44727   65.663
 4680.00    1.41020   1.42652   66.559
 4681.00    1.39332   1.41860   66.584
 4682.00    1.40494   1.42561   65.346
 4683.00    1.43885   1.44195   63.986
 4684.00    1.46579   1.45814   63.606
 4685.00    1.47059   1.46732   63.786
 4686.00    1.46525   1.46850   63.940
 4687.00    1.46247   1.46477   64.173
 4688.00    1.46039   1.45983   64.162
 4689.00    1.45719   1.45575   64.355
 4690.00    1.45182   1.45316   64.704
 4691.00    1.44681   1.45332   64.455
 4692.00    1.45295   1.45905   63.575
 4693.00    1.47309   1.47170   62.425
 4694.00    1.49556   1.48744   61.258
 4695.00    1.51476   1.49805   60.939
 4696.00    1.52032   1.49565   61.868
 4697.00    1.49757   1.47812   63.752
 4698.00    1.45543   1.45187   65.205
 4699.00    1.42810   1.42728   65.391
 4700.00    1.42575   1.40973   65.229
 4701.00    1.42221   1.39803   66.031
 4702.00    1.40426   1.39182   66.894
 4703.00    1.39120   1.39388   66.541
 4704.00    1.40830   1.40372   65.332
 4705.00    1.43575   1.41429   65.139
 4706.00    1.43241   1.41744   66.286
 4707.00    1.40824   1.41220   67.354
 4708.00    1.39044   1.40627   67.566
 4709.00    1.38703   1.40918   66.494
 4710.00    1.40908   1.42350   64.527
 4711.00    1.45168   1.44190   63.228
 4712.00    1.48230   1.45321   63.145
 4713.00    1.47419   1.45339   64.038
 4714.00    1.44474   1.45064   64.782
 4715.00    1.44219   1.45709   64.202
 4716.00    1.47419   1.47684   62.895
 4717.00    1.50526   1.50427   62.025
 4718.00    1.51453   1.53035   61.740
 4719.00    1.51424   1.54823   61.529
 4720.00    1.51999   1.55525   61.618
 4721.00    1.51331   1.55323   62.138
 4722.00    1.50094   1.54797   -1.000
 4723.00    1.50688   1.54539   61.720
 4724.00    1.52168   1.54417   61.351
 4725.00    1.51775   1.53486   62.042
 4726.00    1.49118   1.50940   63.954
 4727.00    1.44524   1.47112   66.025
 4728.00    1.41032   1.43460   66.755
 4729.00    1.40421   1.41476   66.264
 4730.00    1.41228   1.41590   65.635
 4731.00    1.42508   1.43203   65.011
 4732.00    1.43804   1.45392   64.306
 4733.00    1.45520   1.47388   63.836
 4734.00    1.47140   1.48667   63.483
 4735.00    1.48228   1.49073   63.553
 4736.00    1.47183   1.49002   64.032
 4737.00    1.46183   1.49133   63.711
 4738.00    1.48133   1.49779   63.201
 4739.00    1.49432   1.50592   63.403
 4740.00    1.48470   1.51059   63.668
 4741.00    1.47933   1.51177   63.494
 4742.00    1.48434   1.51322   62.885
 4743.00    1.49335   1.51678   62.525
 4744.00    1.50267   1.52245   62.655
 4745.00    1.50624   1.53075   62.490
 4746.00    1.51087   1.54147   61.933
 4747.00    1.52068   1.55272   61.503
 4748.00    1.52616   1.56234   61.486
 4749.00    1.52729   1.56875   61.566
 4750.00    1.52194   1.57062   -1.000
 4751.00    1.51525   1.56654   -1.000
 4752.00    1.50539   1.55611   -1.000
 4753.00    1.48703   1.54160   -1.000
 4754.00    1.47542   1.52769   -1.000
 4755.00    1.46995   1.51917   -1.000
 4756.00    1.46333   1.51871   -1.000
 4757.00    1.46085   1.52544   -1.000
 4758.00    1.46588   1.53543   -1.000
 4759.00    1.47999   1.54281   -1.000
 4760.00    1.48828   1.54110   -1.000
 4761.00    1.47056   1.52669   -1.000
 4762.00    1.43600   1.50258   -1.000
 4763.00    1.41152   1.47674   -1.000
 4764.00    1.40431   1.45655   -1.000
 4765.00    1.40344   1.44588   -1.000
 4766.00    1.41236   1.44717   66.301
 4767.00    1.43877   1.46253   65.118
 4768.00    1.46894   1.48981   63.855
 4769.00    1.49385   1.51969   63.399
 4770.00    1.50307   1.54068   -1.000
 4771.00    1.49107   1.54907   -1.000
 4772.00    1.47524   1.55231   -1.000
 4773.00    1.48670   1.56044   -1.000
 4774.00    1.51851   1.57558   -1.000
 4775.00    1.53086   1.59150   -1.000
 4776.00    1.53088   1.60190   -1.000
 4777.00    1.52887   1.60548   -1.000
 4778.00    1.51871   1.60344   -1.000
 4779.00    1.50816   1.59648   -1.000
 4780.00    1.49877   1.58552   -1.000
 4781.00    1.49662   1.57242   -1.000
 4782.00    1.49168   1.55913   -1.000
 4783.00    1.47630   1.54733   -1.000
 4784.00    1.47505   1.53775   -1.000
 4785.00    1.47461   1.52929   -1.000
 4786.00    1.46133   1.52054   -1.000
 4787.00    1.45313   1.51297   -1.000
 4788.00    1.45290   1.51001   -1.000
 4789.00    1.45526   1.51327   -1.000
 4790.00    1.46175   1.52292   -1.000
 4791.00    1.47160   1.53991   -1.000
 4792.00    1.49348   1.56492   -1.000
 4793.00    1.51977   1.59539   -1.000
 4794.00    1.54546   1.62393   -1.000
 4795.00    1.56369   1.64085   -1.000
 4796.00    1.55950   1.63953   -1.000
 4797.00    1.53367   1.62023   -1.000
 4798.00    1.49973   1.59168   -1.000
 4799.00    1.47588   1.56860   -1.000
 4800.00    1.47958   1.56323   -1.000
 4801.00    1.50880   1.57670   -1.000
 4802.00    1.53546   1.59821   -1.000
 4803.00    1.53898   1.61235   -1.000
 4804.00    1.52502   1.61009   -1.000
 4805.00    1.50620   1.59455   -1.000
 4806.00    1.49001   1.57621   -1.000
 4807.00    1.48599   1.56391   -1.000
 4808.00    1.49088   1.56113   -1.000
 4809.00    1.49828   1.56695   -1.000
 4810.00    1.50981   1.57750   -1.000
 4811.00    1.51722   1.58794   -1.000
 4812.00    1.52336   1.59528   -1.000
 4813.00    1.53396   1.59999   -1.000
 4814.00    1.53888   1.60531   -1.000
 4815.00    1.53998   1.61446   -1.000
 4816.00    1.54823   1.62769   -1.000
 4817.00    1.56021   1.64206   -1.000
 4818.00    1.56835   1.65350   -1.000
 4819.00    1.57222   1.65887   -1.000
 4820.00    1.57381   1.65546   -1.000
 4821.00    1.56096   1.64044   -1.000
 4822.00    1.53170   1.61470   -1.000
 4823.00    1.49733   1.58728   -1.000
 4824.00    1.48676   1.57102   -1.000
 4825.00    1.50922   1.57178   -1.000
 4826.00    1.53984   1.58309   -1.000
 4827.00    1.54457   1.59223   -1.000
 4828.00    1.52403   1.59166   -1.000
 4829.00    1.50765   1.58285   -1.000
 4830.00    1.50596   1.57085   -1.000
 4831.00    1.49744   1.56005   -1.000
 4832.00    1.49846   1.55478   -1.000
 4833.00    1.51108   1.55864   -1.000
 4834.00    1.52722   1.57076   -1.000
 4835.00    1.53909   1.58459   -1.000
 4836.00    1.54418   1.59241   -1.000
 4837.00    1.53501   1.59056   -1.000
 4838.00    1.51591   1.58006   -1.000
 4839.00    1.49221   1.56510   -1.000
 4840.00    1.47882   1.55162   -1.000
 4841.00    1.47923   1.54400   -1.000
 4842.00    1.49093   1.54296   -1.000
 4843.00    1.50109   1.54816   -1.000
 4844.00    1.51626   1.55983   -1.000
 4845.00    1.53865   1.57477   61.602
 4846.00    1.54833   1.58454   61.953
 4847.00    1.53634   1.58259   -1.000
 4848.00    1.50489   1.57229   -1.000
 4849.00    1.49419   1.56421   -1.000
 4850.00    1.50801   1.56434   -1.000
 4851.00    1.52289   1.56805   -1.000
 4852.00    1.52758   1.56544   63.183
 4853.00    1.50912   1.54920   64.283
 4854.00    1.47383   1.51985   -1.000
 4855.00    1.43718   1.48675   -1.000
 4856.00    1.42095   1.46024   -1.000
 4857.00    1.42645   1.43830   67.142
 4858.00    1.40752   1.40378   70.641
 4859.00    1.32473   1.34121   77.780
 4860.00    1.19734   1.25975   -1.000
 4861.00    1.10783   1.19519   -1.000
 4862.00    1.12705   1.18275   -1.000
 4863.00    1.22795   1.22788   72.291
 4864.00    1.32550   1.30440   68.807
 4865.00    1.38330   1.37943   66.828
 4866.00    1.42028   1.43556   65.776
 4867.00    1.44348   1.47038   65.330
 4868.00    1.45289   1.48512   65.410
 4869.00    1.45096   1.47952   66.530
 4870.00    1.41852   1.45638   68.353
 4871.00    1.37599   1.42842   -1.000
 4872.00    1.36974   1.41486   -1.000
 4873.00    1.39920   1.42649   66.179
 4874.00    1.43206   1.45601   65.318
 4875.00    1.44778   1.48750   64.891
 4876.00    1.45728   1.51277   -1.000
 4877.00    1.46471   1.53449   -1.000
 4878.00    1.48158   1.55624   -1.000
 4879.00    1.50497   1.57454   -1.000
 4880.00    1.50892   1.58205   -1.000
 4881.00    1.48901   1.57634   -1.000
 4882.00    1.47110   1.56251   -1.000
 4883.00    1.46786   1.54677   -1.000
 4884.00    1.46618   1.53022   -1.000
 4885.00    1.45106   1.51213   -1.000
 4886.00    1.43806   1.49604   -1.000
 4887.00    1.43866   1.48617   -1.000
 4888.00    1.44455   1.47944   66.308
 4889.00    1.43537   1.46867   67.526
 4890.00    1.40780   1.45506   -1.000
 4891.00    1.39722   1.45333   -1.000
 4892.00    1.43558   1.47973   -1.000
 4893.00    1.51208   1.53458   61.302
 4894.00    1.57947   1.60020   59.796
 4895.00    1.61196   1.65495   59.035
 4896.00    1.62431   1.68621   -1.000
 4897.00    1.62125   1.69307   -1.000
 4898.00    1.60196   1.68183   -1.000
 4899.00    1.56991   1.66131   -1.000
 4900.00    1.54136   1.64016   -1.000
 4901.00    1.53663   1.62341   -1.000
 4902.00    1.53986   1.61156   -1.000
 4903.00    1.53223   1.60552   -1.000
 4904.00    1.53626   1.60922   -1.000
 4905.00    1.56094   1.62314   -1.000
 4906.00    1.58174   1.63759   -1.000
 4907.00    1.58086   1.63778   -1.000
 4908.00    1.55007   1.61726   -1.000
 4909.00    1.50319   1.58407   -1.000
 4910.00    1.47445   1.55497   -1.000
 4911.00    1.47705   1.54401   -1.000
 4912.00    1.49713   1.55432   -1.000
 4913.00    1.52576   1.57836   -1.000
 4914.00    1.55752   1.60416   61.212
 4915.00    1.58134   1.61943   61.021
 4916.00    1.58043   1.61234   62.086
 4917.00    1.54058   1.57528   64.813
 4918.00    1.47381   1.51289   68.228
 4919.00    1.40168   1.44598   -1.000
 4920.00    1.36342   1.40222   -1.000
 4921.00    1.38426   1.39763   67.444
 4922.00    1.43069   1.42507   65.592
 4923.00    1.46915   1.46327   65.028
 4924.00    1.48268   1.49701   64.665
 4925.00    1.49299   1.52643   63.454
 4926.00    1.52051   1.55829   61.992
 4927.00    1.54888   1.59334   61.115
 4928.00    1.57383   1.62597   -1.000
 4929.00    1.59442   1.65038   -1.000
 4930.00    1.60438   1.66150   -1.000
 4931.00    1.60106   1.65478   -1.000
 4932.00    1.56808   1.63052   -1.000
 4933.00    1.52300   1.59806   -1.000
 4934.00    1.50162   1.57148   -1.000
 4935.00    1.51061   1.55663   63.506
 4936.00    1.51831   1.54483   64.275
 4937.00    1.49312   1.52573   66.173
 4938.00    1.45422   1.50415   -1.000
 4939.00    1.44332   1.49844   -1.000
 4940.00    1.48633   1.52138   63.417
 4941.00    1.54675   1.56626   61.746
 4942.00    1.58698   1.61275   60.863
 4943.00    1.60719   1.64363   60.567
 4944.00    1.61304   1.65468   60.786
 4945.00    1.60105   1.65315   -1.000
 4946.00    1.58156   1.65065   -1.000
 4947.00    1.58763   1.65539   -1.000
 4948.00    1.61250   1.66772   -1.000
 4949.00    1.62608   1.68165   -1.000
 4950.00    1.63204   1.69056   -1.000
 4951.00    1.63094   1.69139   -1.000
 4952.00    1.61493   1.68448   -1.000
 4953.00    1.59990   1.67015   -1.000
 4954.00    1.59325   1.64465   -1.000
 4955.00    1.57089   1.60188   64.668
 4956.00    1.51144   1.54432   67.760
 4957.00    1.44103   1.49264   -1.000
 4958.00    1.43432   1.47598   -1.000
 4959.00    1.50473   1.50556   62.976
 4960.00    1.57962   1.56220   61.538
 4961.00    1.60928   1.61393   61.412
 4962.00    1.60238   1.64061   -1.000
 4963.00    1.59302   1.64062   -1.000
 4964.00    1.57770   1.62228   -1.000
 4965.00    1.54859   1.59602   -1.000
 4966.00    1.52295   1.57234   -1.000
 4967.00    1.51588   1.55869   -1.000
 4968.00    1.51908   1.55622   -1.000
 4969.00    1.52528   1.56243   -1.000
 4970.00    1.53634   1.57570   -1.000
 4971.00    1.55312   1.59505   -1.000
 4972.00    1.57866   1.61764   61.952
 4973.00    1.59841   1.63791   61.509
 4974.00    1.60649   1.64979   -1.000
 4975.00    1.60011   1.64984   -1.000
 4976.00    1.58687   1.63810   -1.000
 4977.00    1.55915   1.61750   -1.000
 4978.00    1.53510   1.59266   -1.000
 4979.00    1.51736   1.56669   -1.000
 4980.00    1.49926   1.53794   -1.000
 4981.00    1.46440   1.50287   -1.000
 4982.00    1.41712   1.46428   -1.000
 4983.00    1.39466   1.43517   -1.000
 4984.00    1.41118   1.43040   68.292
 4985.00    1.44770   1.45386   66.253
 4986.00    1.49471   1.49548   64.336
 4987.00    1.53703   1.53848   63.439
 4988.00    1.55202   1.56796   63.892
 4989.00    1.54274   1.57792   64.736
 4990.00    1.52660   1.57412   -1.000
 4991.00    1.52130   1.56835   -1.000
 4992.00    1.53342   1.56838   64.426
 4993.00    1.54584   1.57414   64.262
 4994.00    1.54355   1.58210   64.109
 4995.00    1.54621   1.58972   -1.000
 4996.00    1.55444   1.59434   63.754
 4997.00    1.54993   1.59106   -1.000
 4998.00    1.53560   1.57566   -1.000
 4999.00    1.50919   1.55004   -1.000
 5000.00    1.48316   1.52277   -1.000
 5001.00    1.48203   1.50302   66.771
 5002.00    1.49727   1.49294   66.205
 5003.00    1.50738   1.48612   66.350
 5004.00    1.49875   1.47466   67.640
 5005.00    1.46941   1.45880   68.822
 5006.00    1.44442   1.44938   68.300
 5007.00    1.45765   1.45845   66.411
 5008.00    1.50308   1.48532   64.931
 5009.00    1.53360   1.51328   64.906
 5010.00    1.52860   1.52238   66.244
 5011.00    1.49659   1.50526   68.468
 5012.00    1.45159   1.47109   70.651
 5013.00    1.40640   1.43764   71.443
 5014.00    1.38939   1.41973   70.533
 5015.00    1.40960   1.42110   68.982
 5016.00    1.44517   1.43419   68.025
 5017.00    1.45860   1.44845   67.887
 5018.00    1.45886   1.45959   67.572
 5019.00    1.47589   1.46949   66.879
 5020.00    1.49754   1.47953   66.691
 5021.00    1.49814   1.48825   66.941
 5022.00    1.48816   1.49608   66.861
 5023.00    1.49267   1.50666   66.329
 5024.00    1.51172   1.52060   65.729
 5025.00    1.52660   1.53230   65.610
 5026.00    1.52297   1.53632   65.940
 5027.00    1.51163   1.53531   65.866
 5028.00    1.51449   1.53841   64.971
 5029.00    1.53769   1.55229   63.860
 5030.00    1.56272   1.57568   62.900
 5031.00    1.58355   1.60204   62.000
 5032.00    1.60186   1.62313   61.636
 5033.00    1.60961   1.63010   62.534
 5034.00    1.58490   1.61689   64.787
 5035.00    1.53055   1.58649   -1.000
 5036.00    1.48731   1.55130   -1.000
 5037.00    1.47593   1.52096   -1.000
 5038.00    1.46992   1.49197   69.546
 5039.00    1.43294   1.45575   72.373
 5040.00    1.37602   1.41710   -1.000
 5041.00    1.34978   1.39733   -1.000
 5042.00    1.39072   1.41613   68.481
 5043.00    1.47827   1.47207   64.849
 5044.00    1.55640   1.54292   62.780
 5045.00    1.61795   1.60223   61.009
 5046.00    1.57809   1.63241   -1.000
 5047.00    1.24293   1.62875   -1.000
 5048.00    0.68237   1.59941   -1.000
 5049.00    0.34361   1.56140   -1.000
 5050.00    0.81270   1.53261   -1.000
 5051.00    1.49213   1.52362   65.866
 5052.00    1.53488   1.53556   64.279
 5053.00    1.55954   1.56302   62.845
 5054.00    1.59952   1.59685   61.943
 5055.00    1.62627   1.62674   61.531
 5056.00    1.63396   1.64633   61.474
 5057.00    1.63476   1.65656   61.594
 5058.00    1.63035   1.66307   61.649
 5059.00    1.62551   1.67076   -1.000
 5060.00    1.62896   1.67993   -1.000
 5061.00    1.63714   1.68454   -1.000
 5062.00    1.63366   1.67501   62.856
 5063.00    1.59766   1.64636   -1.000
 5064.00    1.54523   1.60556   -1.000
 5065.00    1.50880   1.56910   -1.000
 5066.00    1.51220   1.55019   -1.000
 5067.00    1.53310   1.54915   65.011
 5068.00    1.54456   1.55771   64.778
 5069.00    1.55800   1.56862   64.416
 5070.00    1.57388   1.57701   64.392
 5071.00    1.56990   1.57945   64.932
 5072.00    1.55307   1.57661   64.877
 5073.00    1.55243   1.57375   64.173
 5074.00    1.56798   1.57510   63.857
 5075.00    1.57706   1.57890   63.796
 5076.00    1.57442   1.57826   64.034
 5077.00    1.56436   1.56505   65.357
 5078.00    1.53122   1.53535   68.038
 5079.00    1.47010   1.49608   70.261
 5080.00    1.43468   1.46504   70.014
 5081.00    1.44968   1.45755   68.476
 5082.00    1.47937   1.47317   67.248
 5083.00    1.50286   1.50024   66.196
 5084.00    1.53236   1.52947   64.985
 5085.00    1.56425   1.55674   64.155
 5086.00    1.58160   1.57896   63.872
 5087.00    1.59053   1.59437   63.691
 5088.00    1.59685   1.60454   63.303
 5089.00    1.60021   1.61330   62.888
 5090.00    1.60274   1.62368   62.553
 5091.00    1.61064   1.63650   62.056
 5092.00    1.62726   1.65006   61.397
 5093.00    1.64318   1.65959   61.328
 5094.00    1.65288   1.65794   62.228
 5095.00    1.62996   1.63937   63.569
 5096.00    1.58151   1.60462   65.017
 5097.00    1.54267   1.56283   66.509
 5098.00    1.50741   1.52843   67.388
 5099.00    1.49382   1.51499   66.749
 5100.00    1.52082   1.52749   64.931
 5101.00    1.56806   1.55684   63.612
 5102.00    1.59612   1.58475   63.491
 5103.00    1.59040   1.59755   64.089
 5104.00    1.57176   1.59381   64.933
 5105.00    1.55689   1.57967   65.742
 5106.00    1.54232   1.56095   66.557
 5107.00    1.52283   1.54178   66.986
 5108.00    1.51517   1.52691   66.716
 5109.00    1.51805   1.52149   66.257
 5110.00    1.52770   1.52904   65.570
 5111.00    1.54788   1.54892   64.674
 5112.00    1.57535   1.57548   63.888
 5113.00    1.59587   1.60118   63.197
 5114.00    1.60526   1.62183   62.734
 5115.00    1.61611   1.63838   62.260
 5116.00    1.63312   1.65294   61.652
 5117.00    1.65004   1.66454   61.444
 5118.00    1.65547   1.66889   61.916
 5119.00    1.64291   1.66129   62.798
 5120.00    1.61669   1.64030   63.788
 5121.00    1.58445   1.60869   65.100
 5122.00    1.55279   1.57182   66.922
 5123.00    1.51943   1.53680   68.276
 5124.00    1.49384   1.51141   68.232
 5125.00    1.49226   1.49997   67.716
 5126.00    1.50647   1.49992   67.361
 5127.00    1.51405   1.50476   67.174
 5128.00    1.51117   1.51028   67.217
 5129.00    1.51096   1.51725   66.791
 5130.00    1.52261   1.52861   65.776
 5131.00    1.54349   1.54531   64.905
 5132.00    1.56325   1.56506   64.354
 5133.00    1.58291   1.58376   63.757
 5134.00    1.59998   1.59751   63.371
 5135.00    1.60685   1.60221   63.787
 5136.00    1.59904   1.59390   65.154
 5137.00    1.56559   1.57279   66.517
 5138.00    1.52392   1.54694   67.136
 5139.00    1.50368   1.52776   66.893
 5140.00    1.51288   1.51984   66.753
 5141.00    1.52224   1.51838   67.543
 5142.00    1.51360   1.51797   68.004
 5143.00    1.50903   1.51908   67.229
 5144.00    1.51936   1.52344   66.471
 5145.00    1.52738   1.52731   66.642
 5146.00    1.52583   1.52585   67.090
 5147.00    1.51852   1.52168   66.801
 5148.00    1.52463   1.52118   66.147
 5149.00    1.54014   1.52446   66.312
 5150.00    1.53680   1.52524   67.343
 5151.00    1.51782   1.51977   68.241
 5152.00    1.50158   1.51230   68.314
 5153.00    1.49966   1.51116   67.516
 5154.00    1.51664   1.52198   66.004
 5155.00    1.55024   1.54528   64.313
 5156.00    1.58964   1.57650   62.870
 5157.00    1.62240   1.60733   62.022
 5158.00    1.63866   1.62984   61.783
 5159.00    1.64396   1.64022   61.882
 5160.00    1.64433   1.63853   62.162
 5161.00    1.64184   1.62614   62.676
 5162.00    1.62812   1.60355   63.512
 5163.00    1.60306   1.56790   65.133
 5164.00    1.56351   1.51254   -1.000
 5165.00    1.47482   1.43353   75.357
 5166.00    1.34106   1.34134   82.113
 5167.00    1.23495   1.26385   -1.000
 5168.00    1.22330   1.22883   80.953
 5169.00    1.29048   1.23570   -1.000
 5170.00    1.33941   1.25219   -1.000
 5171.00    1.29414   1.24766   84.940
 5172.00    1.20020   1.22873   -1.000
 5173.00    1.19392   1.23399   -1.000
 5174.00    1.31127   1.28929   72.067
 5175.00    1.45391   1.38016   -1.000
 5176.00    1.54666   1.46921   -1.000
 5177.00    1.58455   1.52904   65.555
 5178.00    1.59319   1.55469   65.787
 5179.00    1.58698   1.54948   67.188
 5180.00    1.55182   1.51127   70.681
 5181.00    1.46329   1.43777   77.212
 5182.00    1.32781   1.34244   85.089
 5183.00    1.20209   1.26191   -1.000
 5184.00    1.18741   1.23862   -1.000
 5185.00    1.30914   1.28802   71.608
 5186.00    1.46144   1.38255   -1.000
 5187.00    1.54821   1.47439   -1.000
 5188.00    1.58023   1.53333   65.548
 5189.00    1.59265   1.55528   65.719
 5190.00    1.58254   1.54737   67.072
 5191.00    1.54016   1.51986   69.136
 5192.00    1.49350   1.48841   69.942
 5193.00    1.48593   1.47085   69.025
 5194.00    1.50534   1.47456   67.891
 5195.00    1.53242   1.49285   66.899
 5196.00    1.55942   1.51714   65.754
 5197.00    1.58728   1.54461   64.510
 5198.00    1.61411   1.57315   63.677
 5199.00    1.63100   1.59756   63.380
 5200.00    1.63609   1.61156   63.590
 5201.00    1.63021   1.61047   64.409
 5202.00    1.61445   1.59213   65.739
 5203.00    1.58586   1.55771   67.508
 5204.00    1.54182   1.51279   69.638
 5205.00    1.49875   1.46729   70.931
 5206.00    1.47596   1.43172   71.175
 5207.00    1.46661   1.41218   71.586
 5208.00    1.45844   1.41013   71.350
 5209.00    1.46715   1.42689   69.665
 5210.00    1.50423   1.46372   67.103
 5211.00    1.56686   1.51539   64.419
 5212.00    1.63237   1.56701   -1.000
 5213.00    1.66952   1.60110   -1.000
 5214.00    1.66192   1.60889   -1.000
 5215.00    1.63096   1.59674   64.388
 5216.00    1.60708   1.58232   64.546
 5217.00    1.60384   1.58197   63.570
 5218.00    1.63112   1.59992   62.353
 5219.00    1.66956   1.62760   61.634
 5220.00    1.69412   1.65165   61.279
 5221.00    1.70421   1.66110   61.508
 5222.00    1.68956   1.64943   62.829
 5223.00    1.64601   1.61464   65.093
 5224.00    1.58917   1.56065   67.974
 5225.00    1.52556   1.50012   70.598
 5226.00    1.47535   1.45435   70.919
 5227.00    1.47479   1.44392   68.147
 5228.00    1.53363   1.47446   -1.000
 5229.00    1.61043   1.53004   -1.000
 5230.00    1.66259   1.58175   -1.000
 5231.00    1.67018   1.60628   -1.000
 5232.00    1.64499   1.60091   64.012
 5233.00    1.62010   1.58281   64.563
 5234.00    1.61400   1.57500   63.756
 5235.00    1.63101   1.58997   62.217
 5236.00    1.66988   1.62250   61.089
 5237.00    1.70369   1.65744   60.719
 5238.00    1.71958   1.68203   60.799
 5239.00    1.71945   1.69297   60.864
 5240.00    1.71856   1.69471   60.628
 5241.00    1.72112   1.69312   60.466
 5242.00    1.72320   1.69226   60.477
 5243.00    1.72547   1.69291   60.356
 5244.00    1.72552   1.69090   60.854
 5245.00    1.71359   1.67872   62.442
 5246.00    1.67107   1.65316   64.202
 5247.00    1.62708   1.62112   65.068
 5248.00    1.61559   1.59430   65.162
 5249.00    1.61749   1.57847   65.420
 5250.00    1.60761   1.57271   65.518
 5251.00    1.60508   1.57552   64.901
 5252.00    1.62396   1.58464   64.096
 5253.00    1.63914   1.59505   63.768
 5254.00    1.63906   1.60444   63.587
 5255.00    1.64778   1.61822   62.631
 5256.00    1.68050   1.64331   61.021
 5257.00    1.72497   1.67695   59.875
 5258.00    1.75365   1.70404   59.886
 5259.00    1.74837   1.70807   60.980
 5260.00    1.71310   1.68203   63.111
 5261.00    1.65179   1.62971   65.978
 5262.00    1.58033   1.56238   68.751
 5263.00    1.52152   1.49465   70.659
 5264.00    1.48012   1.44070   71.500
 5265.00    1.45979   1.41004   -1.000
 5266.00    1.47215   1.40151   -1.000
 5267.00    1.50617   1.40180   -1.000
 5268.00    1.50427   1.39546   -1.000
 5269.00    1.45653   1.38279   -1.000
 5270.00    1.44128   1.38394   -1.000
 5271.00    1.50589   1.41599   -1.000
 5272.00    1.59052   1.47114   -1.000
 5273.00    1.62794   1.52384   -1.000
 5274.00    1.62917   1.55725   -1.000
 5275.00    1.62829   1.57887   -1.000
 5276.00    1.65216   1.60595   61.880
 5277.00    1.70612   1.64301   -1.000
 5278.00    1.75318   1.67698   -1.000
 5279.00    1.76266   1.69005   -1.000
 5280.00    1.73091   1.67665   -1.000
 5281.00    1.68107   1.64665   63.656
 5282.00    1.64503   1.61712   64.409
 5283.00    1.63054   1.60406   63.937
 5284.00    1.65009   1.61705   62.269
 5285.00    1.71112   1.65382   -1.000
 5286.00    1.77547   1.69964   -1.000
 5287.00    1.79570   1.73718   -1.000
 5288.00    1.78407   1.75908   59.234
 5289.00    1.78037   1.76939   59.053
 5290.00    1.79024   1.77355   58.796
 5291.00    1.79618   1.77263   58.898
 5292.00    1.79035   1.76556   59.361
 5293.00    1.77804   1.75156   60.036
 5294.00    1.76443   1.72875   61.225
 5295.00    1.72751   1.69369   63.243
 5296.00    1.66722   1.64793   65.371
 5297.00    1.61138   1.60439   66.088
 5298.00    1.59145   1.58103   64.993
 5299.00    1.61897   1.58547   63.503
 5300.00    1.65965   1.60916   -1.000
 5301.00    1.68426   1.63834   62.158
 5302.00    1.70418   1.66835   60.946
 5303.00    1.74018   1.70121   59.510
 5304.00    1.78535   1.73430   -1.000
 5305.00    1.80582   1.75876   59.097
 5306.00    1.78966   1.76836   59.675
 5307.00    1.77420   1.76762   59.765
 5308.00    1.78432   1.76723   59.226
 5309.00    1.80309   1.77282   58.710
 5310.00    1.81684   1.78093   58.547
 5311.00    1.81654   1.78433   58.749
 5312.00    1.80813   1.77965   59.055
 5313.00    1.79999   1.76859   59.387
 5314.00    1.79145   1.75402   59.900
 5315.00    1.77505   1.73837   60.472
 5316.00    1.75217   1.72479   60.764
 5317.00    1.74821   1.71716   60.542
 5318.00    1.76104   1.71702   60.163
 5319.00    1.77403   1.72050   -1.000
 5320.00    1.77985   1.72086   -1.000
 5321.00    1.76797   1.71326   -1.000
 5322.00    1.74993   1.69647   -1.000
 5323.00    1.72662   1.67303   -1.000
 5324.00    1.70322   1.64663   -1.000
 5325.00    1.68896   1.61622   -1.000
 5326.00    1.65942   1.57547   -1.000
 5327.00    1.58629   1.52579   -1.000
 5328.00    1.51482   1.48744   69.951
 5329.00    1.53177   1.48658   66.336
 5330.00    1.61785   1.52968   -1.000
 5331.00    1.69055   1.59374   -1.000
 5332.00    1.72102   1.64917   -1.000
 5333.00    1.73374   1.68617   60.653
 5334.00    1.75508   1.71062   60.150
 5335.00    1.77827   1.72743   -1.000
 5336.00    1.77944   1.73466   60.628
 5337.00    1.76494   1.72771   61.146
 5338.00    1.74475   1.70573   62.237
 5339.00    1.71118   1.67441   63.630
 5340.00    1.67601   1.64647   63.949
 5341.00    1.67376   1.63632   62.778
 5342.00    1.71151   1.64863   -1.000
 5343.00    1.74803   1.67202   -1.000
 5344.00    1.75516   1.68966   -1.000
 5345.00    1.75089   1.69400   -1.000
 5346.00    1.74879   1.68771   -1.000
 5347.00    1.74472   1.67693   -1.000
 5348.00    1.72944   1.66770   -1.000
 5349.00    1.71534   1.66651   62.135
 5350.00    1.72875   1.67876   -1.000
 5351.00    1.75932   1.70309   -1.000
 5352.00    1.78064   1.73146   -1.000
 5353.00    1.79195   1.75745   59.019
 5354.00    1.80929   1.77984   58.401
 5355.00    1.83351   1.79947   57.788
 5356.00    1.84859   1.81496   57.597
 5357.00    1.85080   1.82316   57.687
 5358.00    1.85538   1.82262   57.834
 5359.00    1.85140   1.81375   58.271
 5360.00    1.83432   1.79757   59.116
 5361.00    1.81111   1.77625   60.063
 5362.00    1.78084   1.75365   60.721
 5363.00    1.75370   1.73331   61.093
 5364.00    1.74239   1.71709   61.452
 5365.00    1.73329   1.70534   61.557
 5366.00    1.73391   1.69665   61.431
 5367.00    1.74554   1.68650   -1.000
 5368.00    1.73667   1.66778   -1.000
 5369.00    1.70305   1.63739   -1.000
 5370.00    1.66060   1.60479   -1.000
 5371.00    1.63739   1.58993   64.597
 5372.00    1.66577   1.60775   -1.000
 5373.00    1.73642   1.65468   -1.000
 5374.00    1.80253   1.70978   -1.000
 5375.00    1.82997   1.75184   -1.000
 5376.00    1.83324   1.77245   -1.000
 5377.00    1.82832   1.77658   -1.000
 5378.00    1.82290   1.77324   -1.000
 5379.00    1.81196   1.76697   -1.000
 5380.00    1.79599   1.75771   60.055
 5381.00    1.78442   1.74562   60.505
 5382.00    1.77250   1.73431   60.626
 5383.00    1.77020   1.72921   60.453
 5384.00    1.78264   1.73254   -1.000
 5385.00    1.80293   1.74088   -1.000
 5386.00    1.81528   1.74705   -1.000
 5387.00    1.80828   1.74498   -1.000
 5388.00    1.79131   1.73296   -1.000
 5389.00    1.76828   1.71366   -1.000
 5390.00    1.74829   1.69252   -1.000
 5391.00    1.73649   1.67510   -1.000
 5392.00    1.73003   1.66358   -1.000
 5393.00    1.72701   1.65572   -1.000
 5394.00    1.72388   1.64655   -1.000
 5395.00    1.71173   1.63210   -1.000
 5396.00    1.67829   1.61494   -1.000
 5397.00    1.65510   1.60529   -1.000
 5398.00    1.68025   1.61322   -1.000
 5399.00    1.73006   1.63736   -1.000
 5400.00    1.75872   1.66511   -1.000
 5401.00    1.75669   1.68211   -1.000
 5402.00    1.74544   1.67854   -1.000
 5403.00    1.71639   1.65205   -1.000
 5404.00    1.66544   1.61123   -1.000
 5405.00    1.62629   1.57469   -1.000
 5406.00    1.63008   1.55971   -1.000
 5407.00    1.66532   1.56883   -1.000
 5408.00    1.68807   1.58850   -1.000
 5409.00    1.68182   1.60641   -1.000
 5410.00    1.68229   1.62334   -1.000
 5411.00    1.71629   1.64710   -1.000
 5412.00    1.76487   1.67834   -1.000
 5413.00    1.78918   1.70748   -1.000
 5414.00    1.78890   1.72752   -1.000
 5415.00    1.78918   1.74120   -1.000
 5416.00    1.80006   1.75357   -1.000
 5417.00    1.81198   1.76350   -1.000
 5418.00    1.81100   1.76554   -1.000
 5419.00    1.79601   1.75830   60.626
 5420.00    1.78382   1.74721   60.680
 5421.00    1.78840   1.73758   -1.000
 5422.00    1.79501   1.73017   -1.000
 5423.00    1.78107   1.72394   -1.000
 5424.00    1.75805   1.72195   61.406
 5425.00    1.75901   1.72936   60.502
 5426.00    1.78790   1.74182   -1.000
 5427.00    1.80471   1.74388   -1.000
 5428.00    1.77556   1.72510   -1.000
 5429.00    1.72398   1.69301   64.015
 5430.00    1.70132   1.66699   63.408
 5431.00    1.72022   1.65716   -1.000
 5432.00    1.73793   1.65556   -1.000
 5433.00    1.72454   1.65048   -1.000
 5434.00    1.69936   1.64184   -1.000
 5435.00    1.69106   1.64153   -1.000
 5436.00    1.71145   1.66057   -1.000
 5437.00    1.75448   1.69841   -1.000
 5438.00    1.80416   1.74416   -1.000
 5439.00    1.83466   1.78419   -1.000
 5440.00    1.85318   1.81085   58.499
 5441.00    1.86547   1.82268   58.465
 5442.00    1.86038   1.82042   58.768
 5443.00    1.84409   1.80243   -1.000
 5444.00    1.80467   1.76656   61.955
 5445.00    1.74002   1.71821   64.320
 5446.00    1.68230   1.67409   65.142
 5447.00    1.67387   1.65396   63.726
 5448.00    1.72056   1.66614   -1.000
 5449.00    1.78195   1.69987   -1.000
 5450.00    1.81360   1.73420   -1.000
 5451.00    1.81852   1.75108   -1.000
 5452.00    1.81174   1.74434   -1.000
 5453.00    1.78932   1.71776   -1.000
 5454.00    1.73952   1.68228   -1.000
 5455.00    1.69064   1.65504   65.114
 5456.00    1.69909   1.65308   63.394
 5457.00    1.75847   1.67912   -1.000
 5458.00    1.81348   1.71736   -1.000
 5459.00    1.83195   1.74444   -1.000
 5460.00    1.81237   1.74729   -1.000
 5461.00    1.77494   1.72985   62.612
 5462.00    1.75494   1.70645   63.193
 5463.00    1.74835   1.69234   -1.000
 5464.00    1.75961   1.69452   -1.000
 5465.00    1.78571   1.70922   -1.000
 5466.00    1.80195   1.72659   -1.000
 5467.00    1.80680   1.73942   -1.000
 5468.00    1.81564   1.74517   -1.000
 5469.00    1.81423   1.74352   -1.000
 5470.00    1.79852   1.73562   -1.000
 5471.00    1.79243   1.72408   -1.000
 5472.00    1.78488   1.71056   -1.000
 5473.00    1.76733   1.69402   -1.000
 5474.00    1.74732   1.67249   -1.000
 5475.00    1.71864   1.64710   -1.000
 5476.00    1.68553   1.62573   -1.000
 5477.00    1.67635   1.61990   -1.000
 5478.00    1.71549   1.63440   -1.000
 5479.00    1.76432   1.65773   -1.000
 5480.00    1.76716   1.67219   -1.000
 5481.00    1.73942   1.67438   -1.000
 5482.00    1.73219   1.67634   -1.000
 5483.00    1.75380   1.69024   -1.000
 5484.00    1.78484   1.71410   -1.000
 5485.00    1.80725   1.73378   -1.000
 5486.00    1.80578   1.73838   -1.000
 5487.00    1.78473   1.72943   -1.000
 5488.00    1.76748   1.71846   -1.000
 5489.00    1.76811   1.71545   -1.000
 5490.00    1.78441   1.72145   -1.000
 5491.00    1.79937   1.73068   -1.000
 5492.00    1.80493   1.73695   -1.000
 5493.00    1.80670   1.73844   -1.000
 5494.00    1.80923   1.73695   -1.000
 5495.00    1.81163   1.73458   -1.000
 5496.00    1.79863   1.73208   -1.000
 5497.00    1.78509   1.73078   -1.000
 5498.00    1.79686   1.73289   -1.000
 5499.00    1.81684   1.73627   -1.000
 5500.00    1.81226   1.73370   -1.000
 5501.00    1.78743   1.72237   -1.000
 5502.00    1.77367   1.70809   -1.000
 5503.00    1.78094   1.69776   -1.000
 5504.00    1.79203   1.69203   -1.000
 5505.00    1.77995   1.68679   -1.000
 5506.00    1.75567   1.68193   -1.000
 5507.00    1.75668   1.68265   -1.000
 5508.00    1.78465   1.69069   -1.000
 5509.00    1.80256   1.69950   -1.000
 5510.00    1.79340   1.69901   -1.000
 5511.00    1.76814   1.68547   -1.000
 5512.00    1.73934   1.66568   -1.000
 5513.00    1.71898   1.65142   -1.000
 5514.00    1.72509   1.65151   -1.000
 5515.00    1.75440   1.66627   -1.000
 5516.00    1.78530   1.69036   -1.000
 5517.00    1.81652   1.71789   -1.000
 5518.00    1.84564   1.74397   -1.000
 5519.00    1.85823   1.76411   -1.000
 5520.00    1.85666   1.77531   -1.000
 5521.00    1.85316   1.77795   -1.000
 5522.00    1.84860   1.77554   -1.000
 5523.00    1.84164   1.77028   -1.000
 5524.00    1.83530   1.76031   -1.000
 5525.00    1.81890   1.74201   -1.000
 5526.00    1.78317   1.71536   -1.000
 5527.00    1.73966   1.68801   -1.000
 5528.00    1.71420   1.67243   64.431
 5529.00    1.73225   1.67721   -1.000
 5530.00    1.77908   1.69861   -1.000
 5531.00    1.80908   1.72248   -1.000
 5532.00    1.81166   1.73624   -1.000
 5533.00    1.80472   1.73702   -1.000
 5534.00    1.79834   1.73070   -1.000
 5535.00    1.79561   1.72494   -1.000
 5536.00    1.80048   1.72439   -1.000
 5537.00    1.81385   1.73000   -1.000
 5538.00    1.82413   1.74065   -1.000
 5539.00    1.83998   1.75438   -1.000
 5540.00    1.86355   1.76760   -1.000
 5541.00    1.86820   1.77461   -1.000
 5542.00    1.85141   1.77223   -1.000
 5543.00    1.83026   1.76327   -1.000
 5544.00    1.82055   1.75439   -1.000
 5545.00    1.82206   1.75118   -1.000
 5546.00    1.83164   1.75543   -1.000
 5547.00    1.84591   1.76662   -1.000
 5548.00    1.86739   1.78258   -1.000
 5549.00    1.88658   1.79833   -1.000
 5550.00    1.89325   1.80782   -1.000
 5551.00    1.88422   1.80794   -1.000
 5552.00    1.86593   1.79950   -1.000
 5553.00    1.84726   1.78665   -1.000
 5554.00    1.83664   1.77521   -1.000
 5555.00    1.83887   1.76956   -1.000
 5556.00    1.84508   1.76929   -1.000
 5557.00    1.84842   1.77124   -1.000
 5558.00    1.85012   1.77284   -1.000
 5559.00    1.84993   1.77312   -1.000
 5560.00    1.84885   1.77125   -1.000
 5561.00    1.84254   1.76567   -1.000
 5562.00    1.82934   1.75618   -1.000
 5563.00    1.81409   1.74538   -1.000
 5564.00    1.79850   1.73634   -1.000
 5565.00    1.79146   1.73051   -1.000
 5566.00    1.79146   1.72718   -1.000
 5567.00    1.79360   1.72562   -1.000
 5568.00    1.79746   1.72581   -1.000
 5569.00    1.79640   1.72760   -1.000
 5570.00    1.79598   1.72987   -1.000
 5571.00    1.80126   1.73115   -1.000
 5572.00    1.80034   1.73175   -1.000
 5573.00    1.78917   1.73444   -1.000
 5574.00    1.77894   1.74157   61.489
 5575.00    1.77221   1.75206   60.787
 5576.00    1.79894   1.76245   59.811
 5577.00    1.79440   1.77046   59.824
 5578.00    1.76276   1.77660   61.502
 5579.00    1.80994   1.78140   62.961
 5580.00    1.85159   1.78372   -1.000
 5581.00    1.85155   1.78228   -1.000
 5582.00    1.84044   1.77628   -1.000
 5583.00    1.83732   1.76522   -1.000
 5584.00    1.83052   1.74747   -1.000
 5585.00    1.80397   1.72018   -1.000
 5586.00    1.75956   1.68462   -1.000
 5587.00    1.71340   1.64994   -1.000
 5588.00    1.69077   1.62816   -1.000
 5589.00    1.70153   1.62668   -1.000
 5590.00    1.72958   1.64213   -1.000
 5591.00    1.75599   1.66411   -1.000
 5592.00    1.76806   1.68294   -1.000
 5593.00    1.76807   1.69675   -1.000
 5594.00    1.77057   1.71013   -1.000
 5595.00    1.79308   1.72589   -1.000
 5596.00    1.82375   1.73931   -1.000
 5597.00    1.82216   1.74117   -1.000
 5598.00    1.79043   1.72836   -1.000
 5599.00    1.76900   1.70730   -1.000
 5600.00    1.75768   1.68650   -1.000
 5601.00    1.74287   1.67261   -1.000
 5602.00    1.73589   1.67174   -1.000
 5603.00    1.75528   1.68892   -1.000
 5604.00    1.80000   1.72336   -1.000
 5605.00    1.84671   1.76538   -1.000
 5606.00    1.87665   1.80102   -1.000
 5607.00    1.88550   1.82283   -1.000
 5608.00    1.88732   1.83201   -1.000
 5609.00    1.89120   1.83445   -1.000
 5610.00    1.89113   1.83468   -1.000
 5611.00    1.89230   1.83181   -1.000
 5612.00    1.89066   1.81894   -1.000
 5613.00    1.86350   1.78972   -1.000
 5614.00    1.80535   1.74757   -1.000
 5615.00    1.75513   1.70778   -1.000
 5616.00    1.75308   1.68934   -1.000
 5617.00    1.78707   1.69689   -1.000
 5618.00    1.81794   1.71928   -1.000
 5619.00    1.83458   1.74213   -1.000
 5620.00    1.84501   1.75821   -1.000
 5621.00    1.85058   1.76617   -1.000
 5622.00    1.84717   1.76373   -1.000
 5623.00    1.82495   1.74929   -1.000
 5624.00    1.79462   1.72970   -1.000
 5625.00    1.78220   1.71763   -1.000
 5626.00    1.80319   1.72218   -1.000
 5627.00    1.83422   1.74165   -1.000
 5628.00    1.85990   1.76613   -1.000
 5629.00    1.87829   1.78792   -1.000
 5630.00    1.88674   1.80355   -1.000
 5631.00    1.89359   1.81135   -1.000
 5632.00    1.88843   1.81071   -1.000
 5633.00    1.87498   1.80252   -1.000
 5634.00    1.86247   1.78870   -1.000
 5635.00    1.84755   1.77224   -1.000
 5636.00    1.83440   1.75658   -1.000
 5637.00    1.82424   1.74515   -1.000
 5638.00    1.82708   1.73988   -1.000
 5639.00    1.82902   1.73894   -1.000
 5640.00    1.82392   1.73836   -1.000
 5641.00    1.81800   1.73704   -1.000
 5642.00    1.81854   1.73747   -1.000
 5643.00    1.83212   1.74218   -1.000
 5644.00    1.83915   1.75047   -1.000
 5645.00    1.84384   1.75908   -1.000
 5646.00    1.85038   1.76544   -1.000
 5647.00    1.85432   1.76820   -1.000
 5648.00    1.85898   1.76749   -1.000
 5649.00    1.85912   1.76558   -1.000
 5650.00    1.86050   1.76623   -1.000
 5651.00    1.87062   1.77044   -1.000
 5652.00    1.87836   1.77488   -1.000
 5653.00    1.87033   1.77436   -1.000
 5654.00    1.84796   1.76580   -1.000
 5655.00    1.83040   1.74955   -1.000
 5656.00    1.81122   1.72666   -1.000
 5657.00    1.76716   1.69993   -1.000
 5658.00    1.72634   1.67724   -1.000
 5659.00    1.73119   1.66790   -1.000
 5660.00    1.77080   1.67431   -1.000
 5661.00    1.79908   1.68972   -1.000
 5662.00    1.79977   1.70537   -1.000
 5663.00    1.80359   1.72039   -1.000
 5664.00    1.82369   1.73657   -1.000
 5665.00    1.83908   1.74970   -1.000
 5666.00    1.83932   1.75422   -1.000
 5667.00    1.83040   1.75046   -1.000
 5668.00    1.82011   1.74478   -1.000
 5669.00    1.82037   1.74442   -1.000
 5670.00    1.83104   1.75217   -1.000
 5671.00    1.84751   1.76668   -1.000
 5672.00    1.86845   1.78435   -1.000
 5673.00    1.88406   1.80060   -1.000
 5674.00    1.89275   1.81137   -1.000
 5675.00    1.88799   1.81624   -1.000
 5676.00    1.88424   1.81695   -1.000
 5677.00    1.88943   1.81463   -1.000
 5678.00    1.89370   1.80879   -1.000
 5679.00    1.89009   1.79873   -1.000
 5680.00    1.87637   1.78484   -1.000
 5681.00    1.85829   1.76884   -1.000
 5682.00    1.83129   1.75338   -1.000
 5683.00    1.81155   1.74217   -1.000
 5684.00    1.81534   1.73797   -1.000
 5685.00    1.82517   1.73841   -1.000
 5686.00    1.82137   1.73841   -1.000
 5687.00    1.81141   1.73721   -1.000
 5688.00    1.80725   1.73919   -1.000
 5689.00    1.81628   1.74856   -1.000
 5690.00    1.83837   1.76485   -1.000
 5691.00    1.86336   1.78254   -1.000
 5692.00    1.88095   1.79626   -1.000
 5693.00    1.89023   1.80341   -1.000
 5694.00    1.88965   1.80430   -1.000
 5695.00    1.88394   1.80070   -1.000
 5696.00    1.87954   1.79362   -1.000
 5697.00    1.86997   1.78304   -1.000
 5698.00    1.85076   1.76951   -1.000
 5699.00    1.83034   1.75495   -1.000
 5700.00    1.81322   1.74219   -1.000
 5701.00    1.79900   1.73341   -1.000
 5702.00    1.79409   1.73052   -1.000
 5703.00    1.80328   1.73343   -1.000
 5704.00    1.81511   1.73641   -1.000
 5705.00    1.81090   1.73206   -1.000
 5706.00    1.78959   1.71773   -1.000
 5707.00    1.76445   1.69662   -1.000
 5708.00    1.73854   1.67615   -1.000
 5709.00    1.71813   1.66247   -1.000
 5710.00    1.71581   1.65954   -1.000
 5711.00    1.73161   1.66952   -1.000
 5712.00    1.77004   1.69170   -1.000
 5713.00    1.81969   1.72247   -1.000
 5714.00    1.85035   1.75468   -1.000
 5715.00    1.86245   1.78013   -1.000
 5716.00    1.86969   1.79696   -1.000
 5717.00    1.87318   1.80804   -1.000
 5718.00    1.87759   1.81684   -1.000
 5719.00    1.89056   1.82578   -1.000
 5720.00    1.90759   1.83553   -1.000
 5721.00    1.91762   1.84530   -1.000
 5722.00    1.92614   1.85327   -1.000
 5723.00    1.92668   1.85711   -1.000
 5724.00    1.91800   1.85454   -1.000
 5725.00    1.90375   1.84492   -1.000
 5726.00    1.88319   1.83137   -1.000
 5727.00    1.87198   1.82019   -1.000
 5728.00    1.87425   1.81570   -1.000
 5729.00    1.88089   1.81672   -1.000
 5730.00    1.87879   1.81828   -1.000
 5731.00    1.86972   1.81903   -1.000
 5732.00    1.86950   1.82266   -1.000
 5733.00    1.88419   1.83126   -1.000
 5734.00    1.90172   1.84200   -1.000
 5735.00    1.90601   1.84869   -1.000
 5736.00    1.90174   1.84844   -1.000
 5737.00    1.89743   1.84379   -1.000
 5738.00    1.89461   1.83865   -1.000
 5739.00    1.89200   1.83535   -1.000
 5740.00    1.89344   1.83349   -1.000
 5741.00    1.89083   1.83234   -1.000
 5742.00    1.88149   1.83276   -1.000
 5743.00    1.89022   1.83610   -1.000
 5744.00    1.90914   1.84186   -1.000
 5745.00    1.91145   1.84606   -1.000
 5746.00    1.89820   1.84446   -1.000
 5747.00    1.88462   1.83800   -1.000
 5748.00    1.87792   1.83209   -1.000
 5749.00    1.87971   1.83114   -1.000
 5750.00    1.89177   1.83064   -1.000
 5751.00    1.89207   1.82241   -1.000
 5752.00    1.86337   1.80469   -1.000
 5753.00    1.83353   1.78603   -1.000
 5754.00    1.82808   1.78037   -1.000
 5755.00    1.85025   1.79299   -1.000
 5756.00    1.88826   1.81723   -1.000
 5757.00    1.91606   1.83906   -1.000
 5758.00    1.92158   1.84717   -1.000
 5759.00    1.90711   1.83900   -1.000
 5760.00    1.88243   1.81980   -1.000
 5761.00    1.85867   1.79993   -1.000
 5762.00    1.84373   1.78970   -1.000
 5763.00    1.84896   1.79557   -1.000
 5764.00    1.87553   1.81604   -1.000
 5765.00    1.90259   1.84246   -1.000
 5766.00    1.91504   1.86334   -1.000
 5767.00    1.92123   1.87406   -1.000
 5768.00    1.92335   1.87611   -1.000
 5769.00    1.91750   1.87250   -1.000
 5770.00    1.90461   1.86566   60.046
 5771.00    1.89070   1.85729   60.411
 5772.00    1.88524   1.84878   60.667
 5773.00    1.88009   1.84162   60.761
 5774.00    1.87327   1.83736   60.723
 5775.00    1.86830   1.83641   60.486
 5776.00    1.86374   1.83705   60.304
 5777.00    1.85253   1.83467   60.399
 5778.00    1.82678   1.82344   60.974
 5779.00    1.78956   1.80095   62.175
 5780.00    1.75750   1.77081   63.294
 5781.00    1.75097   1.74227   63.569
 5782.00    1.76669   1.72306   -1.000
 5783.00    1.78359   1.71579   -1.000
 5784.00    1.79828   1.71834   -1.000
 5785.00    1.81328   1.72873   -1.000
 5786.00    1.82940   1.74715   -1.000
 5787.00    1.84880   1.77114   -1.000
 5788.00    1.87139   1.79225   -1.000
 5789.00    1.88485   1.80493   -1.000
 5790.00    1.87851   1.80978   -1.000
 5791.00    1.87207   1.81294   -1.000
 5792.00    1.87647   1.82076   -1.000
 5793.00    1.88564   1.83406   -1.000
 5794.00    1.89382   1.84780   -1.000
 5795.00    1.89389   1.85514   59.890
 5796.00    1.88647   1.85411   60.286
 5797.00    1.88057   1.84910   60.309
 5798.00    1.88445   1.84885   59.717
 5799.00    1.90468   1.85830   -1.000
 5800.00    1.93351   1.87344   -1.000
 5801.00    1.94615   1.88541   -1.000
 5802.00    1.93800   1.88655   -1.000
 5803.00    1.92454   1.87666   -1.000
 5804.00    1.91135   1.86166   -1.000
 5805.00    1.89674   1.85000   -1.000
 5806.00    1.89389   1.84642   -1.000
 5807.00    1.90063   1.85028   -1.000
 5808.00    1.90664   1.85818   -1.000
 5809.00    1.91635   1.86672   -1.000
 5810.00    1.92324   1.87364   -1.000
 5811.00    1.93433   1.87723   -1.000
 5812.00    1.94108   1.87555   -1.000
 5813.00    1.93489   1.86800   -1.000
 5814.00    1.92616   1.85621   -1.000
 5815.00    1.91518   1.84548   -1.000
 5816.00    1.90943   1.84195   -1.000
 5817.00    1.91831   1.84940   -1.000
 5818.00    1.93798   1.86513   -1.000
 5819.00    1.95252   1.88130   -1.000
 5820.00    1.95615   1.89186   -1.000
 5821.00    1.95637   1.89495   -1.000
 5822.00    1.95520   1.89276   -1.000
 5823.00    1.95155   1.88900   -1.000
 5824.00    1.94989   1.88663   -1.000
 5825.00    1.95201   1.88658   -1.000
 5826.00    1.95547   1.88838   -1.000
 5827.00    1.95937   1.89132   -1.000
 5828.00    1.95809   1.89478   -1.000
 5829.00    1.95452   1.89788   -1.000
 5830.00    1.95614   1.89932   -1.000
 5831.00    1.95660   1.89802   -1.000
 5832.00    1.95507   1.89402   -1.000
 5833.00    1.95742   1.88820   -1.000
 5834.00    1.95248   1.88224   -1.000
 5835.00    1.94306   1.87815   -1.000
 5836.00    1.94348   1.87717   -1.000
 5837.00    1.95353   1.87845   -1.000
 5838.00    1.95676   1.88127   -1.000
 5839.00    1.95441   1.88660   -1.000
 5840.00    1.95780   1.89447   -1.000
 5841.00    1.96132   1.90208   -1.000
 5842.00    1.95914   1.90610   -1.000
 5843.00    1.95769   1.90399   -1.000
 5844.00    1.95687   1.89576   -1.000
 5845.00    1.94905   1.88307   -1.000
 5846.00    1.93483   1.86943   -1.000
 5847.00    1.92307   1.85833   -1.000
 5848.00    1.91874   1.85205   -1.000
 5849.00    1.92285   1.84875   -1.000
 5850.00    1.92649   1.84406   -1.000
 5851.00    1.91564   1.83434   -1.000
 5852.00    1.89297   1.82058   -1.000
 5853.00    1.87890   1.80751   -1.000
 5854.00    1.87862   1.79738   -1.000
 5855.00    1.87674   1.78811   -1.000
 5856.00    1.86243   1.77665   -1.000
 5857.00    1.84557   1.76501   -1.000
 5858.00    1.84327   1.76120   -1.000
 5859.00    1.86260   1.76936   -1.000
 5860.00    1.89010   1.78621   -1.000
 5861.00    1.90346   1.80354   -1.000
 5862.00    1.90300   1.81598   -1.000
 5863.00    1.90389   1.82275   -1.000
 5864.00    1.91045   1.82502   -1.000
 5865.00    1.90863   1.82386   -1.000
 5866.00    1.89483   1.82182   -1.000
 5867.00    1.89120   1.82303   -1.000
 5868.00    1.90654   1.83063   -1.000
 5869.00    1.92985   1.84267   -1.000
 5870.00    1.94409   1.85301   -1.000
 5871.00    1.94372   1.85812   -1.000
 5872.00    1.94514   1.85802   -1.000
 5873.00    1.94619   1.85586   -1.000
 5874.00    1.94306   1.85377   -1.000
 5875.00    1.93516   1.85136   -1.000
 5876.00    1.92816   1.84663   -1.000
 5877.00    1.92668   1.83776   -1.000
 5878.00    1.91817   1.82541   -1.000
 5879.00    1.90348   1.81240   -1.000
 5880.00    1.89379   1.80227   -1.000
 5881.00    1.89821   1.79667   -1.000
 5882.00    1.90893   1.79464   -1.000
 5883.00    1.90546   1.79342   -1.000
 5884.00    1.88437   1.78949   -1.000
 5885.00    1.86067   1.77774   -1.000
 5886.00    1.81557   1.74811   -1.000
 5887.00    1.69456   1.69011   66.727
 5888.00    1.52006   1.60856   -1.000
 5889.00    1.39899   1.52718   -1.000
 5890.00    1.41446   1.47920   -1.000
 5891.00    1.53144   1.47956   70.528
 5892.00    1.62551   1.51149   -1.000
 5893.00    1.62850   1.54182   -1.000
 5894.00    1.56100   1.54787   69.962
 5895.00    1.50163   1.53756   -1.000
 5896.00    1.52858   1.53532   69.391
 5897.00    1.63485   1.56167   -1.000
 5898.00    1.74570   1.61335   -1.000
 5899.00    1.81737   1.66982   -1.000
 5900.00    1.85787   1.71706   -1.000
 5901.00    1.88239   1.75094   -1.000
 5902.00    1.89770   1.77234   -1.000
 5903.00    1.90102   1.78432   -1.000
 5904.00    1.89598   1.79019   -1.000
 5905.00    1.89336   1.79346   -1.000
 5906.00    1.89304   1.79732   -1.000
 5907.00    1.89428   1.80308   -1.000
 5908.00    1.89813   1.81003   -1.000
 5909.00    1.89919   1.81546   -1.000
 5910.00    1.90164   1.81739   -1.000
 5911.00    1.90216   1.81388   -1.000
 5912.00    1.88812   1.80362   -1.000
 5913.00    1.86510   1.78803   -1.000
 5914.00    1.84634   1.77267   -1.000
 5915.00    1.84190   1.76391   -1.000
 5916.00    1.85571   1.76569   -1.000
 5917.00    1.87061   1.77592   -1.000
 5918.00    1.87588   1.78984   -1.000
 5919.00    1.88358   1.80186   -1.000
 5920.00    1.88829   1.80904   -1.000
 5921.00    1.88540   1.81180   -1.000
 5922.00    1.88980   1.81269   -1.000
 5923.00    1.89627   1.81478   -1.000
 5924.00    1.89970   1.81869   -1.000
 5925.00    1.90414   1.82283   -1.000
 5926.00    1.90796   1.82446   -1.000
 5927.00    1.90488   1.82136   -1.000
 5928.00    1.89235   1.81384   -1.000
 5929.00    1.88256   1.80595   -1.000
 5930.00    1.87853   1.80268   -1.000
 5931.00    1.88423   1.80521   -1.000
 5932.00    1.89367   1.80949   -1.000
 5933.00    1.89398   1.80990   -1.000
 5934.00    1.88797   1.80734   -1.000
 5935.00    1.88398   1.80693   -1.000
 5936.00    1.88959   1.81215   -1.000
 5937.00    1.89881   1.82116   -1.000
 5938.00    1.90270   1.82751   -1.000
 5939.00    1.90317   1.82693   -1.000
 5940.00    1.89446   1.81937   -1.000
 5941.00    1.87840   1.80997   -1.000
 5942.00    1.87582   1.80495   -1.000
 5943.00    1.88959   1.80766   -1.000
 5944.00    1.90141   1.81556   -1.000
 5945.00    1.90032   1.82230   -1.000
 5946.00    1.89498   1.82287   -1.000
 5947.00    1.88913   1.81606   -1.000
 5948.00    1.87248   1.80658   -1.000
 5949.00    1.86708   1.79979   -1.000
 5950.00    1.87996   1.79811   -1.000
 5951.00    1.88095   1.79870   -1.000
 5952.00    1.87139   1.79876   -1.000
 5953.00    1.86860   1.79883   -1.000
 5954.00    1.87217   1.79979   -1.000
 5955.00    1.87468   1.80010   -1.000
 5956.00    1.86890   1.79941   -1.000
 5957.00    1.86456   1.80016   -1.000
 5958.00    1.87598   1.80592   -1.000
 5959.00    1.89506   1.81755   -1.000
 5960.00    1.91043   1.83111   -1.000
 5961.00    1.92258   1.84234   -1.000
 5962.00    1.92758   1.84801   -1.000
 5963.00    1.92155   1.84789   -1.000
 5964.00    1.91172   1.84374   -1.000
 5965.00    1.90098   1.83897   -1.000
 5966.00    1.89621   1.83685   -1.000
 5967.00    1.90229   1.83923   -1.000
 5968.00    1.91159   1.84512   -1.000
 5969.00    1.92053   1.85179   -1.000
 5970.00    1.92733   1.85746   -1.000
 5971.00    1.92604   1.86057   -1.000
 5972.00    1.91880   1.85941   -1.000
 5973.00    1.91547   1.85264   -1.000
 5974.00    1.91253   1.84020   -1.000
 5975.00    1.89189   1.82460   -1.000
 5976.00    1.86401   1.81054   -1.000
 5977.00    1.85682   1.80356   -1.000
 5978.00    1.86677   1.80559   -1.000
 5979.00    1.88165   1.81396   -1.000
 5980.00    1.89835   1.82198   -1.000
 5981.00    1.90383   1.82276   -1.000
 5982.00    1.88910   1.81399   -1.000
 5983.00    1.86460   1.79973   -1.000
 5984.00    1.84894   1.78897   -1.000
 5985.00    1.85379   1.78786   -1.000
 5986.00    1.87344   1.79701   -1.000
 5987.00    1.89148   1.81051   -1.000
 5988.00    1.89930   1.82253   -1.000
 5989.00    1.90459   1.83009   -1.000
 5990.00    1.90044   1.83374   -1.000
 5991.00    1.89126   1.83653   -1.000
 5992.00    1.89714   1.84143   -1.000
 5993.00    1.91188   1.84853   -1.000
 5994.00    1.91687   1.85279   -1.000
 5995.00    1.91181   1.85036   -1.000
 5996.00    1.90088   1.84179   -1.000
 5997.00    1.88365   1.83209   -1.000
 5998.00    1.87754   1.82662   -1.000
 5999.00    1.88619   1.82631   -1.000
 6000.00    1.89445   1.82831   -1.000
 6001.00    1.88759   1.82845   -1.000
 6002.00    1.87262   1.82606   -1.000
 6003.00    1.86580   1.82248   62.217
 6004.00    1.86873   1.81870   -1.000
 6005.00    1.87260   1.81299   -1.000
 6006.00    1.85907   1.80370   -1.000
 6007.00    1.83530   1.79421   63.312
 6008.00    1.82893   1.79162   62.841
 6009.00    1.84283   1.79845   -1.000
 6010.00    1.86801   1.81029   -1.000
 6011.00    1.87859   1.81796   -1.000
 6012.00    1.86685   1.81755   -1.000
 6013.00    1.86290   1.81296   -1.000
 6014.00    1.86977   1.80860   -1.000
 6015.00    1.87112   1.80667   -1.000
 6016.00    1.86728   1.80564   -1.000
 6017.00    1.86343   1.80383   -1.000
 6018.00    1.85928   1.80086   -1.000
 6019.00    1.85182   1.79684   -1.000
 6020.00    1.84149   1.79316   -1.000
 6021.00    1.84166   1.79283   -1.000
 6022.00    1.84869   1.79746   -1.000
 6023.00    1.85021   1.80612   -1.000
 6024.00    1.85536   1.81718   62.128
 6025.00    1.86452   1.82891   61.842
 6026.00    1.87853   1.84018   61.555
 6027.00    1.89086   1.85011   -1.000
 6028.00    1.89324   1.85874   61.067
 6029.00    1.89980   1.86620   61.052
 6030.00    1.91071   1.87189   61.147
 6031.00    1.90978   1.87659   61.152
 6032.00    1.91027   1.88120   60.927
 6033.00    1.92109   1.88573   60.715
 6034.00    1.92101   1.88923   60.644
 6035.00    1.91411   1.89107   60.575
 6036.00    1.91304   1.89082   60.557
 6037.00    1.91281   1.88812   60.800
 6038.00    1.90952   1.88349   61.037
 6039.00    1.90358   1.87811   61.182
 6040.00    1.90039   1.87384   61.197
 6041.00    1.89842   1.87252   61.069
 6042.00    1.89783   1.87509   60.860
 6043.00    1.90690   1.88123   60.428
 6044.00    1.91605   1.88955   60.235
 6045.00    1.91804   1.89749   60.297
 6046.00    1.91991   1.90329   60.237
 6047.00    1.92076   1.90674   60.223
 6048.00    1.91825   1.90847   60.383
 6049.00    1.91453   1.90864   60.560
 6050.00    1.91734   1.90696   60.642
 6051.00    1.92180   1.90255   60.727
 6052.00    1.92229   1.89503   60.926
 6053.00    1.92011   1.88515   61.148
 6054.00    1.90877   1.87488   61.417
 6055.00    1.89323   1.86652   61.682
 6056.00    1.88832   1.86222   61.687
 6057.00    1.89115   1.86331   61.435
 6058.00    1.89488   1.86896   61.102
 6059.00    1.89788   1.87546   61.013
 6060.00    1.92423   1.87850   -1.000
 6061.00    1.80421   1.87418   -1.000
 6062.00    1.33717   1.86203   -1.000
 6063.00    1.44989   1.84545   -1.000
 6064.00    1.86110   1.83230   77.247
 6065.00    1.51487   1.83004   -1.000
 6066.00    0.80310   1.84204   -1.000
 6067.00    0.84414   1.86371   -1.000
 6068.00    1.60361   1.88668   -1.000
 6069.00    1.92885   1.90387   60.258
 6070.00    1.91517   1.91353   59.009
 6071.00    1.79760   1.91612   -1.000
 6072.00    1.80215   1.91516   -1.000
 6073.00    1.91641   1.91167   60.518
 6074.00    1.92819   1.90832   60.649
 6075.00    1.91505   1.90309   60.930
 6076.00    1.90520   1.89324   61.271
 6077.00    1.89520   1.88003   61.696
 6078.00    1.88079   1.86642   62.127
 6079.00    1.86953   1.85556   62.299
 6080.00    1.87023   1.84791   62.324
 6081.00    1.86625   1.84229   62.457
 6082.00    1.85860   1.83880   62.539
 6083.00    1.85803   1.83828   62.497
 6084.00    1.86040   1.84039   62.439
 6085.00    1.86242   1.84404   62.305
 6086.00    1.86485   1.84807   62.075
 6087.00    1.86598   1.85067   62.034
 6088.00    1.86626   1.84973   62.329
 6089.00    1.86065   1.84494   62.656
 6090.00    1.84492   1.83882   62.741
 6091.00    1.83945   1.83563   62.477
 6092.00    1.84842   1.83814   62.105
 6093.00    1.85676   1.84571   61.780
 6094.00    1.86843   1.85572   61.473
 6095.00    1.88207   1.86480   61.378
 6096.00    1.88534   1.87130   61.494
 6097.00    1.88626   1.87511   61.589
 6098.00    1.88506   1.87525   61.600
 6099.00    1.87739   1.86812   62.021
 6100.00    1.86211   1.84934   63.259
 6101.00    1.82770   1.82264   64.557
 6102.00    1.79054   1.79856   64.689
 6103.00    1.79023   1.79058   63.688
 6104.00    1.82065   1.80153   62.582
 6105.00    1.84992   1.82252   62.076
 6106.00    1.86536   1.84259   62.163
 6107.00    1.86281   1.85626   62.375
 6108.00    1.85714   1.86431   62.417
 6109.00    1.85980   1.86927   62.318
 6110.00    1.86302   1.87235   62.097
 6111.00    1.86670   1.87463   61.965
 6112.00    1.87070   1.87774   61.788
 6113.00    1.87454   1.88148   61.539
 6114.00    1.87863   1.88388   61.627
 6115.00    1.87239   1.88323   61.987
 6116.00    1.86189   1.87908   62.220
 6117.00    1.86078   1.87161   62.407
 6118.00    1.85812   1.85881   63.073
 6119.00    1.84000   1.83923   63.973
 6120.00    1.81120   1.81657   64.665
 6121.00    1.78878   1.79885   64.946
 6122.00    1.78202   1.79389   64.326
 6123.00    1.79743   1.80279   63.342
 6124.00    1.82890   1.81878   63.004
 6125.00    1.83990   1.83204   63.254
 6126.00    1.82977   1.83815   63.384
 6127.00    1.82736   1.83988   63.239
 6128.00    1.82920   1.84292   62.883
 6129.00    1.83398   1.85120   62.298
 6130.00    1.85039   1.86320   61.971
 6131.00    1.86593   1.87303   62.014
 6132.00    1.86165   1.87277   62.414
 6133.00    1.84715   1.85624   63.505
 6134.00    1.82283   1.82212   65.252
 6135.00    1.77524   1.77901   67.046
 6136.00    1.72355   1.74331   67.856
 6137.00    1.70472   1.73118   66.862
 6138.00    1.73366   1.74556   64.956
 6139.00    1.78037   1.77337   63.761
 6140.00    1.80765   1.79954   63.594
 6141.00    1.81175   1.81706   63.743
 6142.00    1.81394   1.83056   63.409
 6143.00    1.82917   1.84487   62.651
 6144.00    1.84543   1.85844   62.276
 6145.00    1.84861   1.86662   62.444
 6146.00    1.84314   1.86649   62.814
 6147.00    1.83758   1.85938   63.251
 6148.00    1.82952   1.84919   63.661
 6149.00    1.81584   1.84071   63.815
 6150.00    1.81079   1.83692   63.659
 6151.00    1.81335   1.83783   63.290
 6152.00    1.82033   1.84012   63.046
 6153.00    1.82576   1.83975   63.348
 6154.00    1.81883   1.83544   63.801
 6155.00    1.81173   1.82871   63.946
 6156.00    1.80871   1.82166   64.104
 6157.00    1.80616   1.81217   64.627
 6158.00    1.79414   1.79466   65.655
 6159.00    1.76326   1.76472   67.369
 6160.00    1.72090   1.72394   69.413
 6161.00    1.67572   1.68484   70.641
 6162.00    1.64593   1.66162   70.231
 6163.00    1.65344   1.66383   68.565
 6164.00    1.68510   1.68567   67.118
 6165.00    1.71747   1.71417   66.578
 6166.00    1.73535   1.73427   66.597
 6167.00    1.73377   1.73979   67.199
 6168.00    1.71659   1.73378   68.006
 6169.00    1.69569   1.72684   67.983
 6170.00    1.69627   1.72980   66.928
 6171.00    1.72719   1.74436   65.800
 6172.00    1.75580   1.76461   65.481
 6173.00    1.76288   1.78155   65.597
 6174.00    1.76553   1.79205   65.514
 6175.00    1.76699   1.79768   65.361
 6176.00    1.76934   1.80172   65.211
 6177.00    1.77674   1.80679   64.944
 6178.00    1.78488   1.81325   64.664
 6179.00    1.78993   1.82063   64.453
 6180.00    1.79346   1.82792   64.192
 6181.00    1.79760   1.83465   63.966
 6182.00    1.80397   1.83938   63.985
 6183.00    1.81130   1.83957   64.188
 6184.00    1.80715   1.83366   64.587
 6185.00    1.79359   1.82185   65.235
 6186.00    1.78158   1.80619   65.938
 6187.00    1.76791   1.78879   66.583
 6188.00    1.75100   1.77059   67.124
 6189.00    1.73592   1.75210   67.832
 6190.00    1.71593   1.73725   68.486
 6191.00    1.69760   1.73223   68.177
 6192.00    1.70728   1.74248   66.786
 6193.00    1.73820   1.76486   65.412
 6194.00    1.76481   1.79101   64.783
 6195.00    1.78132   1.81110   64.599
 6196.00    1.79496   1.82015   64.822
 6197.00    1.79382   1.81741   65.476
 6198.00    1.77157   1.80754   66.122
 6199.00    1.74774   1.79811   -1.000
 6200.00    1.73481   1.79650   -1.000
 6201.00    1.74082   1.80503   -1.000
 6202.00    1.76305   1.81896   -1.000
 6203.00    1.78045   1.83247   -1.000
 6204.00    1.78806   1.84156   -1.000
 6205.00    1.80086   1.84662   64.440
 6206.00    1.80796   1.84924   64.597
 6207.00    1.80368   1.84991   64.712
 6208.00    1.80301   1.84737   64.858
 6209.00    1.79889   1.83967   65.353
 6210.00    1.78735   1.82524   65.918
 6211.00    1.77288   1.80392   66.501
 6212.00    1.75062   1.77844   67.381
 6213.00    1.72139   1.75369   68.228
 6214.00    1.70446   1.73677   68.586
 6215.00    1.70765   1.73036   68.092
 6216.00    1.72173   1.73272   67.466
 6217.00    1.73642   1.73749   67.689
 6218.00    1.73421   1.74010   67.800
 6219.00    1.71793   1.74043   67.337
 6220.00    1.71207   1.74179   67.374
 6221.00    1.74102   1.74717   70.518
 6222.00    1.67765   1.75538   -1.000
 6223.00    1.55299   1.76376   -1.000
 6224.00    1.64814   1.76994   -1.000
 6225.00    1.76793   1.77261   66.851
 6226.00    1.76017   1.76965   67.072
 6227.00    1.75327   1.75855   67.796
 6228.00    1.73267   1.73847   68.876
 6229.00    1.69819   1.71497   69.874
 6230.00    1.66588   1.69695   70.042
 6231.00    1.66417   1.69459   69.245
 6232.00    1.68995   1.70920   68.026
 6233.00    1.71886   1.73536   66.830
 6234.00    1.74232   1.76155   66.218
 6235.00    1.75852   1.77861   66.403
 6236.00    1.75736   1.78154   67.027
 6237.00    1.74257   1.77215   67.716
 6238.00    1.72540   1.75625   68.423
 6239.00    1.70724   1.73995   68.894
 6240.00    1.69804   1.72656   68.965
 6241.00    1.69836   1.71622   69.237
 6242.00    1.68679   1.70762   69.754
 6243.00    1.66845   1.70086   69.906
 6244.00    1.66681   1.69863   69.593
 6245.00    1.67795   1.70439   68.981
 6246.00    1.69199   1.71828   68.168
 6247.00    1.71258   1.73731   67.382
 6248.00    1.72916   1.75371   67.064
 6249.00    1.72766   1.76036   67.441
 6250.00    1.71485   1.75326   68.474
 6251.00    1.69858   1.73574   69.531
 6252.00    1.67574   1.71466   70.130
 6253.00    1.65342   1.69764   -1.000
 6254.00    1.64734   1.68646   70.472
 6255.00    1.64649   1.67900   70.824
 6256.00    1.63548   1.67331   71.508
 6257.00    1.62678   1.67097   -1.000
 6258.00    1.63129   1.67651   -1.000
 6259.00    1.65326   1.69230   -1.000
 6260.00    1.67697   1.71631   68.678
 6261.00    1.69609   1.74232   -1.000
 6262.00    1.71723   1.76349   -1.000
 6263.00    1.72737   1.77585   -1.000
 6264.00    1.72079   1.77992   -1.000
 6265.00    1.71374   1.78031   -1.000
 6266.00    1.71176   1.78068   -1.000
 6267.00    1.71108   1.78204   -1.000
 6268.00    1.71187   1.78297   -1.000
 6269.00    1.70478   1.78325   -1.000
 6270.00    1.70259   1.78461   -1.000
 6271.00    1.71357   1.78767   -1.000
 6272.00    1.72412   1.79084   -1.000
 6273.00    1.71874   1.79090   -1.000
 6274.00    1.70098   1.78576   -1.000
 6275.00    1.67927   1.77475   -1.000
 6276.00    1.65228   1.75939   -1.000
 6277.00    1.62835   1.74080   -1.000
 6278.00    1.60732   1.72285   -1.000
 6279.00    1.59095   1.70943   -1.000
 6280.00    1.57877   1.70560   -1.000
 6281.00    1.57390   1.71327   -1.000
 6282.00    1.58611   1.73047   -1.000
 6283.00    1.60688   1.75249   -1.000
 6284.00    1.63157   1.77453   -1.000
 6285.00    1.66250   1.79360   -1.000
 6286.00    1.69535   1.80867   -1.000
 6287.00    1.71848   1.81807   -1.000
 6288.00    1.72790   1.82092   -1.000
 6289.00    1.73019   1.81642   -1.000
 6290.00    1.72334   1.80712   -1.000
 6291.00    1.71190   1.79651   -1.000
 6292.00    1.70667   1.78770   -1.000
 6293.00    1.70924   1.78073   -1.000
 6294.00    1.70649   1.77335   -1.000
 6295.00    1.69501   1.76407   -1.000
 6296.00    1.68620   1.75397   -1.000
 6297.00    1.68014   1.74601   -1.000
 6298.00    1.67613   1.74157   -1.000
 6299.00    1.67777   1.73885   -1.000
 6300.00    1.67692   1.73661   -1.000
 6301.00    1.67036   1.73620   -1.000
 6302.00    1.67055   1.74088   -1.000
 6303.00    1.68313   1.75252   -1.000
 6304.00    1.70126   1.76906   -1.000
 6305.00    1.71498   1.78744   -1.000
 6306.00    1.72376   1.80401   -1.000
 6307.00    1.73396   1.81614   -1.000
 6308.00    1.74268   1.82133   -1.000
 6309.00    1.73763   1.81951   -1.000
 6310.00    1.71834   1.81259   -1.000
 6311.00    1.70532   1.80355   -1.000
 6312.00    1.70495   1.79369   -1.000
 6313.00    1.70115   1.78300   -1.000
 6314.00    1.68724   1.77179   -1.000
 6315.00    1.67246   1.76116   -1.000
 6316.00    1.66323   1.75381   -1.000
 6317.00    1.66623   1.75131   -1.000
 6318.00    1.67421   1.75537   -1.000
 6319.00    1.68505   1.76571   -1.000
 6320.00    1.70049   1.78060   -1.000
 6321.00    1.71287   1.79629   -1.000
 6322.00    1.71981   1.81086   -1.000
 6323.00    1.72172   1.82328   -1.000
 6324.00    1.73290   1.83303   -1.000
 6325.00    1.75119   1.83935   -1.000
 6326.00    1.75775   1.84256   -1.000
 6327.00    1.75496   1.84367   -1.000
 6328.00    1.75212   1.84428   -1.000
 6329.00    1.75100   1.84541   -1.000
 6330.00    1.75377   1.84725   -1.000
 6331.00    1.75664   1.84854   -1.000
 6332.00    1.76078   1.84597   -1.000
 6333.00    1.76477   1.83603   -1.000
 6334.00    1.65393   1.81965   -1.000
 6335.00    1.57765   1.80323   -1.000
 6336.00    1.66031   1.79440   -1.000
 6337.00    1.71341   1.79733   -1.000
 6338.00    1.72344   1.80917   -1.000
 6339.00    1.74387   1.82400   -1.000
 6340.00    1.75992   1.83514   -1.000
 6341.00    1.76286   1.83895   -1.000
 6342.00    1.75475   1.83576   -1.000
 6343.00    1.74547   1.83057   -1.000
 6344.00    1.74329   1.82918   -1.000
 6345.00    1.75032   1.83486   -1.000
 6346.00    1.76023   1.84637   -1.000
 6347.00    1.76646   1.85978   -1.000
 6348.00    1.77219   1.87156   -1.000
 6349.00    1.78311   1.87943   -1.000
 6350.00    1.79215   1.88204   -1.000
 6351.00    1.78253   1.87890   -1.000
 6352.00    1.76822   1.86982   -1.000
 6353.00    1.76156   1.85690   -1.000
 6354.00    1.74971   1.84275   -1.000
 6355.00    1.73869   1.82987   -1.000
 6356.00    1.73101   1.81806   -1.000
 6357.00    1.72258   1.80586   -1.000
 6358.00    1.71226   1.79310   -1.000
 6359.00    1.70276   1.78146   -1.000
 6360.00    1.70260   1.77293   -1.000
 6361.00    1.70353   1.76880   -1.000
 6362.00    1.70474   1.77029   -1.000
 6363.00    1.71225   1.77783   -1.000
 6364.00    1.72290   1.79115   -1.000
 6365.00    1.73116   1.80796   -1.000
 6366.00    1.73607   1.82579   -1.000
 6367.00    1.74543   1.84130   -1.000
 6368.00    1.75871   1.85330   -1.000
 6369.00    1.76800   1.86158   -1.000
 6370.00    1.76977   1.86828   -1.000
 6371.00    1.76906   1.87498   -1.000
 6372.00    1.77207   1.88166   -1.000
 6373.00    1.77576   1.88691   -1.000
 6374.00    1.77360   1.88895   -1.000
 6375.00    1.76907   1.88719   -1.000
 6376.00    1.76022   1.88178   -1.000
 6377.00    1.74558   1.87407   -1.000
 6378.00    1.73713   1.86567   -1.000
 6379.00    1.73355   1.85932   -1.000
 6380.00    1.73043   1.85633   -1.000
 6381.00    1.72914   1.85703   -1.000
 6382.00    1.73203   1.86000   -1.000
 6383.00    1.74032   1.86374   -1.000
 6384.00    1.74223   1.86751   -1.000
 6385.00    1.73211   1.87138   -1.000
 6386.00    1.72553   1.87521   -1.000
 6387.00    1.72629   1.87787   -1.000
 6388.00    1.72332   1.87754   -1.000
 6389.00    1.71569   1.87219   -1.000
 6390.00    1.70386   1.86047   -1.000
 6391.00    1.68504   1.84403   -1.000
 6392.00    1.65861   1.82838   -1.000
 6393.00    1.63666   1.82165   -1.000
 6394.00    1.63545   1.82702   -1.000
 6395.00    1.65079   1.84097   -1.000
 6396.00    1.65952   1.85184   -1.000
 6397.00    1.64893   1.85197   -1.000
 6398.00    1.62407   1.84087   -1.000
 6399.00    1.59726   1.82826   -1.000
 6400.00    1.58315   1.82592   -1.000
 6401.00    1.59098   1.83820   -1.000
 6402.00    1.61126   1.86013   -1.000
 6403.00    1.62454   1.87957   -1.000
 6404.00    1.62484   1.88892   -1.000
 6405.00    1.60969   1.88570   -1.000
 6406.00    1.59135   1.87528   -1.000
 6407.00    1.57455   1.86380   -1.000
 6408.00    1.55075   1.85625   -1.000
 6409.00    1.54026   1.85262   -1.000
 6410.00    1.54063   1.85103   -1.000
 6411.00    1.52484   1.85048   -1.000
 6412.00    1.50730   1.85200   -1.000
 6413.00    1.50292   1.85581   -1.000
 6414.00    1.50316   1.86101   -1.000
 6415.00    1.50091   1.86499   -1.000
 6416.00    1.49292   1.86500   -1.000
 6417.00    1.48191   1.85882   -1.000
 6418.00    1.46563   1.84747   -1.000
 6419.00    1.44053   1.83506   -1.000
 6420.00    1.41265   1.82923   -1.000
 6421.00    1.39429   1.83438   -1.000
 6422.00    1.39506   1.85042   -1.000
 6423.00    1.40656   1.87073   -1.000
 6424.00    1.41032   1.88882   -1.000
 6425.00    1.40584   1.90053   -1.000
 6426.00    1.39661   1.90413   -1.000
 6427.00    1.38108   1.89820   -1.000
 6428.00    1.36423   1.88337   -1.000
