###################################################################
## OUTPUT of StarlightChains_v04.for    [Cid@UFSC - 01/Apr/2007] ##
###################################################################

## Some input info
NGC6316_a_1.cxt                          [arq_obs]
Base.BC03.S                              [arq_base]
NGC6316_a_1.msk                          [arq_masks]
StCv04.C99.config                        [arq_config]
  150                                    [N_base]
    0                                    [N_YAV_components = # of components with extra extinction!]
    0                                    [i_FitPowerLaw (1/0 = Yes/No)]
-9.99                                    [alpha_PowerLaw]
CCM                                      [red_law_option]
 1.458241                                [q_norm = A(l_norm)/A(V)]

## (Re)Sampling Parameters
 3359.00                                 [l_ini (A)]
 6428.00                                 [l_fin (A)]
    1.00                                 [dl    (A)]     (OBS: dl_cushion =    50.00 A)

## Normalization info
 4020.00                                 [l_norm (A) - for base]
 4010.00                                 [llow_norm (A) - window for f_obs]
 4060.00                                 [lupp_norm (A) - window for f_obs]
3.447620E-15                             [fobs_norm (in input units)]

## S/N
 4730.00                                 [llow_SN (A) - window for S/N]
 4780.00                                 [lupp_SN (A) - window for S/N]
  41.849                                 [S/N in S/N window]
  23.735                                 [S/N in norm. window]
 229.586                                 [S/N_err in S/N window]
 130.210                                 [S/N_err in norm. window]
  1.0000                                 [fscale_chi2]

## etc...
  2147483618                             [idum_orig]
  3063                                   [NOl_eff]
   595                                   [Nl_eff]
  2468    NSIGMA                         [Ntot_cliped & clip_method]
  4696300                                [Nglobal_steps]
   7                                     [N_chains]
  26                                     [NEX0s_base = N_base in EX0s-fits]
 0   0   1      228   2.0   2.812E+02    [Clip-Bug, RC-Crash & Burn-In warning-flags, n_censored_weights, wei_nsig_threshold & wei_limit]
   187    186.926    186.926      0.000  [idt_all, wdt_TotTime, wdt_UsrTime & wdt_SysTime (sec)]

## Synthesis Results - Best model ##

 2.94764E+00                             [chi2/Nl_eff]
     1.83515                             [adev (%)]

   100.10457                             [sum-of-x (%)]
 3.98406E-14                             [Flux_tot (units of input spectrum!)]
 2.39036E-09                             [Mini_tot (???)]
 1.18804E-09                             [Mcor_tot (???)]

 -33.19                                  [v0_min  (km/s)]
  56.97                                  [vd_min  (km/s)]
 1.8213                                  [AV_min  (mag)]
 0.0000                                  [YAV_min (mag)]

# j     x_j(%)      Mini_j(%)     Mcor_j(%)     age_j(yr)     Z_j      (L/M)_j    YAV?  Mstars   component_j        a/Fe...       SSP_chi2r SSP_adev(%)   SSP_AV   SSP_x(%)
  1      0.3562     7.2686E-04    1.4625E-03    1.000000E+06  0.00010  8.160E-03    0   1.0000   age020_m22            0.0000     5.9487E+03    44.7239   4.0000   104.6603
  2      3.9456     1.3804E-03    2.7774E-03    3.160000E+06  0.00010  4.759E-02    0   1.0000   age045_m22            0.0000     2.2695E+02     7.5449   3.6949    98.0191
  3     20.8628     1.7979E-02    3.4663E-02    5.010000E+06  0.00010  1.932E-02    0   0.9582   age055_m22            0.0000     3.2104E+02    12.2883   3.8899    87.7473
  4      1.4078     2.3504E-03    4.3965E-03    6.610000E+06  0.00010  9.973E-03    0   0.9297   age061_m22            0.0000     5.8089E+03    43.8464   4.0000   107.6614
  5      1.0611     2.2974E-03    4.1741E-03    8.710000E+06  0.00010  7.690E-03    0   0.9030   age067_m22            0.0000     5.7333E+03    43.4506   4.0000   108.1515
  6      0.0000     0.0000E+00    0.0000E+00    1.000000E+07  0.00010  6.375E-03    0   0.8902   age070_m22            0.0000     5.7850E+03    43.3417   4.0000   108.4028
  7      0.0000     0.0000E+00    0.0000E+00    1.445000E+07  0.00010  4.874E-03    0   0.8589   age078_m22            0.0000     4.6400E+03    39.2070   4.0000   110.8029
  8      0.0000     0.0000E+00    0.0000E+00    2.512000E+07  0.00010  4.103E-03    0   0.8174   age090_m22            0.0000     2.6271E+03    28.9509   4.0000   113.7944
  9      0.0000     0.0000E+00    0.0000E+00    4.000000E+07  0.00010  3.654E-03    0   0.7830   age104_m22            0.0000     1.7016E+03    20.4999   4.0000   114.0596
 10      0.0000     0.0000E+00    0.0000E+00    5.500000E+07  0.00010  3.093E-03    0   0.7597   age110_m22            0.0000     1.4651E+03    17.8893   4.0000   113.7564
 11      0.0000     0.0000E+00    0.0000E+00    1.015200E+08  0.00010  2.431E-03    0   0.7138   age116_m22            0.0000     8.3070E+02    14.4554   4.0000   108.9019
 12      0.0000     0.0000E+00    0.0000E+00    1.609000E+08  0.00010  1.319E-03    0   0.6775   age120_m22            0.0000     5.2145E+02    12.7613   3.9173   100.5626
 13      0.0000     0.0000E+00    0.0000E+00    2.861200E+08  0.00010  1.075E-03    0   0.6412   age125_m22            0.0000     9.2298E+02    17.4813   4.0000   103.5137
 14      0.0000     0.0000E+00    0.0000E+00    5.088000E+08  0.00010  7.183E-04    0   0.6083   age130_m22            0.0000     1.0477E+03    18.6563   3.8351   103.3068
 15      0.0000     0.0000E+00    0.0000E+00    9.047900E+08  0.00010  4.524E-04    0   0.5785   age135_m22            0.0000     1.0607E+03    18.9062   3.6375   104.3832
 16      0.0000     0.0000E+00    0.0000E+00    1.278050E+09  0.00010  3.018E-04    0   0.5588   age138_m22            0.0000     6.7840E+02    15.1681   3.0623   104.1061
 17      0.0000     0.0000E+00    0.0000E+00    1.434000E+09  0.00010  2.691E-04    0   0.5532   age139_m22            0.0000     6.0619E+02    14.3780   2.8973   103.8823
 18      0.0000     0.0000E+00    0.0000E+00    2.500000E+09  0.00010  1.582E-04    0   0.5296   age150_m22            0.0000     5.6306E+02    13.9799   2.7731   104.8451
 19      0.0000     0.0000E+00    0.0000E+00    4.250000E+09  0.00010  1.007E-04    0   0.5110   age158_m22            0.0000     4.1691E+02    11.9932   2.5986   103.8822
 20      0.0000     0.0000E+00    0.0000E+00    6.250000E+09  0.00010  6.869E-05    0   0.4985   age166_m22            0.0000     2.9328E+02     9.8878   2.5145   101.9401
 21      0.0000     0.0000E+00    0.0000E+00    7.500000E+09  0.00010  5.873E-05    0   0.4931   age171_m22            0.0000     2.7689E+02     9.5766   2.4958   101.5719
 22      0.0000     0.0000E+00    0.0000E+00    1.000000E+10  0.00010  4.481E-05    0   0.4854   age181_m22            0.0000     2.7096E+02     9.4696   2.4574   101.2335
 23      0.0000     0.0000E+00    0.0000E+00    1.300000E+10  0.00010  3.489E-05    0   0.4791   age193_m22            0.0000     2.5681E+02     9.1862   2.3999   100.7583
 24      0.0000     0.0000E+00    0.0000E+00    1.500000E+10  0.00010  3.035E-05    0   0.4766   age201_m22            0.0000     2.4743E+02     9.0037   2.3583   100.6709
 25      0.0000     0.0000E+00    0.0000E+00    1.800000E+10  0.00010  2.510E-05    0   0.4735   age213_m22            0.0000     2.2532E+02     8.5493   2.2852   100.2482
 26      0.0000     0.0000E+00    0.0000E+00    1.000000E+06  0.00040  8.458E-03    0   1.0000   age020_m32            0.0000     6.0520E+03    44.7490   4.0000   105.4537
 27      0.0000     0.0000E+00    0.0000E+00    3.160000E+06  0.00040  3.973E-02    0   1.0000   age045_m32            0.0000     2.1830E+03    27.0312   4.0000   112.2963
 28      0.1401     1.2057E-04    2.3124E-04    5.010000E+06  0.00040  1.935E-02    0   0.9532   age055_m32            0.0000     3.2090E+03    34.6682   4.0000   108.5870
 29      0.0000     0.0000E+00    0.0000E+00    6.610000E+06  0.00040  1.204E-02    0   0.9243   age061_m32            0.0000     4.9065E+03    40.8521   4.0000   109.2794
 30      0.0000     0.0000E+00    0.0000E+00    8.710000E+06  0.00040  9.433E-03    0   0.9001   age067_m32            0.0000     4.7142E+03    39.9177   4.0000   110.1575
 31      0.0000     0.0000E+00    0.0000E+00    1.000000E+07  0.00040  8.053E-03    0   0.8877   age070_m32            0.0000     4.5009E+03    39.1118   4.0000   110.4402
 32      0.7267     1.7219E-03    2.9719E-03    1.445000E+07  0.00040  7.027E-03    0   0.8578   age078_m32            0.0000     2.0085E+03    27.0865   4.0000   110.0585
 33      0.0000     0.0000E+00    0.0000E+00    2.512000E+07  0.00040  4.707E-03    0   0.8166   age090_m32            0.0000     1.1029E+03    19.0410   4.0000   108.9513
 34      0.0000     0.0000E+00    0.0000E+00    4.000000E+07  0.00040  3.714E-03    0   0.7827   age104_m32            0.0000     7.6630E+02    14.0083   4.0000   108.0294
 35      0.0000     0.0000E+00    0.0000E+00    5.500000E+07  0.00040  2.982E-03    0   0.7593   age110_m32            0.0000     7.2393E+02    13.2272   4.0000   107.7907
 36      0.0000     0.0000E+00    0.0000E+00    1.015200E+08  0.00040  2.188E-03    0   0.7143   age116_m32            0.0000     7.0985E+02    14.9738   4.0000   105.3590
 37      0.0000     0.0000E+00    0.0000E+00    1.609000E+08  0.00040  1.690E-03    0   0.6856   age120_m32            0.0000     8.0705E+02    16.4062   4.0000   102.1395
 38      0.0000     0.0000E+00    0.0000E+00    2.861200E+08  0.00040  1.152E-03    0   0.6509   age125_m32            0.0000     9.5149E+02    17.7554   3.8100   102.9699
 39      0.0000     0.0000E+00    0.0000E+00    5.088000E+08  0.00040  7.331E-04    0   0.6182   age130_m32            0.0000     1.0071E+03    18.3410   3.6547   103.4899
 40      0.0000     0.0000E+00    0.0000E+00    9.047900E+08  0.00040  3.960E-04    0   0.5890   age135_m32            0.0000     6.9950E+02    15.3906   3.1610   103.3124
 41      0.0000     0.0000E+00    0.0000E+00    1.278050E+09  0.00040  2.854E-04    0   0.5687   age138_m32            0.0000     6.1346E+02    14.6213   2.8521   105.4445
 42      0.0000     0.0000E+00    0.0000E+00    1.434000E+09  0.00040  2.531E-04    0   0.5632   age139_m32            0.0000     6.0176E+02    14.5049   2.7886   105.4829
 43      0.0000     0.0000E+00    0.0000E+00    2.500000E+09  0.00040  1.488E-04    0   0.5386   age150_m32            0.0000     4.8947E+02    13.1265   2.5204   104.1783
 44      0.0000     0.0000E+00    0.0000E+00    4.250000E+09  0.00040  9.082E-05    0   0.5199   age158_m32            0.0000     2.8532E+02     9.8500   2.3829   102.1445
 45      7.0582     1.8472E+00    1.8865E+00    6.250000E+09  0.00040  6.362E-05    0   0.5076   age166_m32            0.0000     1.6846E+02     7.2438   2.3044    99.8720
 46      8.2048     2.5829E+00    2.6124E+00    7.500000E+09  0.00040  5.289E-05    0   0.5027   age171_m32            0.0000     1.4795E+02     6.7081   2.2624    98.8283
 47      2.0633     8.6491E-01    8.6106E-01    1.000000E+10  0.00040  3.972E-05    0   0.4948   age181_m32            0.0000     1.3390E+02     6.3344   2.1980    97.6122
 48      0.0000     0.0000E+00    0.0000E+00    1.300000E+10  0.00040  3.283E-05    0   0.4870   age193_m32            0.0000     1.8145E+02     7.6732   2.1729    99.8128
 49      0.0000     0.0000E+00    0.0000E+00    1.500000E+10  0.00040  2.925E-05    0   0.4854   age201_m32            0.0000     2.1768E+02     8.5513   2.1655   101.0752
 50      0.0000     0.0000E+00    0.0000E+00    1.800000E+10  0.00040  2.469E-05    0   0.4819   age213_m32            0.0000     2.3103E+02     8.8680   2.1300   101.4864
 51      0.0000     0.0000E+00    0.0000E+00    1.000000E+06  0.00400  1.114E-02    0   1.0000   age020_m42            0.0000     5.5907E+03    43.3917   4.0000   105.7450
 52      0.0000     0.0000E+00    0.0000E+00    3.160000E+06  0.00400  4.073E-02    0   0.9999   age045_m42            0.0000     1.1661E+03    18.8043   4.0000   109.9194
 53      0.0000     0.0000E+00    0.0000E+00    5.010000E+06  0.00400  2.534E-02    0   0.9488   age055_m42            0.0000     2.5625E+03    30.4786   4.0000   109.8316
 54      0.0000     0.0000E+00    0.0000E+00    6.610000E+06  0.00400  2.583E-02    0   0.9220   age061_m42            0.0000     7.8107E+02    14.8128   4.0000   106.9321
 55      0.0000     0.0000E+00    0.0000E+00    8.710000E+06  0.00400  1.706E-02    0   0.8983   age067_m42            0.0000     4.0848E+02    12.4331   4.0000   100.9801
 56      0.0000     0.0000E+00    0.0000E+00    1.000000E+07  0.00400  1.271E-02    0   0.8862   age070_m42            0.0000     3.9601E+02    13.2629   4.0000    99.1507
 57      0.0000     0.0000E+00    0.0000E+00    1.445000E+07  0.00400  7.666E-03    0   0.8571   age078_m42            0.0000     1.1821E+03    22.9409   4.0000   104.3771
 58      0.0000     0.0000E+00    0.0000E+00    2.512000E+07  0.00400  5.070E-03    0   0.8174   age090_m42            0.0000     2.6830E+02    10.5631   4.0000    97.6758
 59      0.0000     0.0000E+00    0.0000E+00    4.000000E+07  0.00400  3.505E-03    0   0.7851   age104_m42            0.0000     2.0766E+02     8.1197   3.8109    97.4602
 60      0.0000     0.0000E+00    0.0000E+00    5.500000E+07  0.00400  3.059E-03    0   0.7629   age110_m42            0.0000     3.4494E+02     9.9274   3.9342   100.1110
 61      0.0000     0.0000E+00    0.0000E+00    1.015200E+08  0.00400  2.268E-03    0   0.7207   age116_m42            0.0000     7.1565E+02    15.3841   3.9224   102.8466
 62      0.0000     0.0000E+00    0.0000E+00    1.609000E+08  0.00400  1.720E-03    0   0.6930   age120_m42            0.0000     7.7040E+02    15.9329   3.7945   103.9554
 63      0.0000     0.0000E+00    0.0000E+00    2.861200E+08  0.00400  1.079E-03    0   0.6613   age125_m42            0.0000     7.5824E+02    15.9456   3.4331   104.6226
 64      0.0000     0.0000E+00    0.0000E+00    5.088000E+08  0.00400  6.261E-04    0   0.6313   age130_m42            0.0000     8.4369E+02    17.0998   3.2513   107.0030
 65      0.0000     0.0000E+00    0.0000E+00    9.047900E+08  0.00400  3.535E-04    0   0.6024   age135_m42            0.0000     6.0454E+02    14.6688   2.8315   108.0404
 66      0.0000     0.0000E+00    0.0000E+00    1.278050E+09  0.00400  2.677E-04    0   0.5837   age138_m42            0.0000     2.9761E+02    10.9895   2.1153   107.2544
 67      0.0000     0.0000E+00    0.0000E+00    1.434000E+09  0.00400  1.910E-04    0   0.5716   age139_m42            0.0000     3.6728E+02    11.7403   2.2948   107.6026
 68      0.0000     0.0000E+00    0.0000E+00    2.500000E+09  0.00400  9.818E-05    0   0.5463   age150_m42            0.0000     1.6869E+02     8.1510   1.9897   104.1757
 69      0.2056     6.2336E-02    6.6084E-02    4.250000E+09  0.00400  5.491E-05    0   0.5269   age158_m42            0.0000     1.0124E+02     6.4784   1.8440   102.1227
 70      0.0000     0.0000E+00    0.0000E+00    6.250000E+09  0.00400  3.857E-05    0   0.5151   age166_m42            0.0000     9.4239E+01     6.3444   1.7138   101.0865
 71      1.5208     7.8080E-01    8.0278E-01    7.500000E+09  0.00400  3.243E-05    0   0.5110   age171_m42            0.0000     9.8626E+01     6.5532   1.6348   100.6739
 72      1.5520     1.0661E+00    1.0785E+00    1.000000E+10  0.00400  2.424E-05    0   0.5028   age181_m42            0.0000     1.0743E+02     6.9438   1.5543   100.2069
 73      2.4217     2.1413E+00    2.1227E+00    1.300000E+10  0.00400  1.883E-05    0   0.4927   age193_m42            0.0000     1.1283E+02     7.1775   1.5114   100.0735
 74      5.6480     5.5809E+00    5.5235E+00    1.500000E+10  0.00400  1.685E-05    0   0.4919   age201_m42            0.0000     1.0819E+02     6.9828   1.5160   100.0825
 75      6.3354     7.2647E+00    7.1242E+00    1.800000E+10  0.00400  1.452E-05    0   0.4874   age213_m42            0.0000     1.0021E+02     6.6638   1.5298   100.3630
 76      0.0000     0.0000E+00    0.0000E+00    1.000000E+06  0.00800  1.286E-02    0   1.0000   age020_m52            0.0000     5.4163E+03    42.4491   4.0000   107.7589
 77      0.0000     0.0000E+00    0.0000E+00    3.160000E+06  0.00800  3.147E-02    0   0.9966   age045_m52            0.0000     4.9399E+03    40.9860   4.0000   109.0916
 78      0.0000     0.0000E+00    0.0000E+00    5.010000E+06  0.00800  2.664E-02    0   0.9443   age055_m52            0.0000     3.1301E+03    33.6768   4.0000   110.2536
 79      0.0000     0.0000E+00    0.0000E+00    6.610000E+06  0.00800  2.151E-02    0   0.9177   age061_m52            0.0000     1.8296E+02     8.5672   3.8255    95.2236
 80      0.0000     0.0000E+00    0.0000E+00    8.710000E+06  0.00800  1.628E-02    0   0.8948   age067_m52            0.0000     3.5356E+02    12.1847   4.0000   100.4583
 81      0.0000     0.0000E+00    0.0000E+00    1.000000E+07  0.00800  1.215E-02    0   0.8827   age070_m52            0.0000     9.7438E+02    20.3381   4.0000   106.1641
 82      0.0000     0.0000E+00    0.0000E+00    1.445000E+07  0.00800  8.739E-03    0   0.8552   age078_m52            0.0000     1.1215E+03    20.5823   4.0000   108.3485
 83      0.0000     0.0000E+00    0.0000E+00    2.512000E+07  0.00800  5.676E-03    0   0.8162   age090_m52            0.0000     4.7782E+02    11.7492   4.0000   104.2112
 84      0.0000     0.0000E+00    0.0000E+00    4.000000E+07  0.00800  3.939E-03    0   0.7841   age104_m52            0.0000     4.1553E+02    10.5486   4.0000   102.4980
 85      0.0000     0.0000E+00    0.0000E+00    5.500000E+07  0.00800  3.155E-03    0   0.7627   age110_m52            0.0000     4.7808E+02    11.7200   4.0000   103.3996
 86      0.0000     0.0000E+00    0.0000E+00    1.015200E+08  0.00800  2.206E-03    0   0.7226   age116_m52            0.0000     6.1441E+02    14.0609   3.9616   103.1371
 87      0.0000     0.0000E+00    0.0000E+00    1.609000E+08  0.00800  1.596E-03    0   0.6963   age120_m52            0.0000     6.8144E+02    15.0225   3.7597   104.4038
 88      0.0000     0.0000E+00    0.0000E+00    2.861200E+08  0.00800  1.002E-03    0   0.6665   age125_m52            0.0000     8.6388E+02    17.2539   3.4966   106.4588
 89      0.0000     0.0000E+00    0.0000E+00    5.088000E+08  0.00800  5.759E-04    0   0.6377   age130_m52            0.0000     8.9840E+02    17.8463   3.1668   110.0450
 90      0.0000     0.0000E+00    0.0000E+00    9.047900E+08  0.00800  2.972E-04    0   0.6086   age135_m52            0.0000     5.9844E+02    14.6293   2.6045   109.9700
 91      0.0000     0.0000E+00    0.0000E+00    1.278050E+09  0.00800  2.242E-04    0   0.5907   age138_m52            0.0000     2.8737E+02    10.7489   1.9440   110.6189
 92      0.0000     0.0000E+00    0.0000E+00    1.434000E+09  0.00800  1.645E-04    0   0.5787   age139_m52            0.0000     2.6662E+02    10.1841   2.0888   109.9807
 93      0.0000     0.0000E+00    0.0000E+00    2.500000E+09  0.00800  7.723E-05    0   0.5519   age150_m52            0.0000     1.5752E+02     8.2085   1.7266   107.2373
 94      0.0371     1.4862E-02    1.5908E-02    4.250000E+09  0.00800  4.151E-05    0   0.5320   age158_m52            0.0000     1.3235E+02     7.6099   1.6453   105.0624
 95      0.5580     3.0865E-01    3.2274E-01    6.250000E+09  0.00800  3.010E-05    0   0.5197   age166_m52            0.0000     1.4072E+02     8.0837   1.4471   104.0592
 96      0.0000     0.0000E+00    0.0000E+00    7.500000E+09  0.00800  2.467E-05    0   0.5139   age171_m52            0.0000     1.4827E+02     8.3304   1.4059   103.7118
 97      0.0000     0.0000E+00    0.0000E+00    1.000000E+10  0.00800  1.862E-05    0   0.5054   age181_m52            0.0000     1.8158E+02     9.1799   1.2780   103.4985
 98      0.0000     0.0000E+00    0.0000E+00    1.300000E+10  0.00800  1.433E-05    0   0.4988   age193_m52            0.0000     2.1926E+02    10.0329   1.1848   104.2890
 99      0.0000     0.0000E+00    0.0000E+00    1.500000E+10  0.00800  1.244E-05    0   0.4936   age201_m52            0.0000     2.3486E+02    10.3603   1.1569   104.8075
100      0.1855     2.8864E-01    2.8387E-01    1.800000E+10  0.00800  1.070E-05    0   0.4888   age213_m52            0.0000     2.4794E+02    10.6161   1.1236   104.6968
101      0.0000     0.0000E+00    0.0000E+00    1.000000E+06  0.02000  1.989E-02    0   1.0000   age020_m62            0.0000     5.3639E+03    42.4216   4.0000   106.5818
102      0.0000     0.0000E+00    0.0000E+00    3.160000E+06  0.02000  3.772E-02    0   0.9858   age045_m62            0.0000     4.5775E+03    40.0872   4.0000   108.4003
103      0.0000     0.0000E+00    0.0000E+00    5.010000E+06  0.02000  3.227E-02    0   0.9342   age055_m62            0.0000     2.0233E+03    26.4206   4.0000   111.0664
104      0.0000     0.0000E+00    0.0000E+00    6.610000E+06  0.02000  2.387E-02    0   0.9090   age061_m62            0.0000     1.1774E+03    22.5637   4.0000   105.9912
105      0.0000     0.0000E+00    0.0000E+00    8.710000E+06  0.02000  1.102E-02    0   0.8861   age067_m62            0.0000     7.5972E+02    19.6910   4.0000    93.0127
106      0.0027     4.4776E-06    7.8837E-06    1.000000E+07  0.02000  1.011E-02    0   0.8751   age070_m62            0.0000     5.6969E+02    17.3610   4.0000    96.1320
107      0.0000     0.0000E+00    0.0000E+00    1.445000E+07  0.02000  7.331E-03    0   0.8472   age078_m62            0.0000     4.6709E+02    15.7783   4.0000    98.1067
108      0.0000     0.0000E+00    0.0000E+00    2.512000E+07  0.02000  4.206E-03    0   0.8099   age090_m62            0.0000     3.8706E+02    14.4161   4.0000    95.5205
109      0.0000     0.0000E+00    0.0000E+00    4.000000E+07  0.02000  3.373E-03    0   0.7799   age104_m62            0.0000     2.8564E+02     8.9431   4.0000    99.3956
110      0.0000     0.0000E+00    0.0000E+00    5.500000E+07  0.02000  2.747E-03    0   0.7595   age110_m62            0.0000     3.8501E+02    10.3373   4.0000   101.0550
111      0.0000     0.0000E+00    0.0000E+00    1.015200E+08  0.02000  1.878E-03    0   0.7221   age116_m62            0.0000     6.4183E+02    14.4342   3.9269   104.0076
112      0.0000     0.0000E+00    0.0000E+00    1.609000E+08  0.02000  1.378E-03    0   0.6978   age120_m62            0.0000     8.1154E+02    16.4153   3.8004   105.7534
113      0.0000     0.0000E+00    0.0000E+00    2.861200E+08  0.02000  8.869E-04    0   0.6700   age125_m62            0.0000     1.0637E+03    19.1076   3.4642   109.1437
114      0.0000     0.0000E+00    0.0000E+00    5.088000E+08  0.02000  4.834E-04    0   0.6430   age130_m62            0.0000     9.6540E+02    18.3668   3.0367   111.4716
115      0.0000     0.0000E+00    0.0000E+00    9.047900E+08  0.02000  2.312E-04    0   0.6152   age135_m62            0.0000     5.4482E+02    14.0263   2.3976   112.3841
116      0.0000     0.0000E+00    0.0000E+00    1.278050E+09  0.02000  1.387E-04    0   0.5927   age138_m62            0.0000     2.7562E+02    10.0936   1.9741   109.7128
117      0.0000     0.0000E+00    0.0000E+00    1.434000E+09  0.02000  1.168E-04    0   0.5865   age139_m62            0.0000     2.3473E+02     9.3162   1.9408   108.3812
118      0.0000     0.0000E+00    0.0000E+00    2.500000E+09  0.02000  5.505E-05    0   0.5610   age150_m62            0.0000     1.6651E+02     8.3181   1.5521   106.4787
119      0.0000     0.0000E+00    0.0000E+00    4.250000E+09  0.02000  3.070E-05    0   0.5407   age158_m62            0.0000     2.2426E+02     9.9971   1.2593   106.9514
120      0.0000     0.0000E+00    0.0000E+00    6.250000E+09  0.02000  2.104E-05    0   0.5277   age166_m62            0.0000     2.6752E+02    10.9650   1.1272   107.6606
121      0.3348     3.1498E-01    3.3100E-01    7.500000E+09  0.02000  1.770E-05    0   0.5223   age171_m62            0.0000     2.9936E+02    11.4924   1.0397   108.1910
122      0.0000     0.0000E+00    0.0000E+00    1.000000E+10  0.02000  1.297E-05    0   0.5121   age181_m62            0.0000     3.7113E+02    12.5846   0.8819   108.9869
123      5.4119     9.2980E+00    9.4418E+00    1.300000E+10  0.02000  9.691E-06    0   0.5047   age193_m62            0.0000     4.2457E+02    13.3023   0.7992   109.5270
124     11.5954     2.3093E+01    2.3227E+01    1.500000E+10  0.02000  8.360E-06    0   0.4999   age201_m62            0.0000     4.7728E+02    13.9708   0.7298   109.8973
125     18.4531     4.4457E+01    4.4241E+01    1.800000E+10  0.02000  6.911E-06    0   0.4946   age213_m62            0.0000     5.4997E+02    14.8454   0.6586   110.2674
126      0.0000     0.0000E+00    0.0000E+00    1.000000E+06  0.05000  2.651E-02    0   0.9998   age020_m72            0.0000     5.3321E+03    42.0791   4.0000   107.8152
127      0.0000     0.0000E+00    0.0000E+00    3.160000E+06  0.05000  4.817E-02    0   0.9577   age045_m72            0.0000     3.7132E+03    35.9293   4.0000   111.0634
128      0.0000     0.0000E+00    0.0000E+00    5.010000E+06  0.05000  3.101E-02    0   0.9147   age055_m72            0.0000     2.0628E+03    28.3801   4.0000   109.5025
129      0.0000     0.0000E+00    0.0000E+00    6.610000E+06  0.05000  1.472E-02    0   0.8877   age061_m72            0.0000     8.8945E+02    21.5364   4.0000    99.0568
130      0.0000     0.0000E+00    0.0000E+00    8.710000E+06  0.05000  1.050E-02    0   0.8638   age067_m72            0.0000     1.9008E+03    28.4733   4.0000   107.1682
131      0.0000     0.0000E+00    0.0000E+00    1.000000E+07  0.05000  8.954E-03    0   0.8524   age070_m72            0.0000     3.0285E+03    32.9038   4.0000   111.3878
132      0.0000     0.0000E+00    0.0000E+00    1.445000E+07  0.05000  6.392E-03    0   0.8262   age078_m72            0.0000     2.7616E+03    31.1674   4.0000   112.0119
133      0.0000     0.0000E+00    0.0000E+00    2.512000E+07  0.05000  4.207E-03    0   0.7902   age090_m72            0.0000     1.3361E+03    21.2767   4.0000   110.9474
134      0.0000     0.0000E+00    0.0000E+00    4.000000E+07  0.05000  3.198E-03    0   0.7618   age104_m72            0.0000     6.1266E+02    12.3197   4.0000   108.0598
135      0.0000     0.0000E+00    0.0000E+00    5.500000E+07  0.05000  2.593E-03    0   0.7432   age110_m72            0.0000     6.3312E+02    13.6785   4.0000   107.5732
136      0.0000     0.0000E+00    0.0000E+00    1.015200E+08  0.05000  1.716E-03    0   0.7092   age116_m72            0.0000     7.2924E+02    15.4735   4.0000   104.5667
137      0.0000     0.0000E+00    0.0000E+00    1.609000E+08  0.05000  1.218E-03    0   0.6876   age120_m72            0.0000     9.0158E+02    17.3041   3.7894   105.7323
138      0.0000     0.0000E+00    0.0000E+00    2.861200E+08  0.05000  7.047E-04    0   0.6618   age125_m72            0.0000     1.0301E+03    18.8617   3.2742   109.3257
139      0.0000     0.0000E+00    0.0000E+00    5.088000E+08  0.05000  3.590E-04    0   0.6356   age130_m72            0.0000     8.4174E+02    17.3396   2.6940   112.5152
140      0.0000     0.0000E+00    0.0000E+00    9.047900E+08  0.05000  1.484E-04    0   0.6088   age135_m72            0.0000     3.4749E+02    11.4722   1.8988   108.7166
141      0.0000     0.0000E+00    0.0000E+00    1.278050E+09  0.05000  9.435E-05    0   0.5924   age138_m72            0.0000     2.7732E+02    10.7748   1.4790   106.9229
142      0.0000     4.4856E-06    5.2770E-06    1.434000E+09  0.05000  7.827E-05    0   0.5847   age139_m72            0.0000     2.5092E+02    10.4297   1.4849   106.4468
143      0.0157     6.9510E-03    7.8081E-03    2.500000E+09  0.05000  3.759E-05    0   0.5583   age150_m72            0.0000     2.7500E+02    11.1853   1.1456   106.6049
144      0.0000     0.0000E+00    0.0000E+00    4.250000E+09  0.05000  1.842E-05    0   0.5374   age158_m72            0.0000     3.7082E+02    12.4999   0.8299   106.5106
145      0.0000     0.0000E+00    0.0000E+00    6.250000E+09  0.05000  1.207E-05    0   0.5242   age166_m72            0.0000     4.9407E+02    13.9608   0.5930   106.6234
146      0.0000     0.0000E+00    0.0000E+00    7.500000E+09  0.05000  9.993E-06    0   0.5183   age171_m72            0.0000     5.1384E+02    14.1341   0.5493   106.6465
147      0.0000     0.0000E+00    0.0000E+00    1.000000E+10  0.05000  7.291E-06    0   0.5081   age181_m72            0.0000     6.1590E+02    15.2651   0.4301   106.7679
148      0.0000     0.0000E+00    0.0000E+00    1.300000E+10  0.05000  5.316E-06    0   0.5018   age193_m72            0.0000     7.9044E+02    17.0509   0.2505   106.9547
149      0.0000     0.0000E+00    0.0000E+00    1.500000E+10  0.05000  4.497E-06    0   0.4972   age201_m72            0.0000     8.8270E+02    17.9560   0.1794   107.3702
150      0.0000     0.0000E+00    0.0000E+00    1.800000E+10  0.05000  3.739E-06    0   0.4924   age213_m72            0.0000     1.0083E+03    19.1122   0.0767   107.7076


## Synthesis Results - Average & Chains ##

# j      x_j: min, <> & last-chain-values for 1 ...  7 chains
  1      0.3562      0.3079      0.3128      0.3316      0.2808      0.2627      0.3036      0.2952      0.5113
  2      3.9456      2.5446      2.7327      2.5352      2.6482      2.6303      2.7376      2.7377      2.7185
  3     20.8628     19.7616     19.7417     19.6322     20.5176     20.0251     20.2219     19.8630     20.4221
  4      1.4078      1.7215      1.6655      1.6438      1.7159      1.6862      1.7540      1.6944      1.6792
  5      1.0611      1.0384      1.1757      1.0179      1.0308      1.0128      1.0853      0.9284      1.0519
  6      0.0000      0.1115      0.2196      0.1160      0.0000      0.0824      0.0000      0.1394      0.0000
  7      0.0000      0.0394      0.1436      0.0000      0.0000      0.0000      0.0000      0.0000      0.0000
  8      0.0000      0.0295      0.0000      0.1293      0.0472      0.0000      0.0093      0.0000      0.1382
  9      0.0000      0.0322      0.0973      0.0000      0.0162      0.1951      0.1467      0.0000      0.0195
 10      0.0000      0.0204      0.0000      0.1072      0.0000      0.0300      0.0000      0.1179      0.0000
 11      0.0000      0.0235      0.0000      0.0000      0.0081      0.0000      0.0000      0.0000      0.0062
 12      0.0000      0.0155      0.0000      0.0000      0.0000      0.0000      0.0000      0.0000      0.0074
 13      0.0000      0.0072      0.0000      0.0313      0.0000      0.0000      0.0000      0.0000      0.0000
 14      0.0000      0.0066      0.0000      0.0000      0.0000      0.0000      0.0000      0.0000      0.0056
 15      0.0000      0.0076      0.0000      0.0000      0.0000      0.0000      0.0000      0.0000      0.0000
 16      0.0000      0.0126      0.0000      0.0000      0.0000      0.0000      0.0000      0.0000      0.0000
 17      0.0000      0.0132      0.0091      0.0000      0.0000      0.0000      0.0000      0.0000      0.0000
 18      0.0000      0.0191      0.0000      0.0000      0.0203      0.0000      0.0000      0.0000      0.0000
 19      0.0000      0.0366      0.0012      0.0000      0.0000      0.0000      0.0000      0.0000      0.0000
 20      0.0000      0.0501      0.0000      0.0172      0.0000      0.0000      0.1047      0.0254      0.2202
 21      0.0000      0.0709      0.0225      0.1379      0.0000      0.1299      0.0000      0.0405      0.0000
 22      0.0000      0.0600      0.0000      0.0000      0.0000      0.0000      0.0197      0.0000      0.2720
 23      0.0000      0.0697      0.0000      0.0000      0.0000      0.2500      0.0000      0.0528      0.0757
 24      0.0000      0.0708      0.1678      0.0000      0.0000      0.0000      0.0169      0.0113      0.0000
 25      0.0000      0.0889      0.0599      0.0000      0.2239      0.0242      0.1118      0.0000      0.2258
 26      0.0000      0.0667      0.0531      0.2363      0.0000      0.0000      0.0000      0.0187      0.0000
 27      0.0000      0.0590      0.3347      0.0000      0.3820      0.0000      0.0000      0.0000      0.1061
 28      0.1401      0.0381      0.0000      0.1437      0.1081      0.0000      0.1928      0.0419      0.0000
 29      0.0000      0.0385      0.0000      0.0000      0.0000      0.0000      0.1257      0.1387      0.0000
 30      0.0000      0.0633      0.0280      0.0000      0.1179      0.0000      0.0000      0.0000      0.0000
 31      0.0000      0.0526      0.0000      0.3301      0.0275      0.1762      0.0889      0.0000      0.0000
 32      0.7267      0.0379      0.0000      0.0000      0.0000      0.0000      0.1795      0.0000      0.0000
 33      0.0000      0.0232      0.0000      0.1186      0.0000      0.0399      0.0000      0.0000      0.0000
 34      0.0000      0.0204      0.0000      0.0809      0.0000      0.0710      0.0000      0.0000      0.0000
 35      0.0000      0.0301      0.0000      0.0000      0.0000      0.0000      0.1478      0.0378      0.0216
 36      0.0000      0.0113      0.0000      0.0000      0.1011      0.0000      0.1718      0.0000      0.0000
 37      0.0000      0.0125      0.0249      0.0000      0.0000      0.0000      0.0000      0.0000      0.0472
 38      0.0000      0.0068      0.0000      0.0000      0.0000      0.0000      0.0000      0.0000      0.0083
 39      0.0000      0.0081      0.0000      0.0000      0.0000      0.0000      0.0000      0.0000      0.0000
 40      0.0000      0.0109      0.0000      0.0000      0.0000      0.0000      0.0000      0.0000      0.0000
 41      0.0000      0.0189      0.0000      0.0000      0.0000      0.0000      0.0170      0.0000      0.0000
 42      0.0000      0.0173      0.0000      0.0000      0.0000      0.0000      0.0000      0.0000      0.0000
 43      0.0000      0.0348      0.0000      0.0000      0.0000      0.0000      0.0000      0.0000      0.0363
 44      0.0000      0.0784      0.2292      0.2337      0.4206      0.0000      0.0317      0.0553      0.0089
 45      7.0582      5.0039      4.8739      5.6371      5.2400      5.3280      5.0037      5.4469      5.2198
 46      8.2048      7.7926      8.1017      7.9139      7.8701      8.7732      7.7650      8.3999      7.7272
 47      2.0633      3.9752      4.0683      3.3767      3.8893      4.1279      4.7602      3.9921      3.1377
 48      0.0000      0.1237      0.0560      0.1850      0.0708      0.0420      0.0933      0.0000      0.1283
 49      0.0000      0.0910      0.0000      0.3433      0.0000      0.0000      0.0000      0.0170      0.2813
 50      0.0000      0.0862      0.0000      0.0000      0.1011      0.0000      0.0000      0.0000      0.0000
 51      0.0000      0.0675      0.0000      0.0643      0.0000      0.0172      0.0047      0.0623      0.0000
 52      0.0000      0.0426      0.0000      0.1025      0.0000      0.0000      0.0000      0.0000      0.0000
 53      0.0000      0.0576      0.1851      0.0579      0.0454      0.0834      0.0000      0.1699      0.0000
 54      0.0000      0.0402      0.0509      0.0000      0.0000      0.0902      0.0000      0.0000      0.0000
 55      0.0000      0.0598      0.0000      0.0000      0.1457      0.0000      0.1457      0.0000      0.1135
 56      0.0000      0.0456      0.2282      0.0000      0.0000      0.0138      0.0000      0.0000      0.0830
 57      0.0000      0.0400      0.0000      0.0000      0.0000      0.0000      0.0000      0.0000      0.0000
 58      0.0000      0.0263      0.0000      0.0000      0.0000      0.0000      0.0000      0.0000      0.1403
 59      0.0000      0.0232      0.0000      0.0000      0.0190      0.0123      0.0000      0.0000      0.0000
 60      0.0000      0.0190      0.0000      0.0000      0.0000      0.0000      0.0000      0.0000      0.0000
 61      0.0000      0.0155      0.0348      0.0000      0.0000      0.0000      0.0000      0.0000      0.0000
 62      0.0000      0.0135      0.0000      0.0000      0.0000      0.0000      0.0000      0.0000      0.0000
 63      0.0000      0.0097      0.0000      0.0000      0.0000      0.0024      0.0000      0.1003      0.0000
 64      0.0000      0.0127      0.0000      0.0000      0.0000      0.0000      0.0000      0.0000      0.0063
 65      0.0000      0.0223      0.1396      0.0000      0.0000      0.0062      0.0000      0.0991      0.0000
 66      0.0000      0.0468      0.0000      0.0000      0.0000      0.0000      0.0000      0.1880      0.1041
 67      0.0000      0.0358      0.0000      0.0000      0.0000      0.0000      0.0000      0.0000      0.0000
 68      0.0000      0.0991      0.0000      0.0000      0.0000      0.0000      0.0124      0.0000      0.0000
 69      0.2056      0.2663      0.2878      0.5280      0.1418      0.3366      0.6689      0.3471      0.5745
 70      0.0000      0.4290      0.7777      0.4910      0.5128      0.4342      0.0000      0.4246      0.4763
 71      1.5208      0.3678      0.4877      0.1742      0.5610      0.4503      0.2336      0.2014      0.8054
 72      1.5520      0.5584      0.2489      0.0000      0.5957      0.0580      0.8870      0.9071      0.5857
 73      2.4217      2.1080      3.0577      2.6293      2.0653      2.3350      2.2081      2.0460      1.7824
 74      5.6480      5.8971      5.6318      6.0432      5.9318      5.5917      6.0465      5.4546      5.6191
 75      6.3354      7.3570      7.2793      7.3754      7.2152      7.4228      7.1981      7.3097      7.6649
 76      0.0000      0.0430      0.0000      0.0289      0.0000      0.0000      0.0000      0.0899      0.0000
 77      0.0000      0.0357      0.0762      0.0000      0.0000      0.2069      0.0000      0.0383      0.0369
 78      0.0000      0.0393      0.0230      0.2215      0.0000      0.0000      0.0000      0.1042      0.0000
 79      0.0000      0.0270      0.0000      0.0000      0.0000      0.0590      0.0000      0.0000      0.0000
 80      0.0000      0.0471      0.0000      0.0000      0.0000      0.0000      0.0154      0.0000      0.0000
 81      0.0000      0.0244      0.1282      0.0000      0.0000      0.0000      0.0000      0.1251      0.0000
 82      0.0000      0.0275      0.0000      0.0000      0.0000      0.0000      0.0568      0.0496      0.0000
 83      0.0000      0.0238      0.0972      0.1131      0.0115      0.0000      0.0000      0.0000      0.0000
 84      0.0000      0.0284      0.0000      0.0000      0.0000      0.0000      0.0000      0.0000      0.1260
 85      0.0000      0.0173      0.0000      0.0000      0.0000      0.0231      0.0181      0.0000      0.0000
 86      0.0000      0.0294      0.0000      0.0000      0.0000      0.0000      0.0000      0.0000      0.0000
 87      0.0000      0.0110      0.0000      0.0000      0.0000      0.0000      0.0000      0.0000      0.0000
 88      0.0000      0.0079      0.0000      0.0000      0.0000      0.0070      0.0000      0.0000      0.0000
 89      0.0000      0.0057      0.0053      0.0000      0.0000      0.0000      0.0000      0.0000      0.0000
 90      0.0000      0.0099      0.0000      0.0000      0.0000      0.0000      0.0000      0.0086      0.0000
 91      0.0000      0.0271      0.0000      0.0000      0.0247      0.0000      0.0000      0.0000      0.0000
 92      0.0000      0.0332      0.1260      0.0000      0.0000      0.1981      0.0000      0.1708      0.0713
 93      0.0000      0.0987      0.2882      0.1520      0.5890      0.1430      0.0000      0.0000      0.0000
 94      0.0371      0.2066      0.0000      0.3154      0.0000      0.0000      0.4611      0.3037      0.3455
 95      0.5580      0.2749      0.2085      0.2015      0.0088      0.2551      0.2280      0.5633      0.0000
 96      0.0000      0.2087      0.0000      0.8099      0.4224      0.0000      0.1396      0.0000      0.4534
 97      0.0000      0.1477      0.3120      0.0000      0.2370      0.5041      0.0000      0.0000      0.1524
 98      0.0000      0.1818      0.1858      0.1462      0.1334      0.2778      0.0000      0.0000      0.1739
 99      0.0000      0.2232      0.0000      0.1944      0.3060      0.1496      0.0000      0.0521      0.3229
100      0.1855      0.2580      0.2042      0.2621      0.0413      0.1113      0.2082      0.3100      0.0000
101      0.0000      0.0409      0.0000      0.0000      0.0000      0.0000      0.0000      0.0129      0.0000
102      0.0000      0.0358      0.0000      0.0000      0.0000      0.0000      0.0261      0.0000      0.0000
103      0.0000      0.0505      0.0802      0.0000      0.0000      0.0000      0.0000      0.2226      0.0000
104      0.0000      0.0425      0.0000      0.0633      0.1480      0.1881      0.0169      0.0678      0.0878
105      0.0000      0.0435      0.0430      0.0000      0.1855      0.0572      0.0000      0.0000      0.0000
106      0.0027      0.0733      0.0143      0.1511      0.1142      0.3328      0.2542      0.0000      0.0000
107      0.0000      0.0542      0.0000      0.0000      0.0034      0.0000      0.0763      0.0000      0.2194
108      0.0000      0.0190      0.0000      0.0000      0.0000      0.1345      0.0000      0.0133      0.0000
109      0.0000      0.0119      0.0000      0.0031      0.0000      0.0000      0.0000      0.0000      0.1176
110      0.0000      0.0143      0.0099      0.0015      0.0273      0.0000      0.0000      0.0000      0.0640
111      0.0000      0.0106      0.0000      0.0306      0.0000      0.0000      0.0000      0.0000      0.0000
112      0.0000      0.0086      0.0000      0.0000      0.0000      0.0000      0.0000      0.0000      0.0000
113      0.0000      0.0074      0.0000      0.0000      0.0000      0.0000      0.0000      0.0000      0.0000
114      0.0000      0.0074      0.0000      0.0000      0.0000      0.0000      0.0000      0.0000      0.0000
115      0.0000      0.0158      0.0058      0.0000      0.0382      0.0000      0.0000      0.0000      0.0161
116      0.0000      0.0306      0.1256      0.0454      0.0141      0.0000      0.0000      0.0000      0.0000
117      0.0000      0.0393      0.0000      0.0000      0.0000      0.0000      0.1357      0.0000      0.0000
118      0.0000      0.1299      0.0000      0.2239      0.5126      0.0000      0.0000      0.2476      0.0655
119      0.0000      0.1303      0.3304      0.0000      0.0000      0.1445      0.0000      0.2300      0.0292
120      0.0000      0.1165      0.0000      0.4631      0.0000      0.0000      0.0000      0.6130      0.1663
121      0.3348      0.1050      0.0000      0.7061      0.0000      0.0000      0.1821      0.0000      0.0000
122      0.0000      0.0893      0.0000      0.1024      0.0000      0.0556      0.0931      0.0430      0.0000
123      5.4119      5.3889      5.7083      5.2992      5.3674      5.4208      5.3957      5.5776      5.4582
124     11.5954     11.3851     11.3624     11.1897     11.5858     11.6043     11.5244     11.1908     11.8090
125     18.4531     17.8324     18.0174     17.5366     18.0870     18.3364     17.9661     18.2136     18.0650
126      0.0000      0.0253      0.0000      0.0000      0.0000      0.0000      0.0000      0.0000      0.0000
127      0.0000      0.0415      0.0000      0.0000      0.0000      0.0000      0.0000      0.1297      0.1142
128      0.0000      0.0604      0.0000      0.0000      0.0000      0.0000      0.0000      0.2291      0.1012
129      0.0000      0.0307      0.0000      0.0000      0.0000      0.0000      0.0000      0.0000      0.0000
130      0.0000      0.0306      0.0409      0.0000      0.0000      0.0464      0.0000      0.0174      0.0000
131      0.0000      0.0220      0.0000      0.0456      0.0000      0.0000      0.0000      0.0000      0.0019
132      0.0000      0.0311      0.0000      0.0000      0.0000      0.0000      0.0000      0.0717      0.0000
133      0.0000      0.0169      0.0000      0.0000      0.0000      0.0000      0.0000      0.0000      0.0239
134      0.0000      0.0085      0.0573      0.0000      0.0000      0.0000      0.0000      0.0000      0.0000
135      0.0000      0.0100      0.0000      0.0000      0.0000      0.0000      0.0000      0.0000      0.0000
136      0.0000      0.0126      0.0000      0.0000      0.0000      0.0000      0.0351      0.0000      0.0000
137      0.0000      0.0071      0.0000      0.0000      0.0000      0.0000      0.0000      0.0000      0.0000
138      0.0000      0.0089      0.0000      0.0000      0.0000      0.0000      0.0000      0.0220      0.0000
139      0.0000      0.0104      0.0000      0.0000      0.0000      0.0000      0.0000      0.0000      0.0000
140      0.0000      0.0272      0.0069      0.0201      0.0095      0.0000      0.0000      0.0000      0.0000
141      0.0000      0.0742      0.0542      0.0000      0.0000      0.0000      0.0068      0.0854      0.0000
142      0.0000      0.0869      0.0000      0.0000      0.0206      0.0103      0.2177      0.0000      0.0001
143      0.0157      0.1513      0.0591      0.0000      0.0000      0.0000      0.4780      0.0000      0.0000
144      0.0000      0.0638      0.0000      0.0000      0.0157      0.0737      0.0000      0.0000      0.0031
145      0.0000      0.0284      0.0000      0.0000      0.0000      0.0000      0.0000      0.0018      0.0000
146      0.0000      0.0462      0.0000      0.0000      0.0000      0.0404      0.0121      0.0000      0.0000
147      0.0000      0.0328      0.0081      0.0000      0.0000      0.0000      0.0000      0.0000      0.0643
148      0.0000      0.0323      0.0000      0.0000      0.0000      0.0000      0.0000      0.0000      0.0000
149      0.0000      0.0187      0.0322      0.0000      0.1265      0.0000      0.0000      0.0000      0.0000
150      0.0000      0.0161      0.0000      0.0000      0.0102      0.0000      0.0145      0.0000      0.0000

# j      m_j: min, <> & last-chain-values for 1 ...  7 chains
  1  1.4625E-03  1.2615E-03  1.2790E-03  1.3675E-03  1.1463E-03  1.0682E-03  1.2470E-03  1.2123E-03  2.0834E-03
  2  2.7774E-03  1.7879E-03  1.9156E-03  1.7927E-03  1.8539E-03  1.8342E-03  1.9283E-03  1.9277E-03  1.8993E-03
  3  3.4663E-02  3.2773E-02  3.2664E-02  3.2767E-02  3.3902E-02  3.2959E-02  3.3618E-02  3.3012E-02  3.3676E-02
  4  4.3965E-03  5.3663E-03  5.1796E-03  5.1570E-03  5.3293E-03  5.2163E-03  5.4810E-03  5.2931E-03  5.2046E-03
  5  4.1741E-03  4.0771E-03  4.6056E-03  4.0224E-03  4.0325E-03  3.9468E-03  4.2718E-03  3.6530E-03  4.1070E-03
  6  0.0000E+00  5.2077E-04  1.0232E-03  5.4511E-04  0.0000E+00  3.8204E-04  0.0000E+00  6.5209E-04  0.0000E+00
  7  0.0000E+00  2.3188E-04  8.4447E-04  0.0000E+00  0.0000E+00  0.0000E+00  0.0000E+00  0.0000E+00  0.0000E+00
  8  0.0000E+00  1.9679E-04  0.0000E+00  8.6654E-04  3.1297E-04  0.0000E+00  6.2104E-05  0.0000E+00  9.1550E-04
  9  0.0000E+00  2.3054E-04  6.9579E-04  0.0000E+00  1.1591E-04  1.3876E-03  1.0537E-03  0.0000E+00  1.3864E-04
 10  0.0000E+00  1.6731E-04  0.0000E+00  8.8598E-04  0.0000E+00  2.4483E-04  0.0000E+00  9.7055E-04  0.0000E+00
 11  0.0000E+00  2.3121E-04  0.0000E+00  0.0000E+00  7.8960E-05  0.0000E+00  0.0000E+00  0.0000E+00  6.0219E-05
 12  0.0000E+00  2.6605E-04  0.0000E+00  0.0000E+00  0.0000E+00  0.0000E+00  0.0000E+00  0.0000E+00  1.2696E-04
 13  0.0000E+00  1.4382E-04  0.0000E+00  6.2762E-04  0.0000E+00  0.0000E+00  0.0000E+00  0.0000E+00  0.0000E+00
 14  0.0000E+00  1.8714E-04  0.0000E+00  0.0000E+00  0.0000E+00  0.0000E+00  0.0000E+00  0.0000E+00  1.5719E-04
 15  0.0000E+00  3.2292E-04  0.0000E+00  0.0000E+00  0.0000E+00  0.0000E+00  0.0000E+00  0.0000E+00  0.0000E+00
 16  0.0000E+00  7.8217E-04  0.0000E+00  0.0000E+00  0.0000E+00  0.0000E+00  0.0000E+00  0.0000E+00  0.0000E+00
 17  0.0000E+00  9.0967E-04  6.2157E-04  0.0000E+00  0.0000E+00  0.0000E+00  0.0000E+00  0.0000E+00  0.0000E+00
 18  0.0000E+00  2.1360E-03  0.0000E+00  0.0000E+00  2.2646E-03  0.0000E+00  0.0000E+00  0.0000E+00  0.0000E+00
 19  0.0000E+00  6.2025E-03  2.0009E-04  0.0000E+00  0.0000E+00  0.0000E+00  0.0000E+00  0.0000E+00  0.0000E+00
 20  0.0000E+00  1.2159E-02  0.0000E+00  4.1930E-03  0.0000E+00  0.0000E+00  2.5477E-02  6.1891E-03  5.3132E-02
 21  0.0000E+00  1.9901E-02  6.2941E-03  3.8952E-02  0.0000E+00  3.6181E-02  0.0000E+00  1.1387E-02  0.0000E+00
 22  0.0000E+00  2.1728E-02  0.0000E+00  0.0000E+00  0.0000E+00  0.0000E+00  7.1407E-03  0.0000E+00  9.7950E-02
 23  0.0000E+00  3.2020E-02  0.0000E+00  0.0000E+00  0.0000E+00  1.1391E-01  0.0000E+00  2.4311E-02  3.4545E-02
 24  0.0000E+00  3.7165E-02  8.7919E-02  0.0000E+00  0.0000E+00  0.0000E+00  8.9142E-03  5.9613E-03  0.0000E+00
 25  0.0000E+00  5.6083E-02  3.7713E-02  0.0000E+00  1.4074E-01  1.5132E-02  7.0694E-02  0.0000E+00  1.4163E-01
 26  0.0000E+00  2.6377E-04  2.0953E-04  9.4001E-04  0.0000E+00  0.0000E+00  0.0000E+00  7.4245E-05  0.0000E+00
 27  0.0000E+00  4.9673E-05  2.8101E-04  0.0000E+00  3.2029E-04  0.0000E+00  0.0000E+00  0.0000E+00  8.8815E-05
 28  2.3124E-04  6.2777E-05  0.0000E+00  2.3824E-04  1.7733E-04  0.0000E+00  3.1832E-04  6.9150E-05  0.0000E+00
 29  0.0000E+00  9.8722E-05  0.0000E+00  0.0000E+00  0.0000E+00  0.0000E+00  3.2345E-04  3.5670E-04  0.0000E+00
 30  0.0000E+00  2.0202E-04  8.9194E-05  0.0000E+00  3.7484E-04  0.0000E+00  0.0000E+00  0.0000E+00  0.0000E+00
 31  0.0000E+00  1.9373E-04  0.0000E+00  1.2244E-03  1.0104E-04  6.4454E-04  3.2850E-04  0.0000E+00  0.0000E+00
 32  2.9719E-03  1.5475E-04  0.0000E+00  0.0000E+00  0.0000E+00  0.0000E+00  7.3441E-04  0.0000E+00  0.0000E+00
 33  0.0000E+00  1.3458E-04  0.0000E+00  6.9235E-04  0.0000E+00  2.2977E-04  0.0000E+00  0.0000E+00  0.0000E+00
 34  0.0000E+00  1.4342E-04  0.0000E+00  5.7372E-04  0.0000E+00  4.9626E-04  0.0000E+00  0.0000E+00  0.0000E+00
 35  0.0000E+00  2.5646E-04  0.0000E+00  0.0000E+00  0.0000E+00  0.0000E+00  1.2617E-03  3.2242E-04  1.8310E-04
 36  0.0000E+00  1.2358E-04  0.0000E+00  0.0000E+00  1.0991E-03  0.0000E+00  1.8797E-03  0.0000E+00  0.0000E+00
 37  0.0000E+00  1.6913E-04  3.3737E-04  0.0000E+00  0.0000E+00  0.0000E+00  0.0000E+00  0.0000E+00  6.3604E-04
 38  0.0000E+00  1.2924E-04  0.0000E+00  0.0000E+00  0.0000E+00  0.0000E+00  0.0000E+00  0.0000E+00  1.5660E-04
 39  0.0000E+00  2.2868E-04  0.0000E+00  0.0000E+00  0.0000E+00  0.0000E+00  0.0000E+00  0.0000E+00  0.0000E+00
 40  0.0000E+00  5.3986E-04  0.0000E+00  0.0000E+00  0.0000E+00  0.0000E+00  0.0000E+00  0.0000E+00  0.0000E+00
 41  0.0000E+00  1.2580E-03  0.0000E+00  0.0000E+00  0.0000E+00  0.0000E+00  1.1350E-03  0.0000E+00  0.0000E+00
 42  0.0000E+00  1.2900E-03  0.0000E+00  0.0000E+00  0.0000E+00  0.0000E+00  0.0000E+00  0.0000E+00  0.0000E+00
 43  0.0000E+00  4.2074E-03  0.0000E+00  0.0000E+00  0.0000E+00  0.0000E+00  0.0000E+00  0.0000E+00  4.3684E-03
 44  0.0000E+00  1.5001E-02  4.3763E-02  4.5023E-02  8.0215E-02  0.0000E+00  6.0741E-03  1.0600E-02  1.7022E-03
 45  1.8865E+00  1.3350E+00  1.2973E+00  1.5136E+00  1.3929E+00  1.4107E+00  1.3382E+00  1.4563E+00  1.3847E+00
 46  2.6124E+00  2.4766E+00  2.5689E+00  2.5313E+00  2.4921E+00  2.7672E+00  2.4739E+00  2.6754E+00  2.4419E+00
 47  8.6106E-01  1.6558E+00  1.6907E+00  1.4156E+00  1.6142E+00  1.7065E+00  1.9877E+00  1.6665E+00  1.2996E+00
 48  0.0000E+00  6.1346E-02  2.7718E-02  9.2371E-02  3.4968E-02  2.0667E-02  4.6378E-02  0.0000E+00  6.3296E-02
 49  0.0000E+00  5.0516E-02  0.0000E+00  1.9175E-01  0.0000E+00  0.0000E+00  0.0000E+00  9.4544E-03  1.5519E-01
 50  0.0000E+00  5.6227E-02  0.0000E+00  0.0000E+00  6.5710E-02  0.0000E+00  0.0000E+00  0.0000E+00  0.0000E+00
 51  0.0000E+00  2.0275E-04  0.0000E+00  1.9426E-04  0.0000E+00  5.1215E-05  1.4055E-05  1.8726E-04  0.0000E+00
 52  0.0000E+00  3.4970E-05  0.0000E+00  8.4706E-05  0.0000E+00  0.0000E+00  0.0000E+00  0.0000E+00  0.0000E+00
 53  0.0000E+00  7.2057E-05  2.3120E-04  7.2904E-05  5.6686E-05  1.0361E-04  0.0000E+00  2.1313E-04  0.0000E+00
 54  0.0000E+00  4.8040E-05  6.0650E-05  0.0000E+00  0.0000E+00  1.0685E-04  0.0000E+00  0.0000E+00  0.0000E+00
 55  0.0000E+00  1.0531E-04  0.0000E+00  0.0000E+00  2.5565E-04  0.0000E+00  2.5713E-04  0.0000E+00  1.9876E-04
 56  0.0000E+00  1.0635E-04  5.3078E-04  0.0000E+00  0.0000E+00  3.2025E-05  0.0000E+00  0.0000E+00  1.9250E-04
 57  0.0000E+00  1.4953E-04  0.0000E+00  0.0000E+00  0.0000E+00  0.0000E+00  0.0000E+00  0.0000E+00  0.0000E+00
 58  0.0000E+00  1.4174E-04  0.0000E+00  0.0000E+00  0.0000E+00  0.0000E+00  0.0000E+00  0.0000E+00  7.5229E-04
 59  0.0000E+00  1.7341E-04  0.0000E+00  0.0000E+00  1.4169E-04  9.1726E-05  0.0000E+00  0.0000E+00  0.0000E+00
 60  0.0000E+00  1.5863E-04  0.0000E+00  0.0000E+00  0.0000E+00  0.0000E+00  0.0000E+00  0.0000E+00  0.0000E+00
 61  0.0000E+00  1.6425E-04  3.6938E-04  0.0000E+00  0.0000E+00  0.0000E+00  0.0000E+00  0.0000E+00  0.0000E+00
 62  0.0000E+00  1.8236E-04  0.0000E+00  0.0000E+00  0.0000E+00  0.0000E+00  0.0000E+00  0.0000E+00  0.0000E+00
 63  0.0000E+00  1.9922E-04  0.0000E+00  0.0000E+00  0.0000E+00  4.8119E-05  0.0000E+00  2.0600E-03  0.0000E+00
 64  0.0000E+00  4.2978E-04  0.0000E+00  0.0000E+00  0.0000E+00  0.0000E+00  0.0000E+00  0.0000E+00  2.1113E-04
 65  0.0000E+00  1.2679E-03  7.9361E-03  0.0000E+00  0.0000E+00  3.5283E-04  0.0000E+00  5.6617E-03  0.0000E+00
 66  0.0000E+00  3.4092E-03  0.0000E+00  0.0000E+00  0.0000E+00  0.0000E+00  0.0000E+00  1.3736E-02  7.5467E-03
 67  0.0000E+00  3.5852E-03  0.0000E+00  0.0000E+00  0.0000E+00  0.0000E+00  0.0000E+00  0.0000E+00  0.0000E+00
 68  0.0000E+00  1.8432E-02  0.0000E+00  0.0000E+00  0.0000E+00  0.0000E+00  2.3060E-03  0.0000E+00  0.0000E+00
 69  6.6084E-02  8.5433E-02  9.2124E-02  1.7051E-01  4.5343E-02  1.0720E-01  2.1515E-01  1.1161E-01  1.8329E-01
 70  0.0000E+00  1.9156E-01  3.4647E-01  2.2065E-01  2.2818E-01  1.9244E-01  0.0000E+00  1.9002E-01  2.1148E-01
 71  8.0278E-01  1.9379E-01  2.5638E-01  9.2377E-02  2.9448E-01  2.3545E-01  1.2340E-01  1.0634E-01  4.2193E-01
 72  1.0785E+00  3.8733E-01  1.7223E-01  0.0000E+00  4.1164E-01  3.9897E-02  6.1671E-01  6.3049E-01  4.0390E-01
 73  2.1227E+00  1.8443E+00  2.6691E+00  2.3152E+00  1.8004E+00  2.0275E+00  1.9367E+00  1.7939E+00  1.5507E+00
 74  5.5235E+00  5.7564E+00  5.4848E+00  5.9370E+00  5.7692E+00  5.4171E+00  5.9168E+00  5.3360E+00  5.4539E+00
 75  7.1242E+00  8.2577E+00  8.1517E+00  8.3316E+00  8.0689E+00  8.2686E+00  8.0992E+00  8.2222E+00  8.5546E+00
 76  0.0000E+00  1.1187E-04  0.0000E+00  7.5745E-05  0.0000E+00  0.0000E+00  0.0000E+00  2.3417E-04  0.0000E+00
 77  0.0000E+00  3.7794E-05  8.0500E-05  0.0000E+00  0.0000E+00  2.1742E-04  0.0000E+00  4.0680E-05  3.8823E-05
 78  0.0000E+00  4.6543E-05  2.7165E-05  2.6420E-04  0.0000E+00  0.0000E+00  0.0000E+00  1.2375E-04  0.0000E+00
 79  0.0000E+00  3.8509E-05  0.0000E+00  0.0000E+00  0.0000E+00  8.3538E-05  0.0000E+00  0.0000E+00  0.0000E+00
 80  0.0000E+00  8.6620E-05  0.0000E+00  0.0000E+00  0.0000E+00  0.0000E+00  2.8399E-05  0.0000E+00  0.0000E+00
 81  0.0000E+00  5.9280E-05  3.1066E-04  0.0000E+00  0.0000E+00  0.0000E+00  0.0000E+00  3.0457E-04  0.0000E+00
 82  0.0000E+00  9.0145E-05  0.0000E+00  0.0000E+00  0.0000E+00  0.0000E+00  1.8634E-04  1.6278E-04  0.0000E+00
 83  0.0000E+00  1.1423E-04  4.6613E-04  5.4715E-04  5.5050E-05  0.0000E+00  0.0000E+00  0.0000E+00  0.0000E+00
 84  0.0000E+00  1.8890E-04  0.0000E+00  0.0000E+00  0.0000E+00  0.0000E+00  0.0000E+00  0.0000E+00  8.3397E-04
 85  0.0000E+00  1.3978E-04  0.0000E+00  0.0000E+00  0.0000E+00  1.8519E-04  1.4692E-04  0.0000E+00  0.0000E+00
 86  0.0000E+00  3.2227E-04  0.0000E+00  0.0000E+00  0.0000E+00  0.0000E+00  0.0000E+00  0.0000E+00  0.0000E+00
 87  0.0000E+00  1.6116E-04  0.0000E+00  0.0000E+00  0.0000E+00  0.0000E+00  0.0000E+00  0.0000E+00  0.0000E+00
 88  0.0000E+00  1.7631E-04  0.0000E+00  0.0000E+00  0.0000E+00  1.5437E-04  0.0000E+00  0.0000E+00  0.0000E+00
 89  0.0000E+00  2.1111E-04  1.9507E-04  0.0000E+00  0.0000E+00  0.0000E+00  0.0000E+00  0.0000E+00  0.0000E+00
 90  0.0000E+00  6.8071E-04  0.0000E+00  0.0000E+00  0.0000E+00  0.0000E+00  0.0000E+00  5.9053E-04  0.0000E+00
 91  0.0000E+00  2.3847E-03  0.0000E+00  0.0000E+00  2.1642E-03  0.0000E+00  0.0000E+00  0.0000E+00  0.0000E+00
 92  0.0000E+00  3.9030E-03  1.4792E-02  0.0000E+00  0.0000E+00  2.3124E-02  0.0000E+00  2.0140E-02  8.3384E-03
 93  0.0000E+00  2.3581E-02  6.8713E-02  3.6542E-02  1.4023E-01  3.3902E-02  0.0000E+00  0.0000E+00  0.0000E+00
 94  1.5908E-02  8.8545E-02  0.0000E+00  1.3604E-01  0.0000E+00  0.0000E+00  1.9807E-01  1.3043E-01  1.4724E-01
 95  3.2274E-01  1.5872E-01  1.2010E-01  1.1706E-01  5.0592E-03  1.4617E-01  1.3193E-01  3.2590E-01  0.0000E+00
 96  0.0000E+00  1.4539E-01  0.0000E+00  5.6774E-01  2.9317E-01  0.0000E+00  9.7472E-02  0.0000E+00  3.1404E-01
 97  0.0000E+00  1.3403E-01  2.8250E-01  0.0000E+00  2.1434E-01  4.5410E-01  0.0000E+00  0.0000E+00  1.3750E-01
 98  0.0000E+00  2.1157E-01  2.1578E-01  1.7123E-01  1.5470E-01  3.2091E-01  0.0000E+00  0.0000E+00  2.0123E-01
 99  0.0000E+00  2.9616E-01  0.0000E+00  2.5959E-01  4.0455E-01  1.9703E-01  0.0000E+00  6.9313E-02  4.2597E-01
100  2.8387E-01  3.9407E-01  3.1125E-01  4.0300E-01  6.2932E-02  1.6876E-01  3.1874E-01  4.7456E-01  0.0000E+00
101  0.0000E+00  6.8806E-05  0.0000E+00  0.0000E+00  0.0000E+00  0.0000E+00  0.0000E+00  2.1674E-05  0.0000E+00
102  0.0000E+00  3.1251E-05  0.0000E+00  0.0000E+00  0.0000E+00  0.0000E+00  2.2857E-05  0.0000E+00  0.0000E+00
103  0.0000E+00  4.8857E-05  7.7419E-05  0.0000E+00  0.0000E+00  0.0000E+00  0.0000E+00  2.1594E-04  0.0000E+00
104  0.0000E+00  5.4149E-05  0.0000E+00  8.1135E-05  1.8773E-04  2.3769E-04  2.1555E-05  8.6551E-05  1.1114E-04
105  0.0000E+00  1.1695E-04  1.1542E-04  0.0000E+00  4.9687E-04  1.5273E-04  0.0000E+00  0.0000E+00  0.0000E+00
106  7.8837E-06  2.1209E-04  4.1276E-05  4.4020E-04  3.2919E-04  9.5596E-04  7.3766E-04  0.0000E+00  0.0000E+00
107  0.0000E+00  2.0928E-04  0.0000E+00  0.0000E+00  1.3013E-05  0.0000E+00  2.9574E-04  0.0000E+00  8.4310E-04
108  0.0000E+00  1.2206E-04  0.0000E+00  0.0000E+00  0.0000E+00  8.5927E-04  0.0000E+00  8.6048E-05  0.0000E+00
109  0.0000E+00  9.1813E-05  0.0000E+00  2.4054E-05  0.0000E+00  0.0000E+00  0.0000E+00  0.0000E+00  9.0379E-04
110  0.0000E+00  1.3233E-04  9.0918E-05  1.4150E-05  2.5164E-04  0.0000E+00  0.0000E+00  0.0000E+00  5.8808E-04
111  0.0000E+00  1.3605E-04  0.0000E+00  3.9592E-04  0.0000E+00  0.0000E+00  0.0000E+00  0.0000E+00  0.0000E+00
112  0.0000E+00  1.4554E-04  0.0000E+00  0.0000E+00  0.0000E+00  0.0000E+00  0.0000E+00  0.0000E+00  0.0000E+00
113  0.0000E+00  1.8783E-04  0.0000E+00  0.0000E+00  0.0000E+00  0.0000E+00  0.0000E+00  0.0000E+00  0.0000E+00
114  0.0000E+00  3.2955E-04  0.0000E+00  0.0000E+00  0.0000E+00  0.0000E+00  0.0000E+00  0.0000E+00  0.0000E+00
115  0.0000E+00  1.4061E-03  5.1763E-04  0.0000E+00  3.3874E-03  0.0000E+00  0.0000E+00  0.0000E+00  1.4226E-03
116  0.0000E+00  4.3690E-03  1.7912E-02  6.5278E-03  2.0128E-03  0.0000E+00  0.0000E+00  0.0000E+00  0.0000E+00
117  0.0000E+00  6.5959E-03  0.0000E+00  0.0000E+00  0.0000E+00  0.0000E+00  2.2845E-02  0.0000E+00  0.0000E+00
118  0.0000E+00  4.4266E-02  0.0000E+00  7.6770E-02  1.7403E-01  0.0000E+00  0.0000E+00  8.4540E-02  2.2182E-02
119  0.0000E+00  7.6748E-02  1.9413E-01  0.0000E+00  0.0000E+00  8.4437E-02  0.0000E+00  1.3572E-01  1.7094E-02
120  0.0000E+00  9.7715E-02  0.0000E+00  3.9083E-01  0.0000E+00  0.0000E+00  0.0000E+00  5.1521E-01  1.3870E-01
121  3.3100E-01  1.0363E-01  0.0000E+00  7.0122E-01  0.0000E+00  0.0000E+00  1.8015E-01  0.0000E+00  0.0000E+00
122  0.0000E+00  1.1791E-01  0.0000E+00  1.3605E-01  0.0000E+00  7.2915E-02  1.2328E-01  5.6854E-02  0.0000E+00
123  9.4418E+00  9.3843E+00  9.9176E+00  9.2875E+00  9.3127E+00  9.3685E+00  9.4193E+00  9.7338E+00  9.4512E+00
124  2.3227E+01  2.2764E+01  2.2666E+01  2.2517E+01  2.3081E+01  2.3027E+01  2.3099E+01  2.2424E+01  2.3478E+01
125  4.4241E+01  4.2674E+01  4.3017E+01  4.2236E+01  4.3125E+01  4.3549E+01  4.3099E+01  4.3680E+01  4.2985E+01
126  0.0000E+00  3.1917E-05  0.0000E+00  0.0000E+00  0.0000E+00  0.0000E+00  0.0000E+00  0.0000E+00  0.0000E+00
127  0.0000E+00  2.7569E-05  0.0000E+00  0.0000E+00  0.0000E+00  0.0000E+00  0.0000E+00  8.6437E-05  7.5482E-05
128  0.0000E+00  5.9528E-05  0.0000E+00  0.0000E+00  0.0000E+00  0.0000E+00  0.0000E+00  2.2642E-04  9.9285E-05
129  0.0000E+00  6.1984E-05  0.0000E+00  0.0000E+00  0.0000E+00  0.0000E+00  0.0000E+00  0.0000E+00  0.0000E+00
130  0.0000E+00  8.4048E-05  1.1212E-04  0.0000E+00  0.0000E+00  1.2662E-04  0.0000E+00  4.7841E-05  0.0000E+00
131  0.0000E+00  6.9909E-05  0.0000E+00  1.4599E-04  0.0000E+00  0.0000E+00  0.0000E+00  0.0000E+00  6.1199E-06
132  0.0000E+00  1.3434E-04  0.0000E+00  0.0000E+00  0.0000E+00  0.0000E+00  0.0000E+00  3.1065E-04  0.0000E+00
133  0.0000E+00  1.0640E-04  0.0000E+00  0.0000E+00  0.0000E+00  0.0000E+00  0.0000E+00  0.0000E+00  1.4935E-04
134  0.0000E+00  6.8009E-05  4.5523E-04  0.0000E+00  0.0000E+00  0.0000E+00  0.0000E+00  0.0000E+00  0.0000E+00
135  0.0000E+00  9.5426E-05  0.0000E+00  0.0000E+00  0.0000E+00  0.0000E+00  0.0000E+00  0.0000E+00  0.0000E+00
136  0.0000E+00  1.7376E-04  0.0000E+00  0.0000E+00  0.0000E+00  0.0000E+00  4.8582E-04  0.0000E+00  0.0000E+00
137  0.0000E+00  1.3485E-04  0.0000E+00  0.0000E+00  0.0000E+00  0.0000E+00  0.0000E+00  0.0000E+00  0.0000E+00
138  0.0000E+00  2.7882E-04  0.0000E+00  0.0000E+00  0.0000E+00  0.0000E+00  0.0000E+00  6.9329E-04  0.0000E+00
139  0.0000E+00  6.1419E-04  0.0000E+00  0.0000E+00  0.0000E+00  0.0000E+00  0.0000E+00  0.0000E+00  0.0000E+00
140  0.0000E+00  3.7324E-03  9.4364E-04  2.7755E-03  1.2994E-03  0.0000E+00  0.0000E+00  0.0000E+00  0.0000E+00
141  0.0000E+00  1.5574E-02  1.1349E-02  0.0000E+00  0.0000E+00  0.0000E+00  1.4387E-03  1.7967E-02  0.0000E+00
142  5.2770E-06  2.1702E-02  0.0000E+00  0.0000E+00  5.1321E-03  2.5606E-03  5.4511E-02  0.0000E+00  3.3430E-05
143  7.8081E-03  7.5145E-02  2.9293E-02  0.0000E+00  0.0000E+00  0.0000E+00  2.3799E-01  0.0000E+00  0.0000E+00
144  0.0000E+00  6.2259E-02  0.0000E+00  0.0000E+00  1.5229E-02  7.1386E-02  0.0000E+00  0.0000E+00  3.0269E-03
145  0.0000E+00  4.1215E-02  0.0000E+00  0.0000E+00  0.0000E+00  0.0000E+00  0.0000E+00  2.6681E-03  0.0000E+00
146  0.0000E+00  8.0070E-02  0.0000E+00  0.0000E+00  0.0000E+00  6.9496E-02  2.1029E-02  0.0000E+00  0.0000E+00
147  0.0000E+00  7.6532E-02  1.8820E-02  0.0000E+00  0.0000E+00  0.0000E+00  0.0000E+00  0.0000E+00  1.4888E-01
148  0.0000E+00  1.0191E-01  0.0000E+00  0.0000E+00  0.0000E+00  0.0000E+00  0.0000E+00  0.0000E+00  0.0000E+00
149  0.0000E+00  6.8987E-02  1.1875E-01  0.0000E+00  4.6613E-01  0.0000E+00  0.0000E+00  0.0000E+00  0.0000E+00
150  0.0000E+00  7.0837E-02  0.0000E+00  0.0000E+00  4.4902E-02  0.0000E+00  6.3934E-02  0.0000E+00  0.0000E+00

# AV, chi2 & Mass for <> & i_chain = 1 ...  7 solutions
AV       1.8213      1.8199      1.8185      1.8202      1.8166      1.8159      1.8218      1.8196      1.8186
chi2 2.9476E+00  2.9918E+00  2.9812E+00  2.9754E+00  2.9771E+00  2.9794E+00  2.9761E+00  2.9834E+00  2.9781E+00
Mass 1.1880E-09  1.1881E-09  1.1885E-09  1.1809E-09  1.1871E-09  1.1907E-09  1.1881E-09  1.1850E-09  1.1928E-09
 -33.09                                  [v0_min (km/s) before EX0s...]
  56.55                                  [vd_min (km/s) before EX0s...]


## Synthetic spectrum (Best Model) ##l_obs f_obs f_syn wei
 3070    [Nl_obs]
 3359.00    0.25155   0.43756   -1.000
 3360.00    0.28686   0.42636   -1.000
 3361.00    0.26337   0.43762   -1.000
 3362.00    0.26264   0.46496   -1.000
 3363.00    0.30699   0.49332   -1.000
 3364.00    0.29813   0.50762   -1.000
 3365.00    0.29866   0.50296   -1.000
 3366.00    0.33946   0.48683   -1.000
 3367.00    0.30017   0.46836   -1.000
 3368.00    0.30608   0.45335   -1.000
 3369.00    0.34565   0.44343   -1.000
 3370.00    0.32885   0.43636   -1.000
 3371.00    0.29450   0.43480   -1.000
 3372.00    0.28433   0.44400   -1.000
 3373.00    0.38177   0.46467   -1.000
 3374.00    0.40128   0.49104   -1.000
 3375.00    0.37003   0.51423   -1.000
 3376.00    0.38408   0.52312   -1.000
 3377.00    0.41180   0.51450   -1.000
 3378.00    0.37912   0.49720   -1.000
 3379.00    0.35458   0.48311   -1.000
 3380.00    0.36761   0.48048   -1.000
 3381.00    0.37354   0.48878   -1.000
 3382.00    0.34982   0.50043   -1.000
 3383.00    0.36135   0.51018   -1.000
 3384.00    0.36415   0.51827   -1.000
 3385.00    0.38807   0.52497   -1.000
 3386.00    0.40637   0.52657   -1.000
 3387.00    0.37800   0.52425   -1.000
 3388.00    0.41122   0.52172   -1.000
 3389.00    0.42197   0.52037   -1.000
 3390.00    0.42348   0.51672   -1.000
 3391.00    0.42644   0.50868   -1.000
 3392.00    0.40592   0.50160   -1.000
 3393.00    0.38873   0.50373   -1.000
 3394.00    0.43404   0.51683   -1.000
 3395.00    0.45437   0.53359   -1.000
 3396.00    0.44452   0.54829   -1.000
 3397.00    0.44261   0.56050   -1.000
 3398.00    0.49824   0.56694   36.456
 3399.00    0.51718   0.56559   36.064
 3400.00    0.45774   0.55868   -1.000
 3401.00    0.44983   0.54675   -1.000
 3402.00    0.45614   0.53303   38.436
 3403.00    0.46065   0.52347   39.121
 3404.00    0.46611   0.51853   39.829
 3405.00    0.44937   0.51506   40.431
 3406.00    0.43848   0.50976   40.652
 3407.00    0.45840   0.50537   41.275
 3408.00    0.46515   0.50612   41.444
 3409.00    0.47302   0.51308   41.076
 3410.00    0.45390   0.51849   39.900
 3411.00    0.44681   0.51308   39.799
 3412.00    0.45985   0.50040   41.477
 3413.00    0.46633   0.48898   42.134
 3414.00    0.42472   0.48828   41.926
 3415.00    0.44731   0.49999   40.784
 3416.00    0.45455   0.51745   38.997
 3417.00    0.46359   0.53528   37.134
 3418.00    0.49856   0.55088   35.426
 3419.00    0.50180   0.56246   35.301
 3420.00    0.52667   0.56528   35.100
 3421.00    0.49764   0.55672   35.405
 3422.00    0.46854   0.54260   36.440
 3423.00    0.47854   0.53335   37.065
 3424.00    0.49665   0.53140   35.979
 3425.00    0.50740   0.53474   35.109
 3426.00    0.49026   0.54118   38.421
 3427.00    0.49819   0.55294   -1.000
 3428.00    0.49521   0.57009   -1.000
 3429.00    0.50193   0.58121   -1.000
 3430.00    0.52211   0.57628   -1.000
 3431.00    0.50624   0.55926   -1.000
 3432.00    0.48562   0.54268   35.073
 3433.00    0.49125   0.53891   38.395
 3434.00    0.51789   0.54679   -1.000
 3435.00    0.52500   0.55382   -1.000
 3436.00    0.52453   0.55051   35.009
 3437.00    0.50882   0.53545   36.715
 3438.00    0.50132   0.51183   39.007
 3439.00    0.50781   0.48507   41.974
 3440.00    0.49784   0.46181   43.475
 3441.00    0.43419   0.44971   43.501
 3442.00    0.43209   0.45210   43.142
 3443.00    0.43218   0.46316   41.336
 3444.00    0.44287   0.47625   39.061
 3445.00    0.45898   0.49020   36.987
 3446.00    0.50377   0.50752   39.635
 3447.00    0.49402   0.52783   -1.000
 3448.00    0.52080   0.54749   -1.000
 3449.00    0.54640   0.55665  281.212
 3450.00    0.55010   0.54937  281.212
 3451.00    0.56908   0.53431   -1.000
 3452.00    0.53578   0.52454   -1.000
 3453.00    0.53721   0.52647   -1.000
 3454.00    0.56461   0.53616   -1.000
 3455.00    0.55750   0.54182   -1.000
 3456.00    0.57859   0.53700   -1.000
 3457.00    0.58131   0.52332   -1.000
 3458.00    0.56721   0.50806   35.001
 3459.00    0.50152   0.49646   35.399
 3460.00    0.50232   0.49092   39.082
 3461.00    0.52441   0.49749   -1.000
 3462.00    0.53907   0.51610   -1.000
 3463.00    0.53439   0.53140  281.212
 3464.00    0.55961   0.53278   -1.000
 3465.00    0.55480   0.52941   -1.000
 3466.00    0.56684   0.53068   -1.000
 3467.00    0.56983   0.54061   -1.000
 3468.00    0.56462   0.55472   -1.000
 3469.00    0.58188   0.56470   -1.000
 3470.00    0.59443   0.56385   -1.000
 3471.00    0.57954   0.55175   -1.000
 3472.00    0.54531   0.53346   -1.000
 3473.00    0.55035   0.51210   -1.000
 3474.00    0.52667   0.49253   35.390
 3475.00    0.49330   0.48293   36.481
 3476.00    0.51226   0.48787   39.905
 3477.00    0.52156   0.50295   -1.000
 3478.00    0.53195   0.52095   -1.000
 3479.00    0.56397   0.53601   -1.000
 3480.00    0.58205   0.54410   -1.000
 3481.00    0.54674   0.54255  281.212
 3482.00    0.56546   0.53431   -1.000
 3483.00    0.56959   0.52800   -1.000
 3484.00    0.57083   0.53225   -1.000
 3485.00    0.56952   0.54613   -1.000
 3486.00    0.57924   0.55900   -1.000
 3487.00    0.62762   0.55990   -1.000
 3488.00    0.62313   0.54560   -1.000
 3489.00    0.57612   0.52457   -1.000
 3490.00    0.53642   0.51049   -1.000
 3491.00    0.54457   0.51120   -1.000
 3492.00    0.55518   0.52091   -1.000
 3493.00    0.57631   0.52975   -1.000
 3494.00    0.56796   0.53072   -1.000
 3495.00    0.57305   0.52312   -1.000
 3496.00    0.55684   0.51732   -1.000
 3497.00    0.52759   0.52445  281.212
 3498.00    0.53255   0.54398  281.212
 3499.00    0.58816   0.56126   -1.000
 3500.00    0.60273   0.56774   -1.000
 3501.00    0.57833   0.57173  272.388
 3502.00    0.56766   0.57775  271.632
 3503.00    0.60096   0.58035   -1.000
 3504.00    0.62733   0.57480   -1.000
 3505.00    0.59877   0.56430   -1.000
 3506.00    0.58749   0.55720   -1.000
 3507.00    0.59178   0.55469   -1.000
 3508.00    0.59680   0.55103   -1.000
 3509.00    0.61388   0.54415   -1.000
 3510.00    0.60395   0.53549   -1.000
 3511.00    0.57801   0.52598   -1.000
 3512.00    0.54739   0.51567   -1.000
 3513.00    0.54428   0.50809   -1.000
 3514.00    0.55176   0.51250   -1.000
 3515.00    0.57284   0.53373   -1.000
 3516.00    0.55714   0.56213  280.081
 3517.00    0.57912   0.58138  277.544
 3518.00    0.61748   0.58203   -1.000
 3519.00    0.60089   0.56619   -1.000
 3520.00    0.56558   0.54377   -1.000
 3521.00    0.56554   0.52352   -1.000
 3522.00    0.53951   0.50761   -1.000
 3523.00    0.50625   0.49300   35.096
 3524.00    0.49730   0.48201   36.169
 3525.00    0.48252   0.48207   40.767
 3526.00    0.48778   0.49726  281.212
 3527.00    0.52435   0.52300  281.212
 3528.00    0.53153   0.54910   -1.000
 3529.00    0.58135   0.56508   -1.000
 3530.00    0.57671   0.56854  281.212
 3531.00    0.56909   0.56571  281.212
 3532.00    0.57710   0.56390   -1.000
 3533.00    0.59140   0.56543   -1.000
 3534.00    0.58991   0.57044   -1.000
 3535.00    0.57546   0.57601  279.594
 3536.00    0.59276   0.58160   -1.000
 3537.00    0.57067   0.58921   -1.000
 3538.00    0.56422   0.59681   -1.000
 3539.00    0.60405   0.59946  277.534
 3540.00    0.64007   0.59530   -1.000
 3541.00    0.60861   0.59017   -1.000
 3542.00    0.57059   0.59217   -1.000
 3543.00    0.59319   0.59975  278.207
 3544.00    0.63127   0.60557   -1.000
 3545.00    0.62115   0.60423   -1.000
 3546.00    0.60819   0.59806   -1.000
 3547.00    0.62371   0.59436   -1.000
 3548.00    0.61014   0.59477   -1.000
 3549.00    0.60310   0.59591  281.212
 3550.00    0.59980   0.59407  281.212
 3551.00    0.59306   0.58713  281.212
 3552.00    0.59578   0.57595   -1.000
 3553.00    0.55478   0.56639  281.212
 3554.00    0.56208   0.56417  281.212
 3555.00    0.56504   0.56764  281.212
 3556.00    0.59974   0.57185   -1.000
 3557.00    0.60082   0.57318   -1.000
 3558.00    0.57996   0.57233  281.212
 3559.00    0.56508   0.57491  281.212
 3560.00    0.54966   0.58293   -1.000
 3561.00    0.56505   0.59116   -1.000
 3562.00    0.60049   0.58889   -1.000
 3563.00    0.59675   0.56971   -1.000
 3564.00    0.55737   0.53996   35.494
 3565.00    0.50742   0.51642   36.679
 3566.00    0.50561   0.50836   36.269
 3567.00    0.50325   0.50733   36.277
 3568.00    0.50546   0.50295   37.452
 3569.00    0.50107   0.49262   37.852
 3570.00    0.46513   0.48482   36.567
 3571.00    0.47027   0.48935   40.498
 3572.00    0.50081   0.50213  281.212
 3573.00    0.52556   0.51377   -1.000
 3574.00    0.52921   0.52183  281.212
 3575.00    0.52996   0.52613  281.212
 3576.00    0.52294   0.52514  281.212
 3577.00    0.52511   0.51712  152.536
 3578.00    0.53682   0.50132   36.884
 3579.00    0.52822   0.48162   39.709
 3580.00    0.48606   0.46567   41.588
 3581.00    0.45655   0.45827   41.823
 3582.00    0.47551   0.45999   42.127
 3583.00    0.46267   0.46382   43.253
 3584.00    0.46276   0.46111   44.565
 3585.00    0.44737   0.45251   44.723
 3586.00    0.45963   0.44813   42.410
 3587.00    0.45271   0.45562   40.179
 3588.00    0.47066   0.47568   37.963
 3589.00    0.46986   0.50300   40.596
 3590.00    0.49247   0.52915   -1.000
 3591.00    0.52851   0.54528   -1.000
 3592.00    0.55064   0.55015  281.212
 3593.00    0.55203   0.55300  281.212
 3594.00    0.55319   0.56196  281.212
 3595.00    0.57919   0.57789  280.352
 3596.00    0.56834   0.59295   -1.000
 3597.00    0.58229   0.60348   -1.000
 3598.00    0.61767   0.61256  262.504
 3599.00    0.63167   0.61762   -1.000
 3600.00    0.62814   0.61111   -1.000
 3601.00    0.61435   0.59217   -1.000
 3602.00    0.59432   0.56813   -1.000
 3603.00    0.55237   0.54879  281.212
 3604.00    0.53281   0.54039  281.212
 3605.00    0.52375   0.53835   -1.000
 3606.00    0.52190   0.53413   -1.000
 3607.00    0.52159   0.52488  281.212
 3608.00    0.51922   0.51623  281.212
 3609.00    0.51808   0.51594  281.212
 3610.00    0.52943   0.52642  281.212
 3611.00    0.53061   0.54124  281.212
 3612.00    0.53047   0.55406   -1.000
 3613.00    0.53548   0.56562   -1.000
 3614.00    0.55436   0.57676   -1.000
 3615.00    0.56334   0.58136   -1.000
 3616.00    0.58387   0.56895   -1.000
 3617.00    0.54907   0.54015  140.560
 3618.00    0.52711   0.51619   40.646
 3619.00    0.49438   0.51552   -1.000
 3620.00    0.53904   0.53633  281.212
 3621.00    0.57381   0.56564  279.595
 3622.00    0.58924   0.58882  273.555
 3623.00    0.58123   0.60456   -1.000
 3624.00    0.59806   0.62196   -1.000
 3625.00    0.61333   0.64492   -1.000
 3626.00    0.64467   0.66581   -1.000
 3627.00    0.64716   0.67139   -1.000
 3628.00    0.66188   0.65160  271.257
 3629.00    0.61909   0.60940   -1.000
 3630.00    0.58459   0.56564   -1.000
 3631.00    0.55587   0.54100   -1.000
 3632.00    0.53657   0.54033  281.212
 3633.00    0.55919   0.55591  281.212
 3634.00    0.54884   0.57321   -1.000
 3635.00    0.57329   0.58450   -1.000
 3636.00    0.57249   0.59446   -1.000
 3637.00    0.58963   0.61103   -1.000
 3638.00    0.61380   0.63051   -1.000
 3639.00    0.62715   0.64468   -1.000
 3640.00    0.63698   0.64717  260.249
 3641.00    0.63088   0.63596  269.987
 3642.00    0.62305   0.61636  281.212
 3643.00    0.58027   0.59572   -1.000
 3644.00    0.57325   0.57871  281.212
 3645.00    0.57168   0.56534  281.212
 3646.00    0.56947   0.55333   -1.000
 3647.00    0.55385   0.54670  281.212
 3648.00    0.53184   0.55028   -1.000
 3649.00    0.57111   0.56447  281.212
 3650.00    0.58626   0.58666  269.075
 3651.00    0.59387   0.61231   -1.000
 3652.00    0.60570   0.63405   -1.000
 3653.00    0.62987   0.64749   -1.000
 3654.00    0.64121   0.65730   -1.000
 3655.00    0.63960   0.66743   -1.000
 3656.00    0.64381   0.67903   -1.000
 3657.00    0.64943   0.68856   -1.000
 3658.00    0.68457   0.69330  239.834
 3659.00    0.67589   0.69328   -1.000
 3660.00    0.64426   0.68777   -1.000
 3661.00    0.66709   0.67716  245.872
 3662.00    0.65802   0.66560  249.716
 3663.00    0.63854   0.65824   -1.000
 3664.00    0.61649   0.65676   -1.000
 3665.00    0.64213   0.65810   -1.000
 3666.00    0.66841   0.65616   -1.000
 3667.00    0.65185   0.64797  257.540
 3668.00    0.64052   0.63691  262.547
 3669.00    0.61468   0.63292   -1.000
 3670.00    0.59879   0.64145   -1.000
 3671.00    0.63843   0.65609   -1.000
 3672.00    0.65701   0.66788  245.262
 3673.00    0.67501   0.67192  245.331
 3674.00    0.67212   0.66739  247.178
 3675.00    0.66280   0.65514  255.011
 3676.00    0.63810   0.63634  262.922
 3677.00    0.63597   0.61440   -1.000
 3678.00    0.63019   0.59632   -1.000
 3679.00    0.58310   0.58918  274.005
 3680.00    0.57754   0.59479   -1.000
 3681.00    0.59085   0.60842   -1.000
 3682.00    0.59215   0.62113   -1.000
 3683.00    0.60107   0.62386   -1.000
 3684.00    0.61965   0.61295  277.439
 3685.00    0.61301   0.59249   -1.000
 3686.00    0.55966   0.57562   -1.000
 3687.00    0.54985   0.57551   -1.000
 3688.00    0.56164   0.59561   -1.000
 3689.00    0.60363   0.62822   -1.000
 3690.00    0.65009   0.65800  239.826
 3691.00    0.67185   0.67106  242.718
 3692.00    0.68199   0.66549   -1.000
 3693.00    0.67818   0.65393   -1.000
 3694.00    0.64636   0.64679  250.014
 3695.00    0.63386   0.64661   -1.000
 3696.00    0.61776   0.65307   -1.000
 3697.00    0.62710   0.66662   -1.000
 3698.00    0.65530   0.68448   -1.000
 3699.00    0.71516   0.69968   -1.000
 3700.00    0.72691   0.70277   -1.000
 3701.00    0.69554   0.68430   -1.000
 3702.00    0.66744   0.64422   -1.000
 3703.00    0.62243   0.59599   -1.000
 3704.00    0.59096   0.55611   -1.000
 3705.00    0.54813   0.53666   -1.000
 3706.00    0.54033   0.53755  281.212
 3707.00    0.55863   0.54715   -1.000
 3708.00    0.58293   0.56005   -1.000
 3709.00    0.57502   0.57734  268.545
 3710.00    0.59988   0.59893  255.674
 3711.00    0.63227   0.62412  241.533
 3712.00    0.65804   0.65147  231.103
 3713.00    0.69259   0.67474   -1.000
 3714.00    0.71288   0.68722   -1.000
 3715.00    0.72013   0.68460   -1.000
 3716.00    0.69847   0.66479   -1.000
 3717.00    0.66065   0.62917   -1.000
 3718.00    0.61745   0.58108   -1.000
 3719.00    0.56741   0.52756   -1.000
 3720.00    0.52552   0.48921   42.931
 3721.00    0.50654   0.48360   -1.000
 3722.00    0.54218   0.50904   -1.000
 3723.00    0.57801   0.55314   -1.000
 3724.00    0.59846   0.59624  252.430
 3725.00    0.64508   0.61909   -1.000
 3726.00    0.67263   0.62043   -1.000
 3727.00    0.64512   0.61733   -1.000
 3728.00    0.62606   0.61937  260.798
 3729.00    0.64394   0.62016   -1.000
 3730.00    0.65168   0.60714   -1.000
 3731.00    0.62000   0.57068   -1.000
 3732.00    0.57752   0.51998   35.582
 3733.00    0.52063   0.47185   39.330
 3734.00    0.45975   0.43977   40.058
 3735.00    0.45734   0.43551   37.639
 3736.00    0.47268   0.46086   42.294
 3737.00    0.48578   0.50600   -1.000
 3738.00    0.54993   0.55892  273.116
 3739.00    0.62473   0.60511   -1.000
 3740.00    0.66687   0.62927   -1.000
 3741.00    0.66921   0.62625   -1.000
 3742.00    0.64527   0.60286   -1.000
 3743.00    0.60751   0.57205   -1.000
 3744.00    0.57240   0.54564   -1.000
 3745.00    0.54569   0.52579  123.261
 3746.00    0.53467   0.50453   35.754
 3747.00    0.51709   0.48083   37.693
 3748.00    0.48182   0.46193   46.415
 3749.00    0.47251   0.46088   -1.000
 3750.00    0.50919   0.48779   -1.000
 3751.00    0.55396   0.53523   -1.000
 3752.00    0.59706   0.58783  246.432
 3753.00    0.65465   0.63457   -1.000
 3754.00    0.68889   0.66233   -1.000
 3755.00    0.69048   0.66115   -1.000
 3756.00    0.65306   0.63389   -1.000
 3757.00    0.60623   0.59592   -1.000
 3758.00    0.57722   0.57038  281.212
 3759.00    0.57276   0.56742  281.212
 3760.00    0.58521   0.57876  273.640
 3761.00    0.61476   0.59129   -1.000
 3762.00    0.64172   0.59748   -1.000
 3763.00    0.62723   0.59860   -1.000
 3764.00    0.62635   0.59595   -1.000
 3765.00    0.64480   0.58912   -1.000
 3766.00    0.64379   0.58122   -1.000
 3767.00    0.61823   0.57515   -1.000
 3768.00    0.60999   0.57035   -1.000
 3769.00    0.61894   0.56764   -1.000
 3770.00    0.61348   0.57236   -1.000
 3771.00    0.62972   0.58951   -1.000
 3772.00    0.66101   0.61651   -1.000
 3773.00    0.68934   0.64131   -1.000
 3774.00    0.69171   0.65527   -1.000
 3775.00    0.67879   0.66208   -1.000
 3776.00    0.67516   0.66880  239.124
 3777.00    0.69484   0.68015   -1.000
 3778.00    0.71561   0.69524   -1.000
 3779.00    0.72297   0.71042   -1.000
 3780.00    0.73475   0.72231   -1.000
 3781.00    0.73941   0.72906  220.353
 3782.00    0.72585   0.73052  221.584
 3783.00    0.73127   0.72384  228.247
 3784.00    0.73028   0.70539   -1.000
 3785.00    0.71145   0.67744   -1.000
 3786.00    0.67646   0.64685   -1.000
 3787.00    0.63197   0.62199   -1.000
 3788.00    0.62921   0.61103   -1.000
 3789.00    0.61272   0.61417  267.650
 3790.00    0.61235   0.62236  266.457
 3791.00    0.62861   0.62573  272.008
 3792.00    0.65142   0.61697   -1.000
 3793.00    0.63375   0.59678   -1.000
 3794.00    0.60117   0.57173   -1.000
 3795.00    0.57886   0.54522   -1.000
 3796.00    0.55896   0.51766   -1.000
 3797.00    0.53730   0.49506   -1.000
 3798.00    0.53290   0.49292   -1.000
 3799.00    0.53252   0.52249  280.820
 3800.00    0.55698   0.57327   -1.000
 3801.00    0.61351   0.62448  250.714
 3802.00    0.63677   0.66139   -1.000
 3803.00    0.68091   0.67901  246.028
 3804.00    0.68335   0.67972  251.169
 3805.00    0.67245   0.66867  259.857
 3806.00    0.64266   0.65750   -1.000
 3807.00    0.63233   0.65881   -1.000
 3808.00    0.65833   0.67345   -1.000
 3809.00    0.67843   0.69002  244.928
 3810.00    0.70775   0.69493   -1.000
 3811.00    0.69795   0.68025   -1.000
 3812.00    0.67641   0.65111   -1.000
 3813.00    0.64385   0.61830   -1.000
 3814.00    0.61862   0.59362   -1.000
 3815.00    0.58469   0.58569  281.212
 3816.00    0.59060   0.59039  281.212
 3817.00    0.59961   0.59323  281.212
 3818.00    0.60713   0.58263   -1.000
 3819.00    0.58818   0.56412   -1.000
 3820.00    0.54318   0.55281  281.212
 3821.00    0.55605   0.55750  281.212
 3822.00    0.58718   0.56756   -1.000
 3823.00    0.58554   0.56365  117.715
 3824.00    0.53790   0.54589   36.680
 3825.00    0.50982   0.52809   37.201
 3826.00    0.49494   0.51965   36.793
 3827.00    0.48127   0.52114   36.190
 3828.00    0.48874   0.52555   35.838
 3829.00    0.51490   0.52536   36.579
 3830.00    0.50868   0.51669   38.564
 3831.00    0.50385   0.49824   41.258
 3832.00    0.50862   0.47208   41.984
 3833.00    0.48588   0.44690   40.902
 3834.00    0.46144   0.43305   39.409
 3835.00    0.47415   0.43360   38.959
 3836.00    0.48476   0.44331   39.854
 3837.00    0.49192   0.45575   40.419
 3838.00    0.47529   0.46983   39.267
 3839.00    0.46618   0.48901   47.317
 3840.00    0.49713   0.51791   -1.000
 3841.00    0.54416   0.55459  281.212
 3842.00    0.59518   0.59271  281.212
 3843.00    0.63585   0.62374   -1.000
 3844.00    0.64273   0.64169  281.212
 3845.00    0.64460   0.64994  281.212
 3846.00    0.66006   0.65364  281.212
 3847.00    0.66227   0.65303  281.212
 3848.00    0.64484   0.64693  281.212
 3849.00    0.62626   0.63951   -1.000
 3850.00    0.60846   0.63915   -1.000
 3851.00    0.61443   0.64704   -1.000
 3852.00    0.62986   0.65509   -1.000
 3853.00    0.62788   0.65419   -1.000
 3854.00    0.61972   0.64305   -1.000
 3855.00    0.60781   0.62775   -1.000
 3856.00    0.60105   0.61112  108.108
 3857.00    0.59181   0.59357   35.071
 3858.00    0.56568   0.58068   36.564
 3859.00    0.53258   0.58010   45.590
 3860.00    0.53725   0.59628   -1.000
 3861.00    0.56891   0.62423   -1.000
 3862.00    0.60813   0.64903   -1.000
 3863.00    0.65531   0.65925  279.438
 3864.00    0.66286   0.65657  281.212
 3865.00    0.66101   0.65100   -1.000
 3866.00    0.64652   0.64853  281.212
 3867.00    0.63672   0.64834   -1.000
 3868.00    0.61939   0.64495   -1.000
 3869.00    0.58652   0.63288   -1.000
 3870.00    0.54290   0.61581   -1.000
 3871.00    0.51924   0.60344   -1.000
 3872.00    0.53708   0.60417   -1.000
 3873.00    0.58404   0.61962   -1.000
 3874.00    0.64125   0.64078  271.277
 3875.00    0.66283   0.65019   -1.000
 3876.00    0.64864   0.63907   -1.000
 3877.00    0.59892   0.61994   -1.000
 3878.00    0.57252   0.60754   -1.000
 3879.00    0.56912   0.60683   -1.000
 3880.00    0.56145   0.61288   -1.000
 3881.00    0.54783   0.61719   -1.000
 3882.00    0.56003   0.61959   -1.000
 3883.00    0.58862   0.61896   -1.000
 3884.00    0.60756   0.60487  281.212
 3885.00    0.60542   0.57377   -1.000
 3886.00    0.57625   0.53650   -1.000
 3887.00    0.56888   0.51028   -1.000
 3888.00    0.55895   0.50901   -1.000
 3889.00    0.58761   0.53601   -1.000
 3890.00    0.62879   0.58317   -1.000
 3891.00    0.66147   0.63305   -1.000
 3892.00    0.69729   0.66561   -1.000
 3893.00    0.70512   0.67529   -1.000
 3894.00    0.71123   0.67522   -1.000
 3895.00    0.71186   0.67787   -1.000
 3896.00    0.71671   0.68534   -1.000
 3897.00    0.72592   0.69176   -1.000
 3898.00    0.72296   0.69197   -1.000
 3899.00    0.71721   0.69143   -1.000
 3900.00    0.73971   0.69576   -1.000
 3901.00    0.73282   0.70010   -1.000
 3902.00    0.70519   0.69790  242.673
 3903.00    0.72209   0.68801   -1.000
 3904.00    0.71058   0.67812   -1.000
 3905.00    0.66381   0.67755   -1.000
 3906.00    0.65048   0.69099   -1.000
 3907.00    0.69495   0.71737   -1.000
 3908.00    0.74705   0.74691  215.430
 3909.00    0.76484   0.76805  213.519
 3910.00    0.76786   0.77912  211.678
 3911.00    0.78296   0.78492  211.424
 3912.00    0.78491   0.78568  214.507
 3913.00    0.76451   0.78015   -1.000
 3914.00    0.75662   0.77082  223.739
 3915.00    0.76482   0.76087  226.565
 3916.00    0.76621   0.75003   -1.000
 3917.00    0.75714   0.73476   -1.000
 3918.00    0.72809   0.71326   -1.000
 3919.00    0.68578   0.69055  259.385
 3920.00    0.64919   0.67314   -1.000
 3921.00    0.65195   0.66621   -1.000
 3922.00    0.68059   0.66993  256.266
 3923.00    0.68123   0.67551  261.241
 3924.00    0.66744   0.67362  277.658
 3925.00    0.63576   0.65783   -1.000
 3926.00    0.60862   0.62823  111.503
 3927.00    0.57440   0.58959   40.195
 3928.00    0.50021   0.54751   47.114
 3929.00    0.43760   0.50459   -1.000
 3930.00    0.38172   0.45710   -1.000
 3931.00    0.32601   0.40360   -1.000
 3932.00    0.29052   0.35237   -1.000
 3933.00    0.28327   0.32606   73.613
 3934.00    0.28696   0.34124   -1.000
 3935.00    0.30114   0.38792   -1.000
 3936.00    0.34065   0.44641   -1.000
 3937.00    0.39963   0.50682   -1.000
 3938.00    0.46797   0.56177   -1.000
 3939.00    0.52469   0.60467   -1.000
 3940.00    0.56696   0.63293   -1.000
 3941.00    0.60279   0.64596   -1.000
 3942.00    0.60470   0.64872   -1.000
 3943.00    0.60177   0.65238   -1.000
 3944.00    0.61884   0.66602   -1.000
 3945.00    0.67210   0.68746   -1.000
 3946.00    0.71074   0.70847  237.574
 3947.00    0.70176   0.72287   -1.000
 3948.00    0.71253   0.73309   -1.000
 3949.00    0.74383   0.74448  220.349
 3950.00    0.75863   0.75258  222.121
 3951.00    0.76086   0.75447  223.439
 3952.00    0.74773   0.75728  218.884
 3953.00    0.75112   0.76315  215.514
 3954.00    0.78027   0.76594   -1.000
 3955.00    0.78283   0.76024   -1.000
 3956.00    0.76574   0.74918   -1.000
 3957.00    0.75374   0.74146   -1.000
 3958.00    0.75056   0.73402   -1.000
 3959.00    0.74219   0.71212   -1.000
 3960.00    0.69420   0.67444   -1.000
 3961.00    0.62165   0.63230  281.212
 3962.00    0.57443   0.59646  103.466
 3963.00    0.54799   0.56829   37.898
 3964.00    0.52541   0.53425   45.058
 3965.00    0.46228   0.48299   55.532
 3966.00    0.37805   0.41560   66.231
 3967.00    0.30966   0.35032   69.654
 3968.00    0.28357   0.31374   62.242
 3969.00    0.29495   0.31984   51.184
 3970.00    0.33801   0.36346   42.287
 3971.00    0.38850   0.42921   49.283
 3972.00    0.45479   0.50036   -1.000
 3973.00    0.52893   0.56676   -1.000
 3974.00    0.60031   0.62560   -1.000
 3975.00    0.65048   0.67595   -1.000
 3976.00    0.68567   0.71935   -1.000
 3977.00    0.73423   0.75687   -1.000
 3978.00    0.78901   0.78962  198.700
 3979.00    0.82598   0.81255  197.545
 3980.00    0.83962   0.82086   -1.000
 3981.00    0.82866   0.81855  202.104
 3982.00    0.81378   0.81440  199.734
 3983.00    0.81164   0.81799  195.571
 3984.00    0.82927   0.83033  191.918
 3985.00    0.86409   0.84505   -1.000
 3986.00    0.85563   0.85895  185.540
 3987.00    0.86887   0.87234  184.505
 3988.00    0.87994   0.88159  184.703
 3989.00    0.87189   0.88564  182.569
 3990.00    0.88487   0.89058  178.193
 3991.00    0.90874   0.90021  175.716
 3992.00    0.94150   0.91036   -1.000
 3993.00    0.93914   0.91209   -1.000
 3994.00    0.91825   0.90192   -1.000
 3995.00    0.90132   0.88450   -1.000
 3996.00    0.90144   0.87128   -1.000
 3997.00    0.87557   0.87247  183.964
 3998.00    0.87407   0.88824  176.051
 3999.00    0.90885   0.91076  171.061
 4000.00    0.94051   0.93134  168.477
 4001.00    0.95472   0.94351  167.736
 4002.00    0.97207   0.94047   -1.000
 4003.00    0.96979   0.91813   -1.000
 4004.00    0.93090   0.88567   -1.000
 4005.00    0.87402   0.86565  186.335
 4006.00    0.87640   0.87271  176.351
 4007.00    0.91781   0.90156  170.828
 4008.00    0.95618   0.93173   -1.000
 4009.00    0.97309   0.94956   -1.000
 4010.00    1.02690   0.95794   -1.000
 4011.00    0.99331   0.96235   -1.000
 4012.00    0.97822   0.96587  168.763
 4013.00    0.97172   0.97041  167.103
 4014.00    0.99583   0.97527   -1.000
 4015.00    1.00450   0.97732   -1.000
 4016.00    0.98960   0.97724  168.772
 4017.00    0.98406   0.98038  167.342
 4018.00    1.00000   0.98775  165.592
 4019.00    1.01891   0.99476   -1.000
 4020.00    1.01462   0.99552   -1.000
 4021.00    1.00793   0.98923   -1.000
 4022.00    0.99287   0.97993  170.910
 4023.00    0.99315   0.97014   -1.000
 4024.00    0.96991   0.96439  165.598
 4025.00    0.98229   0.97020  160.411
 4026.00    1.03965   0.98795   -1.000
 4027.00    1.07052   1.00240   -1.000
 4028.00    1.04252   0.99362   -1.000
 4029.00    1.01501   0.95736   -1.000
 4030.00    0.96899   0.91171   -1.000
 4031.00    0.90700   0.87768   -1.000
 4032.00    0.90922   0.86456   -1.000
 4033.00    0.90556   0.87443   -1.000
 4034.00    0.91818   0.90546  167.374
 4035.00    0.96565   0.95037  159.850
 4036.00    1.01715   0.99756   -1.000
 4037.00    1.06190   1.03067   -1.000
 4038.00    1.08399   1.03853   -1.000
 4039.00    1.07066   1.02851   -1.000
 4040.00    1.02529   1.01527  164.713
 4041.00    1.02125   1.00097   -1.000
 4042.00    1.03324   0.97222   -1.000
 4043.00    1.00393   0.92119   -1.000
 4044.00    0.92684   0.86418   -1.000
 4045.00    0.85204   0.83655   -1.000
 4046.00    0.85895   0.85974  173.664
 4047.00    0.92248   0.91629  165.001
 4048.00    0.99326   0.97442   -1.000
 4049.00    1.04172   1.01325   -1.000
 4050.00    1.06238   1.02775   -1.000
 4051.00    1.07149   1.02492   -1.000
 4052.00    1.05656   1.01119   -1.000
 4053.00    1.00979   0.99362   -1.000
 4054.00    0.99278   0.97826  174.365
 4055.00    1.00613   0.96565   -1.000
 4056.00    0.99126   0.95533   -1.000
 4057.00    0.96750   0.95372  172.801
 4058.00    0.95825   0.96573  167.314
 4059.00    1.00511   0.98125   -1.000
 4060.00    1.04637   0.97943   -1.000
 4061.00    1.04013   0.94854   -1.000
 4062.00    0.98492   0.90500   -1.000
 4063.00    0.91516   0.87565   -1.000
 4064.00    0.91468   0.87139   -1.000
 4065.00    0.93812   0.89091   -1.000
 4066.00    0.95102   0.92172   -1.000
 4067.00    0.97048   0.94791   -1.000
 4068.00    1.03191   0.96092   -1.000
 4069.00    1.06371   0.95392   -1.000
 4070.00    1.02333   0.92959   -1.000
 4071.00    0.96202   0.91109   -1.000
 4072.00    0.95806   0.91586   -1.000
 4073.00    0.99603   0.93382   -1.000
 4074.00    1.02915   0.93897   -1.000
 4075.00    0.99322   0.91810   -1.000
 4076.00    0.89912   0.89047  196.772
 4077.00    0.85538   0.88316   -1.000
 4078.00    0.88019   0.90777   -1.000
 4079.00    0.93698   0.95415  164.685
 4080.00    1.00234   0.99710  162.291
 4081.00    1.03692   1.01594   -1.000
 4082.00    1.04318   1.00835   -1.000
 4083.00    1.01458   0.99116   -1.000
 4084.00    0.99100   0.98445  168.024
 4085.00    1.01025   0.99840  161.991
 4086.00    1.04642   1.02704   -1.000
 4087.00    1.07220   1.05606  152.902
 4088.00    1.09808   1.07187   -1.000
 4089.00    1.11410   1.06937   -1.000
 4090.00    1.07979   1.05588   -1.000
 4091.00    1.05643   1.04250  161.514
 4092.00    1.05860   1.03170   -1.000
 4093.00    1.05923   1.01703   -1.000
 4094.00    1.05465   0.99377   -1.000
 4095.00    1.01569   0.96402   -1.000
 4096.00    0.96313   0.93587   -1.000
 4097.00    0.95022   0.91073   -1.000
 4098.00    0.96400   0.87875   -1.000
 4099.00    0.93979   0.83215   -1.000
 4100.00    0.86298   0.78234   -1.000
 4101.00    0.78804   0.75563   -1.000
 4102.00    0.77783   0.77179  195.866
 4103.00    0.84404   0.82597   -1.000
 4104.00    0.92297   0.89323   -1.000
 4105.00    0.97383   0.94788   -1.000
 4106.00    1.00768   0.97908   -1.000
 4107.00    1.02003   0.99091   -1.000
 4108.00    1.01915   0.98953   -1.000
 4109.00    0.99576   0.98333  176.637
 4110.00    0.99070   0.98163  173.711
 4111.00    1.00377   0.98908  170.046
 4112.00    1.02428   1.00476   -1.000
 4113.00    1.04391   1.02482   -1.000
 4114.00    1.05263   1.04276  164.210
 4115.00    1.05638   1.05004  165.973
 4116.00    1.05442   1.04258  170.286
 4117.00    1.03791   1.02521  174.880
 4118.00    1.03168   1.00777   -1.000
 4119.00    1.02627   1.00020   -1.000
 4120.00    1.02431   1.00382   -1.000
 4121.00    1.03910   1.01136   -1.000
 4122.00    1.04186   1.01903   -1.000
 4123.00    1.03110   1.02827  167.106
 4124.00    1.04779   1.03819  167.544
 4125.00    1.07081   1.04243   -1.000
 4126.00    1.07302   1.03661   -1.000
 4127.00    1.05801   1.02537   -1.000
 4128.00    1.04100   1.01479   -1.000
 4129.00    1.02742   1.00183   -1.000
 4130.00    1.01227   0.98146   -1.000
 4131.00    0.99274   0.95736   -1.000
 4132.00    0.96353   0.94409   -1.000
 4133.00    0.93961   0.95467  179.547
 4134.00    0.96363   0.98515   -1.000
 4135.00    1.02447   1.02195  166.938
 4136.00    1.07179   1.05341   -1.000
 4137.00    1.07338   1.07433  162.421
 4138.00    1.08085   1.08511  163.167
 4139.00    1.10971   1.08153   -1.000
 4140.00    1.11457   1.05530   -1.000
 4141.00    1.05743   1.00840   -1.000
 4142.00    0.96980   0.96093  196.718
 4143.00    0.91951   0.93895   -1.000
 4144.00    0.95061   0.95311  177.524
 4145.00    1.00657   0.99036   -1.000
 4146.00    1.03807   1.02258  172.690
 4147.00    1.05549   1.03336   -1.000
 4148.00    1.04496   1.02913   -1.000
 4149.00    1.03738   1.02323  181.667
 4150.00    1.02875   1.02141  180.349
 4151.00    1.01839   1.01965  180.257
 4152.00    1.04432   1.01332   -1.000
 4153.00    1.19961   1.00385   -1.000
 4154.00    1.27169   0.99796   -1.000
 4155.00    0.93056   1.00169   -1.000
 4156.00    0.77063   1.01529   -1.000
 4157.00    1.01142   1.03597   -1.000
 4158.00    1.08819   1.05928   -1.000
 4159.00    1.07376   1.07862  171.346
 4160.00    1.08494   1.09182  167.147
 4161.00    1.08409   1.10096  166.373
 4162.00    1.10013   1.10657  168.053
 4163.00    1.11003   1.10604  170.793
 4164.00    1.09298   1.09624  173.792
 4165.00    1.05834   1.07858   -1.000
 4166.00    1.04802   1.06235  178.581
 4167.00    1.03925   1.05602  176.491
 4168.00    1.04197   1.05792  175.083
 4169.00    1.07194   1.05625   -1.000
 4170.00    1.07360   1.03761   -1.000
 4171.00    1.02078   1.00592   -1.000
 4172.00    0.96926   0.97988  196.403
 4173.00    0.94965   0.97418   -1.000
 4174.00    0.96909   0.98760   -1.000
 4175.00    1.00624   1.00486  185.082
 4176.00    1.00981   1.01658  185.541
 4177.00    1.00437   1.02612   -1.000
 4178.00    1.00508   1.03614   -1.000
 4179.00    1.02032   1.04366   -1.000
 4180.00    1.03083   1.04430  179.773
 4181.00    1.02724   1.04200  177.170
 4182.00    1.01926   1.04820   -1.000
 4183.00    1.03276   1.06192   -1.000
 4184.00    1.06628   1.06926  174.134
 4185.00    1.07001   1.06053  179.903
 4186.00    1.03243   1.04154  182.605
 4187.00    0.99835   1.03002   -1.000
 4188.00    1.00518   1.03473   -1.000
 4189.00    1.02731   1.04891   -1.000
 4190.00    1.04676   1.06248  172.420
 4191.00    1.05829   1.07314  169.156
 4192.00    1.08288   1.08236  169.507
 4193.00    1.10068   1.08352   -1.000
 4194.00    1.08900   1.06609   -1.000
 4195.00    1.04974   1.03374   -1.000
 4196.00    1.01208   1.00103  191.494
 4197.00    0.98591   0.97791  190.907
 4198.00    0.96420   0.96609  188.377
 4199.00    0.97305   0.96381  186.234
 4200.00    1.01108   0.96939   -1.000
 4201.00    1.01086   0.98051   -1.000
 4202.00    0.99598   0.99849  181.313
 4203.00    1.00747   1.02510   -1.000
 4204.00    1.02771   1.05517   -1.000
 4205.00    1.04377   1.08106   -1.000
 4206.00    1.08009   1.10027   -1.000
 4207.00    1.12030   1.11071  168.639
 4208.00    1.12807   1.11151   -1.000
 4209.00    1.11336   1.10803  168.296
 4210.00    1.10325   1.10756  167.877
 4211.00    1.10639   1.11034  170.572
 4212.00    1.11258   1.10442  177.148
 4213.00    1.10150   1.08129   -1.000
 4214.00    1.04547   1.05401  184.919
 4215.00    1.00366   1.04414   -1.000
 4216.00    1.01867   1.06365   -1.000
 4217.00    1.05002   1.10296   -1.000
 4218.00    1.11078   1.13999   -1.000
 4219.00    1.16333   1.16010  156.018
 4220.00    1.18309   1.15784   -1.000
 4221.00    1.18166   1.13253   -1.000
 4222.00    1.14043   1.08245   -1.000
 4223.00    1.08853   1.00857   -1.000
 4224.00    1.00585   0.92711   -1.000
 4225.00    0.88881   0.86474   -1.000
 4226.00    0.80076   0.84924   -1.000
 4227.00    0.81678   0.89471   -1.000
 4228.00    0.92904   0.98106   -1.000
 4229.00    1.04209   1.06188   -1.000
 4230.00    1.10549   1.10479  163.038
 4231.00    1.13573   1.11131   -1.000
 4232.00    1.11698   1.09585   -1.000
 4233.00    1.08330   1.07367  172.973
 4234.00    1.08224   1.05672   -1.000
 4235.00    1.06859   1.05015   -1.000
 4236.00    1.03791   1.05328  175.688
 4237.00    1.03164   1.06626   -1.000
 4238.00    1.05326   1.08650   -1.000
 4239.00    1.05960   1.10873   -1.000
 4240.00    1.06933   1.13096   -1.000
 4241.00    1.09337   1.15199   -1.000
 4242.00    1.11241   1.17194   -1.000
 4243.00    1.14920   1.19079   -1.000
 4244.00    1.18104   1.19981   -1.000
 4245.00    1.17514   1.18688  169.906
 4246.00    1.12963   1.15169   -1.000
 4247.00    1.08488   1.10724   -1.000
 4248.00    1.04990   1.07195   -1.000
 4249.00    1.03127   1.05690   -1.000
 4250.00    1.04717   1.06082  172.232
 4251.00    1.07564   1.07316  169.610
 4252.00    1.10736   1.07867   -1.000
 4253.00    1.10328   1.07360   -1.000
 4254.00    1.07043   1.07290  170.033
 4255.00    1.07470   1.09170  165.252
 4256.00    1.11210   1.11658  166.990
 4257.00    1.13261   1.11785  174.772
 4258.00    1.09810   1.08976  182.655
 4259.00    1.05022   1.05779  182.669
 4260.00    1.01095   1.05496   -1.000
 4261.00    1.00947   1.09167   -1.000
 4262.00    1.07550   1.14906   -1.000
 4263.00    1.16172   1.19814   -1.000
 4264.00    1.20347   1.22186  156.085
 4265.00    1.20523   1.22188  159.761
 4266.00    1.18740   1.20391  165.006
 4267.00    1.15997   1.17014  170.522
 4268.00    1.13427   1.12316  178.938
 4269.00    1.09847   1.06681   -1.000
 4270.00    1.02559   1.01274  198.666
 4271.00    0.97049   0.97661  197.834
 4272.00    0.93825   0.96739   -1.000
 4273.00    0.93652   0.98493   -1.000
 4274.00    0.98021   1.02202   -1.000
 4275.00    1.03919   1.07288   -1.000
 4276.00    1.09707   1.12961   -1.000
 4277.00    1.14499   1.17087   -1.000
 4278.00    1.15495   1.17906   -1.000
 4279.00    1.12485   1.16198   -1.000
 4280.00    1.07936   1.14272   -1.000
 4281.00    1.06841   1.13718   -1.000
 4282.00    1.10411   1.13995   -1.000
 4283.00    1.12127   1.13924   -1.000
 4284.00    1.09803   1.13154   -1.000
 4285.00    1.05720   1.11899   -1.000
 4286.00    1.03704   1.10122   -1.000
 4287.00    1.02894   1.07374   -1.000
 4288.00    1.00051   1.03711   -1.000
 4289.00    0.95721   1.00753   -1.000
 4290.00    0.94627   1.00678   -1.000
 4291.00    0.98966   1.03645   -1.000
 4292.00    1.03448   1.07227   -1.000
 4293.00    1.06530   1.09014   -1.000
 4294.00    1.08238   1.08761  183.508
 4295.00    1.07568   1.07201  189.750
 4296.00    1.04092   1.04383  202.227
 4297.00    1.00289   1.00149  219.180
 4298.00    0.93650   0.95222   -1.000
 4299.00    0.86959   0.91357   -1.000
 4300.00    0.83552   0.89906   -1.000
 4301.00    0.83900   0.90516   -1.000
 4302.00    0.86947   0.91915   -1.000
 4303.00    0.89165   0.93138   -1.000
 4304.00    0.91101   0.93518   -1.000
 4305.00    0.89603   0.92253   -1.000
 4306.00    0.86918   0.89540   -1.000
 4307.00    0.83496   0.87009   -1.000
 4308.00    0.80281   0.86566   -1.000
 4309.00    0.80335   0.88969   -1.000
 4310.00    0.83857   0.93504   -1.000
 4311.00    0.88578   0.98779   -1.000
 4312.00    0.91926   1.04177   -1.000
 4313.00    0.96377   1.10209   -1.000
 4314.00    1.03902   1.17132   -1.000
 4315.00    1.14956   1.24581   -1.000
 4316.00    1.24629   1.30854   -1.000
 4317.00    1.30398   1.33969   -1.000
 4318.00    1.31311   1.33886   -1.000
 4319.00    1.28196   1.31851   -1.000
 4320.00    1.25211   1.28549   -1.000
 4321.00    1.23352   1.23648  169.841
 4322.00    1.18919   1.16834   -1.000
 4323.00    1.09359   1.09264  196.740
 4324.00    0.98572   1.03953   -1.000
 4325.00    0.94519   1.03908   -1.000
 4326.00    0.99843   1.09684   -1.000
 4327.00    1.09977   1.18597   -1.000
 4328.00    1.19389   1.26080   -1.000
 4329.00    1.24303   1.29627   -1.000
 4330.00    1.24814   1.30485   -1.000
 4331.00    1.24383   1.30934   -1.000
 4332.00    1.25302   1.31946   -1.000
 4333.00    1.28216   1.32647   -1.000
 4334.00    1.31161   1.31457  154.672
 4335.00    1.30531   1.27021   -1.000
 4336.00    1.24213   1.19000   -1.000
 4337.00    1.13955   1.08823   -1.000
 4338.00    1.02900   0.99941   -1.000
 4339.00    0.93693   0.95426   -1.000
 4340.00    0.89968   0.96359   -1.000
 4341.00    0.94060   1.02218   -1.000
 4342.00    1.03357   1.10507   -1.000
 4343.00    1.12026   1.17945   -1.000
 4344.00    1.17600   1.23165   -1.000
 4345.00    1.21333   1.26813   -1.000
 4346.00    1.24314   1.29776   -1.000
 4347.00    1.25622   1.32232   -1.000
 4348.00    1.27602   1.32849   -1.000
 4349.00    1.29027   1.30067  164.821
 4350.00    1.23764   1.24736  173.149
 4351.00    1.15638   1.19986   -1.000
 4352.00    1.13559   1.18800   -1.000
 4353.00    1.17332   1.21605   -1.000
 4354.00    1.21205   1.26124   -1.000
 4355.00    1.25017   1.29824   -1.000
 4356.00    1.28319   1.31638   -1.000
 4357.00    1.28086   1.31792   -1.000
 4358.00    1.24508   1.31257   -1.000
 4359.00    1.22913   1.31525   -1.000
 4360.00    1.25584   1.33254   -1.000
 4361.00    1.29605   1.35752   -1.000
 4362.00    1.31103   1.37979   -1.000
 4363.00    1.32071   1.39502   -1.000
 4364.00    1.34565   1.40057   -1.000
 4365.00    1.35243   1.38884   -1.000
 4366.00    1.31909   1.35954   -1.000
 4367.00    1.26718   1.32872   -1.000
 4368.00    1.23877   1.31062   -1.000
 4369.00    1.25214   1.30387   -1.000
 4370.00    1.25894   1.29846   -1.000
 4371.00    1.24661   1.28399   -1.000
 4372.00    1.24955   1.25686  164.778
 4373.00    1.21191   1.22295  168.542
 4374.00    1.13949   1.20018   -1.000
 4375.00    1.15208   1.20771   -1.000
 4376.00    1.22020   1.24451   -1.000
 4377.00    1.27356   1.28539  150.833
 4378.00    1.31722   1.30314  152.644
 4379.00    1.31807   1.28613   -1.000
 4380.00    1.30306   1.23217   -1.000
 4381.00    1.25539   1.14896   -1.000
 4382.00    1.13888   1.06379   -1.000
 4383.00    1.00893   1.01556  193.541
 4384.00    0.96341   1.03015   -1.000
 4385.00    1.04141   1.09577   -1.000
 4386.00    1.15810   1.16616  160.515
 4387.00    1.21504   1.20648  161.531
 4388.00    1.22989   1.21862  162.812
 4389.00    1.22377   1.22134  161.646
 4390.00    1.20286   1.22900   -1.000
 4391.00    1.22946   1.24389  156.582
 4392.00    1.26893   1.25807  158.896
 4393.00    1.26760   1.26451  160.719
 4394.00    1.24699   1.27097   -1.000
 4395.00    1.23916   1.29169   -1.000
 4396.00    1.27439   1.32157   -1.000
 4397.00    1.31927   1.33782  153.033
 4398.00    1.32184   1.32771  158.377
 4399.00    1.27831   1.30300   -1.000
 4400.00    1.24231   1.28179   -1.000
 4401.00    1.25512   1.26501  158.281
 4402.00    1.27679   1.23802   -1.000
 4403.00    1.23919   1.19569   -1.000
 4404.00    1.18237   1.15989   -1.000
 4405.00    1.17233   1.15603  165.325
 4406.00    1.19460   1.18219  163.474
 4407.00    1.20823   1.22093  159.853
 4408.00    1.21945   1.26517   -1.000
 4409.00    1.25547   1.31792   -1.000
 4410.00    1.30454   1.37035   -1.000
 4411.00    1.35281   1.39582   -1.000
 4412.00    1.39922   1.37907   -1.000
 4413.00    1.37984   1.33211   -1.000
 4414.00    1.28668   1.28129  160.829
 4415.00    1.20500   1.25806   -1.000
 4416.00    1.20536   1.27996   -1.000
 4417.00    1.25011   1.33324   -1.000
 4418.00    1.30031   1.38589   -1.000
 4419.00    1.35038   1.41248   -1.000
 4420.00    1.35741   1.40673   -1.000
 4421.00    1.31922   1.38111   -1.000
 4422.00    1.27466   1.35805   -1.000
 4423.00    1.25288   1.35059   -1.000
 4424.00    1.26274   1.35384   -1.000
 4425.00    1.25694   1.35700   -1.000
 4426.00    1.23957   1.35927   -1.000
 4427.00    1.24964   1.36402   -1.000
 4428.00    1.26186   1.36855   -1.000
 4429.00    1.26483   1.36972   -1.000
 4430.00    1.26992   1.36929   -1.000
 4431.00    1.29248   1.36810   -1.000
 4432.00    1.30780   1.35661   -1.000
 4433.00    1.26459   1.32824   -1.000
 4434.00    1.20762   1.30065   -1.000
 4435.00    1.19709   1.30368   -1.000
 4436.00    1.24773   1.34889   -1.000
 4437.00    1.32851   1.41121   -1.000
 4438.00    1.39829   1.45218   -1.000
 4439.00    1.42423   1.45162   -1.000
 4440.00    1.38097   1.41551   -1.000
 4441.00    1.31022   1.37089   -1.000
 4442.00    1.26286   1.34915   -1.000
 4443.00    1.26192   1.36683   -1.000
 4444.00    1.31183   1.41121   -1.000
 4445.00    1.37101   1.45489   -1.000
 4446.00    1.39973   1.47956   -1.000
 4447.00    1.40878   1.48597   -1.000
 4448.00    1.42045   1.48515   -1.000
 4449.00    1.41704   1.48124   -1.000
 4450.00    1.40108   1.47182   -1.000
 4451.00    1.41061   1.45360   -1.000
 4452.00    1.40821   1.42144  155.186
 4453.00    1.36109   1.37437  160.624
 4454.00    1.29946   1.32989   -1.000
 4455.00    1.26316   1.30905   -1.000
 4456.00    1.27027   1.31281   -1.000
 4457.00    1.28945   1.32501   -1.000
 4458.00    1.30557   1.32968   -1.000
 4459.00    1.30729   1.32684   -1.000
 4460.00    1.29360   1.32747   -1.000
 4461.00    1.28805   1.34151   -1.000
 4462.00    1.31731   1.37078   -1.000
 4463.00    1.36167   1.40563   -1.000
 4464.00    1.38622   1.43094   -1.000
 4465.00    1.38816   1.43838   -1.000
 4466.00    1.38365   1.43160   -1.000
 4467.00    1.38754   1.41970   -1.000
 4468.00    1.37698   1.41067   -1.000
 4469.00    1.34385   1.41389   -1.000
 4470.00    1.34918   1.43767   -1.000
 4471.00    1.39346   1.47626   -1.000
 4472.00    1.44139   1.51448   -1.000
 4473.00    1.48682   1.54115   -1.000
 4474.00    1.50729   1.55617   -1.000
 4475.00    1.51954   1.56770   -1.000
 4476.00    1.55101   1.57662   -1.000
 4477.00    1.57308   1.57204  137.862
 4478.00    1.55890   1.54282  143.687
 4479.00    1.49927   1.49373  149.134
 4480.00    1.41817   1.45012   -1.000
 4481.00    1.36724   1.43879   -1.000
 4482.00    1.38355   1.46722   -1.000
 4483.00    1.43395   1.51940   -1.000
 4484.00    1.48422   1.56988   -1.000
 4485.00    1.52117   1.59669   -1.000
 4486.00    1.54588   1.58865   -1.000
 4487.00    1.52360   1.55270   -1.000
 4488.00    1.46642   1.51311   -1.000
 4489.00    1.44187   1.49452   -1.000
 4490.00    1.44905   1.50247   -1.000
 4491.00    1.47538   1.52108   -1.000
 4492.00    1.49956   1.52463   -1.000
 4493.00    1.47210   1.50596   -1.000
 4494.00    1.43115   1.48355   -1.000
 4495.00    1.40117   1.48059   -1.000
 4496.00    1.41394   1.50315   -1.000
 4497.00    1.47067   1.53615   -1.000
 4498.00    1.50788   1.56135   -1.000
 4499.00    1.51164   1.57068   -1.000
 4500.00    1.49405   1.57139   -1.000
 4501.00    1.47971   1.57945   -1.000
 4502.00    1.51178   1.60312   -1.000
 4503.00    1.57045   1.63691   -1.000
 4504.00    1.61154   1.66416   -1.000
 4505.00    1.61384   1.67106   -1.000
 4506.00    1.61099   1.66077   -1.000
 4507.00    1.60205   1.64814   -1.000
 4508.00    1.58096   1.64400   -1.000
 4509.00    1.59285   1.64712   -1.000
 4510.00    1.61251   1.64751   -1.000
 4511.00    1.59718   1.63646   -1.000
 4512.00    1.56722   1.61585   -1.000
 4513.00    1.54726   1.59531   -1.000
 4514.00    1.54168   1.58268   -1.000
 4515.00    1.54139   1.57908   -1.000
 4516.00    1.53348   1.57921   -1.000
 4517.00    1.52064   1.57910   -1.000
 4518.00    1.52366   1.58341   -1.000
 4519.00    1.56222   1.59685   -1.000
 4520.00    1.59520   1.61232  136.799
 4521.00    1.57424   1.61570   -1.000
 4522.00    1.54133   1.60059   -1.000
 4523.00    1.52479   1.57396   -1.000
 4524.00    1.51558   1.54407   -1.000
 4525.00    1.49381   1.50953  151.526
 4526.00    1.44665   1.46844   -1.000
 4527.00    1.39519   1.42984   -1.000
 4528.00    1.38115   1.40873   -1.000
 4529.00    1.39562   1.41184  150.109
 4530.00    1.41085   1.43182   -1.000
 4531.00    1.44217   1.45278  150.032
 4532.00    1.46173   1.45999  154.868
 4533.00    1.42849   1.45212   -1.000
 4534.00    1.37444   1.44617   -1.000
 4535.00    1.37061   1.46427   -1.000
 4536.00    1.45662   1.51174   -1.000
 4537.00    1.55950   1.56871  134.633
 4538.00    1.59791   1.60510  137.057
 4539.00    1.58657   1.60866  138.755
 4540.00    1.59340   1.59421  138.059
 4541.00    1.39720   1.58430   -1.000
 4542.00    0.60478   1.58643   -1.000
 4543.00   -0.03563   1.59064   -2.000
 4544.00    0.19186   1.58672   -2.000
 4545.00    0.81590   1.57662   -2.000
 4546.00    0.80626   1.56684   -1.000
 4547.00    0.88298   1.55611   -1.000
 4548.00    1.50192   1.54204   -1.000
 4549.00    1.46904   1.53313   -1.000
 4550.00    1.47592   1.53952   -1.000
 4551.00    1.51916   1.55326   -1.000
 4552.00    1.52109   1.55597   -1.000
 4553.00    1.48678   1.54543   -1.000
 4554.00    1.45984   1.53852   -1.000
 4555.00    1.47432   1.55328   -1.000
 4556.00    1.51969   1.59235   -1.000
 4557.00    1.58893   1.63941   -1.000
 4558.00    1.63145   1.67482   -1.000
 4559.00    1.62341   1.69242   -1.000
 4560.00    1.62559   1.69578   -1.000
 4561.00    1.64061   1.68667   -1.000
 4562.00    1.61615   1.66424   -1.000
 4563.00    1.56790   1.63420   -1.000
 4564.00    1.53996   1.61209   -1.000
 4565.00    1.53488   1.61266   -1.000
 4566.00    1.56891   1.63668   -1.000
 4567.00    1.61729   1.66816   -1.000
 4568.00    1.64374   1.68545   -1.000
 4569.00    1.62899   1.67811   -1.000
 4570.00    1.58468   1.65425   -1.000
 4571.00    1.54876   1.63419   -1.000
 4572.00    1.53947   1.63674   -1.000
 4573.00    1.57772   1.66029   -1.000
 4574.00    1.62951   1.68449   -1.000
 4575.00    1.64062   1.69413   -1.000
 4576.00    1.63307   1.68867   -1.000
 4577.00    1.62797   1.67073   -1.000
 4578.00    1.59831   1.64121   -1.000
 4579.00    1.55099   1.60724   -1.000
 4580.00    1.52568   1.58313   -1.000
 4581.00    1.53461   1.57768   -1.000
 4582.00    1.55467   1.58581   -1.000
 4583.00    1.56295   1.59513   -1.000
 4584.00    1.55081   1.59825   -1.000
 4585.00    1.54065   1.60109   -1.000
 4586.00    1.55065   1.61577   -1.000
 4587.00    1.58005   1.64356   -1.000
 4588.00    1.62490   1.67134   -1.000
 4589.00    1.64360   1.68422   -1.000
 4590.00    1.61956   1.67706   -1.000
 4591.00    1.58628   1.65618   -1.000
 4592.00    1.56959   1.63453   -1.000
 4593.00    1.56907   1.62191   -1.000
 4594.00    1.58013   1.61911   -1.000
 4595.00    1.59744   1.62257   -1.000
 4596.00    1.61032   1.62954  136.369
 4597.00    1.60833   1.63751   -1.000
 4598.00    1.60515   1.64270   -1.000
 4599.00    1.60209   1.64241   -1.000
 4600.00    1.58249   1.63789   -1.000
 4601.00    1.56937   1.63397   -1.000
 4602.00    1.58302   1.63406   -1.000
 4603.00    1.60643   1.63708   -1.000
 4604.00    1.61066   1.64205   -1.000
 4605.00    1.60718   1.65286   -1.000
 4606.00    1.62836   1.67528   -1.000
 4607.00    1.65443   1.70821   -1.000
 4608.00    1.68438   1.74157   -1.000
 4609.00    1.71928   1.76105   -1.000
 4610.00    1.72699   1.75844   -1.000
 4611.00    1.70287   1.74148   -1.000
 4612.00    1.66741   1.72557   -1.000
 4613.00    1.65278   1.72071   -1.000
 4614.00    1.65540   1.72706   -1.000
 4615.00    1.66571   1.73744   -1.000
 4616.00    1.67447   1.74493   -1.000
 4617.00    1.67508   1.74745   -1.000
 4618.00    1.67212   1.74680   -1.000
 4619.00    1.66888   1.74761   -1.000
 4620.00    1.68710   1.75404   -1.000
 4621.00    1.71118   1.76358   -1.000
 4622.00    1.71563   1.76830   -1.000
 4623.00    1.71189   1.76474   -1.000
 4624.00    1.70720   1.75727   -1.000
 4625.00    1.69187   1.75007   -1.000
 4626.00    1.68941   1.74492   -1.000
 4627.00    1.69810   1.74394   -1.000
 4628.00    1.69353   1.74655   -1.000
 4629.00    1.69026   1.75142   -1.000
 4630.00    1.69373   1.75844   -1.000
 4631.00    1.70471   1.76289   -1.000
 4632.00    1.70911   1.75737   -1.000
 4633.00    1.69908   1.74334   -1.000
 4634.00    1.69152   1.72989   -1.000
 4635.00    1.69498   1.71987   -1.000
 4636.00    1.66964   1.70779   -1.000
 4637.00    1.63315   1.69181   -1.000
 4638.00    1.62143   1.67873   -1.000
 4639.00    1.63213   1.67748   -1.000
 4640.00    1.66890   1.69060  129.534
 4641.00    1.71629   1.71094  128.999
 4642.00    1.74191   1.72481  130.572
 4643.00    1.72819   1.71966  133.719
 4644.00    1.70953   1.69389  137.503
 4645.00    1.67461   1.65678  139.631
 4646.00    1.61736   1.62397  138.507
 4647.00    1.59898   1.61315  135.544
 4648.00    1.62669   1.63099  133.038
 4649.00    1.64479   1.66720  132.089
 4650.00    1.65927   1.70435   -1.000
 4651.00    1.68735   1.72884   -1.000
 4652.00    1.69878   1.73546   -1.000
 4653.00    1.69202   1.72632   -1.000
 4654.00    1.66179   1.71051   -1.000
 4655.00    1.61599   1.70300   -1.000
 4656.00    1.61337   1.71615   -1.000
 4657.00    1.66410   1.75198   -1.000
 4658.00    1.72964   1.79823   -1.000
 4659.00    1.78456   1.83285   -1.000
 4660.00    1.79660   1.83977   -1.000
 4661.00    1.77199   1.81995   -1.000
 4662.00    1.75158   1.78639   -1.000
 4663.00    1.73571   1.75047  133.042
 4664.00    1.71344   1.71360  137.144
 4665.00    1.67825   1.67106  143.081
 4666.00    1.61090   1.62576  145.958
 4667.00    1.53853   1.59562   -1.000
 4668.00    1.52614   1.59986   -1.000
 4669.00    1.57916   1.63827   -1.000
 4670.00    1.64536   1.68877   -1.000
 4671.00    1.69209   1.72684   -1.000
 4672.00    1.71557   1.74390   -1.000
 4673.00    1.72558   1.74884  130.027
 4674.00    1.72524   1.75506   -1.000
 4675.00    1.74490   1.76621  127.572
 4676.00    1.76844   1.77297  129.429
 4677.00    1.74937   1.76397  132.181
 4678.00    1.70244   1.73993   -1.000
 4679.00    1.67049   1.71206   -1.000
 4680.00    1.65652   1.69222   -1.000
 4681.00    1.64676   1.68771   -1.000
 4682.00    1.65704   1.69914   -1.000
 4683.00    1.68269   1.71929   -1.000
 4684.00    1.73417   1.73630  130.459
 4685.00    1.76046   1.74286  130.869
 4686.00    1.73759   1.74051  131.243
 4687.00    1.72793   1.73589  131.229
 4688.00    1.72096   1.73393  131.746
 4689.00    1.71870   1.73432  132.363
 4690.00    1.71420   1.73454  131.614
 4691.00    1.71073   1.73587  129.777
 4692.00    1.73591   1.74280  127.305
 4693.00    1.77254   1.75611  125.094
 4694.00    1.79989   1.77146   -1.000
 4695.00    1.80886   1.78192   -1.000
 4696.00    1.80905   1.77855   -1.000
 4697.00    1.77137   1.75726  133.534
 4698.00    1.72696   1.72651  133.583
 4699.00    1.71253   1.69985  133.552
 4700.00    1.69993   1.68274  135.362
 4701.00    1.68186   1.67208  136.889
 4702.00    1.65307   1.66716  135.731
 4703.00    1.63800   1.67383   -1.000
 4704.00    1.66769   1.69128   -1.000
 4705.00    1.70720   1.70488  135.923
 4706.00    1.70234   1.70291  137.913
 4707.00    1.66732   1.69082  138.077
 4708.00    1.65456   1.68503   -1.000
 4709.00    1.66615   1.69588   -1.000
 4710.00    1.69582   1.71889  129.167
 4711.00    1.74423   1.74070  129.325
 4712.00    1.76531   1.74923  131.305
 4713.00    1.74233   1.74421  132.473
 4714.00    1.71555   1.74035  130.944
 4715.00    1.71182   1.75331   -1.000
 4716.00    1.73419   1.78319   -1.000
 4717.00    1.77148   1.81675   -1.000
 4718.00    1.79696   1.84258   -1.000
 4719.00    1.79758   1.85765   -1.000
 4720.00    1.79381   1.86211   -1.000
 4721.00    1.78718   1.85810   -1.000
 4722.00    1.77399   1.85337   -1.000
 4723.00    1.78125   1.85491   -1.000
 4724.00    1.79815   1.85696   -1.000
 4725.00    1.79380   1.84458   -1.000
 4726.00    1.75603   1.80979   -1.000
 4727.00    1.70810   1.76190   -1.000
 4728.00    1.67570   1.72317   -1.000
 4729.00    1.66628   1.70956   -1.000
 4730.00    1.67931   1.71972   -1.000
 4731.00    1.69354   1.74304   -1.000
 4732.00    1.71520   1.76825   -1.000
 4733.00    1.74529   1.78594   -1.000
 4734.00    1.76258   1.79229   -1.000
 4735.00    1.75863   1.79158   -1.000
 4736.00    1.75701   1.79118   -1.000
 4737.00    1.76794   1.79699   -1.000
 4738.00    1.77733   1.80949   -1.000
 4739.00    1.77793   1.82108   -1.000
 4740.00    1.76678   1.82552   -1.000
 4741.00    1.75296   1.82726   -1.000
 4742.00    1.76209   1.83259   -1.000
 4743.00    1.79200   1.84092   -1.000
 4744.00    1.81177   1.85021   -1.000
 4745.00    1.79973   1.86111   -1.000
 4746.00    1.79300   1.87460   -1.000
 4747.00    1.80812   1.88831   -1.000
 4748.00    1.82099   1.89795   -1.000
 4749.00    1.82837   1.90228   -1.000
 4750.00    1.82398   1.90090   -1.000
 4751.00    1.80731   1.89130   -1.000
 4752.00    1.77758   1.87288   -1.000
 4753.00    1.75655   1.85108   -1.000
 4754.00    1.74794   1.83510   -1.000
 4755.00    1.73018   1.83048   -1.000
 4756.00    1.72156   1.83574   -1.000
 4757.00    1.72628   1.84693   -1.000
 4758.00    1.74934   1.85980   -1.000
 4759.00    1.77841   1.86764   -1.000
 4760.00    1.76590   1.86238   -1.000
 4761.00    1.72791   1.84029   -1.000
 4762.00    1.70040   1.80776   -1.000
 4763.00    1.69611   1.77844   -1.000
 4764.00    1.69915   1.76000   -1.000
 4765.00    1.67922   1.75132   -1.000
 4766.00    1.67579   1.75534   -1.000
 4767.00    1.70964   1.77935   -1.000
 4768.00    1.75476   1.81878   -1.000
 4769.00    1.79899   1.85442   -1.000
 4770.00    1.79786   1.86934   -1.000
 4771.00    1.76253   1.86607   -1.000
 4772.00    1.75417   1.86432   -1.000
 4773.00    1.77737   1.87854   -1.000
 4774.00    1.80776   1.90418   -1.000
 4775.00    1.81741   1.92614   -1.000
 4776.00    1.82005   1.93624   -1.000
 4777.00    1.81920   1.93668   -1.000
 4778.00    1.80346   1.93021   -1.000
 4779.00    1.78334   1.91811   -1.000
 4780.00    1.78216   1.90324   -1.000
 4781.00    1.78742   1.88671   -1.000
 4782.00    1.78221   1.86797   -1.000
 4783.00    1.77791   1.85179   -1.000
 4784.00    1.76847   1.84405   -1.000
 4785.00    1.76372   1.84231   -1.000
 4786.00    1.75075   1.84091   -1.000
 4787.00    1.74176   1.83982   -1.000
 4788.00    1.76082   1.84193   -1.000
 4789.00    1.75171   1.84862   -1.000
 4790.00    1.74500   1.86227   -1.000
 4791.00    1.77602   1.88670   -1.000
 4792.00    1.80298   1.92139   -1.000
 4793.00    1.83365   1.96008   -1.000
 4794.00    1.86932   1.99231   -1.000
 4795.00    1.88265   2.00604   -1.000
 4796.00    1.86941   1.99562   -1.000
 4797.00    1.83799   1.96742   -1.000
 4798.00    1.80201   1.93591   -1.000
 4799.00    1.77403   1.91698   -1.000
 4800.00    1.78476   1.92075   -1.000
 4801.00    1.83398   1.94404   -1.000
 4802.00    1.86373   1.97046   -1.000
 4803.00    1.85263   1.98064   -1.000
 4804.00    1.83324   1.96846   -1.000
 4805.00    1.81325   1.94474   -1.000
 4806.00    1.78932   1.92414   -1.000
 4807.00    1.79790   1.91434   -1.000
 4808.00    1.80771   1.91661   -1.000
 4809.00    1.81391   1.92851   -1.000
 4810.00    1.84203   1.94396   -1.000
 4811.00    1.86001   1.95581   -1.000
 4812.00    1.84991   1.96203   -1.000
 4813.00    1.82352   1.96716   -1.000
 4814.00    1.83322   1.97576   -1.000
 4815.00    1.86326   1.98855   -1.000
 4816.00    1.87812   2.00357   -1.000
 4817.00    1.89852   2.01813   -1.000
 4818.00    1.91068   2.02958   -1.000
 4819.00    1.92491   2.03437   -1.000
 4820.00    1.92416   2.02717   -1.000
 4821.00    1.88163   2.00364   -1.000
 4822.00    1.84350   1.96650   -1.000
 4823.00    1.82106   1.93082   -1.000
 4824.00    1.81726   1.91739   -1.000
 4825.00    1.84481   1.93165   -1.000
 4826.00    1.87997   1.95470   -1.000
 4827.00    1.88229   1.96520   -1.000
 4828.00    1.86243   1.96082   -1.000
 4829.00    1.85446   1.95126   -1.000
 4830.00    1.85680   1.94075   -1.000
 4831.00    1.83801   1.92886   -1.000
 4832.00    1.82404   1.92266   -1.000
 4833.00    1.85558   1.93086   -1.000
 4834.00    1.88321   1.95096   -1.000
 4835.00    1.88213   1.97019   -1.000
 4836.00    1.88288   1.97795   -1.000
 4837.00    1.88101   1.97249   -1.000
 4838.00    1.86192   1.95652   -1.000
 4839.00    1.82956   1.93651   -1.000
 4840.00    1.80399   1.92174   -1.000
 4841.00    1.81303   1.91651   -1.000
 4842.00    1.83254   1.91872   -1.000
 4843.00    1.84776   1.92760   -1.000
 4844.00    1.88027   1.94595   -1.000
 4845.00    1.91043   1.96954   -1.000
 4846.00    1.89709   1.98309   -1.000
 4847.00    1.86633   1.97680   -1.000
 4848.00    1.83789   1.96148   -1.000
 4849.00    1.85419   1.95546   -1.000
 4850.00    1.88006   1.96202   -1.000
 4851.00    1.88416   1.96898   -1.000
 4852.00    1.88206   1.96182   -1.000
 4853.00    1.86398   1.93331   -1.000
 4854.00    1.81856   1.88919   -1.000
 4855.00    1.77928   1.84852   -1.000
 4856.00    1.78585   1.82573   -1.000
 4857.00    1.80808   1.80789  146.530
 4858.00    1.75499   1.75839  162.075
 4859.00    1.60883   1.65516   -1.000
 4860.00    1.44841   1.53213   -1.000
 4861.00    1.36415   1.46149   -1.000
 4862.00    1.41023   1.48954   -1.000
 4863.00    1.53975   1.59202   -1.000
 4864.00    1.65794   1.70636   -1.000
 4865.00    1.72342   1.79392   -1.000
 4866.00    1.76515   1.85058   -1.000
 4867.00    1.80775   1.88225   -1.000
 4868.00    1.82448   1.88956   -1.000
 4869.00    1.79656   1.86866   -1.000
 4870.00    1.73761   1.82300   -1.000
 4871.00    1.67636   1.77701   -1.000
 4872.00    1.66867   1.76745   -1.000
 4873.00    1.72327   1.80463   -1.000
 4874.00    1.75810   1.85945   -1.000
 4875.00    1.76675   1.90159   -1.000
 4876.00    1.78257   1.92672   -1.000
 4877.00    1.78767   1.94681   -1.000
 4878.00    1.80710   1.97004   -1.000
 4879.00    1.82751   1.99183   -1.000
 4880.00    1.82650   1.99966   -1.000
 4881.00    1.81472   1.98842   -1.000
 4882.00    1.81116   1.97002   -1.000
 4883.00    1.80898   1.95477   -1.000
 4884.00    1.80557   1.93708   -1.000
 4885.00    1.78692   1.91333   -1.000
 4886.00    1.78221   1.89361   -1.000
 4887.00    1.79324   1.88441   -1.000
 4888.00    1.79157   1.87490   -1.000
 4889.00    1.75678   1.85142   -1.000
 4890.00    1.71148   1.82201   -1.000
 4891.00    1.70946   1.81939   -1.000
 4892.00    1.76782   1.86966   -1.000
 4893.00    1.87081   1.96211   -1.000
 4894.00    1.95843   2.05524   -1.000
 4895.00    1.99261   2.11559   -1.000
 4896.00    2.00855   2.13875   -1.000
 4897.00    1.99938   2.13548   -1.000
 4898.00    1.97887   2.11591   -1.000
 4899.00    1.93901   2.08954   -1.000
 4900.00    1.91924   2.06679   -1.000
 4901.00    1.91655   2.05144   -1.000
 4902.00    1.90457   2.03948   -1.000
 4903.00    1.89272   2.03249   -1.000
 4904.00    1.88916   2.04256   -1.000
 4905.00    1.92869   2.07144   -1.000
 4906.00    1.97650   2.09523   -1.000
 4907.00    1.96404   2.08891   -1.000
 4908.00    1.92751   2.05262   -1.000
 4909.00    1.90401   2.00690   -1.000
 4910.00    1.87484   1.97652   -1.000
 4911.00    1.86323   1.97666   -1.000
 4912.00    1.89171   2.00398   -1.000
 4913.00    1.93383   2.04142   -1.000
 4914.00    1.97424   2.07361   -1.000
 4915.00    1.99526   2.08802   -1.000
 4916.00    1.98923   2.06701   -1.000
 4917.00    1.94503   1.99751   -1.000
 4918.00    1.84186   1.89402   -1.000
 4919.00    1.74507   1.79785   -1.000
 4920.00    1.72760   1.75363   -1.000
 4921.00    1.76687   1.77666  133.809
 4922.00    1.82233   1.83989  132.987
 4923.00    1.86824   1.90062   -1.000
 4924.00    1.87404   1.94274   -1.000
 4925.00    1.86871   1.98064   -1.000
 4926.00    1.89535   2.02672   -1.000
 4927.00    1.94816   2.07613   -1.000
 4928.00    1.99480   2.11880   -1.000
 4929.00    2.02440   2.14779   -1.000
 4930.00    2.04136   2.15539   -1.000
 4931.00    2.01766   2.13491   -1.000
 4932.00    1.95678   2.09097   -1.000
 4933.00    1.90542   2.04401   -1.000
 4934.00    1.89399   2.01781   -1.000
 4935.00    1.93935   2.01352   -1.000
 4936.00    1.95266   2.00449   -1.000
 4937.00    1.89709   1.97106   -1.000
 4938.00    1.83998   1.93308   -1.000
 4939.00    1.84972   1.93022   -1.000
 4940.00    1.90119   1.97614   -1.000
 4941.00    1.96814   2.04729   -1.000
 4942.00    2.01275   2.10791   -1.000
 4943.00    2.02162   2.14033   -1.000
 4944.00    2.01125   2.14826   -1.000
 4945.00    2.00761   2.14385   -1.000
 4946.00    2.00834   2.14110   -1.000
 4947.00    2.01621   2.15022   -1.000
 4948.00    2.03893   2.16927   -1.000
 4949.00    2.05189   2.18668   -1.000
 4950.00    2.04675   2.19458   -1.000
 4951.00    2.05342   2.19225   -1.000
 4952.00    2.05466   2.18115   -1.000
 4953.00    2.04977   2.16013   -1.000
 4954.00    2.04206   2.12022   -1.000
 4955.00    2.00114   2.04829   -1.000
 4956.00    1.89997   1.95152   -1.000
 4957.00    1.79996   1.87856   -1.000
 4958.00    1.80953   1.88148   -1.000
 4959.00    1.90748   1.95651   -1.000
 4960.00    1.99809   2.05017   -1.000
 4961.00    2.03271   2.11229   -1.000
 4962.00    2.03414   2.13097   -1.000
 4963.00    2.02192   2.11860   -1.000
 4964.00    1.99662   2.08770   -1.000
 4965.00    1.97654   2.05070   -1.000
 4966.00    1.96341   2.02349   -1.000
 4967.00    1.95135   2.01439   -1.000
 4968.00    1.93067   2.02094   -1.000
 4969.00    1.92967   2.03855   -1.000
 4970.00    1.96232   2.06441   -1.000
 4971.00    1.99300   2.09509   -1.000
 4972.00    2.01764   2.12448   -1.000
 4973.00    2.04046   2.14498   -1.000
 4974.00    2.04514   2.15196   -1.000
 4975.00    2.06388   2.14516   -1.000
 4976.00    2.05804   2.12585   -1.000
 4977.00    2.01536   2.09783   -1.000
 4978.00    1.98576   2.06761   -1.000
 4979.00    1.96836   2.03653   -1.000
 4980.00    1.92137   1.99649   -1.000
 4981.00    1.87093   1.94141   -1.000
 4982.00    1.81799   1.88369   -1.000
 4983.00    1.79594   1.85212   -1.000
 4984.00    1.82250   1.86557   -1.000
 4985.00    1.86902   1.91779   -1.000
 4986.00    1.92320   1.98539   -1.000
 4987.00    1.98377   2.04372   -1.000
 4988.00    2.00810   2.07341   -1.000
 4989.00    1.98314   2.07211   -1.000
 4990.00    1.97079   2.05776   -1.000
 4991.00    1.96172   2.05083   -1.000
 4992.00    1.97726   2.05655   -1.000
 4993.00    1.98609   2.06684   -1.000
 4994.00    1.98365   2.07638   -1.000
 4995.00    1.99905   2.08753   -1.000
 4996.00    2.01192   2.09640   -1.000
 4997.00    2.00091   2.08832   -1.000
 4998.00    1.97180   2.05382   -1.000
 4999.00    1.95088   2.00233   -1.000
 5000.00    1.92068   1.96150   -1.000
 5001.00    1.92206   1.94834   -1.000
 5002.00    1.95021   1.95392  136.104
 5003.00    1.96863   1.95629  139.048
 5004.00    1.94880   1.93939  140.898
 5005.00    1.89876   1.90876  138.970
 5006.00    1.87160   1.89266  134.979
 5007.00    1.90642   1.91559  132.529
 5008.00    1.98830   1.96685  133.115
 5009.00    2.02849   2.01015  136.309
 5010.00    1.99678   2.01606  141.088
 5011.00    1.93657   1.98147   -1.000
 5012.00    1.86989   1.92689   -1.000
 5013.00    1.82694   1.88212   -1.000
 5014.00    1.82911   1.86795   -1.000
 5015.00    1.85885   1.88194   -1.000
 5016.00    1.89753   1.90528  138.854
 5017.00    1.90462   1.92308  137.869
 5018.00    1.91135   1.93765   -1.000
 5019.00    1.92935   1.95595   -1.000
 5020.00    1.94306   1.97180   -1.000
 5021.00    1.95086   1.97738   -1.000
 5022.00    1.94238   1.98062   -1.000
 5023.00    1.95827   1.99641   -1.000
 5024.00    1.99924   2.02452   -1.000
 5025.00    2.00422   2.04579   -1.000
 5026.00    1.99215   2.04611   -1.000
 5027.00    1.98666   2.03591   -1.000
 5028.00    1.99368   2.03679   -1.000
 5029.00    2.02422   2.05956   -1.000
 5030.00    2.05888   2.09795   -1.000
 5031.00    2.08109   2.13889   -1.000
 5032.00    2.08523   2.16888   -1.000
 5033.00    2.09149   2.17291   -1.000
 5034.00    2.06649   2.14279   -1.000
 5035.00    1.99852   2.09182   -1.000
 5036.00    1.96443   2.04686   -1.000
 5037.00    1.96285   2.01741   -1.000
 5038.00    1.95022   1.98459   -1.000
 5039.00    1.88898   1.93027   -1.000
 5040.00    1.80023   1.87164   -1.000
 5041.00    1.75452   1.85439   -1.000
 5042.00    1.87496   1.90536   -1.000
 5043.00    1.17953   2.00623   -1.000
 5044.00    0.26738   2.10967   -1.000
 5045.00   -0.02727   2.17806    0.000
 5046.00    0.60496   2.19721   -1.000
 5047.00    1.61148   2.16967   -1.000
 5048.00    2.01623   2.11176   -1.000
 5049.00    1.99115   2.05283   -1.000
 5050.00    1.96675   2.01874   -1.000
 5051.00    1.98160   2.01844   -1.000
 5052.00    2.00088   2.04821   -1.000
 5053.00    2.05022   2.09620   -1.000
 5054.00    2.10728   2.14323   -1.000
 5055.00    2.13056   2.17588   -1.000
 5056.00    2.13903   2.19488   -1.000
 5057.00    2.14957   2.20755   -1.000
 5058.00    2.15916   2.22047   -1.000
 5059.00    2.15696   2.23589   -1.000
 5060.00    2.15330   2.25051   -1.000
 5061.00    2.16071   2.25450   -1.000
 5062.00    2.15804   2.23321   -1.000
 5063.00    2.11402   2.18238   -1.000
 5064.00    2.04329   2.12097   -1.000
 5065.00    2.00862   2.07794   -1.000
 5066.00    2.02430   2.06541   -1.000
 5067.00    2.04817   2.07313   -1.000
 5068.00    2.05258   2.08712   -1.000
 5069.00    2.07273   2.10251   -1.000
 5070.00    2.09049   2.11465   -1.000
 5071.00    2.07973   2.11555   -1.000
 5072.00    2.04545   2.10733   -1.000
 5073.00    2.04983   2.10409   -1.000
 5074.00    2.08368   2.11188   -1.000
 5075.00    2.09954   2.12192   -1.000
 5076.00    2.09886   2.12081   -1.000
 5077.00    2.09166   2.09677  140.595
 5078.00    2.02574   2.04690   -1.000
 5079.00    1.94147   1.98997   -1.000
 5080.00    1.90935   1.95876   -1.000
 5081.00    1.93156   1.96511   -1.000
 5082.00    1.97805   1.99379  134.815
 5083.00    2.02703   2.02849  132.408
 5084.00    2.07257   2.06572  131.017
 5085.00    2.11187   2.10390  130.600
 5086.00    2.12015   2.13660  130.113
 5087.00    2.10146   2.15826   -1.000
 5088.00    2.12046   2.17095   -1.000
 5089.00    2.14201   2.18041   -1.000
 5090.00    2.27393   2.19204   -1.000
 5091.00    2.30785   2.21007   -1.000
 5092.00    2.21235   2.23274  125.706
 5093.00    2.20856   2.24786   -1.000
 5094.00    2.22185   2.23967  130.631
 5095.00    2.19376   2.20314  133.690
 5096.00    2.15140   2.14801  136.651
 5097.00    2.07098   2.09178  137.896
 5098.00    1.99486   2.05297   -1.000
 5099.00    1.99600   2.04881   -1.000
 5100.00    2.04397   2.08129   -1.000
 5101.00    2.09920   2.12984   -1.000
 5102.00    2.14257   2.16383   -1.000
 5103.00    2.14816   2.16951  133.176
 5104.00    2.11891   2.15439   -1.000
 5105.00    2.08716   2.12988   -1.000
 5106.00    2.05619   2.10191   -1.000
 5107.00    2.02877   2.07626   -1.000
 5108.00    2.01352   2.06025   -1.000
 5109.00    2.03041   2.06072   -1.000
 5110.00    2.04284   2.08010   -1.000
 5111.00    2.05331   2.11443   -1.000
 5112.00    2.09277   2.15204   -1.000
 5113.00    2.13876   2.18344   -1.000
 5114.00    2.15246   2.20877   -1.000
 5115.00    2.15848   2.23245   -1.000
 5116.00    2.19787   2.25414   -1.000
 5117.00    2.23103   2.26833   -1.000
 5118.00    2.23154   2.26866   -1.000
 5119.00    2.21738   2.25193   -1.000
 5120.00    2.18408   2.21945   -1.000
 5121.00    2.13351   2.17563   -1.000
 5122.00    2.08308   2.12607   -1.000
 5123.00    2.04828   2.08015   -1.000
 5124.00    2.02463   2.05193   -1.000
 5125.00    2.04739   2.04726  137.577
 5126.00    2.07562   2.05610  137.444
 5127.00    2.06370   2.06475  137.441
 5128.00    2.05113   2.07093  136.172
 5129.00    2.05431   2.08201   -1.000
 5130.00    2.07173   2.10358   -1.000
 5131.00    2.10868   2.13194   -1.000
 5132.00    2.15029   2.15856  130.133
 5133.00    2.15975   2.17907  129.540
 5134.00    2.16909   2.19341   -1.000
 5135.00    2.19847   2.19723  134.010
 5136.00    2.19430   2.17950  136.528
 5137.00    2.12896   2.14025  137.329
 5138.00    2.07355   2.10094   -1.000
 5139.00    2.06148   2.08248  136.788
 5140.00    2.06888   2.08425  138.678
 5141.00    2.06905   2.09037   -1.000
 5142.00    2.04661   2.09327   -1.000
 5143.00    2.05864   2.09967   -1.000
 5144.00    2.10127   2.11025  136.616
 5145.00    2.11187   2.11152  137.280
 5146.00    2.09219   2.10050  136.203
 5147.00    2.08042   2.09228  135.119
 5148.00    2.08766   2.09762  136.045
 5149.00    2.10598   2.10648  138.328
 5150.00    2.11128   2.10333  139.764
 5151.00    2.07156   2.08864  139.531
 5152.00    2.05253   2.07553   -1.000
 5153.00    2.05801   2.07577  134.167
 5154.00    2.08628   2.09611  130.740
 5155.00    2.13434   2.13726  128.023
 5156.00    2.18847   2.18865  126.645
 5157.00    2.23259   2.23345  126.367
 5158.00    2.24239   2.26098  126.668
 5159.00    2.27069   2.27064  127.312
 5160.00    2.27855   2.26466  128.538
 5161.00    2.25763   2.24237  130.379
 5162.00    2.24075   2.20201   -1.000
 5163.00    2.21273   2.14345   -1.000
 5164.00    2.16643   2.05996   -1.000
 5165.00    2.01502   1.93958   -1.000
 5166.00    1.80163   1.79756  171.425
 5167.00    1.68877   1.69466  163.162
 5168.00    1.72588   1.67798   -1.000
 5169.00    1.84224   1.72094   -1.000
 5170.00    1.87913   1.74239   -1.000
 5171.00    1.76482   1.70388   -1.000
 5172.00    1.62719   1.65876   -1.000
 5173.00    1.64772   1.68686   -1.000
 5174.00    1.82702   1.80639  137.159
 5175.00    2.03264   1.95445   -1.000
 5176.00    2.14319   2.06454   -1.000
 5177.00    2.18579   2.11932   -1.000
 5178.00    2.19889   2.13229   -1.000
 5179.00    2.19082   2.10875   -1.000
 5180.00    2.15078   2.03681   -1.000
 5181.00    2.01458   1.90914   -1.000
 5182.00    1.78553   1.76184   -1.000
 5183.00    1.61117   1.66823   -1.000
 5184.00    1.64779   1.69112   -1.000
 5185.00    1.85444   1.81890   -1.000
 5186.00    2.06031   1.97622   -1.000
 5187.00    2.16496   2.09273   -1.000
 5188.00    2.20096   2.15138   -1.000
 5189.00    2.21758   2.16473   -1.000
 5190.00    2.18901   2.14034   -1.000
 5191.00    2.12093   2.08944   -1.000
 5192.00    2.06120   2.04517  140.553
 5193.00    2.07315   2.03683   -1.000
 5194.00    2.12588   2.05940   -1.000
 5195.00    2.15793   2.09461   -1.000
 5196.00    2.18456   2.13542   -1.000
 5197.00    2.23178   2.18061   -1.000
 5198.00    2.26359   2.22390   -1.000
 5199.00    2.27597   2.25432  130.332
 5200.00    2.28355   2.26342  132.340
 5201.00    2.28716   2.24683   -1.000
 5202.00    2.25112   2.20352   -1.000
 5203.00    2.19515   2.13451   -1.000
 5204.00    2.13715   2.05225   -1.000
 5205.00    2.08036   1.97986   -1.000
 5206.00    2.05495   1.93707   -1.000
 5207.00    2.05388   1.92475   -1.000
 5208.00    2.04046   1.93689   -1.000
 5209.00    2.04928   1.97854   -1.000
 5210.00    2.12780   2.05477   -1.000
 5211.00    2.21531   2.14926   -1.000
 5212.00    2.30173   2.23116   -1.000
 5213.00    2.34681   2.27106   -1.000
 5214.00    2.33505   2.26272   -1.000
 5215.00    2.26846   2.22937   -1.000
 5216.00    2.22789   2.21021  129.277
 5217.00    2.24854   2.22908  127.052
 5218.00    2.29240   2.27756  125.827
 5219.00    2.34217   2.32928  125.210
 5220.00    2.38859   2.36279   -1.000
 5221.00    2.40327   2.36810   -1.000
 5222.00    2.39260   2.34026   -1.000
 5223.00    2.34702   2.27832   -1.000
 5224.00    2.25796   2.18762   -1.000
 5225.00    2.14525   2.08991   -1.000
 5226.00    2.04660   2.02702  137.291
 5227.00    2.07022   2.03604   -1.000
 5228.00    2.19754   2.11442   -1.000
 5229.00    2.29649   2.21438   -1.000
 5230.00    2.35988   2.27656   -1.000
 5231.00    2.36197   2.27945   -1.000
 5232.00    2.30823   2.24533   -1.000
 5233.00    2.27460   2.21825   -1.000
 5234.00    2.27363   2.23057   -1.000
 5235.00    2.31930   2.28084   -1.000
 5236.00    2.37070   2.34453  124.176
 5237.00    2.41317   2.39435  124.458
 5238.00    2.41808   2.41774  124.412
 5239.00    2.41169   2.41993  123.801
 5240.00    2.39385   2.41324  123.732
 5241.00    2.39358   2.40691  123.615
 5242.00    2.40525   2.40689  123.393
 5243.00    2.42991   2.41310  125.148
 5244.00    2.43822   2.41332   -1.000
 5245.00    2.41543   2.39048   -1.000
 5246.00    2.35758   2.34435  133.116
 5247.00    2.29922   2.29657  133.336
 5248.00    2.29042   2.26676   -1.000
 5249.00    2.28808   2.25584   -1.000
 5250.00    2.27827   2.25758  132.235
 5251.00    2.28451   2.27054  130.765
 5252.00    2.32938   2.28845   -1.000
 5253.00    2.33275   2.30079   -1.000
 5254.00    2.30959   2.30909  127.273
 5255.00    2.32060   2.33133  123.909
 5256.00    2.39064   2.37901  122.216
 5257.00    2.46537   2.43386   -1.000
 5258.00    2.49275   2.46514   -1.000
 5259.00    2.48269   2.45284   -1.000
 5260.00    2.42504   2.39533   -1.000
 5261.00    2.34084   2.30387   -1.000
 5262.00    2.24335   2.19990   -1.000
 5263.00    2.15657   2.10494   -1.000
 5264.00    2.10411   2.03837   -1.000
 5265.00    2.09652   2.01020   -1.000
 5266.00    2.14085   2.01199   -1.000
 5267.00    2.18460   2.01237   -1.000
 5268.00    2.14526   1.98409   -1.000
 5269.00    2.06343   1.94583   -1.000
 5270.00    2.06067   1.95377   -1.000
 5271.00    2.16860   2.03591   -1.000
 5272.00    2.28897   2.14536   -1.000
 5273.00    2.31944   2.22036   -1.000
 5274.00    2.31888   2.25588   -1.000
 5275.00    2.33919   2.28654   -1.000
 5276.00    2.38408   2.33839   -1.000
 5277.00    2.45950   2.40277   -1.000
 5278.00    2.52535   2.44738   -1.000
 5279.00    2.51464   2.44775   -1.000
 5280.00    2.46639   2.40651   -1.000
 5281.00    2.40564   2.34774   -1.000
 5282.00    2.33589   2.30022   -1.000
 5283.00    2.31381   2.29152  126.279
 5284.00    2.35923   2.33445  122.302
 5285.00    2.46739   2.41492   -1.000
 5286.00    2.54206   2.49177   -1.000
 5287.00    2.56220   2.53576   -1.000
 5288.00    2.56560   2.55100  120.573
 5289.00    2.54432   2.55705  120.192
 5290.00    2.54909   2.56267  120.669
 5291.00    2.55878   2.56240  121.723
 5292.00    2.57517   2.55205  123.235
 5293.00    2.56449   2.53247   -1.000
 5294.00    2.53725   2.49837   -1.000
 5295.00    2.48376   2.43901   -1.000
 5296.00    2.38437   2.36066   -1.000
 5297.00    2.29992   2.29406  131.960
 5298.00    2.29467   2.27422  129.242
 5299.00    2.36382   2.30240   -1.000
 5300.00    2.40914   2.34902   -1.000
 5301.00    2.42557   2.39195   -1.000
 5302.00    2.47133   2.43538   -1.000
 5303.00    2.53458   2.48879   -1.000
 5304.00    2.57524   2.54148   -1.000
 5305.00    2.59245   2.57041  122.332
 5306.00    2.57334   2.57187  121.977
 5307.00    2.55905   2.56490  120.775
 5308.00    2.56833   2.56958  119.875
 5309.00    2.58137   2.58685  119.791
 5310.00    2.60987   2.60093  120.350
 5311.00    2.62466   2.60034  120.919
 5312.00    2.61010   2.58691  121.709
 5313.00    2.59467   2.56739   -1.000
 5314.00    2.57748   2.54545   -1.000
 5315.00    2.56531   2.52288   -1.000
 5316.00    2.55496   2.50598   -1.000
 5317.00    2.53761   2.50312   -1.000
 5318.00    2.54492   2.51223   -1.000
 5319.00    2.56248   2.52110   -1.000
 5320.00    2.56480   2.51907   -1.000
 5321.00    2.56184   2.50081   -1.000
 5322.00    2.54371   2.46361   -1.000
 5323.00    2.50389   2.41246   -1.000
 5324.00    2.48689   2.35637   -1.000
 5325.00    2.46959   2.29412   -1.000
 5326.00    2.42145   2.21340   -1.000
 5327.00    2.28922   2.13124   -1.000
 5328.00    2.20755   2.09740   -1.000
 5329.00    2.27140   2.15092   -1.000
 5330.00    2.40998   2.26544   -1.000
 5331.00    2.49423   2.37676   -1.000
 5332.00    2.52705   2.44730   -1.000
 5333.00    2.55615   2.48756   -1.000
 5334.00    2.59246   2.51964   -1.000
 5335.00    2.59954   2.54405   -1.000
 5336.00    2.57580   2.54845   -1.000
 5337.00    2.56847   2.52653   -1.000
 5338.00    2.55159   2.47885   -1.000
 5339.00    2.48584   2.41791   -1.000
 5340.00    2.42365   2.37378   -1.000
 5341.00    2.44141   2.37686   -1.000
 5342.00    2.51056   2.42017   -1.000
 5343.00    2.56904   2.46719   -1.000
 5344.00    2.57813   2.48832   -1.000
 5345.00    2.55825   2.48243   -1.000
 5346.00    2.56153   2.46402   -1.000
 5347.00    2.53621   2.44534   -1.000
 5348.00    2.48907   2.43427   -1.000
 5349.00    2.49672   2.44277   -1.000
 5350.00    2.54318   2.47709   -1.000
 5351.00    2.58837   2.52705   -1.000
 5352.00    2.62179   2.57435   -1.000
 5353.00    2.64352   2.60970   -1.000
 5354.00    2.66162   2.63873  117.952
 5355.00    2.66915   2.66524  117.852
 5356.00    2.66861   2.68362  118.035
 5357.00    2.68055   2.68956  118.413
 5358.00    2.69197   2.68425  119.599
 5359.00    2.68762   2.66853  121.497
 5360.00    2.67173   2.64223   -1.000
 5361.00    2.63286   2.60991  124.416
 5362.00    2.58963   2.57781  125.154
 5363.00    2.56492   2.54870  125.901
 5364.00    2.56276   2.52345   -1.000
 5365.00    2.56597   2.50468   -1.000
 5366.00    2.57745   2.49438   -1.000
 5367.00    2.58375   2.48192   -1.000
 5368.00    2.54289   2.44690   -1.000
 5369.00    2.45687   2.38461   -1.000
 5370.00    2.39119   2.32151   -1.000
 5371.00    2.39476   2.30356   -1.000
 5372.00    2.46972   2.35486   -1.000
 5373.00    2.59684   2.45120   -1.000
 5374.00    2.66056   2.54363   -1.000
 5375.00    2.67265   2.59784   -1.000
 5376.00    2.67978   2.61537   -1.000
 5377.00    2.69444   2.61723   -1.000
 5378.00    2.69158   2.61786   -1.000
 5379.00    2.66954   2.61530   -1.000
 5380.00    2.64512   2.60207   -1.000
 5381.00    2.62629   2.58006   -1.000
 5382.00    2.60776   2.56026   -1.000
 5383.00    2.59263   2.55500   -1.000
 5384.00    2.63027   2.56811   -1.000
 5385.00    2.65809   2.59110   -1.000
 5386.00    2.66453   2.60666   -1.000
 5387.00    2.68042   2.60093   -1.000
 5388.00    2.66237   2.57398   -1.000
 5389.00    2.62793   2.53636   -1.000
 5390.00    2.60240   2.50215   -1.000
 5391.00    2.57391   2.47950   -1.000
 5392.00    2.54886   2.46825   -1.000
 5393.00    2.55343   2.46130   -1.000
 5394.00    2.56791   2.44695   -1.000
 5395.00    2.53786   2.41680   -1.000
 5396.00    2.46935   2.38118   -1.000
 5397.00    2.44225   2.36905   -1.000
 5398.00    2.50066   2.39903   -1.000
 5399.00    2.58101   2.45593   -1.000
 5400.00    2.61980   2.50498   -1.000
 5401.00    2.63289   2.52297   -1.000
 5402.00    2.61710   2.50055   -1.000
 5403.00    2.54605   2.43813   -1.000
 5404.00    2.44957   2.35590   -1.000
 5405.00    2.39343   2.29967   -1.000
 5406.00    2.43748   2.30111   -1.000
 5407.00    2.50986   2.34151   -1.000
 5408.00    2.52000   2.37874   -1.000
 5409.00    2.48213   2.39514   -1.000
 5410.00    2.48676   2.41466   -1.000
 5411.00    2.54484   2.45939   -1.000
 5412.00    2.62810   2.51428   -1.000
 5413.00    2.65911   2.55418   -1.000
 5414.00    2.64390   2.57560   -1.000
 5415.00    2.62608   2.59514   -1.000
 5416.00    2.66658   2.62136   -1.000
 5417.00    2.70095   2.64158   -1.000
 5418.00    2.69047   2.64308   -1.000
 5419.00    2.67075   2.62977   -1.000
 5420.00    2.67207   2.61391   -1.000
 5421.00    2.67392   2.60157   -1.000
 5422.00    2.66140   2.58824   -1.000
 5423.00    2.63435   2.57356   -1.000
 5424.00    2.62291   2.57333   -1.000
 5425.00    2.65380   2.59776   -1.000
 5426.00    2.70593   2.62687   -1.000
 5427.00    2.69219   2.62076   -1.000
 5428.00    2.62871   2.56477   -1.000
 5429.00    2.56040   2.49736   -1.000
 5430.00    2.54813   2.46518   -1.000
 5431.00    2.59118   2.47143   -1.000
 5432.00    2.60848   2.47951   -1.000
 5433.00    2.56985   2.46427   -1.000
 5434.00    2.51834   2.44416   -1.000
 5435.00    2.52914   2.45288   -1.000
 5436.00    2.58686   2.50317   -1.000
 5437.00    2.64232   2.57889   -1.000
 5438.00    2.69588   2.65232   -1.000
 5439.00    2.74208   2.70489   -1.000
 5440.00    2.76752   2.73433   -1.000
 5441.00    2.77160   2.74646   -1.000
 5442.00    2.77027   2.74066   -1.000
 5443.00    2.74380   2.70648   -1.000
 5444.00    2.66944   2.63600   -1.000
 5445.00    2.56121   2.54198  132.771
 5446.00    2.46379   2.46726  128.948
 5447.00    2.46620   2.45206  125.198
 5448.00    2.55608   2.50008   -1.000
 5449.00    2.66452   2.57286   -1.000
 5450.00    2.70669   2.62415   -1.000
 5451.00    2.71149   2.63554   -1.000
 5452.00    2.71948   2.60981   -1.000
 5453.00    2.66966   2.55476   -1.000
 5454.00    2.58096   2.48869   -1.000
 5455.00    2.53222   2.44905   -1.000
 5456.00    2.56361   2.46937   -1.000
 5457.00    2.66666   2.54300   -1.000
 5458.00    2.73908   2.61811   -1.000
 5459.00    2.76981   2.65086   -1.000
 5460.00    2.74844   2.63598   -1.000
 5461.00    2.69191   2.59608   -1.000
 5462.00    2.63182   2.55972   -1.000
 5463.00    2.61491   2.54830   -1.000
 5464.00    2.66027   2.56525   -1.000
 5465.00    2.69135   2.59594   -1.000
 5466.00    2.71935   2.62388   -1.000
 5467.00    2.74138   2.64141   -1.000
 5468.00    2.75082   2.64700   -1.000
 5469.00    2.76106   2.64118   -1.000
 5470.00    2.74621   2.62727   -1.000
 5471.00    2.72587   2.61048   -1.000
 5472.00    2.71867   2.59297   -1.000
 5473.00    2.69213   2.56898   -1.000
 5474.00    2.65344   2.53078   -1.000
 5475.00    2.58834   2.48408   -1.000
 5476.00    2.54765   2.45257   -1.000
 5477.00    2.56160   2.46295   -1.000
 5478.00    2.62782   2.50768   -1.000
 5479.00    2.68127   2.54803   -1.000
 5480.00    2.66744   2.55732   -1.000
 5481.00    2.63133   2.54848   -1.000
 5482.00    2.62148   2.55719   -1.000
 5483.00    2.64920   2.59650   -1.000
 5484.00    2.69962   2.64325   -1.000
 5485.00    2.72192   2.66565   -1.000
 5486.00    2.70281   2.65357   -1.000
 5487.00    2.68483   2.62602   -1.000
 5488.00    2.68410   2.60884   -1.000
 5489.00    2.70832   2.61487   -1.000
 5490.00    2.72807   2.63463   -1.000
 5491.00    2.74410   2.65162   -1.000
 5492.00    2.74378   2.65797   -1.000
 5493.00    2.74839   2.65687   -1.000
 5494.00    2.76214   2.65329   -1.000
 5495.00    2.76364   2.64601   -1.000
 5496.00    2.73623   2.63459   -1.000
 5497.00    2.70475   2.62892   -1.000
 5498.00    2.73564   2.63591   -1.000
 5499.00    2.78010   2.64350   -1.000
 5500.00    2.76077   2.63457   -1.000
 5501.00    2.70991   2.61039   -1.000
 5502.00    2.69591   2.59165   -1.000
 5503.00    2.73506   2.58816   -1.000
 5504.00    2.71789   2.58588   -1.000
 5505.00    2.68341   2.57372   -1.000
 5506.00    2.65013   2.56306   -1.000
 5507.00    2.69521   2.57338   -1.000
 5508.00    2.73988   2.60376   -1.000
 5509.00    2.76941   2.62632   -1.000
 5510.00    2.73923   2.61785   -1.000
 5511.00    2.69110   2.58302   -1.000
 5512.00    2.63660   2.54573   -1.000
 5513.00    2.60445   2.52857   -1.000
 5514.00    2.63427   2.53826   -1.000
 5515.00    2.69697   2.56891   -1.000
 5516.00    2.76646   2.61110   -1.000
 5517.00    2.80545   2.65738   -1.000
 5518.00    2.83523   2.69950   -1.000
 5519.00    2.86355   2.72740   -1.000
 5520.00    2.85605   2.73685   -1.000
 5521.00    2.82381   2.73574   -1.000
 5522.00    2.82312   2.73322   -1.000
 5523.00    2.82866   2.72855   -1.000
 5524.00    2.80855   2.71145   -1.000
 5525.00    2.78846   2.67186   -1.000
 5526.00    2.73488   2.61382   -1.000
 5527.00    2.65481   2.55959   -1.000
 5528.00    2.63890   2.54216   -1.000
 5529.00    2.68153   2.57366   -1.000
 5530.00    2.73130   2.63119   -1.000
 5531.00    2.77054   2.67689   -1.000
 5532.00    2.77284   2.69206   -1.000
 5533.00    2.75232   2.68496   -1.000
 5534.00    2.73565   2.67270   -1.000
 5535.00    2.75918   2.66724   -1.000
 5536.00    2.78344   2.67274   -1.000
 5537.00    2.81174   2.68722   -1.000
 5538.00    2.83996   2.70659   -1.000
 5539.00    2.85578   2.72832   -1.000
 5540.00    2.88160   2.74636   -1.000
 5541.00    2.88641   2.75125   -1.000
 5542.00    2.87313   2.74048   -1.000
 5543.00    2.82550   2.72451   -1.000
 5544.00    2.79916   2.71587   -1.000
 5545.00    2.81109   2.71862   -1.000
 5546.00    2.82118   2.73101   -1.000
 5547.00    2.85516   2.75230   -1.000
 5548.00    2.91050   2.77860   -1.000
 5549.00    2.91841   2.79993   -1.000
 5550.00    2.93388   2.80731   -1.000
 5551.00    2.92703   2.79887   -1.000
 5552.00    2.88756   2.77887   -1.000
 5553.00    2.88115   2.75657   -1.000
 5554.00    2.85525   2.74225   -1.000
 5555.00    2.86224   2.73985   -1.000
 5556.00    2.87421   2.74424   -1.000
 5557.00    2.87937   2.74818   -1.000
 5558.00    2.89742   2.75054   -1.000
 5559.00    2.89604   2.75142   -1.000
 5560.00    2.88736   2.74591   -1.000
 5561.00    2.86853   2.73075   -1.000
 5562.00    2.83542   2.71240   -1.000
 5563.00    2.82003   2.69907   -1.000
 5564.00    2.81665   2.69129   -1.000
 5565.00    2.80762   2.68368   -1.000
 5566.00    2.80105   2.67448   -1.000
 5567.00    2.79936   2.66738   -1.000
 5568.00    2.79971   2.66557   -1.000
 5569.00    2.80944   2.66884   -1.000
 5570.00    2.78751   2.67295   -1.000
 5571.00    2.66517   2.67285  127.818
 5572.00    2.22806   2.66936   -1.000
 5573.00    0.68972   2.67166   -1.000
 5574.00   -2.06636   2.68808    0.000
 5575.00   -3.74335   2.71127    0.000
 5576.00   -2.42380   2.72875    0.000
 5577.00    0.41529   2.74095   -1.000
 5578.00    2.35489   2.75323   -1.000
 5579.00    2.87608   2.76286   -1.000
 5580.00    2.92709   2.76470   -1.000
 5581.00    2.89718   2.75848   -1.000
 5582.00    2.87722   2.74789   -1.000
 5583.00    2.89943   2.73168   -1.000
 5584.00    2.90935   2.69888   -1.000
 5585.00    2.84742   2.64196   -1.000
 5586.00    2.73459   2.57213   -1.000
 5587.00    2.66820   2.51695   -1.000
 5588.00    2.66296   2.49925   -1.000
 5589.00    2.68814   2.52010   -1.000
 5590.00    2.74879   2.56291   -1.000
 5591.00    2.77395   2.60424   -1.000
 5592.00    2.77304   2.63105   -1.000
 5593.00    2.77355   2.64828   -1.000
 5594.00    2.80121   2.66969   -1.000
 5595.00    2.83382   2.69737   -1.000
 5596.00    2.84629   2.71381   -1.000
 5597.00    2.83075   2.70300   -1.000
 5598.00    2.79346   2.66968   -1.000
 5599.00    2.75579   2.63265   -1.000
 5600.00    2.76231   2.60451   -1.000
 5601.00    2.75631   2.59159   -1.000
 5602.00    2.73635   2.60420   -1.000
 5603.00    2.76554   2.65038   -1.000
 5604.00    2.86434   2.71935   -1.000
 5605.00    2.92563   2.78571   -1.000
 5606.00    2.94758   2.83013   -1.000
 5607.00    2.95080   2.84975   -1.000
 5608.00    2.95911   2.85388   -1.000
 5609.00    2.96556   2.85489   -1.000
 5610.00    2.96444   2.85927   -1.000
 5611.00    2.98969   2.85909   -1.000
 5612.00    2.99616   2.83434   -1.000
 5613.00    2.92542   2.77109   -1.000
 5614.00    2.82512   2.68463   -1.000
 5615.00    2.74473   2.61933   -1.000
 5616.00    2.74857   2.60999   -1.000
 5617.00    2.83791   2.64948   -1.000
 5618.00    2.90627   2.69839   -1.000
 5619.00    2.90955   2.73214   -1.000
 5620.00    2.92879   2.75330   -1.000
 5621.00    2.97197   2.76305   -1.000
 5622.00    2.93061   2.75049   -1.000
 5623.00    2.86686   2.71532   -1.000
 5624.00    2.83802   2.67942   -1.000
 5625.00    2.82261   2.67222   -1.000
 5626.00    2.87158   2.69984   -1.000
 5627.00    2.92769   2.74397   -1.000
 5628.00    2.94124   2.78641   -1.000
 5629.00    2.96060   2.81896   -1.000
 5630.00    2.99674   2.83730   -1.000
 5631.00    2.99047   2.84006   -1.000
 5632.00    2.96965   2.83038   -1.000
 5633.00    2.95076   2.81290   -1.000
 5634.00    2.95900   2.79047   -1.000
 5635.00    2.95937   2.76702   -1.000
 5636.00    2.90946   2.74861   -1.000
 5637.00    2.89861   2.74023   -1.000
 5638.00    2.89401   2.74088   -1.000
 5639.00    2.91101   2.74308   -1.000
 5640.00    2.90290   2.73969   -1.000
 5641.00    2.87387   2.73370   -1.000
 5642.00    2.89745   2.73536   -1.000
 5643.00    2.91361   2.74697   -1.000
 5644.00    2.92376   2.76252   -1.000
 5645.00    2.92797   2.77693   -1.000
 5646.00    2.94064   2.78721   -1.000
 5647.00    2.96221   2.79084   -1.000
 5648.00    2.94232   2.78880   -1.000
 5649.00    2.94439   2.78731   -1.000
 5650.00    2.96654   2.79366   -1.000
 5651.00    2.97280   2.80632   -1.000
 5652.00    2.97935   2.81260   -1.000
 5653.00    2.97837   2.80420   -1.000
 5654.00    2.96118   2.78537   -1.000
 5655.00    2.92907   2.75980   -1.000
 5656.00    2.89121   2.72413   -1.000
 5657.00    2.81565   2.68044   -1.000
 5658.00    2.74946   2.64771   -1.000
 5659.00    2.78032   2.64766   -1.000
 5660.00    2.82892   2.67348   -1.000
 5661.00    2.83873   2.69888   -1.000
 5662.00    2.83694   2.71781   -1.000
 5663.00    2.86415   2.74224   -1.000
 5664.00    2.90077   2.77166   -1.000
 5665.00    2.90774   2.79119   -1.000
 5666.00    2.90514   2.79168   -1.000
 5667.00    2.89285   2.78145   -1.000
 5668.00    2.88099   2.77577   -1.000
 5669.00    2.87670   2.78148   -1.000
 5670.00    2.90028   2.79774   -1.000
 5671.00    2.95122   2.82261   -1.000
 5672.00    2.98961   2.85076   -1.000
 5673.00    2.99312   2.87243   -1.000
 5674.00    3.01030   2.88196   -1.000
 5675.00    3.01474   2.88297   -1.000
 5676.00    3.03118   2.88287   -1.000
 5677.00    3.04884   2.88174   -1.000
 5678.00    3.01390   2.87342   -1.000
 5679.00    3.01850   2.85572   -1.000
 5680.00    2.98100   2.83084   -1.000
 5681.00    2.94039   2.80161   -1.000
 5682.00    2.92053   2.77644   -1.000
 5683.00    2.90478   2.76766   -1.000
 5684.00    2.92258   2.77447   -1.000
 5685.00    2.92800   2.78128   -1.000
 5686.00    2.92851   2.77771   -1.000
 5687.00    2.92333   2.77011   -1.000
 5688.00    2.91346   2.77315   -1.000
 5689.00    2.93283   2.79433   -1.000
 5690.00    2.97386   2.82787   -1.000
 5691.00    3.01170   2.86120   -1.000
 5692.00    3.04192   2.88408   -1.000
 5693.00    3.03571   2.89300   -1.000
 5694.00    3.03154   2.89118   -1.000
 5695.00    3.01808   2.88344   -1.000
 5696.00    2.99993   2.87044   -1.000
 5697.00    2.98481   2.85013   -1.000
 5698.00    2.95007   2.82397   -1.000
 5699.00    2.92345   2.79693   -1.000
 5700.00    2.87924   2.77453   -1.000
 5701.00    2.85641   2.76452   -1.000
 5702.00    2.85675   2.77213   -1.000
 5703.00    2.87662   2.78870   -1.000
 5704.00    2.90472   2.79609   -1.000
 5705.00    2.89428   2.78196   -1.000
 5706.00    2.87669   2.74914   -1.000
 5707.00    2.84058   2.71120   -1.000
 5708.00    2.80488   2.67987   -1.000
 5709.00    2.78167   2.66281   -1.000
 5710.00    2.77070   2.66653   -1.000
 5711.00    2.81565   2.69413   -1.000
 5712.00    2.86539   2.74174   -1.000
 5713.00    2.93250   2.79590   -1.000
 5714.00    3.01006   2.84041   -1.000
 5715.00    3.02140   2.86966   -1.000
 5716.00    3.01978   2.88786   -1.000
 5717.00    3.02011   2.90055   -1.000
 5718.00    3.02410   2.91275   -1.000
 5719.00    3.05491   2.92827   -1.000
 5720.00    3.08438   2.94689   -1.000
 5721.00    3.09413   2.96482   -1.000
 5722.00    3.10457   2.97750   -1.000
 5723.00    3.12072   2.98061   -1.000
 5724.00    3.08994   2.96992   -1.000
 5725.00    3.07654   2.94623   -1.000
 5726.00    3.03875   2.92072   -1.000
 5727.00    3.01818   2.90903   -1.000
 5728.00    3.02113   2.91395   -1.000
 5729.00    3.04588   2.92159   -1.000
 5730.00    3.06898   2.92046   -1.000
 5731.00    3.03832   2.91601   -1.000
 5732.00    3.04620   2.92295   -1.000
 5733.00    3.07578   2.94421   -1.000
 5734.00    3.10719   2.96468   -1.000
 5735.00    3.11286   2.97089   -1.000
 5736.00    3.08625   2.96440   -1.000
 5737.00    3.06202   2.95576   -1.000
 5738.00    3.07938   2.95248   -1.000
 5739.00    3.06493   2.95323   -1.000
 5740.00    3.07994   2.95285   -1.000
 5741.00    3.06210   2.95006   -1.000
 5742.00    3.06338   2.95063   -1.000
 5743.00    3.06870   2.96048   -1.000
 5744.00    3.08219   2.97534   -1.000
 5745.00    3.09223   2.98211   -1.000
 5746.00    3.07929   2.97269   -1.000
 5747.00    3.06873   2.95663   -1.000
 5748.00    3.06662   2.95134   -1.000
 5749.00    3.08653   2.95820   -1.000
 5750.00    3.12085   2.95917   -1.000
 5751.00    3.09499   2.93725   -1.000
 5752.00    3.03092   2.89952   -1.000
 5753.00    2.98130   2.87403   -1.000
 5754.00    2.99676   2.88338   -1.000
 5755.00    3.06176   2.92464   -1.000
 5756.00    3.11121   2.97206   -1.000
 5757.00    3.15629   2.99973   -1.000
 5758.00    3.15937   2.99698   -1.000
 5759.00    3.11376   2.96791   -1.000
 5760.00    3.07246   2.92602   -1.000
 5761.00    3.02811   2.89078   -1.000
 5762.00    3.00792   2.88214   -1.000
 5763.00    3.02966   2.90894   -1.000
 5764.00    3.04985   2.95758   -1.000
 5765.00    3.07963   3.00193   -1.000
 5766.00    3.11747   3.02721   -1.000
 5767.00    3.12685   3.03506   -1.000
 5768.00    3.11736   3.03244   -1.000
 5769.00    3.09688   3.02454   -1.000
 5770.00    3.08084   3.01404   -1.000
 5771.00    3.05392   3.00168   -1.000
 5772.00    3.03539   2.98866   -1.000
 5773.00    3.02366   2.97829   -1.000
 5774.00    3.02455   2.97472   -1.000
 5775.00    2.97465   2.97981  123.322
 5776.00    2.89945   2.98687   -1.000
 5777.00    2.83769   2.98171   -1.000
 5778.00    2.76657   2.95363   -1.000
 5779.00    2.74796   2.90440   -1.000
 5780.00    2.79421   2.84929   -1.000
 5781.00    2.84917   2.80851   -1.000
 5782.00    2.90854   2.79236   -1.000
 5783.00    2.93847   2.79349   -1.000
 5784.00    2.92332   2.80189   -1.000
 5785.00    2.94117   2.82093   -1.000
 5786.00    2.98619   2.85583   -1.000
 5787.00    3.06450   2.89768   -1.000
 5788.00    3.09233   2.92956   -1.000
 5789.00    3.07917   2.94231   -1.000
 5790.00    3.05033   2.94266   -1.000
 5791.00    3.05091   2.94752   -1.000
 5792.00    3.05042   2.96863   -1.000
 5793.00    3.05131   3.00098   -1.000
 5794.00    3.03613   3.02732  122.814
 5795.00    3.04434   3.03281  123.605
 5796.00    3.05990   3.01880   -1.000
 5797.00    3.05752   3.00429   -1.000
 5798.00    3.08763   3.00982   -1.000
 5799.00    3.15263   3.03807   -1.000
 5800.00    3.19028   3.07137   -1.000
 5801.00    3.20638   3.08863   -1.000
 5802.00    3.21160   3.08131   -1.000
 5803.00    3.16909   3.05647   -1.000
 5804.00    3.13204   3.03063   -1.000
 5805.00    3.11247   3.01751   -1.000
 5806.00    3.10636   3.01952   -1.000
 5807.00    3.10194   3.03010   -1.000
 5808.00    3.12444   3.04228   -1.000
 5809.00    3.15382   3.05330   -1.000
 5810.00    3.16884   3.06171   -1.000
 5811.00    3.18095   3.06458   -1.000
 5812.00    3.19858   3.05860   -1.000
 5813.00    3.22159   3.04205   -1.000
 5814.00    3.19615   3.01835   -1.000
 5815.00    3.15088   2.99987   -1.000
 5816.00    3.13690   3.00171   -1.000
 5817.00    3.15960   3.02684   -1.000
 5818.00    3.19791   3.06114   -1.000
 5819.00    3.23401   3.08577   -1.000
 5820.00    3.25900   3.09289   -1.000
 5821.00    3.21801   3.08790   -1.000
 5822.00    3.20454   3.08078   -1.000
 5823.00    3.23647   3.07817   -1.000
 5824.00    3.24023   3.08096   -1.000
 5825.00    3.22942   3.08676   -1.000
 5826.00    3.23220   3.09314   -1.000
 5827.00    3.24754   3.09925   -1.000
 5828.00    3.23937   3.10486   -1.000
 5829.00    3.24819   3.10852   -1.000
 5830.00    3.24667   3.10845   -1.000
 5831.00    3.23956   3.10359   -1.000
 5832.00    3.22247   3.09408   -1.000
 5833.00    3.21909   3.08256   -1.000
 5834.00    3.23160   3.07419   -1.000
 5835.00    3.24253   3.07249   -1.000
 5836.00    3.24433   3.07522   -1.000
 5837.00    3.22924   3.07892   -1.000
 5838.00    3.22127   3.08522   -1.000
 5839.00    3.23099   3.09736   -1.000
 5840.00    3.23217   3.11319   -1.000
 5841.00    3.22966   3.12530   -1.000
 5842.00    3.21769   3.12728   -1.000
 5843.00    3.23835   3.11798   -1.000
 5844.00    3.24207   3.10000   -1.000
 5845.00    3.23044   3.07772   -1.000
 5846.00    3.21530   3.05733   -1.000
 5847.00    3.17558   3.04507   -1.000
 5848.00    3.19535   3.04210   -1.000
 5849.00    3.22652   3.04101   -1.000
 5850.00    3.21003   3.03129   -1.000
 5851.00    3.17917   3.01048   -1.000
 5852.00    3.13170   2.98745   -1.000
 5853.00    3.11408   2.97208   -1.000
 5854.00    3.13594   2.96128   -1.000
 5855.00    3.12826   2.94162   -1.000
 5856.00    3.09103   2.91026   -1.000
 5857.00    3.06317   2.88571   -1.000
 5858.00    3.09012   2.89017   -1.000
 5859.00    3.11931   2.92356   -1.000
 5860.00    3.14622   2.96353   -1.000
 5861.00    3.17882   2.99033   -1.000
 5862.00    3.18618   3.00212   -1.000
 5863.00    3.17526   3.00614   -1.000
 5864.00    3.17960   3.00473   -1.000
 5865.00    3.18459   2.99671   -1.000
 5866.00    3.18413   2.98965   -1.000
 5867.00    3.17474   2.99660   -1.000
 5868.00    3.18894   3.01927   -1.000
 5869.00    3.22343   3.04522   -1.000
 5870.00    3.23306   3.06108   -1.000
 5871.00    3.24596   3.06282   -1.000
 5872.00    3.24171   3.05606   -1.000
 5873.00    3.24020   3.04915   -1.000
 5874.00    3.26118   3.04511   -1.000
 5875.00    3.26119   3.03987   -1.000
 5876.00    3.25685   3.02825   -1.000
 5877.00    3.21354   3.00977   -1.000
 5878.00    3.18387   2.98876   -1.000
 5879.00    3.16410   2.97182   -1.000
 5880.00    3.11250   2.96402   -1.000
 5881.00    3.04415   2.96301   -1.000
 5882.00    2.94906   2.95994  125.009
 5883.00    2.88089   2.95053   -1.000
 5884.00    2.75339   2.93561   -1.000
 5885.00    2.47769   2.90332   -1.000
 5886.00    2.00940   2.82267   -1.000
 5887.00    1.51293   2.66979   -1.000
 5888.00    1.38489   2.47154   -1.000
 5889.00    1.64384   2.30986   -1.000
 5890.00    2.03780   2.26317   -1.000
 5891.00    2.24371   2.33097   -1.000
 5892.00    2.11613   2.43087   -1.000
 5893.00    1.90278   2.47543   -1.000
 5894.00    1.90833   2.44679   -1.000
 5895.00    2.18832   2.40590   -1.000
 5896.00    2.54713   2.42780   -1.000
 5897.00    2.80070   2.52621   -1.000
 5898.00    2.95871   2.65477   -1.000
 5899.00    3.03361   2.76862   -1.000
 5900.00    3.11681   2.85308   -1.000
 5901.00    3.16824   2.91013   -1.000
 5902.00    3.18958   2.94449   -1.000
 5903.00    3.18650   2.96179   -1.000
 5904.00    3.18612   2.96855   -1.000
 5905.00    3.18556   2.97225   -1.000
 5906.00    3.16333   2.97929   -1.000
 5907.00    3.16609   2.99095   -1.000
 5908.00    3.19973   3.00437   -1.000
 5909.00    3.17542   3.01626   -1.000
 5910.00    3.17864   3.02224   -1.000
 5911.00    3.20524   3.01576   -1.000
 5912.00    3.18256   2.99277   -1.000
 5913.00    3.15452   2.95950   -1.000
 5914.00    3.10927   2.93246   -1.000
 5915.00    3.07407   2.92542   -1.000
 5916.00    3.10033   2.93973   -1.000
 5917.00    3.11742   2.96685   -1.000
 5918.00    3.14072   2.99468   -1.000
 5919.00    3.16729   3.01308   -1.000
 5920.00    3.15559   3.01893   -1.000
 5921.00    3.15116   3.01676   -1.000
 5922.00    3.13636   3.01563   -1.000
 5923.00    3.14630   3.02277   -1.000
 5924.00    3.20375   3.03726   -1.000
 5925.00    3.25816   3.05026   -1.000
 5926.00    3.25803   3.05139   -1.000
 5927.00    3.24044   3.03673   -1.000
 5928.00    3.20368   3.01383   -1.000
 5929.00    3.14945   2.99862   -1.000
 5930.00    3.17383   3.00162   -1.000
 5931.00    3.20790   3.01634   -1.000
 5932.00    3.22020   3.02627   -1.000
 5933.00    3.21528   3.02426   -1.000
 5934.00    3.19491   3.02035   -1.000
 5935.00    3.20104   3.02793   -1.000
 5936.00    3.21413   3.04573   -1.000
 5937.00    3.22350   3.06006   -1.000
 5938.00    3.20197   3.06065   -1.000
 5939.00    3.19955   3.04722   -1.000
 5940.00    3.16122   3.02709   -1.000
 5941.00    3.16480   3.01240   -1.000
 5942.00    3.16569   3.01313   -1.000
 5943.00    3.18951   3.02882   -1.000
 5944.00    3.21229   3.04863   -1.000
 5945.00    3.23112   3.05927   -1.000
 5946.00    3.21049   3.05378   -1.000
 5947.00    3.17696   3.03730   -1.000
 5948.00    3.16618   3.02428   -1.000
 5949.00    3.15074   3.02360   -1.000
 5950.00    3.19419   3.02908   -1.000
 5951.00    3.19640   3.02977   -1.000
 5952.00    3.19848   3.02496   -1.000
 5953.00    3.18523   3.02233   -1.000
 5954.00    3.20097   3.02378   -1.000
 5955.00    3.18536   3.02249   -1.000
 5956.00    3.17011   3.01739   -1.000
 5957.00    3.17701   3.01899   -1.000
 5958.00    3.20708   3.03563   -1.000
 5959.00    3.24483   3.06314   -1.000
 5960.00    3.28523   3.08984   -1.000
 5961.00    3.29780   3.10606   -1.000
 5962.00    3.31111   3.10857   -1.000
 5963.00    3.26783   3.09970   -1.000
 5964.00    3.22708   3.08584   -1.000
 5965.00    3.18966   3.07657   -1.000
 5966.00    3.20432   3.07909   -1.000
 5967.00    3.23017   3.09191   -1.000
 5968.00    3.26543   3.10803   -1.000
 5969.00    3.28534   3.12245   -1.000
 5970.00    3.27087   3.13279   -1.000
 5971.00    3.29366   3.13675   -1.000
 5972.00    3.29538   3.13213   -1.000
 5973.00    3.27920   3.11714   -1.000
 5974.00    3.24551   3.09183   -1.000
 5975.00    3.20370   3.06239   -1.000
 5976.00    3.18453   3.04055   -1.000
 5977.00    3.21295   3.03600   -1.000
 5978.00    3.24134   3.04972   -1.000
 5979.00    3.25431   3.07230   -1.000
 5980.00    3.26570   3.08709   -1.000
 5981.00    3.26988   3.08036   -1.000
 5982.00    3.23540   3.05300   -1.000
 5983.00    3.16902   3.02266   -1.000
 5984.00    3.15628   3.01068   -1.000
 5985.00    3.18821   3.02337   -1.000
 5986.00    3.20269   3.04889   -1.000
 5987.00    3.22579   3.07318   -1.000
 5988.00    3.25206   3.09066   -1.000
 5989.00    3.25969   3.10082   -1.000
 5990.00    3.26127   3.10663   -1.000
 5991.00    3.25601   3.11536   -1.000
 5992.00    3.28543   3.13184   -1.000
 5993.00    3.31598   3.14949   -1.000
 5994.00    3.29803   3.15411   -1.000
 5995.00    3.30741   3.13922   -1.000
 5996.00    3.28608   3.11367   -1.000
 5997.00    3.25398   3.09393   -1.000
 5998.00    3.27906   3.08997   -1.000
 5999.00    3.25396   3.09753   -1.000
 6000.00    3.25067   3.10408   -1.000
 6001.00    3.25407   3.10217   -1.000
 6002.00    3.24951   3.09573   -1.000
 6003.00    3.25035   3.09252   -1.000
 6004.00    3.25468   3.08996   -1.000
 6005.00    3.24518   3.07699   -1.000
 6006.00    3.18170   3.05270   -1.000
 6007.00    3.13692   3.03417   -1.000
 6008.00    3.17346   3.04015   -1.000
 6009.00    3.19956   3.06742   -1.000
 6010.00    3.25998   3.09154   -1.000
 6011.00    3.26416   3.09465   -1.000
 6012.00    3.25449   3.08263   -1.000
 6013.00    3.26275   3.07240   -1.000
 6014.00    3.27431   3.07083   -1.000
 6015.00    3.26198   3.07208   -1.000
 6016.00    3.25452   3.07163   -1.000
 6017.00    3.25772   3.06961   -1.000
 6018.00    3.24542   3.06380   -1.000
 6019.00    3.24049   3.05388   -1.000
 6020.00    3.20420   3.04724   -1.000
 6021.00    3.22148   3.05096   -1.000
 6022.00    3.22048   3.06469   -1.000
 6023.00    3.23477   3.08424   -1.000
 6024.00    3.26780   3.10600   -1.000
 6025.00    3.28367   3.12706   -1.000
 6026.00    3.29904   3.14581   -1.000
 6027.00    3.31242   3.16310   -1.000
 6028.00    3.31632   3.17928   -1.000
 6029.00    3.32526   3.19225   -1.000
 6030.00    3.30937   3.20139   -1.000
 6031.00    3.31862   3.20974   -1.000
 6032.00    3.31977   3.22142   -1.000
 6033.00    3.36588   3.23720   -1.000
 6034.00    3.34827   3.25152   -1.000
 6035.00    3.33983   3.25632   -1.000
 6036.00    3.33552   3.24905   -1.000
 6037.00    3.37275   3.23389   -1.000
 6038.00    3.34255   3.21721   -1.000
 6039.00    3.31959   3.20453   -1.000
 6040.00    3.32044   3.19833   -1.000
 6041.00    3.32291   3.19779   -1.000
 6042.00    3.35885   3.20365   -1.000
 6043.00    3.35300   3.21810   -1.000
 6044.00    3.35539   3.23708   -1.000
 6045.00    3.35391   3.25248   -1.000
 6046.00    3.37132   3.26121   -1.000
 6047.00    3.38748   3.26542   -1.000
 6048.00    3.41040   3.26760   -1.000
 6049.00    3.40945   3.26784   -1.000
 6050.00    3.38813   3.26371   -1.000
 6051.00    3.39422   3.25260   -1.000
 6052.00    3.40060   3.23488   -1.000
 6053.00    3.38963   3.21383   -1.000
 6054.00    3.36547   3.19382   -1.000
 6055.00    3.33415   3.18048   -1.000
 6056.00    3.35980   3.17918   -1.000
 6057.00    3.37383   3.19008   -1.000
 6058.00    3.41037   3.20654   -1.000
 6059.00    3.35614   3.21906   -1.000
 6060.00    3.52357   3.21995   -1.000
 6061.00    2.09070   3.20569   -1.000
 6062.00    0.93289   3.17825   -1.000
 6063.00    2.42954   3.14698   -1.000
 6064.00    3.28401   3.12831   -1.000
 6065.00    3.12291   3.13692  126.725
 6066.00    3.36372   3.17215   -1.000
 6067.00    1.97381   3.21652   -1.000
 6068.00    1.23272   3.25164   -1.000
 6069.00    3.47821   3.27252   -1.000
 6070.00    3.39272   3.28414   -1.000
 6071.00    3.37605   3.29065   -1.000
 6072.00    3.41339   3.29266   -1.000
 6073.00    3.43459   3.28932   -1.000
 6074.00    3.43584   3.27910   -1.000
 6075.00    3.40928   3.26089   -1.000
 6076.00    3.38839   3.23648   -1.000
 6077.00    3.36077   3.21160   -1.000
 6078.00    3.34163   3.19260   -1.000
 6079.00    3.32080   3.18043   -1.000
 6080.00    3.28949   3.17139   -1.000
 6081.00    3.31182   3.16436   -1.000
 6082.00    3.31666   3.16207   -1.000
 6083.00    3.31633   3.16565   -1.000
 6084.00    3.31507   3.17355   -1.000
 6085.00    3.31395   3.18417   -1.000
 6086.00    3.34307   3.19426   -1.000
 6087.00    3.34917   3.19790   -1.000
 6088.00    3.31809   3.19085   -1.000
 6089.00    3.31105   3.17629   -1.000
 6090.00    3.31115   3.16429   -1.000
 6091.00    3.30292   3.16400   -1.000
 6092.00    3.32701   3.17719   -1.000
 6093.00    3.33314   3.19844   -1.000
 6094.00    3.33782   3.21916   -1.000
 6095.00    3.37045   3.23330   -1.000
 6096.00    3.36467   3.24148   -1.000
 6097.00    3.36535   3.24652   -1.000
 6098.00    3.39793   3.24343   -1.000
 6099.00    3.37955   3.21944   -1.000
 6100.00    3.33304   3.16911   -1.000
 6101.00    3.25813   3.10957   -1.000
 6102.00    3.19697   3.07500   -1.000
 6103.00    3.20347   3.08617   -1.000
 6104.00    3.29630   3.13048   -1.000
 6105.00    3.35612   3.17809   -1.000
 6106.00    3.35619   3.21137   -1.000
 6107.00    3.31751   3.23224   -1.000
 6108.00    3.32570   3.24645   -1.000
 6109.00    3.34223   3.25387   -1.000
 6110.00    3.35324   3.25546   -1.000
 6111.00    3.35411   3.25792   -1.000
 6112.00    3.33839   3.26600   -1.000
 6113.00    3.36966   3.27555   -1.000
 6114.00    3.38174   3.27851   -1.000
 6115.00    3.36588   3.27277   -1.000
 6116.00    3.34514   3.26190   -1.000
 6117.00    3.34071   3.24505   -1.000
 6118.00    3.34158   3.21450   -1.000
 6119.00    3.30657   3.16603   -1.000
 6120.00    3.26534   3.11037   -1.000
 6121.00    3.17652   3.07323   -1.000
 6122.00    3.20428   3.07669   -1.000
 6123.00    3.26258   3.11546   -1.000
 6124.00    3.31800   3.16066   -1.000
 6125.00    3.33194   3.18925   -1.000
 6126.00    3.30454   3.20004   -1.000
 6127.00    3.28918   3.20584   -1.000
 6128.00    3.31521   3.21958   -1.000
 6129.00    3.33211   3.24414   -1.000
 6130.00    3.35455   3.27094   -1.000
 6131.00    3.38866   3.28564   -1.000
 6132.00    3.39126   3.27350   -1.000
 6133.00    3.34448   3.22413   -1.000
 6134.00    3.28136   3.14175   -1.000
 6135.00    3.19819   3.05494   -1.000
 6136.00    3.10682   3.00691   -1.000
 6137.00    3.07466   3.02143   -1.000
 6138.00    3.15254   3.07984   -1.000
 6139.00    3.24606   3.13915   -1.000
 6140.00    3.27876   3.17473   -1.000
 6141.00    3.27726   3.19674   -1.000
 6142.00    3.27004   3.22319   -1.000
 6143.00    3.31004   3.25387   -1.000
 6144.00    3.34617   3.27557   -1.000
 6145.00    3.36521   3.27934   -1.000
 6146.00    3.38124   3.26664   -1.000
 6147.00    3.33877   3.24491   -1.000
 6148.00    3.30772   3.22311   -1.000
 6149.00    3.29098   3.20949   -1.000
 6150.00    3.29214   3.20845   -1.000
 6151.00    3.33019   3.21608   -1.000
 6152.00    3.34037   3.22120   -1.000
 6153.00    3.33537   3.21539   -1.000
 6154.00    3.29361   3.20161   -1.000
 6155.00    3.27747   3.18868   -1.000
 6156.00    3.28600   3.17760   -1.000
 6157.00    3.26489   3.15719   -1.000
 6158.00    3.22542   3.11129   -1.000
 6159.00    3.17986   3.03271   -1.000
 6160.00    3.07990   2.93784   -1.000
 6161.00    2.98220   2.86469   -1.000
 6162.00    2.95032   2.84617   -1.000
 6163.00    2.99002   2.88284   -1.000
 6164.00    3.05249   2.94628   -1.000
 6165.00    3.11563   3.00196   -1.000
 6166.00    3.14750   3.02722   -1.000
 6167.00    3.10696   3.01920   -1.000
 6168.00    3.05600   2.99673   -1.000
 6169.00    3.01549   2.98957   -1.000
 6170.00    3.04936   3.01371   -1.000
 6171.00    3.12102   3.05768   -1.000
 6172.00    3.14796   3.09854   -1.000
 6173.00    3.13933   3.12480  133.803
 6174.00    3.16683   3.13821   -1.000
 6175.00    3.14698   3.14503  133.186
 6176.00    3.17520   3.15183  132.486
 6177.00    3.17965   3.16215  132.039
 6178.00    3.20088   3.17454   -1.000
 6179.00    3.20810   3.18716  130.977
 6180.00    3.24219   3.20059   -1.000
 6181.00    3.26834   3.21272   -1.000
 6182.00    3.26038   3.21714   -1.000
 6183.00    3.26029   3.20942   -1.000
 6184.00    3.25787   3.19043   -1.000
 6185.00    3.21504   3.16454   -1.000
 6186.00    3.19995   3.13702   -1.000
 6187.00    3.17990   3.11019   -1.000
 6188.00    3.16779   3.08081   -1.000
 6189.00    3.15055   3.04802   -1.000
 6190.00    3.08398   3.02455   -1.000
 6191.00    3.03960   3.02926  134.821
 6192.00    3.10883   3.06575   -1.000
 6193.00    3.16400   3.11660   -1.000
 6194.00    3.21141   3.16004   -1.000
 6195.00    3.22901   3.18473   -1.000
 6196.00    3.25889   3.18863   -1.000
 6197.00    3.22054   3.17502   -1.000
 6198.00    3.18234   3.15559   -1.000
 6199.00    3.13227   3.14774  133.876
 6200.00    3.08822   3.16020   -1.000
 6201.00    3.12890   3.18593   -1.000
 6202.00    3.21539   3.21197  132.045
 6203.00    3.21829   3.23073  131.776
 6204.00    3.24274   3.24233  131.816
 6205.00    3.28214   3.24971   -1.000
 6206.00    3.27987   3.25392   -1.000
 6207.00    3.29827   3.25320   -1.000
 6208.00    3.28959   3.24480   -1.000
 6209.00    3.27798   3.22678   -1.000
 6210.00    3.25180   3.19747   -1.000
 6211.00    3.25062   3.15615   -1.000
 6212.00    3.18662   3.10811   -1.000
 6213.00    3.15179   3.06674   -1.000
 6214.00    3.14670   3.04555   -1.000
 6215.00    3.12460   3.04633   -1.000
 6216.00    3.17888   3.05720   -1.000
 6217.00    3.18535   3.06332   -1.000
 6218.00    3.17348   3.06058   -1.000
 6219.00    2.64855   3.05840   -1.000
 6220.00    2.94998   3.06657   -1.000
 6221.00    3.21381   3.08348   -1.000
 6222.00    3.18327   3.10043   -1.000
 6223.00    3.22690   3.11250   -1.000
 6224.00    3.22078   3.12046   -1.000
 6225.00    3.23576   3.12393   -1.000
 6226.00    3.23578   3.11682   -1.000
 6227.00    3.22348   3.09125   -1.000
 6228.00    3.18264   3.04747   -1.000
 6229.00    3.13729   3.00085   -1.000
 6230.00    3.07423   2.97534   -1.000
 6231.00    3.04907   2.98674   -1.000
 6232.00    3.12606   3.03152   -1.000
 6233.00    3.17370   3.08983   -1.000
 6234.00    3.24016   3.13730   -1.000
 6235.00    3.25764   3.15769   -1.000
 6236.00    3.23013   3.14980   -1.000
 6237.00    3.20204   3.12433   -1.000
 6238.00    3.15393   3.09531   -1.000
 6239.00    3.14974   3.07196   -1.000
 6240.00    3.14538   3.05510   -1.000
 6241.00    3.11443   3.04025   -1.000
 6242.00    3.11471   3.02543   -1.000
 6243.00    3.08960   3.01498   -1.000
 6244.00    3.07166   3.01604   -1.000
 6245.00    3.09769   3.03374   -1.000
 6246.00    3.13848   3.06724   -1.000
 6247.00    3.17573   3.10603   -1.000
 6248.00    3.21752   3.13271   -1.000
 6249.00    3.21583   3.13367   -1.000
 6250.00    3.18629   3.10782   -1.000
 6251.00    3.15860   3.06790   -1.000
 6252.00    3.11049   3.03218   -1.000
 6253.00    3.08581   3.01073   -1.000
 6254.00    3.07274   2.99952   -1.000
 6255.00    3.04539   2.98911   -1.000
 6256.00    3.03142   2.97870   -1.000
 6257.00    3.02942   2.97872   -1.000
 6258.00    3.03710   2.99926   -1.000
 6259.00    3.06704   3.03951   -1.000
 6260.00    3.12119   3.08848   -1.000
 6261.00    3.17688   3.13231   -1.000
 6262.00    3.19009   3.16020   -1.000
 6263.00    3.19538   3.16928   -1.000
 6264.00    3.19321   3.16743   -1.000
 6265.00    3.16517   3.16681  137.183
 6266.00    3.14079   3.17161   -1.000
 6267.00    3.13011   3.17617   -1.000
 6268.00    3.14221   3.17649   -1.000
 6269.00    3.15136   3.17675   -1.000
 6270.00    3.15437   3.18193   -1.000
 6271.00    3.19764   3.18973  137.948
 6272.00    3.19892   3.19152  139.035
 6273.00    3.14422   3.17996   -1.000
 6274.00    3.08441   3.15520   -1.000
 6275.00    3.01619   3.12418   -1.000
 6276.00    2.94900   3.09467   -1.000
 6277.00    2.91511   3.07105   -1.000
 6278.00    2.89663   3.05534   -1.000
 6279.00    2.82146   3.05093   -1.000
 6280.00    2.76718   3.06280   -1.000
 6281.00    2.75020   3.09189   -1.000
 6282.00    2.81737   3.13107   -1.000
 6283.00    2.91126   3.16940   -1.000
 6284.00    2.99661   3.19998   -1.000
 6285.00    3.10580   3.22284   -1.000
 6286.00    3.17533   3.24029   -1.000
 6287.00    3.18872   3.25030   -1.000
 6288.00    3.23512   3.24775  138.480
 6289.00    3.23841   3.23211  139.467
 6290.00    3.21172   3.21088  139.633
 6291.00    3.19789   3.19397  139.784
 6292.00    3.16925   3.18529  140.068
 6293.00    3.12543   3.17995   -1.000
 6294.00    3.09625   3.16916   -1.000
 6295.00    2.96394   3.15007   -1.000
 6296.00    2.75362   3.13071   -1.000
 6297.00    2.51988   3.12099   -1.000
 6298.00    2.57511   3.12009   -1.000
 6299.00    2.81795   3.11833   -1.000
 6300.00    3.06022   3.11221   -1.000
 6301.00    3.11832   3.11063  142.184
 6302.00    3.15976   3.12311   -1.000
 6303.00    3.18215   3.14903   -1.000
 6304.00    3.18150   3.18079  137.099
 6305.00    3.20649   3.21228  135.860
 6306.00    3.19531   3.24004   -1.000
 6307.00    3.21068   3.25939   -1.000
 6308.00    3.25644   3.26533  137.455
 6309.00    3.23887   3.25788  137.925
 6310.00    3.20034   3.24290   -1.000
 6311.00    3.22166   3.22670  138.597
 6312.00    3.18483   3.21050   -1.000
 6313.00    3.17237   3.19198  140.379
 6314.00    3.13398   3.17151   -1.000
 6315.00    3.09683   3.15225   -1.000
 6316.00    3.09335   3.13727   -1.000
 6317.00    3.10568   3.13239   -1.000
 6318.00    3.12921   3.14511  137.843
 6319.00    3.14589   3.17384   -1.000
 6320.00    3.17290   3.20681   -1.000
 6321.00    3.19933   3.23535   -1.000
 6322.00    3.23444   3.25988   -1.000
 6323.00    3.23977   3.28220   -1.000
 6324.00    3.26334   3.29953   -1.000
 6325.00    3.27646   3.30887   -1.000
 6326.00    3.28849   3.31194   -1.000
 6327.00    3.27428   3.31265   -1.000
 6328.00    3.28160   3.31320   -1.000
 6329.00    3.31282   3.31534  133.604
 6330.00    3.27435   3.32032   -1.000
 6331.00    3.21760   3.32333   -1.000
 6332.00    3.27681   3.31337   -1.000
 6333.00    3.24526   3.28407   -1.000
 6334.00    3.22093   3.24439   -1.000
 6335.00    3.18709   3.21475   -1.000
 6336.00    3.16676   3.20995   -1.000
 6337.00    3.18719   3.22876   -1.000
 6338.00    3.24221   3.25937  132.844
 6339.00    3.27150   3.28770  132.209
 6340.00    3.27181   3.30171   -1.000
 6341.00    3.25927   3.29671   -1.000
 6342.00    3.28054   3.27991  133.767
 6343.00    3.25363   3.26688  133.331
 6344.00    3.22984   3.27002   -1.000
 6345.00    3.22066   3.28977   -1.000
 6346.00    3.25738   3.31768   -1.000
 6347.00    3.28111   3.34479   -1.000
 6348.00    3.27616   3.36558   -1.000
 6349.00    3.29747   3.37752   -1.000
 6350.00    3.27973   3.37925   -1.000
 6351.00    3.27893   3.36941   -1.000
 6352.00    3.26482   3.34846   -1.000
 6353.00    3.25021   3.32203   -1.000
 6354.00    3.24419   3.29836   -1.000
 6355.00    3.23366   3.27963   -1.000
 6356.00    3.20870   3.26005   -1.000
 6357.00    3.21590   3.23534  137.586
 6358.00    3.14128   3.20907   -1.000
 6359.00    3.07673   3.18749   -1.000
 6360.00    2.98667   3.17369   -1.000
 6361.00    2.98139   3.16989   -1.000
 6362.00    3.02929   3.17947   -1.000
 6363.00    3.13079   3.20299   -1.000
 6364.00    3.21155   3.23601   -1.000
 6365.00    3.21498   3.27238   -1.000
 6366.00    3.22487   3.30669   -1.000
 6367.00    3.21946   3.33359   -1.000
 6368.00    3.22681   3.34991   -1.000
 6369.00    3.22988   3.35894   -1.000
 6370.00    3.24835   3.36821   -1.000
 6371.00    3.24230   3.38150   -1.000
 6372.00    3.22742   3.39509   -1.000
 6373.00    3.21919   3.40319   -1.000
 6374.00    3.19073   3.40405   -1.000
 6375.00    3.18096   3.39841   -1.000
 6376.00    3.16971   3.38680   -1.000
 6377.00    3.17888   3.37146   -1.000
 6378.00    3.17158   3.35710   -1.000
 6379.00    3.14261   3.34824   -1.000
 6380.00    3.14758   3.34642   -1.000
 6381.00    3.15429   3.34964   -1.000
 6382.00    3.16158   3.35451   -1.000
 6383.00    3.15886   3.35982   -1.000
 6384.00    3.14884   3.36728   -1.000
 6385.00    3.15241   3.37739   -1.000
 6386.00    3.17118   3.38698   -1.000
 6387.00    3.14979   3.39245   -1.000
 6388.00    3.14009   3.39143   -1.000
 6389.00    3.11813   3.37995   -1.000
 6390.00    3.10236   3.35383   -1.000
 6391.00    3.04595   3.31753   -1.000
 6392.00    2.98784   3.28859   -1.000
 6393.00    2.92365   3.28593   -1.000
 6394.00    2.93925   3.31105   -1.000
 6395.00    3.00148   3.34384   -1.000
 6396.00    2.98796   3.35766   -1.000
 6397.00    2.97821   3.33984   -1.000
 6398.00    2.95755   3.30355   -1.000
 6399.00    2.89975   3.27993   -1.000
 6400.00    2.86129   3.29212   -1.000
 6401.00    2.87900   3.33479   -1.000
 6402.00    2.90795   3.38269   -1.000
 6403.00    2.91926   3.41276   -1.000
 6404.00    2.92384   3.41562   -1.000
 6405.00    2.87912   3.39617   -1.000
 6406.00    2.83400   3.36918   -1.000
 6407.00    2.79886   3.35030   -1.000
 6408.00    2.74509   3.34549   -1.000
 6409.00    2.75773   3.34769   -1.000
 6410.00    2.74476   3.34753   -1.000
 6411.00    2.71207   3.34620   -1.000
 6412.00    2.68446   3.35113   -1.000
 6413.00    2.67810   3.36384   -1.000
 6414.00    2.68444   3.37915   -1.000
 6415.00    2.66926   3.38998   -1.000
 6416.00    2.66247   3.38925   -1.000
 6417.00    2.65272   3.37273   -1.000
 6418.00    2.58168   3.34457   -1.000
 6419.00    2.53780   3.31946   -1.000
 6420.00    2.48073   3.31504   -1.000
 6421.00    2.43763   3.33741   -1.000
 6422.00    2.45014   3.37544   -1.000
 6423.00    2.45944   3.41225   -1.000
 6424.00    2.46817   3.43897   -1.000
 6425.00    2.45641   3.45450   -1.000
 6426.00    2.44037   3.45627   -1.000
 6427.00    2.41325   3.43839   -1.000
 6428.00    2.21618   3.40198   -1.000
