###################################################################
## OUTPUT of StarlightChains_v04.for    [Cid@UFSC - 01/Apr/2007] ##
###################################################################

## Some input info
NGC6171_a_1.cxt                          [arq_obs]
Base.BC03.S                              [arq_base]
NGC6171_a_1.msk                          [arq_masks]
StCv04.C99.config                        [arq_config]
  150                                    [N_base]
    0                                    [N_YAV_components = # of components with extra extinction!]
    0                                    [i_FitPowerLaw (1/0 = Yes/No)]
-9.99                                    [alpha_PowerLaw]
CCM                                      [red_law_option]
 1.458241                                [q_norm = A(l_norm)/A(V)]

## (Re)Sampling Parameters
 3359.00                                 [l_ini (A)]
 6428.00                                 [l_fin (A)]
    1.00                                 [dl    (A)]     (OBS: dl_cushion =    50.00 A)

## Normalization info
 4020.00                                 [l_norm (A) - for base]
 4010.00                                 [llow_norm (A) - window for f_obs]
 4060.00                                 [lupp_norm (A) - window for f_obs]
4.369149E-15                             [fobs_norm (in input units)]

## S/N
 4730.00                                 [llow_SN (A) - window for S/N]
 4780.00                                 [lupp_SN (A) - window for S/N]
  52.314                                 [S/N in S/N window]
  35.378                                 [S/N in norm. window]
 244.302                                 [S/N_err in S/N window]
 165.214                                 [S/N_err in norm. window]
  1.0000                                 [fscale_chi2]

## etc...
  2147483627                             [idum_orig]
  3066                                   [NOl_eff]
   735                                   [Nl_eff]
  2331    NSIGMA                         [Ntot_cliped & clip_method]
  4419870                                [Nglobal_steps]
   7                                     [N_chains]
  27                                     [NEX0s_base = N_base in EX0s-fits]
 0   0   1      258   2.0   3.468E+02    [Clip-Bug, RC-Crash & Burn-In warning-flags, n_censored_weights, wei_nsig_threshold & wei_limit]
   173    173.185    173.173      0.012  [idt_all, wdt_TotTime, wdt_UsrTime & wdt_SysTime (sec)]

## Synthesis Results - Best model ##

 2.71385E+00                             [chi2/Nl_eff]
     1.24328                             [adev (%)]

   100.12257                             [sum-of-x (%)]
 2.66945E-14                             [Flux_tot (units of input spectrum!)]
 7.15775E-10                             [Mini_tot (???)]
 3.63164E-10                             [Mcor_tot (???)]

  -7.04                                  [v0_min  (km/s)]
  43.50                                  [vd_min  (km/s)]
 1.3466                                  [AV_min  (mag)]
 0.0000                                  [YAV_min (mag)]

# j     x_j(%)      Mini_j(%)     Mcor_j(%)     age_j(yr)     Z_j      (L/M)_j    YAV?  Mstars   component_j        a/Fe...       SSP_chi2r SSP_adev(%)   SSP_AV   SSP_x(%)
  1      0.0000     0.0000E+00    0.0000E+00    1.000000E+06  0.00010  8.160E-03    0   1.0000   age020_m22            0.0000     1.9970E+03    25.0196   4.0000    95.1244
  2      6.5465     5.1240E-03    1.0099E-02    3.160000E+06  0.00010  4.759E-02    0   1.0000   age045_m22            0.0000     1.8480E+02     5.9557   2.8603   100.0608
  3     19.3049     3.7220E-02    7.0292E-02    5.010000E+06  0.00010  1.932E-02    0   0.9582   age055_m22            0.0000     4.1436E+02    11.8130   3.0989    89.1517
  4      0.0000     0.0000E+00    0.0000E+00    6.610000E+06  0.00010  9.973E-03    0   0.9297   age061_m22            0.0000     1.8832E+03    24.0096   4.0000    97.9526
  5      0.0000     0.0000E+00    0.0000E+00    8.710000E+06  0.00010  7.690E-03    0   0.9030   age067_m22            0.0000     1.8262E+03    23.5994   4.0000    98.2817
  6      0.0000     0.0000E+00    0.0000E+00    1.000000E+07  0.00010  6.375E-03    0   0.8902   age070_m22            0.0000     1.8443E+03    23.5285   4.0000    98.5646
  7      0.0000     0.0000E+00    0.0000E+00    1.445000E+07  0.00010  4.874E-03    0   0.8589   age078_m22            0.0000     1.1794E+03    19.2901   4.0000    99.0761
  8      0.0000     0.0000E+00    0.0000E+00    2.512000E+07  0.00010  4.103E-03    0   0.8174   age090_m22            0.0000     3.7201E+02    10.5381   4.0000    98.3402
  9      0.0000     0.0000E+00    0.0000E+00    4.000000E+07  0.00010  3.654E-03    0   0.7830   age104_m22            0.0000     3.5815E+02     8.9215   3.9503    97.5673
 10      0.0000     0.0000E+00    0.0000E+00    5.500000E+07  0.00010  3.093E-03    0   0.7597   age110_m22            0.0000     3.9850E+02     9.3050   3.8602    98.7242
 11      0.0000     0.0000E+00    0.0000E+00    1.015200E+08  0.00010  2.431E-03    0   0.7138   age116_m22            0.0000     5.1008E+02    10.4151   3.5277   101.1739
 12      0.0000     0.0000E+00    0.0000E+00    1.609000E+08  0.00010  1.319E-03    0   0.6775   age120_m22            0.0000     5.0413E+02    10.0155   3.0557   103.2614
 13      0.0000     0.0000E+00    0.0000E+00    2.861200E+08  0.00010  1.075E-03    0   0.6412   age125_m22            0.0000     1.0128E+03    14.1029   3.1592   105.2561
 14      0.0000     0.0000E+00    0.0000E+00    5.088000E+08  0.00010  7.183E-04    0   0.6083   age130_m22            0.0000     1.1798E+03    15.2018   2.9371   106.5303
 15      0.0000     0.0000E+00    0.0000E+00    9.047900E+08  0.00010  4.524E-04    0   0.5785   age135_m22            0.0000     1.1887E+03    15.3240   2.7361   107.6902
 16      0.0000     0.0000E+00    0.0000E+00    1.278050E+09  0.00010  3.018E-04    0   0.5588   age138_m22            0.0000     6.7593E+02    11.5828   2.1819   106.8842
 17      0.0000     0.0000E+00    0.0000E+00    1.434000E+09  0.00010  2.691E-04    0   0.5532   age139_m22            0.0000     5.8127E+02    10.7775   2.0221   106.5013
 18      0.0000     0.0000E+00    0.0000E+00    2.500000E+09  0.00010  1.582E-04    0   0.5296   age150_m22            0.0000     5.2373E+02    10.3925   1.9038   107.4979
 19      0.0000     0.0000E+00    0.0000E+00    4.250000E+09  0.00010  1.007E-04    0   0.5110   age158_m22            0.0000     3.4878E+02     8.5603   1.7390   106.2666
 20      0.0000     0.0000E+00    0.0000E+00    6.250000E+09  0.00010  6.869E-05    0   0.4985   age166_m22            0.0000     2.0823E+02     6.6757   1.6667   103.9744
 21      0.0000     0.0000E+00    0.0000E+00    7.500000E+09  0.00010  5.873E-05    0   0.4931   age171_m22            0.0000     1.9067E+02     6.4588   1.6512   103.5658
 22      0.0000     0.0000E+00    0.0000E+00    1.000000E+10  0.00010  4.481E-05    0   0.4854   age181_m22            0.0000     1.8473E+02     6.3529   1.6128   103.1818
 23      0.0000     0.0000E+00    0.0000E+00    1.300000E+10  0.00010  3.489E-05    0   0.4791   age193_m22            0.0000     1.7069E+02     6.0842   1.5543   102.6591
 24      0.0000     0.0000E+00    0.0000E+00    1.500000E+10  0.00010  3.035E-05    0   0.4766   age201_m22            0.0000     1.6172E+02     5.9227   1.5146   102.5067
 25      0.0000     0.0000E+00    0.0000E+00    1.800000E+10  0.00010  2.510E-05    0   0.4735   age213_m22            0.0000     1.4067E+02     5.5242   1.4443   101.9803
 26      0.0000     0.0000E+00    0.0000E+00    1.000000E+06  0.00040  8.458E-03    0   1.0000   age020_m32            0.0000     2.0419E+03    24.9969   4.0000    96.0559
 27      0.0000     0.0000E+00    0.0000E+00    3.160000E+06  0.00040  3.973E-02    0   1.0000   age045_m32            0.0000     2.9609E+02     9.5342   4.0000    96.3758
 28      0.0000     0.0000E+00    0.0000E+00    5.010000E+06  0.00040  1.935E-02    0   0.9532   age055_m32            0.0000     6.3370E+02    15.3201   4.0000    95.1388
 29      0.0000     0.0000E+00    0.0000E+00    6.610000E+06  0.00040  1.204E-02    0   0.9243   age061_m32            0.0000     1.3562E+03    20.9017   4.0000    98.1718
 30      0.0000     0.0000E+00    0.0000E+00    8.710000E+06  0.00040  9.433E-03    0   0.9001   age067_m32            0.0000     1.2398E+03    19.9706   4.0000    98.6678
 31      0.0000     0.0000E+00    0.0000E+00    1.000000E+07  0.00040  8.053E-03    0   0.8877   age070_m32            0.0000     1.1285E+03    19.1748   4.0000    98.6031
 32      0.0000     0.0000E+00    0.0000E+00    1.445000E+07  0.00040  7.027E-03    0   0.8578   age078_m32            0.0000     3.0768E+02     9.9470   4.0000    94.2394
 33      0.0000     0.0000E+00    0.0000E+00    2.512000E+07  0.00040  4.707E-03    0   0.8166   age090_m32            0.0000     2.7217E+02     8.2986   3.7775    96.3955
 34      0.0000     0.0000E+00    0.0000E+00    4.000000E+07  0.00040  3.714E-03    0   0.7827   age104_m32            0.0000     3.2473E+02     8.4411   3.5980    99.0017
 35      0.0000     0.0000E+00    0.0000E+00    5.500000E+07  0.00040  2.982E-03    0   0.7593   age110_m32            0.0000     3.6880E+02     8.8891   3.5455    99.8558
 36      0.0000     0.0000E+00    0.0000E+00    1.015200E+08  0.00040  2.188E-03    0   0.7143   age116_m32            0.0000     6.4723E+02    11.5074   3.3148   102.9313
 37      0.0000     0.0000E+00    0.0000E+00    1.609000E+08  0.00040  1.690E-03    0   0.6856   age120_m32            0.0000     8.5739E+02    13.0673   3.1314   104.9065
 38      0.0000     0.0000E+00    0.0000E+00    2.861200E+08  0.00040  1.152E-03    0   0.6509   age125_m32            0.0000     1.0513E+03    14.3580   2.9179   106.1542
 39      0.0000     0.0000E+00    0.0000E+00    5.088000E+08  0.00040  7.331E-04    0   0.6182   age130_m32            0.0000     1.1207E+03    14.8092   2.7561   106.6900
 40      0.0000     0.0000E+00    0.0000E+00    9.047900E+08  0.00040  3.960E-04    0   0.5890   age135_m32            0.0000     7.0377E+02    11.8865   2.2742   106.0623
 41      0.0000     0.0000E+00    0.0000E+00    1.278050E+09  0.00040  2.854E-04    0   0.5687   age138_m32            0.0000     5.9120E+02    11.0152   1.9755   108.2331
 42      0.0000     0.0000E+00    0.0000E+00    1.434000E+09  0.00040  2.531E-04    0   0.5632   age139_m32            0.0000     5.7522E+02    10.8808   1.9143   108.2379
 43      0.0000     0.0000E+00    0.0000E+00    2.500000E+09  0.00040  1.488E-04    0   0.5386   age150_m32            0.0000     4.3380E+02     9.5053   1.6540   106.6390
 44      0.0000     0.0000E+00    0.0000E+00    4.250000E+09  0.00040  9.082E-05    0   0.5199   age158_m32            0.0000     2.0243E+02     6.5036   1.5329   104.0980
 45      9.5995     5.6204E+00    5.6230E+00    6.250000E+09  0.00040  6.362E-05    0   0.5076   age166_m32            0.0000     8.8408E+01     4.3229   1.4722   101.4115
 46     17.6229     1.2411E+01    1.2297E+01    7.500000E+09  0.00040  5.289E-05    0   0.5027   age171_m32            0.0000     7.1044E+01     3.8939   1.4324   100.2374
 47      2.3048     2.1614E+00    2.1079E+00    1.000000E+10  0.00040  3.972E-05    0   0.4948   age181_m32            0.0000     5.9827E+01     3.6063   1.3675    98.9067
 48      0.0000     0.0000E+00    0.0000E+00    1.300000E+10  0.00040  3.283E-05    0   0.4870   age193_m32            0.0000     1.0265E+02     4.6636   1.3361   101.2974
 49      0.0000     0.0000E+00    0.0000E+00    1.500000E+10  0.00040  2.925E-05    0   0.4854   age201_m32            0.0000     1.3922E+02     5.4400   1.3251   102.6829
 50      0.0000     0.0000E+00    0.0000E+00    1.800000E+10  0.00040  2.469E-05    0   0.4819   age213_m32            0.0000     1.5441E+02     5.7208   1.2890   103.1052
 51      0.0000     0.0000E+00    0.0000E+00    1.000000E+06  0.00400  1.114E-02    0   1.0000   age020_m42            0.0000     1.7641E+03    23.5467   4.0000    95.6989
 52      0.0000     0.0000E+00    0.0000E+00    3.160000E+06  0.00400  4.073E-02    0   0.9999   age045_m42            0.0000     2.1786E+02     7.2489   3.8255    96.2536
 53      0.0000     0.0000E+00    0.0000E+00    5.010000E+06  0.00400  2.534E-02    0   0.9488   age055_m42            0.0000     3.8044E+02    11.9310   4.0000    94.9778
 54      0.0000     0.0000E+00    0.0000E+00    6.610000E+06  0.00400  2.583E-02    0   0.9220   age061_m42            0.0000     2.4899E+02     7.5540   3.6488    96.8956
 55      0.0000     0.0000E+00    0.0000E+00    8.710000E+06  0.00400  1.706E-02    0   0.8983   age067_m42            0.0000     2.3433E+02     8.2166   3.4560    95.8334
 56      0.0000     0.0000E+00    0.0000E+00    1.000000E+07  0.00400  1.271E-02    0   0.8862   age070_m42            0.0000     2.8684E+02     9.6343   3.4309    94.8855
 57      0.0000     0.0000E+00    0.0000E+00    1.445000E+07  0.00400  7.666E-03    0   0.8571   age078_m42            0.0000     3.2076E+02    10.7553   3.8159    91.8989
 58      0.0000     0.0000E+00    0.0000E+00    2.512000E+07  0.00400  5.070E-03    0   0.8174   age090_m42            0.0000     2.4391E+02     8.8997   3.3038    96.5019
 59      0.0000     0.0000E+00    0.0000E+00    4.000000E+07  0.00400  3.505E-03    0   0.7851   age104_m42            0.0000     1.7566E+02     7.1031   2.9992    99.1192
 60      0.0000     0.0000E+00    0.0000E+00    5.500000E+07  0.00400  3.059E-03    0   0.7629   age110_m42            0.0000     3.0469E+02     7.5051   3.0930   102.2785
 61      0.0000     0.0000E+00    0.0000E+00    1.015200E+08  0.00400  2.268E-03    0   0.7207   age116_m42            0.0000     7.5353E+02    12.1276   3.0458   105.7723
 62      0.0000     0.0000E+00    0.0000E+00    1.609000E+08  0.00400  1.720E-03    0   0.6930   age120_m42            0.0000     8.2340E+02    12.6654   2.9142   106.9781
 63      0.0000     0.0000E+00    0.0000E+00    2.861200E+08  0.00400  1.079E-03    0   0.6613   age125_m42            0.0000     8.2207E+02    12.7197   2.5588   107.3734
 64      0.0000     0.0000E+00    0.0000E+00    5.088000E+08  0.00400  6.261E-04    0   0.6313   age130_m42            0.0000     9.1350E+02    13.5139   2.3711   110.0500
 65      0.0000     0.0000E+00    0.0000E+00    9.047900E+08  0.00400  3.535E-04    0   0.6024   age135_m42            0.0000     6.0034E+02    11.0876   1.9586   110.8290
 66      0.0005     7.4702E-05    8.5940E-05    1.278050E+09  0.00400  2.677E-04    0   0.5837   age138_m42            0.0000     2.8760E+02     8.6850   1.2670   108.7029
 67      0.0000     0.0000E+00    0.0000E+00    1.434000E+09  0.00400  1.910E-04    0   0.5716   age139_m42            0.0000     3.4718E+02     8.9437   1.4369   109.4750
 68      4.9613     1.8823E+00    2.0267E+00    2.500000E+09  0.00400  9.818E-05    0   0.5463   age150_m42            0.0000     1.5443E+02     6.4677   1.1515   105.1643
 69      4.1971     2.8472E+00    2.9568E+00    4.250000E+09  0.00400  5.491E-05    0   0.5269   age158_m42            0.0000     1.0750E+02     5.6849   1.0222   102.6475
 70      1.1125     1.0744E+00    1.0907E+00    6.250000E+09  0.00400  3.857E-05    0   0.5151   age166_m42            0.0000     1.2935E+02     6.1103   0.8999   101.2051
 71      1.3188     1.5148E+00    1.5256E+00    7.500000E+09  0.00400  3.243E-05    0   0.5110   age171_m42            0.0000     1.5517E+02     6.5628   0.8257   100.5487
 72      1.6774     2.5776E+00    2.5543E+00    1.000000E+10  0.00400  2.424E-05    0   0.5028   age181_m42            0.0000     1.9373E+02     7.1849   0.7509    99.8048
 73      0.4175     8.2581E-01    8.0193E-01    1.300000E+10  0.00400  1.883E-05    0   0.4927   age193_m42            0.0000     2.2434E+02     7.6130   0.7130    99.4800
 74      0.0000     0.0000E+00    0.0000E+00    1.500000E+10  0.00400  1.685E-05    0   0.4919   age201_m42            0.0000     2.1554E+02     7.4539   0.7184    99.5215
 75      0.0000     0.0000E+00    0.0000E+00    1.800000E+10  0.00400  1.452E-05    0   0.4874   age213_m42            0.0000     1.9955E+02     7.1834   0.7340    99.8508
 76      0.0000     0.0000E+00    0.0000E+00    1.000000E+06  0.00800  1.286E-02    0   1.0000   age020_m52            0.0000     1.6228E+03    22.4053   4.0000    97.3603
 77      0.0000     0.0000E+00    0.0000E+00    3.160000E+06  0.00800  3.147E-02    0   0.9966   age045_m52            0.0000     1.3671E+03    20.9353   4.0000    97.9605
 78      0.0000     0.0000E+00    0.0000E+00    5.010000E+06  0.00800  2.664E-02    0   0.9443   age055_m52            0.0000     5.5804E+02    14.3172   4.0000    96.2484
 79      0.0000     0.0000E+00    0.0000E+00    6.610000E+06  0.00800  2.151E-02    0   0.9177   age061_m52            0.0000     1.8055E+02     8.1001   3.0133    96.7989
 80      0.0000     0.0000E+00    0.0000E+00    8.710000E+06  0.00800  1.628E-02    0   0.8948   age067_m52            0.0000     2.4305E+02     8.7263   3.4043    96.6880
 81      0.0000     0.0000E+00    0.0000E+00    1.000000E+07  0.00800  1.215E-02    0   0.8827   age070_m52            0.0000     2.8261E+02     9.6644   3.7442    94.8552
 82      0.0000     0.0000E+00    0.0000E+00    1.445000E+07  0.00800  8.739E-03    0   0.8552   age078_m52            0.0000     2.8335E+02     9.0928   3.7945    95.7904
 83      0.0000     0.0000E+00    0.0000E+00    2.512000E+07  0.00800  5.676E-03    0   0.8162   age090_m52            0.0000     3.2579E+02     8.2902   3.4249    99.8418
 84      0.0000     0.0000E+00    0.0000E+00    4.000000E+07  0.00800  3.939E-03    0   0.7841   age104_m52            0.0000     3.6872E+02     8.3416   3.2787   101.7108
 85      0.0000     0.0000E+00    0.0000E+00    5.500000E+07  0.00800  3.155E-03    0   0.7627   age110_m52            0.0000     4.4362E+02     9.1034   3.2536   103.0254
 86      0.0000     0.0000E+00    0.0000E+00    1.015200E+08  0.00800  2.206E-03    0   0.7226   age116_m52            0.0000     6.2642E+02    10.9740   3.0853   106.1215
 87      0.0000     0.0000E+00    0.0000E+00    1.609000E+08  0.00800  1.596E-03    0   0.6963   age120_m52            0.0000     7.1430E+02    11.7960   2.8809   107.4033
 88      0.0000     0.0000E+00    0.0000E+00    2.861200E+08  0.00800  1.002E-03    0   0.6665   age125_m52            0.0000     9.6241E+02    13.8634   2.6082   109.3827
 89      0.0000     0.0000E+00    0.0000E+00    5.088000E+08  0.00800  5.759E-04    0   0.6377   age130_m52            0.0000     1.0023E+03    14.3760   2.2674   113.1140
 90      0.0000     0.0000E+00    0.0000E+00    9.047900E+08  0.00800  2.972E-04    0   0.6086   age135_m52            0.0000     6.3314E+02    11.7089   1.7142   112.3469
 91      0.0000     0.0000E+00    0.0000E+00    1.278050E+09  0.00800  2.242E-04    0   0.5907   age138_m52            0.0000     3.0540E+02     8.7485   1.0897   111.8314
 92      0.0006     1.3253E-04    1.5117E-04    1.434000E+09  0.00800  1.645E-04    0   0.5787   age139_m52            0.0000     2.6752E+02     8.1042   1.2351   111.3412
 93      0.0005     2.6135E-04    2.8429E-04    2.500000E+09  0.00800  7.723E-05    0   0.5519   age150_m52            0.0000     1.8914E+02     7.2787   0.8926   107.7753
 94     10.8435     9.7304E+00    1.0203E+01    4.250000E+09  0.00800  4.151E-05    0   0.5320   age158_m52            0.0000     1.7283E+02     7.1029   0.8226   105.1671
 95      2.9650     3.6692E+00    3.7584E+00    6.250000E+09  0.00800  3.010E-05    0   0.5197   age166_m52            0.0000     2.2936E+02     7.9104   0.6357   103.6301
 96      0.0000     0.0000E+00    0.0000E+00    7.500000E+09  0.00800  2.467E-05    0   0.5139   age171_m52            0.0000     2.5010E+02     8.1988   0.5953   103.1870
 97      1.6492     3.2992E+00    3.2863E+00    1.000000E+10  0.00800  1.862E-05    0   0.5054   age181_m52            0.0000     3.2505E+02     9.1502   0.4705   102.6682
 98      1.0510     2.7319E+00    2.6858E+00    1.300000E+10  0.00800  1.433E-05    0   0.4988   age193_m52            0.0000     4.1049E+02    10.0779   0.3796   103.2518
 99      1.2169     3.6438E+00    3.5449E+00    1.500000E+10  0.00800  1.244E-05    0   0.4936   age201_m52            0.0000     4.4654E+02    10.4298   0.3520   103.7179
100      2.8874     1.0052E+01    9.6838E+00    1.800000E+10  0.00800  1.070E-05    0   0.4888   age213_m52            0.0000     4.7550E+02    10.7263   0.3199   103.5248
101      0.0000     0.0000E+00    0.0000E+00    1.000000E+06  0.02000  1.989E-02    0   1.0000   age020_m62            0.0000     1.6314E+03    22.5534   4.0000    96.1894
102      0.0000     0.0000E+00    0.0000E+00    3.160000E+06  0.02000  3.772E-02    0   0.9858   age045_m62            0.0000     1.2120E+03    20.1758   4.0000    96.7543
103      0.0000     0.0000E+00    0.0000E+00    5.010000E+06  0.02000  3.227E-02    0   0.9342   age055_m62            0.0000     2.8718E+02     9.4438   4.0000    94.9506
104      0.0000     0.0000E+00    0.0000E+00    6.610000E+06  0.02000  2.387E-02    0   0.9090   age061_m62            0.0000     3.3416E+02    10.5541   3.8109    93.5864
105      0.0000     0.0000E+00    0.0000E+00    8.710000E+06  0.02000  1.102E-02    0   0.8861   age067_m62            0.0000     8.2783E+02    16.6469   3.4368    90.2585
106      0.0000     0.0000E+00    0.0000E+00    1.000000E+07  0.02000  1.011E-02    0   0.8751   age070_m62            0.0000     5.3719E+02    13.6936   3.4619    92.2654
107      0.0000     0.0000E+00    0.0000E+00    1.445000E+07  0.02000  7.331E-03    0   0.8472   age078_m62            0.0000     3.6240E+02    11.4250   3.4797    93.3472
108      0.0000     0.0000E+00    0.0000E+00    2.512000E+07  0.02000  4.206E-03    0   0.8099   age090_m62            0.0000     3.6206E+02    11.6161   3.3865    93.0222
109      0.0000     0.0000E+00    0.0000E+00    4.000000E+07  0.02000  3.373E-03    0   0.7799   age104_m62            0.0000     2.4716E+02     7.5069   3.2242   100.3678
110      0.0000     0.0000E+00    0.0000E+00    5.500000E+07  0.02000  2.747E-03    0   0.7595   age110_m62            0.0000     3.5828E+02     8.1793   3.1763   103.0817
111      0.0000     0.0000E+00    0.0000E+00    1.015200E+08  0.02000  1.878E-03    0   0.7221   age116_m62            0.0000     6.7439E+02    11.4251   3.0663   106.7954
112      0.0000     0.0000E+00    0.0000E+00    1.609000E+08  0.02000  1.378E-03    0   0.6978   age120_m62            0.0000     8.9475E+02    13.1591   2.9261   108.7737
113      0.0000     0.0000E+00    0.0000E+00    2.861200E+08  0.02000  8.869E-04    0   0.6700   age125_m62            0.0000     1.2345E+03    15.4151   2.5794   112.3096
114      0.0000     0.0000E+00    0.0000E+00    5.088000E+08  0.02000  4.834E-04    0   0.6430   age130_m62            0.0000     1.0894E+03    14.8358   2.1404   114.5299
115      0.0000     0.0000E+00    0.0000E+00    9.047900E+08  0.02000  2.312E-04    0   0.6152   age135_m62            0.0000     5.5997E+02    11.0004   1.5174   114.6782
116      0.0000     0.0000E+00    0.0000E+00    1.278050E+09  0.02000  1.387E-04    0   0.5927   age138_m62            0.0000     2.8067E+02     8.1575   1.1278   110.8885
117      0.0000     0.0000E+00    0.0000E+00    1.434000E+09  0.02000  1.168E-04    0   0.5865   age139_m62            0.0000     2.4257E+02     7.6606   1.0972   109.3754
118      0.0000     0.0000E+00    0.0000E+00    2.500000E+09  0.02000  5.505E-05    0   0.5610   age150_m62            0.0000     2.3282E+02     7.8880   0.7317   106.4973
119      0.0000     0.0000E+00    0.0000E+00    4.250000E+09  0.02000  3.070E-05    0   0.5407   age158_m62            0.0000     3.8244E+02     9.7984   0.4463   106.2776
120      2.6773     4.7399E+00    4.9298E+00    6.250000E+09  0.02000  2.104E-05    0   0.5277   age166_m62            0.0000     4.8575E+02    10.8356   0.3184   106.6844
121      0.0687     1.4456E-01    1.4882E-01    7.500000E+09  0.02000  1.770E-05    0   0.5223   age171_m62            0.0000     5.4810E+02    11.4167   0.2337   107.0237
122      2.9031     8.3375E+00    8.4152E+00    1.000000E+10  0.02000  1.297E-05    0   0.5121   age181_m62            0.0000     6.8704E+02    12.5986   0.0816   107.4382
123      0.2093     8.0440E-01    8.0017E-01    1.300000E+10  0.02000  9.691E-06    0   0.5047   age193_m62            0.0000     7.8888E+02    13.3939   0.0036   107.7131
124      3.0196     1.3454E+01    1.3256E+01    1.500000E+10  0.02000  8.360E-06    0   0.4999   age201_m62            0.0000     8.8084E+02    14.0884  -0.0631   107.8742
125      1.5649     8.4343E+00    8.2220E+00    1.800000E+10  0.02000  6.911E-06    0   0.4946   age213_m62            0.0000     1.0012E+03    14.9574  -0.1336   108.0451
126      0.0000     0.0000E+00    0.0000E+00    1.000000E+06  0.05000  2.651E-02    0   0.9998   age020_m72            0.0000     1.6023E+03    22.1815   4.0000    97.2227
127      0.0000     0.0000E+00    0.0000E+00    3.160000E+06  0.05000  4.817E-02    0   0.9577   age045_m72            0.0000     7.9430E+02    16.3981   4.0000    97.7976
128      0.0000     0.0000E+00    0.0000E+00    5.010000E+06  0.05000  3.101E-02    0   0.9147   age055_m72            0.0000     3.5136E+02    11.2461   4.0000    94.2174
129      0.0000     0.0000E+00    0.0000E+00    6.610000E+06  0.05000  1.472E-02    0   0.8877   age061_m72            0.0000     5.7660E+02    13.8174   3.6777    91.2953
130      0.0000     0.0000E+00    0.0000E+00    8.710000E+06  0.05000  1.050E-02    0   0.8638   age067_m72            0.0000     4.1610E+02    12.1817   4.0000    92.4013
131      0.0000     0.0000E+00    0.0000E+00    1.000000E+07  0.05000  8.954E-03    0   0.8524   age070_m72            0.0000     5.6666E+02    14.0679   4.0000    97.3055
132      0.0000     0.0000E+00    0.0000E+00    1.445000E+07  0.05000  6.392E-03    0   0.8262   age078_m72            0.0000     4.5344E+02    12.6046   4.0000    97.2934
133      0.0000     0.0000E+00    0.0000E+00    2.512000E+07  0.05000  4.207E-03    0   0.7902   age090_m72            0.0000     2.3325E+02     7.9383   3.9032    96.0649
134      0.0000     0.0000E+00    0.0000E+00    4.000000E+07  0.05000  3.198E-03    0   0.7618   age104_m72            0.0000     4.7151E+02     9.4620   3.4427   102.6603
135      0.0000     0.0000E+00    0.0000E+00    5.500000E+07  0.05000  2.593E-03    0   0.7432   age110_m72            0.0000     5.8559E+02    10.6303   3.3614   104.2867
136      0.0000     0.0000E+00    0.0000E+00    1.015200E+08  0.05000  1.716E-03    0   0.7092   age116_m72            0.0000     8.0070E+02    12.4121   3.1829   106.3549
137      0.0000     0.0000E+00    0.0000E+00    1.609000E+08  0.05000  1.218E-03    0   0.6876   age120_m72            0.0000     1.0255E+03    13.9821   2.9165   108.7487
138      0.0000     0.0000E+00    0.0000E+00    2.861200E+08  0.05000  7.047E-04    0   0.6618   age125_m72            0.0000     1.1992E+03    15.3782   2.3939   112.2462
139      0.0000     0.0000E+00    0.0000E+00    5.088000E+08  0.05000  3.590E-04    0   0.6356   age130_m72            0.0000     9.4505E+02    13.9685   1.8087   115.1493
140      0.0000     0.0000E+00    0.0000E+00    9.047900E+08  0.05000  1.484E-04    0   0.6088   age135_m72            0.0000     3.9168E+02     9.8758   1.0482   109.6731
141      0.0018     7.1115E-04    8.3033E-04    1.278050E+09  0.05000  9.435E-05    0   0.5924   age138_m72            0.0000     3.9027E+02    10.1333   0.6481   106.8363
142      0.0000     0.0000E+00    0.0000E+00    1.434000E+09  0.05000  7.827E-05    0   0.5847   age139_m72            0.0000     3.6727E+02     9.8664   0.6626   106.2462
143      0.0000     0.0000E+00    0.0000E+00    2.500000E+09  0.05000  3.759E-05    0   0.5583   age150_m72            0.0000     4.8982E+02    10.9941   0.3426   105.6007
144      0.0000     0.0000E+00    0.0000E+00    4.250000E+09  0.05000  1.842E-05    0   0.5374   age158_m72            0.0000     7.2012E+02    12.7519   0.0601   104.6697
145      0.0000     0.0000E+00    0.0000E+00    6.250000E+09  0.05000  1.207E-05    0   0.5242   age166_m72            0.0000     9.5851E+02    14.4080  -0.1706   104.1979
146      0.0000     0.0000E+00    0.0000E+00    7.500000E+09  0.05000  9.993E-06    0   0.5183   age171_m72            0.0000     1.0006E+03    14.6582  -0.2112   104.0954
147      0.0000     0.0000E+00    0.0000E+00    1.000000E+10  0.05000  7.291E-06    0   0.5081   age181_m72            0.0000     1.1849E+03    15.8785  -0.3300   103.8547
148      0.0000     0.0000E+00    0.0000E+00    1.300000E+10  0.05000  5.316E-06    0   0.5018   age193_m72            0.0000     1.4872E+03    17.7241  -0.5066   103.5291
149      0.0000     0.0000E+00    0.0000E+00    1.500000E+10  0.05000  4.497E-06    0   0.4972   age201_m72            0.0000     1.6398E+03    18.6390  -0.5771   103.6982
150      0.0000     0.0000E+00    0.0000E+00    1.800000E+10  0.05000  3.739E-06    0   0.4924   age213_m72            0.0000     1.8388E+03    19.7794  -0.6804   103.7484


## Synthesis Results - Average & Chains ##

# j      x_j: min, <> & last-chain-values for 1 ...  7 chains
  1      0.0000      0.0166      0.0000      0.0000      0.0000      0.0000      0.0000      0.0000      0.0953
  2      6.5465      4.8646      5.0355      5.1789      4.9088      4.9718      5.1117      4.9641      4.9691
  3     19.3049     19.0518     19.0405     19.1426     19.2043     19.1621     19.3586     19.3237     19.0380
  4      0.0000      0.0218      0.1497      0.0000      0.0554      0.0209      0.0411      0.0000      0.0000
  5      0.0000      0.0136      0.0593      0.0000      0.0539      0.1594      0.0000      0.0000      0.0000
  6      0.0000      0.0502      0.0000      0.1053      0.0000      0.0000      0.0321      0.0000      0.0471
  7      0.0000      0.0242      0.0000      0.0000      0.0987      0.0000      0.0000      0.0528      0.0000
  8      0.0000      0.0166      0.0000      0.0000      0.0000      0.0000      0.0000      0.0000      0.0000
  9      0.0000      0.0159      0.0103      0.0100      0.0685      0.0000      0.0000      0.0000      0.0000
 10      0.0000      0.0113      0.0000      0.0000      0.0000      0.0774      0.0000      0.0000      0.0000
 11      0.0000      0.0162      0.0000      0.0000      0.0234      0.0000      0.0000      0.0000      0.0000
 12      0.0000      0.0091      0.0000      0.0000      0.0000      0.0000      0.0076      0.0000      0.0000
 13      0.0000      0.0046      0.0000      0.0000      0.0000      0.0000      0.0000      0.0000      0.0108
 14      0.0000      0.0056      0.0000      0.0000      0.0000      0.0000      0.0000      0.0000      0.0000
 15      0.0000      0.0071      0.0000      0.0000      0.0000      0.0000      0.0000      0.0000      0.0000
 16      0.0000      0.0092      0.0000      0.0000      0.0000      0.0000      0.0000      0.0000      0.0000
 17      0.0000      0.0157      0.0000      0.0000      0.0000      0.0000      0.0149      0.0000      0.0698
 18      0.0000      0.0175      0.0000      0.0045      0.0000      0.0000      0.0000      0.0000      0.0000
 19      0.0000      0.0395      0.0350      0.0000      0.0000      0.0232      0.0095      0.0965      0.0230
 20      0.0000      0.0593      0.1239      0.0000      0.0000      0.1374      0.1493      0.0000      0.0708
 21      0.0000      0.0933      0.0000      0.0907      0.0000      0.0000      0.0000      0.0000      0.0000
 22      0.0000      0.0745      0.4070      0.0308      0.0000      0.1099      0.0000      0.0000      0.0782
 23      0.0000      0.1027      0.1624      0.1721      0.1568      0.0020      0.0582      0.0000      0.0562
 24      0.0000      0.1217      0.3288      0.0000      0.1173      0.0946      0.0000      0.2043      0.0000
 25      0.0000      0.1243      0.0000      0.0000      0.0871      0.0000      0.0000      0.2650      0.3813
 26      0.0000      0.0180      0.0000      0.0000      0.0510      0.0000      0.0000      0.0000      0.0000
 27      0.0000      0.0302      0.1470      0.0000      0.0643      0.0000      0.0000      0.1030      0.0000
 28      0.0000      0.0258      0.0332      0.1216      0.0000      0.0000      0.0105      0.0000      0.0000
 29      0.0000      0.0088      0.0142      0.0000      0.0000      0.0000      0.0000      0.0000      0.0000
 30      0.0000      0.0299      0.0000      0.0000      0.0000      0.1962      0.0000      0.0199      0.0219
 31      0.0000      0.0156      0.0430      0.0000      0.0000      0.0000      0.0000      0.0000      0.1065
 32      0.0000      0.0337      0.0232      0.1660      0.0000      0.0000      0.0000      0.0000      0.0000
 33      0.0000      0.0186      0.0000      0.0000      0.0000      0.1558      0.0000      0.0370      0.0200
 34      0.0000      0.0152      0.0000      0.0000      0.0000      0.0404      0.0000      0.0000      0.0000
 35      0.0000      0.0114      0.0000      0.0000      0.0000      0.0000      0.0000      0.0000      0.0000
 36      0.0000      0.0119      0.0090      0.0000      0.0000      0.0000      0.0000      0.0000      0.0877
 37      0.0000      0.0074      0.0000      0.0000      0.0000      0.0000      0.0000      0.0000      0.0000
 38      0.0000      0.0055      0.0000      0.0000      0.0000      0.0000      0.0000      0.0000      0.0000
 39      0.0000      0.0076      0.0000      0.0000      0.0000      0.0000      0.0000      0.0000      0.0000
 40      0.0000      0.0082      0.0000      0.0000      0.0000      0.0000      0.0000      0.0282      0.0000
 41      0.0000      0.0173      0.0000      0.0000      0.0000      0.0000      0.0000      0.0000      0.0000
 42      0.0000      0.0162      0.0000      0.0000      0.0000      0.0000      0.0000      0.0000      0.0000
 43      0.0000      0.0409      0.1044      0.0044      0.0000      0.0234      0.0000      0.0000      0.0273
 44      0.0000      0.1752      0.0000      0.5648      0.2617      0.4298      0.1423      0.0000      0.1303
 45      9.5995      6.6785      6.0836      6.6266      7.0830      7.1727      7.8986      6.6910      7.5271
 46     17.6229     15.9571     16.7457     16.0813     15.7476     15.9611     16.4195     16.0456     15.5934
 47      2.3048      7.9721      7.6612      8.2088      7.8170      7.9973      7.3265      8.2396      7.9657
 48      0.0000      0.2036      0.4701      0.0000      0.2913      0.0000      0.0000      0.0000      0.0055
 49      0.0000      0.1390      0.0321      0.0000      0.4920      0.0424      0.0224      0.0000      0.0970
 50      0.0000      0.1042      0.0000      0.0000      0.0000      0.0054      0.0000      0.1734      0.0585
 51      0.0000      0.0246      0.0000      0.0000      0.0730      0.0000      0.0000      0.0000      0.0000
 52      0.0000      0.0229      0.0857      0.0000      0.0000      0.0221      0.0000      0.0432      0.0000
 53      0.0000      0.0312      0.0000      0.0000      0.0000      0.0001      0.0165      0.0000      0.1605
 54      0.0000      0.0250      0.1268      0.0733      0.0000      0.0098      0.0000      0.0000      0.0000
 55      0.0000      0.0372      0.0716      0.0000      0.0000      0.0000      0.1290      0.0044      0.0593
 56      0.0000      0.0384      0.0000      0.0000      0.1110      0.0000      0.0722      0.0092      0.0000
 57      0.0000      0.0176      0.0000      0.0000      0.0000      0.0000      0.0000      0.0000      0.0000
 58      0.0000      0.0189      0.0000      0.0033      0.0000      0.0000      0.0206      0.0000      0.0000
 59      0.0000      0.0187      0.1419      0.0142      0.0000      0.0066      0.0000      0.0370      0.0000
 60      0.0000      0.0175      0.0000      0.0916      0.0000      0.0000      0.0000      0.0000      0.0000
 61      0.0000      0.0128      0.0000      0.0000      0.0000      0.0000      0.0266      0.0000      0.0000
 62      0.0000      0.0081      0.0000      0.0000      0.0000      0.0000      0.0000      0.0000      0.0000
 63      0.0000      0.0089      0.0000      0.0087      0.0000      0.0796      0.1553      0.0000      0.0000
 64      0.0000      0.0093      0.0000      0.0000      0.0000      0.0000      0.0000      0.0000      0.0000
 65      0.0000      0.0276      0.1247      0.0074      0.0000      0.0000      0.0000      0.0000      0.0000
 66      0.0005      0.0975      0.0000      0.2866      0.0000      0.0000      0.2731      0.0000      0.0000
 67      0.0000      0.0564      0.0000      0.1414      0.0000      0.5508      0.1748      0.1384      0.0000
 68      4.9613      3.2187      2.9710      2.7473      3.2320      2.7070      4.0051      3.5482      3.9931
 69      4.1971      5.1703      4.9701      5.0186      5.1289      5.3580      5.1973      5.7530      5.2714
 70      1.1125      0.6147      0.3945      0.6055      0.6229      0.0000      0.6701      0.5033      0.9293
 71      1.3188      0.7843      0.6820      1.1112      0.7895      0.5482      1.3981      0.9735      0.4380
 72      1.6774      0.7353      0.9390      0.7014      0.7066      1.7236      0.2981      0.7315      1.0143
 73      0.4175      0.4563      0.8823      0.4947      0.3301      0.4067      0.4759      0.6176      0.4189
 74      0.0000      0.1278      0.1665      0.0160      0.4343      0.0000      0.0000      0.0545      0.5222
 75      0.0000      0.2396      0.5399      0.1582      0.2713      0.5639      0.2607      0.2469      0.3022
 76      0.0000      0.0210      0.0000      0.1223      0.0000      0.0000      0.0000      0.0142      0.0000
 77      0.0000      0.0218      0.0000      0.0000      0.0000      0.0000      0.0000      0.0550      0.0000
 78      0.0000      0.0169      0.0000      0.0000      0.0000      0.0000      0.0000      0.0000      0.0000
 79      0.0000      0.0182      0.0000      0.0001      0.0012      0.0000      0.0000      0.0000      0.0000
 80      0.0000      0.0175      0.0000      0.0000      0.1152      0.0826      0.0344      0.0000      0.0000
 81      0.0000      0.0116      0.0267      0.0000      0.0000      0.0160      0.0000      0.0000      0.0000
 82      0.0000      0.0141      0.0000      0.0132      0.0000      0.0012      0.0000      0.0225      0.0000
 83      0.0000      0.0139      0.0000      0.0000      0.0000      0.0000      0.0000      0.1279      0.0000
 84      0.0000      0.0091      0.0000      0.0000      0.0814      0.0000      0.0000      0.1068      0.0000
 85      0.0000      0.0138      0.0000      0.0000      0.0000      0.0000      0.0000      0.0000      0.0000
 86      0.0000      0.0102      0.0000      0.0000      0.0000      0.0000      0.0076      0.0023      0.0000
 87      0.0000      0.0132      0.0000      0.0000      0.0000      0.0416      0.0000      0.0000      0.0000
 88      0.0000      0.0096      0.0000      0.0000      0.0962      0.0000      0.0000      0.0000      0.0000
 89      0.0000      0.0103      0.0000      0.0000      0.0000      0.0000      0.0000      0.0000      0.0000
 90      0.0000      0.0176      0.0000      0.0000      0.0000      0.0000      0.0000      0.0000      0.0000
 91      0.0000      0.0709      0.0000      0.2524      0.0273      0.1309      0.0000      0.0000      0.0000
 92      0.0006      0.0533      0.0000      0.0000      0.0000      0.0000      0.4333      0.0598      0.0000
 93      0.0005      0.1408      1.0676      0.1395      0.6456      0.8715      0.3241      0.2504      0.0000
 94     10.8435      8.5670      8.9688      8.7621      8.5413      8.5692      8.7717      8.9580      8.7224
 95      2.9650      1.7312      1.6926      1.6583      2.0266      1.7265      1.9749      1.5939      1.7278
 96      0.0000      0.1843      0.0000      0.6247      0.3708      0.2635      0.1922      0.1818      0.3001
 97      1.6492      0.3483      0.4192      0.2590      0.5019      0.5936      0.5324      0.4654      0.1979
 98      1.0510      0.5652      0.5789      0.8560      0.7835      0.6132      0.5537      0.7807      0.4749
 99      1.2169      0.9601      1.2522      0.9209      0.8257      1.1376      1.1477      0.9500      0.9206
100      2.8874      2.6743      2.6722      2.8811      2.5436      2.7250      2.5241      2.6781      2.6834
101      0.0000      0.0142      0.0000      0.0581      0.0000      0.0000      0.0000      0.0000      0.0000
102      0.0000      0.0204      0.0000      0.0000      0.0000      0.0000      0.0000      0.0000      0.0000
103      0.0000      0.0297      0.0000      0.0000      0.0000      0.0000      0.0000      0.0000      0.0000
104      0.0000      0.0306      0.0000      0.0523      0.0000      0.0000      0.0139      0.1320      0.0318
105      0.0000      0.0268      0.0000      0.0000      0.0000      0.0000      0.0000      0.0000      0.0000
106      0.0000      0.0228      0.0000      0.0000      0.0000      0.0000      0.0000      0.0000      0.0000
107      0.0000      0.0188      0.0000      0.0000      0.0307      0.0000      0.0000      0.0000      0.0000
108      0.0000      0.0208      0.0000      0.0000      0.0000      0.0000      0.0093      0.0000      0.0000
109      0.0000      0.0107      0.0000      0.0000      0.0000      0.0000      0.0000      0.0000      0.0000
110      0.0000      0.0071      0.0000      0.0000      0.0000      0.0000      0.0000      0.0000      0.0000
111      0.0000      0.0078      0.0000      0.0000      0.0000      0.0000      0.0000      0.0000      0.0000
112      0.0000      0.0097      0.0000      0.0100      0.0000      0.0000      0.0000      0.0000      0.0000
113      0.0000      0.0063      0.0152      0.0169      0.0000      0.0000      0.0000      0.0000      0.0000
114      0.0000      0.0089      0.0000      0.0823      0.0000      0.0000      0.0000      0.0000      0.0000
115      0.0000      0.0439      0.0334      0.0000      0.0000      0.0000      0.0000      0.1760      0.0000
116      0.0000      0.0435      0.0000      0.0000      0.0000      0.0000      0.0000      0.0137      0.0000
117      0.0000      0.0443      0.0000      0.0335      0.0000      0.0000      0.0000      0.0000      0.0000
118      0.0000      0.0613      0.1228      0.0000      0.0000      0.0000      0.1004      0.5669      0.0000
119      0.0000      0.0565      0.0000      0.0000      0.0000      0.1343      0.0000      0.0000      0.0000
120      2.6773      3.2133      3.0378      3.2952      3.1712      2.6609      3.3650      2.8645      3.2041
121      0.0687      0.1396      0.0000      0.0000      0.1748      0.0000      0.3170      0.0000      0.1366
122      2.9031      3.4617      3.3768      3.2611      3.3710      3.4376      3.4794      3.4404      3.4680
123      0.2093      0.7095      0.6140      0.7775      0.4134      0.6941      0.7023      0.6733      0.6437
124      3.0196      3.3602      3.4681      3.1657      3.2728      3.4310      3.4200      3.3709      3.2419
125      1.5649      1.9428      1.7948      1.9360      1.9141      1.9455      2.0491      1.8044      2.0240
126      0.0000      0.0134      0.0000      0.0000      0.0000      0.0000      0.0000      0.0000      0.0000
127      0.0000      0.0130      0.0000      0.0000      0.0071      0.0000      0.0332      0.0000      0.0000
128      0.0000      0.0181      0.0000      0.0000      0.0000      0.0000      0.0000      0.0000      0.1098
129      0.0000      0.0128      0.0000      0.0000      0.0000      0.0000      0.0000      0.0000      0.0000
130      0.0000      0.0113      0.0094      0.0000      0.0000      0.0000      0.0000      0.0000      0.0695
131      0.0000      0.0078      0.0000      0.0000      0.0000      0.0000      0.0000      0.0265      0.0000
132      0.0000      0.0098      0.0000      0.0000      0.0000      0.0000      0.0000      0.0000      0.0000
133      0.0000      0.0083      0.0000      0.0000      0.0000      0.0000      0.0000      0.0000      0.0000
134      0.0000      0.0069      0.0000      0.0000      0.0000      0.0000      0.0000      0.0000      0.0000
135      0.0000      0.0060      0.0000      0.0000      0.0000      0.0000      0.0000      0.0000      0.0000
136      0.0000      0.0053      0.0000      0.0000      0.0000      0.0410      0.0000      0.0000      0.0157
137      0.0000      0.0045      0.0000      0.0000      0.0000      0.0000      0.0000      0.0000      0.0000
138      0.0000      0.0058      0.0000      0.0000      0.0000      0.0000      0.0000      0.0000      0.0000
139      0.0000      0.0171      0.0000      0.0000      0.0000      0.0000      0.0000      0.0000      0.0000
140      0.0000      0.0548      0.2280      0.2123      0.0000      0.0171      0.0000      0.0129      0.0000
141      0.0018      2.8616      1.9522      2.6373      2.9011      2.1320      0.3712      1.6756      2.4342
142      0.0000      0.0395      0.0000      0.0682      0.0000      0.0650      0.0643      0.0000      0.0000
143      0.0000      0.0297      0.0000      0.0000      0.0000      0.0339      0.0000      0.0000      0.0920
144      0.0000      0.0246      0.0000      0.0530      0.0000      0.0000      0.0000      0.0559      0.0000
145      0.0000      0.0132      0.0000      0.0000      0.0000      0.0000      0.0000      0.0848      0.0000
146      0.0000      0.0169      0.0000      0.0000      0.0000      0.0000      0.0000      0.0000      0.0000
147      0.0000      0.0108      0.0000      0.0000      0.0000      0.0000      0.0000      0.0000      0.0000
148      0.0000      0.0052      0.0000      0.0000      0.0000      0.0000      0.0000      0.0000      0.0000
149      0.0000      0.0052      0.0000      0.0128      0.0000      0.0000      0.0000      0.0440      0.0000
150      0.0000      0.0034      0.0000      0.0017      0.0000      0.0000      0.0000      0.0000      0.0000

# j      m_j: min, <> & last-chain-values for 1 ...  7 chains
  1  0.0000E+00  1.4487E-04  0.0000E+00  0.0000E+00  0.0000E+00  0.0000E+00  0.0000E+00  0.0000E+00  8.2778E-04
  2  1.0099E-02  7.2609E-03  7.4620E-03  7.7677E-03  7.3973E-03  7.3693E-03  7.5751E-03  7.4036E-03  7.4027E-03
  3  7.0292E-02  6.7118E-02  6.6597E-02  6.7767E-02  6.8307E-02  6.7038E-02  6.7711E-02  6.8023E-02  6.6942E-02
  4  0.0000E+00  1.4459E-04  9.8420E-04  0.0000E+00  3.7010E-04  1.3775E-04  2.7051E-04  0.0000E+00  0.0000E+00
  5  0.0000E+00  1.1352E-04  4.9085E-04  0.0000E+00  4.5355E-04  1.3202E-03  0.0000E+00  0.0000E+00  0.0000E+00
  6  0.0000E+00  4.9757E-04  0.0000E+00  1.0498E-03  0.0000E+00  0.0000E+00  3.1623E-04  0.0000E+00  4.6625E-04
  7  0.0000E+00  3.0248E-04  0.0000E+00  0.0000E+00  1.2469E-03  0.0000E+00  0.0000E+00  6.6036E-04  0.0000E+00
  8  0.0000E+00  2.3459E-04  0.0000E+00  0.0000E+00  0.0000E+00  0.0000E+00  0.0000E+00  0.0000E+00  0.0000E+00
  9  0.0000E+00  2.4242E-04  1.5594E-04  1.5347E-04  1.0526E-03  0.0000E+00  0.0000E+00  0.0000E+00  0.0000E+00
 10  0.0000E+00  1.9698E-04  0.0000E+00  0.0000E+00  0.0000E+00  1.3414E-03  0.0000E+00  0.0000E+00  0.0000E+00
 11  0.0000E+00  3.3814E-04  0.0000E+00  0.0000E+00  4.9323E-04  0.0000E+00  0.0000E+00  0.0000E+00  0.0000E+00
 12  0.0000E+00  3.3333E-04  0.0000E+00  0.0000E+00  0.0000E+00  0.0000E+00  2.7556E-04  0.0000E+00  0.0000E+00
 13  0.0000E+00  1.9554E-04  0.0000E+00  0.0000E+00  0.0000E+00  0.0000E+00  0.0000E+00  0.0000E+00  4.5537E-04
 14  0.0000E+00  3.3915E-04  0.0000E+00  0.0000E+00  0.0000E+00  0.0000E+00  0.0000E+00  0.0000E+00  0.0000E+00
 15  0.0000E+00  6.4801E-04  0.0000E+00  0.0000E+00  0.0000E+00  0.0000E+00  0.0000E+00  0.0000E+00  0.0000E+00
 16  0.0000E+00  1.2133E-03  0.0000E+00  0.0000E+00  0.0000E+00  0.0000E+00  0.0000E+00  0.0000E+00  0.0000E+00
 17  0.0000E+00  2.2933E-03  0.0000E+00  0.0000E+00  0.0000E+00  0.0000E+00  2.1562E-03  0.0000E+00  1.0167E-02
 18  0.0000E+00  4.1497E-03  0.0000E+00  1.0844E-03  0.0000E+00  0.0000E+00  0.0000E+00  0.0000E+00  0.0000E+00
 19  0.0000E+00  1.4253E-02  1.2515E-02  0.0000E+00  0.0000E+00  8.3172E-03  3.4116E-03  3.4761E-02  8.2879E-03
 20  0.0000E+00  3.0570E-02  6.3407E-02  0.0000E+00  0.0000E+00  7.0319E-02  7.6405E-02  0.0000E+00  3.6451E-02
 21  0.0000E+00  5.5623E-02  0.0000E+00  5.4377E-02  0.0000E+00  0.0000E+00  0.0000E+00  0.0000E+00  0.0000E+00
 22  0.0000E+00  5.7347E-02  3.1091E-01  2.3823E-02  0.0000E+00  8.4002E-02  0.0000E+00  0.0000E+00  6.0057E-02
 23  0.0000E+00  1.0014E-01  1.5729E-01  1.6872E-01  1.5437E-01  1.9378E-03  5.6402E-02  0.0000E+00  5.4750E-02
 24  0.0000E+00  1.3570E-01  3.6410E-01  0.0000E+00  1.3205E-01  1.0484E-01  0.0000E+00  2.2766E-01  0.0000E+00
 25  0.0000E+00  1.6660E-01  0.0000E+00  0.0000E+00  1.1785E-01  0.0000E+00  0.0000E+00  3.5483E-01  5.0994E-01
 26  0.0000E+00  1.5078E-04  0.0000E+00  0.0000E+00  4.3277E-04  0.0000E+00  0.0000E+00  0.0000E+00  0.0000E+00
 27  0.0000E+00  5.3924E-05  2.6095E-04  0.0000E+00  1.1600E-04  0.0000E+00  0.0000E+00  1.8402E-04  0.0000E+00
 28  0.0000E+00  9.0370E-05  1.1523E-04  4.2769E-04  0.0000E+00  0.0000E+00  3.6571E-05  0.0000E+00  0.0000E+00
 29  0.0000E+00  4.7933E-05  7.6859E-05  0.0000E+00  0.0000E+00  0.0000E+00  0.0000E+00  0.0000E+00  0.0000E+00
 30  0.0000E+00  2.0261E-04  0.0000E+00  0.0000E+00  0.0000E+00  1.3206E-03  0.0000E+00  1.3483E-04  1.4792E-04
 31  0.0000E+00  1.2225E-04  3.3407E-04  0.0000E+00  0.0000E+00  0.0000E+00  0.0000E+00  0.0000E+00  8.3193E-04
 32  0.0000E+00  2.9244E-04  1.9988E-04  1.4467E-03  0.0000E+00  0.0000E+00  0.0000E+00  0.0000E+00  0.0000E+00
 33  0.0000E+00  2.2957E-04  0.0000E+00  0.0000E+00  0.0000E+00  1.9071E-03  0.0000E+00  4.5602E-04  2.4652E-04
 34  0.0000E+00  2.2727E-04  0.0000E+00  0.0000E+00  0.0000E+00  6.0111E-04  0.0000E+00  0.0000E+00  0.0000E+00
 35  0.0000E+00  2.0609E-04  0.0000E+00  0.0000E+00  0.0000E+00  0.0000E+00  0.0000E+00  0.0000E+00  0.0000E+00
 36  0.0000E+00  2.7577E-04  2.0812E-04  0.0000E+00  0.0000E+00  0.0000E+00  0.0000E+00  0.0000E+00  2.0302E-03
 37  0.0000E+00  2.1253E-04  0.0000E+00  0.0000E+00  0.0000E+00  0.0000E+00  0.0000E+00  0.0000E+00  0.0000E+00
 38  0.0000E+00  2.2181E-04  0.0000E+00  0.0000E+00  0.0000E+00  0.0000E+00  0.0000E+00  0.0000E+00  0.0000E+00
 39  0.0000E+00  4.5506E-04  0.0000E+00  0.0000E+00  0.0000E+00  0.0000E+00  0.0000E+00  0.0000E+00  0.0000E+00
 40  0.0000E+00  8.6526E-04  0.0000E+00  0.0000E+00  0.0000E+00  0.0000E+00  0.0000E+00  2.9801E-03  0.0000E+00
 41  0.0000E+00  2.4481E-03  0.0000E+00  0.0000E+00  0.0000E+00  0.0000E+00  0.0000E+00  0.0000E+00  0.0000E+00
 42  0.0000E+00  2.5627E-03  0.0000E+00  0.0000E+00  0.0000E+00  0.0000E+00  0.0000E+00  0.0000E+00  0.0000E+00
 43  0.0000E+00  1.0516E-02  2.6645E-02  1.1339E-03  0.0000E+00  5.9824E-03  0.0000E+00  0.0000E+00  7.0133E-03
 44  0.0000E+00  7.1255E-02  0.0000E+00  2.3077E-01  1.0742E-01  1.7355E-01  5.7464E-02  0.0000E+00  5.2879E-02
 45  5.6230E+00  3.7850E+00  3.4231E+00  3.7739E+00  4.0529E+00  4.0368E+00  4.4444E+00  3.7891E+00  4.2578E+00
 46  1.2297E+01  1.0773E+01  1.1225E+01  1.0910E+01  1.0734E+01  1.0701E+01  1.1006E+01  1.0825E+01  1.0508E+01
 47  2.1079E+00  7.0542E+00  6.7305E+00  7.2991E+00  6.9835E+00  7.0274E+00  6.4365E+00  7.2853E+00  7.0351E+00
 48  0.0000E+00  2.1452E-01  4.9178E-01  0.0000E+00  3.0989E-01  0.0000E+00  0.0000E+00  0.0000E+00  5.7460E-03
 49  0.0000E+00  1.6381E-01  3.7620E-02  0.0000E+00  5.8553E-01  4.9665E-02  2.6259E-02  0.0000E+00  1.1416E-01
 50  0.0000E+00  1.4450E-01  0.0000E+00  0.0000E+00  0.0000E+00  7.4221E-03  0.0000E+00  2.4015E-01  8.0950E-02
 51  0.0000E+00  1.5682E-04  0.0000E+00  0.0000E+00  4.6979E-04  0.0000E+00  0.0000E+00  0.0000E+00  0.0000E+00
 52  0.0000E+00  3.9971E-05  1.4843E-04  0.0000E+00  0.0000E+00  3.8357E-05  0.0000E+00  7.5339E-05  0.0000E+00
 53  0.0000E+00  8.3109E-05  0.0000E+00  0.0000E+00  0.0000E+00  3.1347E-07  4.3475E-05  0.0000E+00  4.2607E-04
 54  0.0000E+00  6.3352E-05  3.1928E-04  1.8679E-04  0.0000E+00  2.4561E-05  0.0000E+00  0.0000E+00  0.0000E+00
 55  0.0000E+00  1.3907E-04  2.6590E-04  0.0000E+00  0.0000E+00  0.0000E+00  4.7897E-04  1.6447E-05  2.2123E-04
 56  0.0000E+00  1.9011E-04  0.0000E+00  0.0000E+00  5.5501E-04  0.0000E+00  3.5524E-04  4.5535E-05  0.0000E+00
 57  0.0000E+00  1.3973E-04  0.0000E+00  0.0000E+00  0.0000E+00  0.0000E+00  0.0000E+00  0.0000E+00  0.0000E+00
 58  0.0000E+00  2.1605E-04  0.0000E+00  3.7742E-05  0.0000E+00  0.0000E+00  2.3394E-04  0.0000E+00  0.0000E+00
 59  0.0000E+00  2.9741E-04  2.2413E-03  2.2762E-04  0.0000E+00  1.0426E-04  0.0000E+00  5.8842E-04  0.0000E+00
 60  0.0000E+00  3.1059E-04  0.0000E+00  1.6313E-03  0.0000E+00  0.0000E+00  0.0000E+00  0.0000E+00  0.0000E+00
 61  0.0000E+00  2.8815E-04  0.0000E+00  0.0000E+00  0.0000E+00  0.0000E+00  5.9641E-04  0.0000E+00  0.0000E+00
 62  0.0000E+00  2.3178E-04  0.0000E+00  0.0000E+00  0.0000E+00  0.0000E+00  0.0000E+00  0.0000E+00  0.0000E+00
 63  0.0000E+00  3.8890E-04  0.0000E+00  3.8038E-04  0.0000E+00  3.4396E-03  6.7132E-03  0.0000E+00  0.0000E+00
 64  0.0000E+00  6.6481E-04  0.0000E+00  0.0000E+00  0.0000E+00  0.0000E+00  0.0000E+00  0.0000E+00  0.0000E+00
 65  0.0000E+00  3.3439E-03  1.4985E-02  9.0134E-04  0.0000E+00  0.0000E+00  0.0000E+00  0.0000E+00  0.0000E+00
 66  8.5940E-05  1.5104E-02  0.0000E+00  4.4606E-02  0.0000E+00  0.0000E+00  4.1989E-02  0.0000E+00  0.0000E+00
 67  0.0000E+00  1.1979E-02  0.0000E+00  3.0196E-02  0.0000E+00  1.1627E-01  3.6887E-02  2.9403E-02  0.0000E+00
 68  2.0267E+00  1.2722E+00  1.1658E+00  1.0911E+00  1.2897E+00  1.0625E+00  1.5716E+00  1.4013E+00  1.5752E+00
 69  2.9568E+00  3.5241E+00  3.3633E+00  3.4374E+00  3.5296E+00  3.6267E+00  3.5172E+00  3.9182E+00  3.5862E+00
 70  1.0907E+00  5.8316E-01  3.7153E-01  5.7723E-01  5.9663E-01  0.0000E+00  6.3114E-01  4.7708E-01  8.7992E-01
 71  1.5256E+00  8.7783E-01  7.5784E-01  1.2498E+00  8.9218E-01  6.0935E-01  1.5537E+00  1.0887E+00  4.8928E-01
 72  2.5543E+00  1.0835E+00  1.3735E+00  1.0385E+00  1.0510E+00  2.5219E+00  4.3606E-01  1.0769E+00  1.4916E+00
 73  8.0193E-01  8.4814E-01  1.6280E+00  9.2400E-01  6.1939E-01  7.5060E-01  8.7819E-01  1.1469E+00  7.7712E-01
 74  0.0000E+00  2.6500E-01  3.4275E-01  3.3369E-02  9.0932E-01  0.0000E+00  0.0000E+00  1.1303E-01  1.0808E+00
 75  0.0000E+00  5.7129E-01  1.2782E+00  3.7907E-01  6.5311E-01  1.3352E+00  6.1709E-01  5.8833E-01  7.1909E-01
 76  0.0000E+00  1.1614E-04  0.0000E+00  6.7866E-04  0.0000E+00  0.0000E+00  0.0000E+00  7.8105E-05  0.0000E+00
 77  0.0000E+00  4.8971E-05  0.0000E+00  0.0000E+00  0.0000E+00  0.0000E+00  0.0000E+00  1.2357E-04  0.0000E+00
 78  0.0000E+00  4.2550E-05  0.0000E+00  0.0000E+00  0.0000E+00  0.0000E+00  0.0000E+00  0.0000E+00  0.0000E+00
 79  0.0000E+00  5.5161E-05  0.0000E+00  2.0034E-07  3.5853E-06  0.0000E+00  0.0000E+00  0.0000E+00  0.0000E+00
 80  0.0000E+00  6.8344E-05  0.0000E+00  0.0000E+00  4.5421E-04  3.2044E-04  1.3317E-04  0.0000E+00  0.0000E+00
 81  0.0000E+00  5.9745E-05  1.3675E-04  0.0000E+00  0.0000E+00  8.2224E-05  0.0000E+00  0.0000E+00  0.0000E+00
 82  0.0000E+00  9.7693E-05  0.0000E+00  9.2357E-05  0.0000E+00  7.9968E-06  0.0000E+00  1.5620E-04  0.0000E+00
 83  0.0000E+00  1.4178E-04  0.0000E+00  0.0000E+00  0.0000E+00  0.0000E+00  0.0000E+00  1.3049E-03  0.0000E+00
 84  0.0000E+00  1.2923E-04  0.0000E+00  0.0000E+00  1.1615E-03  0.0000E+00  0.0000E+00  1.5088E-03  0.0000E+00
 85  0.0000E+00  2.3746E-04  0.0000E+00  0.0000E+00  0.0000E+00  0.0000E+00  0.0000E+00  0.0000E+00  0.0000E+00
 86  0.0000E+00  2.3762E-04  0.0000E+00  0.0000E+00  0.0000E+00  0.0000E+00  1.7581E-04  5.2524E-05  0.0000E+00
 87  0.0000E+00  4.1055E-04  0.0000E+00  0.0000E+00  0.0000E+00  1.2792E-03  0.0000E+00  0.0000E+00  0.0000E+00
 88  0.0000E+00  4.5494E-04  0.0000E+00  0.0000E+00  4.5907E-03  0.0000E+00  0.0000E+00  0.0000E+00  0.0000E+00
 89  0.0000E+00  8.0666E-04  0.0000E+00  0.0000E+00  0.0000E+00  0.0000E+00  0.0000E+00  0.0000E+00  0.0000E+00
 90  0.0000E+00  2.5546E-03  0.0000E+00  0.0000E+00  0.0000E+00  0.0000E+00  0.0000E+00  0.0000E+00  0.0000E+00
 91  0.0000E+00  1.3268E-02  0.0000E+00  4.7461E-02  5.1556E-03  2.4322E-02  0.0000E+00  0.0000E+00  0.0000E+00
 92  1.5117E-04  1.3328E-02  0.0000E+00  0.0000E+00  0.0000E+00  0.0000E+00  1.0750E-01  1.4939E-02  0.0000E+00
 93  2.8429E-04  7.1486E-02  5.3803E-01  7.1135E-02  3.3086E-01  4.3930E-01  1.6332E-01  1.2700E-01  0.0000E+00
 94  1.0203E+01  7.7991E+00  8.1063E+00  8.0156E+00  7.8505E+00  7.7469E+00  7.9283E+00  8.1487E+00  7.9254E+00
 95  3.7584E+00  2.1232E+00  2.0610E+00  2.0437E+00  2.5094E+00  2.1027E+00  2.4047E+00  1.9532E+00  2.1150E+00
 96  0.0000E+00  2.7264E-01  0.0000E+00  9.2888E-01  5.5397E-01  3.8724E-01  2.8234E-01  2.6884E-01  4.4324E-01
 97  3.2863E+00  6.7146E-01  8.0239E-01  5.0181E-01  9.7698E-01  1.1365E+00  1.0191E+00  8.9662E-01  3.8088E-01
 98  2.6858E+00  1.3974E+00  1.4211E+00  2.1267E+00  1.9559E+00  1.5056E+00  1.3593E+00  1.9288E+00  1.1718E+00
 99  3.5449E+00  2.7061E+00  3.5039E+00  2.6083E+00  2.3496E+00  3.1841E+00  3.2115E+00  2.6756E+00  2.5897E+00
100  9.6838E+00  8.6780E+00  8.6089E+00  9.3944E+00  8.3333E+00  8.7809E+00  8.1318E+00  8.6834E+00  8.6909E+00
101  0.0000E+00  5.0595E-05  0.0000E+00  2.0853E-04  0.0000E+00  0.0000E+00  0.0000E+00  0.0000E+00  0.0000E+00
102  0.0000E+00  3.7878E-05  0.0000E+00  0.0000E+00  0.0000E+00  0.0000E+00  0.0000E+00  0.0000E+00  0.0000E+00
103  0.0000E+00  6.1132E-05  0.0000E+00  0.0000E+00  0.0000E+00  0.0000E+00  0.0000E+00  0.0000E+00  0.0000E+00
104  0.0000E+00  8.2831E-05  0.0000E+00  1.4204E-04  0.0000E+00  0.0000E+00  3.7263E-05  3.5685E-04  8.5973E-05
105  0.0000E+00  1.5299E-04  0.0000E+00  0.0000E+00  0.0000E+00  0.0000E+00  0.0000E+00  0.0000E+00  0.0000E+00
106  0.0000E+00  1.3991E-04  0.0000E+00  0.0000E+00  0.0000E+00  0.0000E+00  0.0000E+00  0.0000E+00  0.0000E+00
107  0.0000E+00  1.5397E-04  0.0000E+00  0.0000E+00  2.5447E-04  0.0000E+00  0.0000E+00  0.0000E+00  0.0000E+00
108  0.0000E+00  2.8499E-04  0.0000E+00  0.0000E+00  0.0000E+00  0.0000E+00  1.2662E-04  0.0000E+00  0.0000E+00
109  0.0000E+00  1.7589E-04  0.0000E+00  0.0000E+00  0.0000E+00  0.0000E+00  0.0000E+00  0.0000E+00  0.0000E+00
110  0.0000E+00  1.3918E-04  0.0000E+00  0.0000E+00  0.0000E+00  0.0000E+00  0.0000E+00  0.0000E+00  0.0000E+00
111  0.0000E+00  2.1390E-04  0.0000E+00  0.0000E+00  0.0000E+00  0.0000E+00  0.0000E+00  0.0000E+00  0.0000E+00
112  0.0000E+00  3.4822E-04  0.0000E+00  3.6047E-04  0.0000E+00  0.0000E+00  0.0000E+00  0.0000E+00  0.0000E+00
113  0.0000E+00  3.3921E-04  8.1058E-04  9.0912E-04  0.0000E+00  0.0000E+00  0.0000E+00  0.0000E+00  0.0000E+00
114  0.0000E+00  8.3742E-04  0.0000E+00  7.8157E-03  0.0000E+00  0.0000E+00  0.0000E+00  0.0000E+00  0.0000E+00
115  0.0000E+00  8.3038E-03  6.2685E-03  0.0000E+00  0.0000E+00  0.0000E+00  0.0000E+00  3.3232E-02  0.0000E+00
116  0.0000E+00  1.3211E-02  0.0000E+00  0.0000E+00  0.0000E+00  0.0000E+00  0.0000E+00  4.1678E-03  0.0000E+00
117  0.0000E+00  1.5785E-02  0.0000E+00  1.1991E-02  0.0000E+00  0.0000E+00  0.0000E+00  0.0000E+00  0.0000E+00
118  0.0000E+00  4.4350E-02  8.8281E-02  0.0000E+00  0.0000E+00  0.0000E+00  7.2176E-02  4.1001E-01  0.0000E+00
119  0.0000E+00  7.0646E-02  0.0000E+00  0.0000E+00  0.0000E+00  1.6681E-01  0.0000E+00  0.0000E+00  0.0000E+00
120  4.9298E+00  5.7247E+00  5.3731E+00  5.8992E+00  5.7039E+00  4.7077E+00  5.9519E+00  5.0993E+00  5.6974E+00
121  1.4882E-01  2.9253E-01  0.0000E+00  0.0000E+00  3.7000E-01  0.0000E+00  6.5965E-01  0.0000E+00  2.8574E-01
122  8.4152E+00  9.7087E+00  9.4027E+00  9.1906E+00  9.5454E+00  9.5742E+00  9.6885E+00  9.6415E+00  9.7077E+00
123  8.0017E-01  2.6248E+00  2.2551E+00  2.8904E+00  1.5439E+00  2.5499E+00  2.5793E+00  2.4889E+00  2.3767E+00
124  1.3256E+01  1.4272E+01  1.4625E+01  1.3512E+01  1.4035E+01  1.4472E+01  1.4422E+01  1.4307E+01  1.3744E+01
125  8.2220E+00  9.8763E+00  9.0584E+00  9.8896E+00  9.8239E+00  9.8216E+00  1.0342E+01  9.1654E+00  1.0270E+01
126  0.0000E+00  3.5897E-05  0.0000E+00  0.0000E+00  0.0000E+00  0.0000E+00  0.0000E+00  0.0000E+00  0.0000E+00
127  0.0000E+00  1.8397E-05  0.0000E+00  0.0000E+00  1.0123E-05  0.0000E+00  4.6500E-05  0.0000E+00  0.0000E+00
128  0.0000E+00  3.7829E-05  0.0000E+00  0.0000E+00  0.0000E+00  0.0000E+00  0.0000E+00  0.0000E+00  2.2969E-04
129  0.0000E+00  5.4916E-05  0.0000E+00  0.0000E+00  0.0000E+00  0.0000E+00  0.0000E+00  0.0000E+00  0.0000E+00
130  0.0000E+00  6.5768E-05  5.4504E-05  0.0000E+00  0.0000E+00  0.0000E+00  0.0000E+00  0.0000E+00  4.0521E-04
131  0.0000E+00  5.2686E-05  0.0000E+00  0.0000E+00  0.0000E+00  0.0000E+00  0.0000E+00  1.7887E-04  0.0000E+00
132  0.0000E+00  9.0368E-05  0.0000E+00  0.0000E+00  0.0000E+00  0.0000E+00  0.0000E+00  0.0000E+00  0.0000E+00
133  0.0000E+00  1.1055E-04  0.0000E+00  0.0000E+00  0.0000E+00  0.0000E+00  0.0000E+00  0.0000E+00  0.0000E+00
134  0.0000E+00  1.1605E-04  0.0000E+00  0.0000E+00  0.0000E+00  0.0000E+00  0.0000E+00  0.0000E+00  0.0000E+00
135  0.0000E+00  1.2194E-04  0.0000E+00  0.0000E+00  0.0000E+00  0.0000E+00  0.0000E+00  0.0000E+00  0.0000E+00
136  0.0000E+00  1.5675E-04  0.0000E+00  0.0000E+00  0.0000E+00  1.1963E-03  0.0000E+00  0.0000E+00  4.6147E-04
137  0.0000E+00  1.8064E-04  0.0000E+00  0.0000E+00  0.0000E+00  0.0000E+00  0.0000E+00  0.0000E+00  0.0000E+00
138  0.0000E+00  3.8829E-04  0.0000E+00  0.0000E+00  0.0000E+00  0.0000E+00  0.0000E+00  0.0000E+00  0.0000E+00
139  0.0000E+00  2.1451E-03  0.0000E+00  0.0000E+00  0.0000E+00  0.0000E+00  0.0000E+00  0.0000E+00  0.0000E+00
140  0.0000E+00  1.5958E-02  6.5957E-02  6.2166E-02  0.0000E+00  4.9539E-03  0.0000E+00  3.7486E-03  0.0000E+00
141  8.3033E-04  1.2763E+00  8.6442E-01  1.1820E+00  1.3063E+00  9.4428E-01  1.6437E-01  7.4671E-01  1.0836E+00
142  0.0000E+00  2.0962E-02  0.0000E+00  3.6341E-02  0.0000E+00  3.4275E-02  3.3850E-02  0.0000E+00  0.0000E+00
143  0.0000E+00  3.1342E-02  0.0000E+00  0.0000E+00  0.0000E+00  3.5503E-02  0.0000E+00  0.0000E+00  9.6894E-02
144  0.0000E+00  5.1047E-02  0.0000E+00  1.1035E-01  0.0000E+00  0.0000E+00  0.0000E+00  1.1567E-01  0.0000E+00
145  0.0000E+00  4.0846E-02  0.0000E+00  0.0000E+00  0.0000E+00  0.0000E+00  0.0000E+00  2.6146E-01  0.0000E+00
146  0.0000E+00  6.2276E-02  0.0000E+00  0.0000E+00  0.0000E+00  0.0000E+00  0.0000E+00  0.0000E+00  0.0000E+00
147  0.0000E+00  5.3682E-02  0.0000E+00  0.0000E+00  0.0000E+00  0.0000E+00  0.0000E+00  0.0000E+00  0.0000E+00
148  0.0000E+00  3.4597E-02  0.0000E+00  0.0000E+00  0.0000E+00  0.0000E+00  0.0000E+00  0.0000E+00  0.0000E+00
149  0.0000E+00  4.0895E-02  0.0000E+00  1.0140E-01  0.0000E+00  0.0000E+00  0.0000E+00  3.4560E-01  0.0000E+00
150  0.0000E+00  3.2036E-02  0.0000E+00  1.5740E-02  0.0000E+00  0.0000E+00  0.0000E+00  0.0000E+00  0.0000E+00

# AV, chi2 & Mass for <> & i_chain = 1 ...  7 solutions
AV       1.3466      1.3350      1.3366      1.3351      1.3355      1.3352      1.3350      1.3372      1.3343
chi2 2.7139E+00  2.8413E+00  2.8094E+00  2.8161E+00  2.8130E+00  2.8103E+00  2.7887E+00  2.8041E+00  2.8079E+00
Mass 3.6316E-10  3.6950E-10  3.7301E-10  3.6779E-10  3.6624E-10  3.7222E-10  3.7220E-10  3.7091E-10  3.6988E-10
  -6.39                                  [v0_min (km/s) before EX0s...]
  43.68                                  [vd_min (km/s) before EX0s...]


## Synthetic spectrum (Best Model) ##l_obs f_obs f_syn wei
 3070    [Nl_obs]
 3359.00    0.00000   0.47127   -2.000
 3360.00    0.18497   0.45117   -1.000
 3361.00    0.33427   0.45633   -1.000
 3362.00    0.31776   0.48186   -1.000
 3363.00    0.33493   0.51467   -1.000
 3364.00    0.40209   0.53608   -1.000
 3365.00    0.41233   0.53666   -1.000
 3366.00    0.41269   0.52393   -1.000
 3367.00    0.43417   0.50815   -1.000
 3368.00    0.42013   0.49365   -1.000
 3369.00    0.36935   0.48284   -1.000
 3370.00    0.36401   0.47139   -1.000
 3371.00    0.43275   0.46351   87.879
 3372.00    0.43515   0.46633   85.704
 3373.00    0.36761   0.48393   -1.000
 3374.00    0.37076   0.51045   -1.000
 3375.00    0.40921   0.53798   -1.000
 3376.00    0.37945   0.55270   -1.000
 3377.00    0.39481   0.54798   -1.000
 3378.00    0.45811   0.53007   -1.000
 3379.00    0.44425   0.51361   -1.000
 3380.00    0.41148   0.50902   -1.000
 3381.00    0.40718   0.51632   -1.000
 3382.00    0.39000   0.52792   -1.000
 3383.00    0.41554   0.53757   -1.000
 3384.00    0.43775   0.54495   -1.000
 3385.00    0.43474   0.55266   -1.000
 3386.00    0.46403   0.55378   -1.000
 3387.00    0.46944   0.54867   -1.000
 3388.00    0.44270   0.54463   -1.000
 3389.00    0.44087   0.54630   -1.000
 3390.00    0.45124   0.54913   -1.000
 3391.00    0.49065   0.54640   -1.000
 3392.00    0.49223   0.53690   57.946
 3393.00    0.45609   0.53196   -1.000
 3394.00    0.46329   0.54013   -1.000
 3395.00    0.47237   0.55641   -1.000
 3396.00    0.44955   0.57310   -1.000
 3397.00    0.46858   0.58679   -1.000
 3398.00    0.54036   0.59574   48.721
 3399.00    0.54490   0.59625   47.023
 3400.00    0.52107   0.58947   -1.000
 3401.00    0.53927   0.57783   45.909
 3402.00    0.49317   0.56123   -1.000
 3403.00    0.46466   0.54928   -1.000
 3404.00    0.50607   0.54392   49.116
 3405.00    0.49539   0.54378   50.002
 3406.00    0.48525   0.54139   50.859
 3407.00    0.50074   0.53568   51.343
 3408.00    0.47380   0.53205   -1.000
 3409.00    0.46547   0.53628   -1.000
 3410.00    0.48827   0.54566   -1.000
 3411.00    0.49175   0.54616   51.290
 3412.00    0.51099   0.53746   50.390
 3413.00    0.51808   0.52614   51.473
 3414.00    0.44003   0.52254   -1.000
 3415.00    0.42938   0.53186   -1.000
 3416.00    0.50014   0.54704   52.495
 3417.00    0.49985   0.56288   -1.000
 3418.00    0.49822   0.57665   -1.000
 3419.00    0.54352   0.58798   45.924
 3420.00    0.55426   0.59296   44.830
 3421.00    0.57990   0.58771   44.591
 3422.00    0.59646   0.57295   44.615
 3423.00    0.55592   0.56017   45.484
 3424.00    0.56276   0.55641   46.657
 3425.00    0.59981   0.56006   46.318
 3426.00    0.57598   0.56642   45.033
 3427.00    0.55294   0.57683   44.391
 3428.00    0.55035   0.59367   -1.000
 3429.00    0.51738   0.60911   -1.000
 3430.00    0.51880   0.61060   -1.000
 3431.00    0.54573   0.59540   -1.000
 3432.00    0.54439   0.57634   -1.000
 3433.00    0.52653   0.56845   -1.000
 3434.00    0.55947   0.57667   44.304
 3435.00    0.58779   0.58907   89.061
 3436.00    0.61087   0.59072   -1.000
 3437.00    0.59920   0.57936   72.792
 3438.00    0.57260   0.55971   45.310
 3439.00    0.53011   0.53539   47.782
 3440.00    0.49838   0.51134   51.180
 3441.00    0.51722   0.49394   54.143
 3442.00    0.52554   0.49007   55.125
 3443.00    0.53405   0.49781   55.020
 3444.00    0.50627   0.51063   53.656
 3445.00    0.48376   0.52443   51.044
 3446.00    0.53430   0.54209   48.226
 3447.00    0.55339   0.56241   46.128
 3448.00    0.54593   0.58212   -1.000
 3449.00    0.58253   0.59386   -1.000
 3450.00    0.59147   0.58798  346.845
 3451.00    0.58033   0.56995   -1.000
 3452.00    0.59196   0.55518   -1.000
 3453.00    0.56772   0.55254   -1.000
 3454.00    0.54028   0.56056   -1.000
 3455.00    0.58805   0.56942   -1.000
 3456.00    0.64647   0.56978   -1.000
 3457.00    0.59217   0.56069   -1.000
 3458.00    0.54539   0.54734  346.845
 3459.00    0.58136   0.53548   -1.000
 3460.00    0.60453   0.52642   -1.000
 3461.00    0.55892   0.52725   44.722
 3462.00    0.55022   0.54238   89.221
 3463.00    0.57464   0.56083   -1.000
 3464.00    0.58151   0.56571   -1.000
 3465.00    0.58904   0.56199   -1.000
 3466.00    0.57985   0.56134   -1.000
 3467.00    0.58273   0.56928   -1.000
 3468.00    0.61586   0.58304   -1.000
 3469.00    0.63256   0.59492   -1.000
 3470.00    0.60952   0.59768   -1.000
 3471.00    0.60017   0.58918   -1.000
 3472.00    0.57665   0.57495  346.845
 3473.00    0.57475   0.55542   -1.000
 3474.00    0.57967   0.53448   -1.000
 3475.00    0.54714   0.52042   74.019
 3476.00    0.53018   0.52008   45.588
 3477.00    0.54689   0.53271   45.767
 3478.00    0.57140   0.54989   89.920
 3479.00    0.60780   0.56574   -1.000
 3480.00    0.64255   0.57723   -1.000
 3481.00    0.63257   0.57975   -1.000
 3482.00    0.61928   0.57329   -1.000
 3483.00    0.64916   0.56509   -1.000
 3484.00    0.66342   0.56450   -1.000
 3485.00    0.63469   0.57619   -1.000
 3486.00    0.62639   0.59091   -1.000
 3487.00    0.62951   0.59611   -1.000
 3488.00    0.63691   0.58674   -1.000
 3489.00    0.63903   0.56735   -1.000
 3490.00    0.58194   0.55092   -1.000
 3491.00    0.55207   0.54880  346.845
 3492.00    0.56741   0.55730   -1.000
 3493.00    0.58182   0.56424   -1.000
 3494.00    0.60088   0.56413   -1.000
 3495.00    0.59676   0.55564   -1.000
 3496.00    0.56294   0.54666   -1.000
 3497.00    0.54389   0.54994  346.845
 3498.00    0.52161   0.56540   -1.000
 3499.00    0.54630   0.58246   -1.000
 3500.00    0.61170   0.58892   -1.000
 3501.00    0.63634   0.58995   -1.000
 3502.00    0.64946   0.59522   -1.000
 3503.00    0.65472   0.59969   -1.000
 3504.00    0.63568   0.59633   -1.000
 3505.00    0.62531   0.58603   -1.000
 3506.00    0.60660   0.57715   -1.000
 3507.00    0.57037   0.57478  346.845
 3508.00    0.58908   0.57475   -1.000
 3509.00    0.61399   0.57245   -1.000
 3510.00    0.58224   0.56707   -1.000
 3511.00    0.53210   0.56007   -1.000
 3512.00    0.53510   0.55111   -1.000
 3513.00    0.57535   0.54249   -1.000
 3514.00    0.59994   0.54290   -1.000
 3515.00    0.60109   0.55818   -1.000
 3516.00    0.60376   0.58500   -1.000
 3517.00    0.60620   0.60646  346.845
 3518.00    0.61407   0.61120  346.845
 3519.00    0.63043   0.59804   -1.000
 3520.00    0.60298   0.57848   -1.000
 3521.00    0.58105   0.56137   -1.000
 3522.00    0.59019   0.54887   -1.000
 3523.00    0.56933   0.53668   -1.000
 3524.00    0.54567   0.52380   74.180
 3525.00    0.54838   0.51606   45.142
 3526.00    0.55805   0.52432   45.702
 3527.00    0.57462   0.54509   89.523
 3528.00    0.56439   0.57083  346.845
 3529.00    0.58839   0.59038  346.845
 3530.00    0.62385   0.59817   -1.000
 3531.00    0.63417   0.59722   -1.000
 3532.00    0.63532   0.59281   -1.000
 3533.00    0.61037   0.58796   -1.000
 3534.00    0.58429   0.58737  346.845
 3535.00    0.60869   0.59190   -1.000
 3536.00    0.63059   0.60099   -1.000
 3537.00    0.61869   0.61194  346.845
 3538.00    0.61762   0.62216  346.845
 3539.00    0.63095   0.62788  346.845
 3540.00    0.64364   0.62642   -1.000
 3541.00    0.63631   0.62118   -1.000
 3542.00    0.62772   0.62008  346.845
 3543.00    0.62283   0.62595  346.845
 3544.00    0.61155   0.63254   -1.000
 3545.00    0.60831   0.63320   -1.000
 3546.00    0.63595   0.62809  346.845
 3547.00    0.66190   0.62340   -1.000
 3548.00    0.65031   0.62307   -1.000
 3549.00    0.61571   0.62587   -1.000
 3550.00    0.60244   0.62786   -1.000
 3551.00    0.59199   0.62563   -1.000
 3552.00    0.58538   0.61678   -1.000
 3553.00    0.59273   0.60537   -1.000
 3554.00    0.58326   0.59940   -1.000
 3555.00    0.58741   0.60152   -1.000
 3556.00    0.62572   0.60752   -1.000
 3557.00    0.61514   0.61291  346.845
 3558.00    0.57758   0.61403   -1.000
 3559.00    0.58077   0.61343   -1.000
 3560.00    0.58194   0.61658   -1.000
 3561.00    0.57086   0.62356   -1.000
 3562.00    0.58978   0.62627   -1.000
 3563.00    0.60634   0.61450  346.845
 3564.00    0.58035   0.58852   -1.000
 3565.00    0.55976   0.56199   75.229
 3566.00    0.53690   0.54921   45.709
 3567.00    0.52208   0.54806   46.256
 3568.00    0.51847   0.54794   45.863
 3569.00    0.49369   0.54076   46.601
 3570.00    0.48607   0.53030   47.805
 3571.00    0.52726   0.52696   47.350
 3572.00    0.52905   0.53371   45.495
 3573.00    0.52476   0.54270   86.948
 3574.00    0.56318   0.55009   -1.000
 3575.00    0.55408   0.55682  346.845
 3576.00    0.55143   0.56192   -1.000
 3577.00    0.57093   0.56224  346.845
 3578.00    0.55918   0.55594  346.845
 3579.00    0.52925   0.54055   78.102
 3580.00    0.51554   0.52307   48.168
 3581.00    0.50926   0.51043   51.377
 3582.00    0.49715   0.50725   52.827
 3583.00    0.48933   0.51071   53.087
 3584.00    0.49238   0.50844   53.918
 3585.00    0.48754   0.49664   55.517
 3586.00    0.46912   0.48510   56.781
 3587.00    0.45440   0.48501   55.511
 3588.00    0.47223   0.49966   52.598
 3589.00    0.51022   0.52530   49.940
 3590.00    0.54185   0.55292   46.348
 3591.00    0.54126   0.57314   85.961
 3592.00    0.55921   0.58092   -1.000
 3593.00    0.60559   0.58304   -1.000
 3594.00    0.60778   0.58851   -1.000
 3595.00    0.62209   0.60089   -1.000
 3596.00    0.65226   0.61491   -1.000
 3597.00    0.66270   0.62462   -1.000
 3598.00    0.64307   0.63152   -1.000
 3599.00    0.62507   0.63634   -1.000
 3600.00    0.61769   0.63357   -1.000
 3601.00    0.61099   0.61805  344.873
 3602.00    0.59733   0.59744  346.845
 3603.00    0.57084   0.58022   -1.000
 3604.00    0.55576   0.57398   -1.000
 3605.00    0.56161   0.57550   -1.000
 3606.00    0.56779   0.57508  346.845
 3607.00    0.57459   0.56856  346.845
 3608.00    0.57609   0.55885   -1.000
 3609.00    0.56017   0.55397  346.845
 3610.00    0.55026   0.55787   -1.000
 3611.00    0.56291   0.56769  346.845
 3612.00    0.58406   0.57777  346.845
 3613.00    0.59583   0.58673  346.845
 3614.00    0.59006   0.59787   -1.000
 3615.00    0.57361   0.60989   -1.000
 3616.00    0.57421   0.60847   -1.000
 3617.00    0.58774   0.58803  346.845
 3618.00    0.55307   0.56174   -1.000
 3619.00    0.51891   0.55145   75.277
 3620.00    0.53620   0.56368   84.843
 3621.00    0.58494   0.58872  346.845
 3622.00    0.61508   0.61093  346.845
 3623.00    0.61967   0.62421  346.845
 3624.00    0.63186   0.63603  345.090
 3625.00    0.64889   0.65522   -1.000
 3626.00    0.66489   0.67754   -1.000
 3627.00    0.66793   0.69145   -1.000
 3628.00    0.63997   0.68270   -1.000
 3629.00    0.61759   0.64984   -1.000
 3630.00    0.59733   0.60635   -1.000
 3631.00    0.55806   0.57660   -1.000
 3632.00    0.53373   0.57063   -1.000
 3633.00    0.55471   0.58375   -1.000
 3634.00    0.57338   0.60062   -1.000
 3635.00    0.57987   0.61032   -1.000
 3636.00    0.59078   0.61558   -1.000
 3637.00    0.60061   0.62737   -1.000
 3638.00    0.65116   0.64487  338.054
 3639.00    0.66811   0.65973  324.977
 3640.00    0.65970   0.66541  319.835
 3641.00    0.66272   0.65858  324.099
 3642.00    0.62810   0.64174   -1.000
 3643.00    0.59100   0.62258   -1.000
 3644.00    0.58515   0.60721   -1.000
 3645.00    0.58678   0.59757   -1.000
 3646.00    0.57704   0.59088   -1.000
 3647.00    0.56872   0.58622   -1.000
 3648.00    0.58286   0.58686  346.845
 3649.00    0.61520   0.59300   -1.000
 3650.00    0.62356   0.60562   -1.000
 3651.00    0.62439   0.62348  346.845
 3652.00    0.64801   0.64308  335.726
 3653.00    0.64833   0.65738   -1.000
 3654.00    0.65263   0.66767   -1.000
 3655.00    0.68163   0.67715  316.239
 3656.00    0.69950   0.68684   -1.000
 3657.00    0.71990   0.69485   -1.000
 3658.00    0.73938   0.69855   -1.000
 3659.00    0.68861   0.69863   -1.000
 3660.00    0.64026   0.69450   -1.000
 3661.00    0.65040   0.68588   -1.000
 3662.00    0.66539   0.67516   -1.000
 3663.00    0.66802   0.66788  313.508
 3664.00    0.66286   0.66701  317.299
 3665.00    0.67306   0.66989  316.251
 3666.00    0.66430   0.67073  314.540
 3667.00    0.64516   0.66568   -1.000
 3668.00    0.64834   0.65541  323.325
 3669.00    0.64706   0.64786  329.259
 3670.00    0.62335   0.65065   -1.000
 3671.00    0.62499   0.66238   -1.000
 3672.00    0.65408   0.67471   -1.000
 3673.00    0.67398   0.68079  311.293
 3674.00    0.66899   0.67912   -1.000
 3675.00    0.66931   0.67086  311.164
 3676.00    0.65813   0.65640  316.688
 3677.00    0.62382   0.63821   -1.000
 3678.00    0.61399   0.62215   -1.000
 3679.00    0.61596   0.61494  346.021
 3680.00    0.61074   0.61798   -1.000
 3681.00    0.62198   0.62797  343.967
 3682.00    0.63918   0.63873  334.349
 3683.00    0.63835   0.64299  328.234
 3684.00    0.64241   0.63718  331.178
 3685.00    0.63454   0.62279   -1.000
 3686.00    0.59793   0.60781   -1.000
 3687.00    0.57022   0.60438   -1.000
 3688.00    0.58762   0.61775   -1.000
 3689.00    0.63261   0.64378   -1.000
 3690.00    0.67274   0.66911  322.775
 3691.00    0.68350   0.68271  307.742
 3692.00    0.66496   0.68162   -1.000
 3693.00    0.66703   0.67351  310.551
 3694.00    0.66524   0.66761  316.912
 3695.00    0.64905   0.66576   -1.000
 3696.00    0.65274   0.66643   -1.000
 3697.00    0.67502   0.67204  312.457
 3698.00    0.68168   0.68702  305.078
 3699.00    0.68508   0.70598   -1.000
 3700.00    0.71437   0.71849  290.664
 3701.00    0.71794   0.70995  291.877
 3702.00    0.66906   0.67705  301.740
 3703.00    0.62658   0.63091  323.448
 3704.00    0.61324   0.59074   -1.000
 3705.00    0.58043   0.56970   -1.000
 3706.00    0.56645   0.57114  346.845
 3707.00    0.60144   0.58309   -1.000
 3708.00    0.61738   0.59565   -1.000
 3709.00    0.63800   0.60463   -1.000
 3710.00    0.65420   0.61196   -1.000
 3711.00    0.64326   0.62251   -1.000
 3712.00    0.66366   0.64181   -1.000
 3713.00    0.69200   0.66815   -1.000
 3714.00    0.69630   0.69359  290.484
 3715.00    0.73610   0.70849   -1.000
 3716.00    0.75316   0.70700   -1.000
 3717.00    0.71035   0.68865   -1.000
 3718.00    0.64274   0.65230  322.595
 3719.00    0.57354   0.59860   -1.000
 3720.00    0.52785   0.54420   -1.000
 3721.00    0.51444   0.51736   78.272
 3722.00    0.51624   0.52792   84.576
 3723.00    0.56032   0.56797   -1.000
 3724.00    0.61148   0.61917  346.845
 3725.00    0.60105   0.65519   -1.000
 3726.00    0.56885   0.66464   -1.000
 3727.00    0.54093   0.66255   -1.000
 3728.00    0.51041   0.66391   -1.000
 3729.00    0.49620   0.66783   -1.000
 3730.00    0.53153   0.66274   -1.000
 3731.00    0.59454   0.63420   -1.000
 3732.00    0.58857   0.58157  346.845
 3733.00    0.52490   0.52596   76.345
 3734.00    0.52350   0.48404   46.777
 3735.00    0.53118   0.47128   50.425
 3736.00    0.54915   0.49281   49.907
 3737.00    0.58950   0.53966   46.168
 3738.00    0.59649   0.59448   82.206
 3739.00    0.62914   0.64649   -1.000
 3740.00    0.66588   0.67905   -1.000
 3741.00    0.66086   0.68507   -1.000
 3742.00    0.64640   0.66790   -1.000
 3743.00    0.64603   0.64129  346.845
 3744.00    0.64650   0.61488   -1.000
 3745.00    0.63026   0.59328   -1.000
 3746.00    0.59161   0.57069   -1.000
 3747.00    0.55182   0.54102   78.234
 3748.00    0.51843   0.50988   46.225
 3749.00    0.49022   0.49094   47.923
 3750.00    0.50148   0.50124   89.802
 3751.00    0.55718   0.54338   -1.000
 3752.00    0.62903   0.60060   -1.000
 3753.00    0.67507   0.65619   -1.000
 3754.00    0.69432   0.69730  307.009
 3755.00    0.71344   0.71252  296.325
 3756.00    0.70381   0.69827  302.327
 3757.00    0.67147   0.66379  331.300
 3758.00    0.65527   0.63074   -1.000
 3759.00    0.64621   0.61847   -1.000
 3760.00    0.62523   0.62522  346.845
 3761.00    0.64015   0.63986  346.845
 3762.00    0.68536   0.65199   -1.000
 3763.00    0.69366   0.65784   -1.000
 3764.00    0.68115   0.65759   -1.000
 3765.00    0.67626   0.65052   -1.000
 3766.00    0.66326   0.63721   -1.000
 3767.00    0.66313   0.62034   -1.000
 3768.00    0.63992   0.60062   -1.000
 3769.00    0.60687   0.58192   -1.000
 3770.00    0.62147   0.57266   -1.000
 3771.00    0.64165   0.58444   -1.000
 3772.00    0.65714   0.61691   -1.000
 3773.00    0.66655   0.65459   -1.000
 3774.00    0.68468   0.68001  306.340
 3775.00    0.71045   0.69222   -1.000
 3776.00    0.71735   0.70011   -1.000
 3777.00    0.73922   0.71226   -1.000
 3778.00    0.76193   0.73065   -1.000
 3779.00    0.76304   0.74990   -1.000
 3780.00    0.75851   0.76559  285.898
 3781.00    0.76108   0.77410   -1.000
 3782.00    0.80243   0.77629   -1.000
 3783.00    0.82994   0.77281   -1.000
 3784.00    0.80724   0.76103   -1.000
 3785.00    0.76591   0.73898   -1.000
 3786.00    0.73592   0.71218   -1.000
 3787.00    0.71145   0.68761   -1.000
 3788.00    0.68989   0.67306   -1.000
 3789.00    0.67861   0.67162   -1.000
 3790.00    0.67689   0.67704  342.979
 3791.00    0.69119   0.68031   -1.000
 3792.00    0.69190   0.67440   -1.000
 3793.00    0.66583   0.65506   -1.000
 3794.00    0.63519   0.62627   -1.000
 3795.00    0.60877   0.59280   -1.000
 3796.00    0.57029   0.55763   -1.000
 3797.00    0.53340   0.52570  346.845
 3798.00    0.51905   0.51358  346.845
 3799.00    0.55089   0.53700   -1.000
 3800.00    0.62057   0.59176   -1.000
 3801.00    0.68145   0.65190   -1.000
 3802.00    0.69966   0.69900  326.090
 3803.00    0.70074   0.72486   -1.000
 3804.00    0.71398   0.73338   -1.000
 3805.00    0.72553   0.72772  313.236
 3806.00    0.72953   0.71674   -1.000
 3807.00    0.71991   0.71523  331.132
 3808.00    0.72571   0.72832  329.450
 3809.00    0.75461   0.74853  318.376
 3810.00    0.77188   0.76219   -1.000
 3811.00    0.75754   0.75636  312.219
 3812.00    0.73771   0.72989   -1.000
 3813.00    0.70771   0.69571   -1.000
 3814.00    0.65446   0.66718   -1.000
 3815.00    0.62408   0.65708   -1.000
 3816.00    0.62676   0.66523   -1.000
 3817.00    0.66094   0.67706   -1.000
 3818.00    0.67386   0.67522  346.845
 3819.00    0.63340   0.65637   -1.000
 3820.00    0.62521   0.63810   -1.000
 3821.00    0.65504   0.63649   -1.000
 3822.00    0.67171   0.64844   -1.000
 3823.00    0.67257   0.65092   -1.000
 3824.00    0.62094   0.63290   -1.000
 3825.00    0.58759   0.60950   82.048
 3826.00    0.59920   0.59487   46.761
 3827.00    0.58404   0.59135   47.019
 3828.00    0.56565   0.59275   46.411
 3829.00    0.57808   0.59153   45.649
 3830.00    0.59544   0.58256   45.585
 3831.00    0.57907   0.56222   46.951
 3832.00    0.53525   0.53046   49.949
 3833.00    0.50315   0.49341   52.710
 3834.00    0.50636   0.46627   52.891
 3835.00    0.51942   0.45878   -1.000
 3836.00    0.52417   0.46870   49.641
 3837.00    0.51756   0.48882   49.679
 3838.00    0.51880   0.51183   50.845
 3839.00    0.53214   0.53668   50.951
 3840.00    0.55602   0.56724   48.936
 3841.00    0.61290   0.60592   86.992
 3842.00    0.67293   0.64591   -1.000
 3843.00    0.69969   0.68112   -1.000
 3844.00    0.70887   0.70389  346.845
 3845.00    0.71128   0.71555  346.845
 3846.00    0.72058   0.72316  346.845
 3847.00    0.72319   0.72851  346.845
 3848.00    0.70574   0.72680   -1.000
 3849.00    0.70346   0.71971   -1.000
 3850.00    0.70457   0.71611   -1.000
 3851.00    0.70066   0.72350   -1.000
 3852.00    0.71022   0.73597   -1.000
 3853.00    0.72701   0.74199   -1.000
 3854.00    0.74157   0.73559  346.845
 3855.00    0.71324   0.72237  346.845
 3856.00    0.68108   0.70748   -1.000
 3857.00    0.66751   0.69151   -1.000
 3858.00    0.63249   0.67586   -1.000
 3859.00    0.62350   0.66878   45.187
 3860.00    0.64059   0.67798   46.033
 3861.00    0.67316   0.70301   82.799
 3862.00    0.71392   0.73006   -1.000
 3863.00    0.72894   0.74411   -1.000
 3864.00    0.73739   0.74362  346.845
 3865.00    0.74997   0.73792   -1.000
 3866.00    0.76545   0.73507   -1.000
 3867.00    0.76950   0.73622   -1.000
 3868.00    0.74540   0.73645   -1.000
 3869.00    0.71990   0.72854  346.845
 3870.00    0.68226   0.71076   -1.000
 3871.00    0.63464   0.69098   -1.000
 3872.00    0.64359   0.67878   81.219
 3873.00    0.67472   0.68366   -1.000
 3874.00    0.69639   0.70294  346.845
 3875.00    0.71973   0.71964  346.845
 3876.00    0.71586   0.71626  346.731
 3877.00    0.69043   0.69645  346.845
 3878.00    0.65091   0.67920   -1.000
 3879.00    0.63035   0.67563   -1.000
 3880.00    0.65067   0.68172   -1.000
 3881.00    0.66482   0.68515   -1.000
 3882.00    0.65676   0.68194   -1.000
 3883.00    0.65516   0.67668   -1.000
 3884.00    0.66874   0.66393  346.845
 3885.00    0.66019   0.63386   -1.000
 3886.00    0.61578   0.59018   -1.000
 3887.00    0.57380   0.54728   -1.000
 3888.00    0.55080   0.52420   -1.000
 3889.00    0.54600   0.53249   -1.000
 3890.00    0.58240   0.57192  346.845
 3891.00    0.64511   0.62790   -1.000
 3892.00    0.68170   0.67541  302.778
 3893.00    0.68638   0.69848   -1.000
 3894.00    0.69603   0.70556   -1.000
 3895.00    0.72586   0.71200   -1.000
 3896.00    0.74051   0.72333   -1.000
 3897.00    0.74308   0.73516  291.094
 3898.00    0.74550   0.74070  289.937
 3899.00    0.74620   0.74125  294.861
 3900.00    0.74750   0.74554  294.687
 3901.00    0.76339   0.75291  291.129
 3902.00    0.76853   0.75505   -1.000
 3903.00    0.74540   0.74820  299.137
 3904.00    0.74502   0.73593   -1.000
 3905.00    0.74571   0.72910   -1.000
 3906.00    0.73694   0.73529  321.048
 3907.00    0.75151   0.75732  309.614
 3908.00    0.77665   0.78727  289.759
 3909.00    0.82165   0.81181  276.745
 3910.00    0.85600   0.82468   -1.000
 3911.00    0.83650   0.83034  269.952
 3912.00    0.83661   0.83050  267.875
 3913.00    0.83887   0.82373   -1.000
 3914.00    0.81158   0.81272  273.229
 3915.00    0.79028   0.80389   -1.000
 3916.00    0.77514   0.79797   -1.000
 3917.00    0.78009   0.79013  288.053
 3918.00    0.78023   0.77631  294.247
 3919.00    0.75465   0.75833  305.195
 3920.00    0.74583   0.74348  319.377
 3921.00    0.75578   0.73661   -1.000
 3922.00    0.77140   0.73903   -1.000
 3923.00    0.76558   0.74471   -1.000
 3924.00    0.75643   0.74437   -1.000
 3925.00    0.73516   0.73181  335.036
 3926.00    0.67494   0.70352   -1.000
 3927.00    0.61902   0.66367   -1.000
 3928.00    0.56175   0.61604   -1.000
 3929.00    0.51157   0.56471   52.860
 3930.00    0.46087   0.50666   61.919
 3931.00    0.40350   0.43817   72.832
 3932.00    0.33835   0.36721   85.741
 3933.00    0.29154   0.31819   97.073
 3934.00    0.29989   0.31976   99.253
 3935.00    0.34046   0.36949   90.153
 3936.00    0.39740   0.44187   -1.000
 3937.00    0.47011   0.51697   -1.000
 3938.00    0.53891   0.58754   52.145
 3939.00    0.59476   0.64354   -1.000
 3940.00    0.64746   0.68296   -1.000
 3941.00    0.68397   0.70432   -1.000
 3942.00    0.68099   0.71105   -1.000
 3943.00    0.67440   0.71354   -1.000
 3944.00    0.70395   0.72340   -1.000
 3945.00    0.74933   0.74165  338.977
 3946.00    0.78278   0.76095   -1.000
 3947.00    0.78158   0.77296  303.160
 3948.00    0.76726   0.77799   -1.000
 3949.00    0.77858   0.78339  293.808
 3950.00    0.80310   0.78930   -1.000
 3951.00    0.80201   0.79035   -1.000
 3952.00    0.78006   0.79132   -1.000
 3953.00    0.79458   0.79790  281.964
 3954.00    0.81865   0.80365   -1.000
 3955.00    0.80838   0.80069  273.845
 3956.00    0.79227   0.79030  280.507
 3957.00    0.77940   0.78214  288.041
 3958.00    0.78001   0.78080  287.637
 3959.00    0.78020   0.77238  288.335
 3960.00    0.73281   0.74340   -1.000
 3961.00    0.66549   0.70269   -1.000
 3962.00    0.63410   0.66229   -1.000
 3963.00    0.61084   0.62835   -1.000
 3964.00    0.56624   0.59114   83.925
 3965.00    0.50158   0.53462   49.733
 3966.00    0.43026   0.45679   59.749
 3967.00    0.36475   0.37181   73.484
 3968.00    0.30294   0.31260   85.737
 3969.00    0.27369   0.30323   86.785
 3970.00    0.32608   0.34400   75.517
 3971.00    0.41262   0.41634   62.086
 3972.00    0.46938   0.49879   51.511
 3973.00    0.54840   0.57327   83.778
 3974.00    0.63180   0.63695  346.845
 3975.00    0.68782   0.68915  341.712
 3976.00    0.74516   0.73273   -1.000
 3977.00    0.79859   0.76978   -1.000
 3978.00    0.82317   0.80237   -1.000
 3979.00    0.84258   0.82865   -1.000
 3980.00    0.86194   0.84044   -1.000
 3981.00    0.86127   0.83965   -1.000
 3982.00    0.85602   0.83492   -1.000
 3983.00    0.85524   0.83603   -1.000
 3984.00    0.86805   0.84735   -1.000
 3985.00    0.88518   0.86201   -1.000
 3986.00    0.89517   0.87383   -1.000
 3987.00    0.90333   0.88503   -1.000
 3988.00    0.91517   0.89573   -1.000
 3989.00    0.92412   0.90078   -1.000
 3990.00    0.91901   0.90487   -1.000
 3991.00    0.93481   0.91334   -1.000
 3992.00    0.96226   0.92422   -1.000
 3993.00    0.96103   0.93000   -1.000
 3994.00    0.95068   0.92462   -1.000
 3995.00    0.93544   0.90902   -1.000
 3996.00    0.93164   0.89119   -1.000
 3997.00    0.94095   0.88467   -1.000
 3998.00    0.93279   0.89435   -1.000
 3999.00    0.93342   0.91449   -1.000
 4000.00    0.96982   0.93426   -1.000
 4001.00    0.99321   0.94794   -1.000
 4002.00    1.00239   0.95045   -1.000
 4003.00    0.97777   0.93752   -1.000
 4004.00    0.94420   0.91084   -1.000
 4005.00    0.92638   0.88713   -1.000
 4006.00    0.90466   0.88648   -1.000
 4007.00    0.92856   0.90890   -1.000
 4008.00    0.95920   0.93792   -1.000
 4009.00    0.94884   0.95646  215.947
 4010.00    0.97747   0.96406  213.447
 4011.00    0.99181   0.96647   -1.000
 4012.00    0.96965   0.96717  212.392
 4013.00    0.98286   0.96941  213.773
 4014.00    1.00011   0.97403   -1.000
 4015.00    1.00376   0.97793   -1.000
 4016.00    0.98989   0.97898  210.542
 4017.00    0.98977   0.98062  212.846
 4018.00    1.01268   0.98686   -1.000
 4019.00    1.03037   0.99471   -1.000
 4020.00    1.03459   0.99845   -1.000
 4021.00    1.02633   0.99435   -1.000
 4022.00    0.98766   0.98570  214.072
 4023.00    0.97833   0.97569  215.370
 4024.00    0.99366   0.96802   -1.000
 4025.00    1.00000   0.96985   -1.000
 4026.00    1.02345   0.98495   -1.000
 4027.00    1.04991   1.00303   -1.000
 4028.00    1.04042   1.00473   -1.000
 4029.00    0.98580   0.98189  206.554
 4030.00    0.93777   0.94574  218.006
 4031.00    0.93091   0.91610   -1.000
 4032.00    0.94952   0.90325   -1.000
 4033.00    0.96140   0.90801   -1.000
 4034.00    0.96699   0.92816   -1.000
 4035.00    0.99944   0.96049   -1.000
 4036.00    1.02674   0.99715   -1.000
 4037.00    1.04198   1.02772  201.221
 4038.00    1.05901   1.03895   -1.000
 4039.00    1.06382   1.03199   -1.000
 4040.00    1.06547   1.01985   -1.000
 4041.00    1.05440   1.01119   -1.000
 4042.00    1.03373   0.99805   -1.000
 4043.00    1.01830   0.96620   -1.000
 4044.00    0.97084   0.91865   -1.000
 4045.00    0.92240   0.88426   -1.000
 4046.00    0.92001   0.89004   -1.000
 4047.00    0.96027   0.93221   -1.000
 4048.00    0.99911   0.98075   -1.000
 4049.00    1.01670   1.01386  208.028
 4050.00    1.04028   1.02535  203.958
 4051.00    1.04358   1.02322   -1.000
 4052.00    1.02521   1.01223  207.076
 4053.00    1.00098   0.99706  212.707
 4054.00    0.98700   0.98483  217.127
 4055.00    0.99051   0.97658   -1.000
 4056.00    0.98594   0.96976   -1.000
 4057.00    0.98863   0.96723   -1.000
 4058.00    1.00646   0.97625   -1.000
 4059.00    1.01599   0.99458   -1.000
 4060.00    1.03572   1.00411   -1.000
 4061.00    1.03787   0.98767   -1.000
 4062.00    0.98179   0.95017   -1.000
 4063.00    0.92221   0.91779  236.617
 4064.00    0.92056   0.90548   -1.000
 4065.00    0.95535   0.91246   -1.000
 4066.00    0.98938   0.93252   -1.000
 4067.00    0.99602   0.95321   -1.000
 4068.00    1.00218   0.96755   -1.000
 4069.00    1.02387   0.96931   -1.000
 4070.00    1.01490   0.95360   -1.000
 4071.00    0.99169   0.93310   -1.000
 4072.00    0.98060   0.92951   -1.000
 4073.00    0.98669   0.94232   -1.000
 4074.00    0.99451   0.95074   -1.000
 4075.00    0.96881   0.93535   -1.000
 4076.00    0.91336   0.90436  234.519
 4077.00    0.87047   0.88409   -1.000
 4078.00    0.88661   0.89137  247.851
 4079.00    0.94152   0.92677   -1.000
 4080.00    1.00192   0.96899   -1.000
 4081.00    1.04539   0.99460   -1.000
 4082.00    1.04172   0.99438   -1.000
 4083.00    1.00023   0.97851   -1.000
 4084.00    0.99423   0.96514   -1.000
 4085.00    1.01632   0.96737   -1.000
 4086.00    1.01860   0.98628   -1.000
 4087.00    1.03819   1.01150   -1.000
 4088.00    1.07325   1.03008   -1.000
 4089.00    1.08851   1.03327   -1.000
 4090.00    1.08529   1.02391   -1.000
 4091.00    1.06086   1.01187   -1.000
 4092.00    1.03922   1.00275   -1.000
 4093.00    1.03811   0.99152   -1.000
 4094.00    1.02599   0.97391   -1.000
 4095.00    1.00005   0.94855   -1.000
 4096.00    0.97875   0.92111   -1.000
 4097.00    0.94842   0.89528   -1.000
 4098.00    0.92216   0.86334   -1.000
 4099.00    0.88105   0.81531   -1.000
 4100.00    0.79138   0.75480   -1.000
 4101.00    0.71524   0.70918  275.812
 4102.00    0.71292   0.70622  282.528
 4103.00    0.77496   0.75376   -1.000
 4104.00    0.87001   0.82651   -1.000
 4105.00    0.94104   0.89197   -1.000
 4106.00    0.97612   0.93183   -1.000
 4107.00    0.98727   0.95031   -1.000
 4108.00    0.97695   0.95554   -1.000
 4109.00    0.97954   0.95498   -1.000
 4110.00    0.97976   0.95635   -1.000
 4111.00    0.97875   0.96435   -1.000
 4112.00    1.00416   0.97900   -1.000
 4113.00    1.01839   0.99733   -1.000
 4114.00    1.03769   1.01563   -1.000
 4115.00    1.06727   1.02771   -1.000
 4116.00    1.06277   1.02698   -1.000
 4117.00    1.02746   1.01365   -1.000
 4118.00    0.98725   0.99597  216.918
 4119.00    0.99628   0.98424  221.991
 4120.00    1.03631   0.98467   -1.000
 4121.00    1.03041   0.99110   -1.000
 4122.00    1.00158   0.99727  218.154
 4123.00    1.00501   1.00434  217.157
 4124.00    1.02672   1.01351  214.008
 4125.00    1.04517   1.02006   -1.000
 4126.00    1.03336   1.01770   -1.000
 4127.00    1.01428   1.00835  216.573
 4128.00    1.02467   1.00037   -1.000
 4129.00    1.01286   0.99574   -1.000
 4130.00    0.99997   0.98630   -1.000
 4131.00    0.98348   0.96959   -1.000
 4132.00    0.95346   0.95469  235.462
 4133.00    0.97215   0.95621   -1.000
 4134.00    1.01231   0.97706   -1.000
 4135.00    1.01742   1.00639  225.791
 4136.00    1.02826   1.03346  216.303
 4137.00    1.06581   1.05376  211.082
 4138.00    1.08757   1.06797   -1.000
 4139.00    1.09146   1.07373   -1.000
 4140.00    1.07487   1.06217  207.408
 4141.00    1.02177   1.02984  214.983
 4142.00    0.95080   0.98802   -1.000
 4143.00    0.92871   0.96043   -1.000
 4144.00    0.95534   0.96374  247.872
 4145.00    0.99829   0.99209  235.427
 4146.00    1.04652   1.02260   -1.000
 4147.00    1.05766   1.03550   -1.000
 4148.00    1.03888   1.03236  219.457
 4149.00    1.02853   1.02582  224.744
 4150.00    1.02211   1.02380  229.405
 4151.00    1.02577   1.02398  229.971
 4152.00    1.02895   1.02003  228.377
 4153.00    1.05888   1.01104   -1.000
 4154.00    1.28085   1.00253   -1.000
 4155.00    1.33629   1.00119   -1.000
 4156.00    0.86111   1.00937   -1.000
 4157.00    0.71819   1.02427   -1.000
 4158.00    1.06140   1.04236   -1.000
 4159.00    1.11448   1.05750   -1.000
 4160.00    1.05191   1.06658   -1.000
 4161.00    1.07166   1.07214  216.214
 4162.00    1.07599   1.07731  211.533
 4163.00    1.06364   1.08173   -1.000
 4164.00    1.06040   1.08165   -1.000
 4165.00    1.06144   1.07426  216.865
 4166.00    1.06074   1.06117  220.900
 4167.00    1.06583   1.05172   -1.000
 4168.00    1.06372   1.05048   -1.000
 4169.00    1.06620   1.05062   -1.000
 4170.00    1.05847   1.03743   -1.000
 4171.00    1.01494   1.00686  229.871
 4172.00    0.95235   0.97651   -1.000
 4173.00    0.92251   0.96550   -1.000
 4174.00    0.95771   0.97685   -1.000
 4175.00    1.00524   0.99651  238.536
 4176.00    1.01983   1.00792   -1.000
 4177.00    1.00103   1.01238  234.738
 4178.00    0.99318   1.01825   -1.000
 4179.00    1.02038   1.02776  232.609
 4180.00    1.04010   1.03501  229.580
 4181.00    1.02356   1.03371  228.562
 4182.00    1.00950   1.03234   -1.000
 4183.00    1.02916   1.04061  223.949
 4184.00    1.05488   1.05053  219.656
 4185.00    1.05391   1.05008  217.818
 4186.00    1.03241   1.03700  221.617
 4187.00    1.01256   1.02386  228.768
 4188.00    1.00509   1.02366   -1.000
 4189.00    1.01722   1.03314   -1.000
 4190.00    1.04318   1.04273  223.908
 4191.00    1.04871   1.04996  221.839
 4192.00    1.05589   1.05807  217.923
 4193.00    1.08098   1.06463   -1.000
 4194.00    1.07544   1.05917   -1.000
 4195.00    1.03733   1.03645  224.554
 4196.00    1.00470   1.00777  234.459
 4197.00    0.97757   0.98455  240.366
 4198.00    0.96369   0.97124  242.722
 4199.00    0.98590   0.96696   -1.000
 4200.00    0.99683   0.97092   -1.000
 4201.00    0.99778   0.97854   -1.000
 4202.00    1.01075   0.98781   -1.000
 4203.00    1.01608   1.00281  232.346
 4204.00    1.01991   1.02313  229.600
 4205.00    1.01885   1.04210   -1.000
 4206.00    1.04741   1.05811  221.502
 4207.00    1.07311   1.07032  216.526
 4208.00    1.07383   1.07487  213.864
 4209.00    1.05365   1.07366   -1.000
 4210.00    1.04457   1.07340   -1.000
 4211.00    1.05089   1.07825   -1.000
 4212.00    1.04867   1.08168   -1.000
 4213.00    1.04228   1.06992   -1.000
 4214.00    1.00345   1.04500   -1.000
 4215.00    0.95485   1.02529   -1.000
 4216.00    0.97270   1.02580   -1.000
 4217.00    1.02971   1.05069   -1.000
 4218.00    1.07940   1.08220  209.468
 4219.00    1.11382   1.10491  201.970
 4220.00    1.12838   1.11274  198.096
 4221.00    1.11860   1.10520  197.928
 4222.00    1.08293   1.07950  202.849
 4223.00    1.03060   1.03283  214.172
 4224.00    0.96552   0.96958  232.287
 4225.00    0.89088   0.91068   -1.000
 4226.00    0.83368   0.88034   -1.000
 4227.00    0.84946   0.90116   -1.000
 4228.00    0.94470   0.96714   -1.000
 4229.00    1.03440   1.04198  229.436
 4230.00    1.08318   1.08465  211.803
 4231.00    1.09690   1.09048  205.522
 4232.00    1.07007   1.07573  207.116
 4233.00    1.05467   1.05507  212.340
 4234.00    1.05139   1.03778  216.278
 4235.00    1.02513   1.03012  219.736
 4236.00    0.99221   1.02927   -1.000
 4237.00    0.98999   1.03430   -1.000
 4238.00    1.00042   1.04678   -1.000
 4239.00    1.02803   1.06262   -1.000
 4240.00    1.05746   1.07932   -1.000
 4241.00    1.05341   1.09521   -1.000
 4242.00    1.07375   1.10819   -1.000
 4243.00    1.09569   1.11893   -1.000
 4244.00    1.09168   1.12508   -1.000
 4245.00    1.08571   1.11820   -1.000
 4246.00    1.05921   1.09393   -1.000
 4247.00    1.02370   1.06279   -1.000
 4248.00    1.01012   1.03819   -1.000
 4249.00    0.99813   1.02839   -1.000
 4250.00    0.99032   1.03291   -1.000
 4251.00    1.03317   1.04782   -1.000
 4252.00    1.06613   1.06061  217.692
 4253.00    1.05112   1.06125  215.093
 4254.00    1.02974   1.05626   -1.000
 4255.00    1.04395   1.06174   -1.000
 4256.00    1.07540   1.07886  214.668
 4257.00    1.08624   1.08549  209.298
 4258.00    1.06185   1.06667  212.386
 4259.00    1.02919   1.03694  222.574
 4260.00    1.00094   1.02344   -1.000
 4261.00    0.99054   1.04148   -1.000
 4262.00    1.04427   1.08165   -1.000
 4263.00    1.09405   1.12204   -1.000
 4264.00    1.10859   1.14471   -1.000
 4265.00    1.13918   1.14770  196.702
 4266.00    1.13242   1.13828  198.099
 4267.00    1.10609   1.11968   -1.000
 4268.00    1.08382   1.09186  209.640
 4269.00    1.05361   1.05573  216.800
 4270.00    1.01551   1.01486  228.014
 4271.00    0.97717   0.98260  242.873
 4272.00    0.96003   0.96937  251.935
 4273.00    0.94963   0.97812   -1.000
 4274.00    0.95845   1.00168   -1.000
 4275.00    0.99684   1.03505   -1.000
 4276.00    1.03903   1.07565   -1.000
 4277.00    1.07788   1.11114   -1.000
 4278.00    1.09600   1.12210   -1.000
 4279.00    1.07922   1.10915   -1.000
 4280.00    1.04775   1.08882   -1.000
 4281.00    1.02946   1.07950   -1.000
 4282.00    1.04802   1.08191   -1.000
 4283.00    1.06101   1.08361   -1.000
 4284.00    1.04417   1.07924   -1.000
 4285.00    1.01684   1.06922   -1.000
 4286.00    1.00324   1.05488   -1.000
 4287.00    0.99617   1.03494   -1.000
 4288.00    0.96479   1.00741   -1.000
 4289.00    0.91635   0.97962   -1.000
 4290.00    0.91245   0.97103   -1.000
 4291.00    0.96021   0.99045   -1.000
 4292.00    1.00457   1.02220   -1.000
 4293.00    1.02162   1.04040   -1.000
 4294.00    1.01326   1.03837   -1.000
 4295.00    0.99226   1.02696   -1.000
 4296.00    0.97165   1.00923   -1.000
 4297.00    0.93379   0.97909   -1.000
 4298.00    0.89215   0.93880   -1.000
 4299.00    0.86134   0.90020   -1.000
 4300.00    0.83189   0.87846   -1.000
 4301.00    0.81790   0.87717   -1.000
 4302.00    0.82493   0.88830   -1.000
 4303.00    0.85002   0.90218   -1.000
 4304.00    0.87157   0.91374   -1.000
 4305.00    0.87623   0.91391   -1.000
 4306.00    0.85493   0.89809   -1.000
 4307.00    0.82404   0.87617   -1.000
 4308.00    0.80942   0.86442   -1.000
 4309.00    0.81593   0.87459   -1.000
 4310.00    0.84399   0.90305   -1.000
 4311.00    0.88031   0.93768   -1.000
 4312.00    0.91182   0.96880   -1.000
 4313.00    0.94282   1.00190   -1.000
 4314.00    0.99007   1.04679   -1.000
 4315.00    1.06063   1.10396   -1.000
 4316.00    1.12714   1.16304   -1.000
 4317.00    1.17620   1.20109   -1.000
 4318.00    1.19617   1.20985   -1.000
 4319.00    1.18625   1.19806   -1.000
 4320.00    1.16842   1.17709  190.206
 4321.00    1.12539   1.14763   -1.000
 4322.00    1.08316   1.10617   -1.000
 4323.00    1.04136   1.05290   -1.000
 4324.00    0.98044   1.00362   -1.000
 4325.00    0.95055   0.98547   -1.000
 4326.00    0.98956   1.01514   -1.000
 4327.00    1.06496   1.07739   -1.000
 4328.00    1.12308   1.13654   -1.000
 4329.00    1.14033   1.16460   -1.000
 4330.00    1.12756   1.16739   -1.000
 4331.00    1.12636   1.16474   -1.000
 4332.00    1.14416   1.16805   -1.000
 4333.00    1.15792   1.17198   -1.000
 4334.00    1.16561   1.16487  187.846
 4335.00    1.14775   1.13560  189.203
 4336.00    1.09829   1.07697   -1.000
 4337.00    1.01221   0.99215   -1.000
 4338.00    0.91276   0.90095  233.306
 4339.00    0.82142   0.83592   -1.000
 4340.00    0.75460   0.81650   -1.000
 4341.00    0.77487   0.85125   -1.000
 4342.00    0.87245   0.92673   -1.000
 4343.00    0.98432   1.00893   -1.000
 4344.00    1.06664   1.06945  208.318
 4345.00    1.10340   1.10952  202.374
 4346.00    1.11549   1.13882   -1.000
 4347.00    1.12738   1.16371   -1.000
 4348.00    1.14871   1.17845   -1.000
 4349.00    1.14473   1.16846   -1.000
 4350.00    1.10698   1.13191   -1.000
 4351.00    1.05668   1.09232   -1.000
 4352.00    1.03538   1.07689   -1.000
 4353.00    1.05185   1.09693   -1.000
 4354.00    1.09840   1.13560   -1.000
 4355.00    1.13489   1.16960   -1.000
 4356.00    1.16031   1.18759   -1.000
 4357.00    1.17547   1.19043   -1.000
 4358.00    1.15464   1.18381   -1.000
 4359.00    1.13249   1.18022   -1.000
 4360.00    1.13584   1.18995   -1.000
 4361.00    1.16048   1.20889   -1.000
 4362.00    1.19209   1.22727   -1.000
 4363.00    1.21941   1.24014   -1.000
 4364.00    1.21963   1.24681   -1.000
 4365.00    1.21548   1.24235   -1.000
 4366.00    1.20715   1.22274   -1.000
 4367.00    1.16970   1.19669   -1.000
 4368.00    1.14850   1.17968   -1.000
 4369.00    1.14984   1.17412   -1.000
 4370.00    1.15799   1.17273   -1.000
 4371.00    1.14590   1.16677   -1.000
 4372.00    1.13378   1.14998   -1.000
 4373.00    1.11822   1.12288  200.745
 4374.00    1.08901   1.09729  209.128
 4375.00    1.08079   1.09410   -1.000
 4376.00    1.09711   1.12039   -1.000
 4377.00    1.13687   1.15999   -1.000
 4378.00    1.16624   1.18628   -1.000
 4379.00    1.16978   1.18805   -1.000
 4380.00    1.16697   1.16472  193.569
 4381.00    1.14848   1.11487   -1.000
 4382.00    1.08495   1.04683   -1.000
 4383.00    1.00322   0.99093  239.937
 4384.00    0.96414   0.97920   -1.000
 4385.00    1.00598   1.01674   -1.000
 4386.00    1.08532   1.07307  220.836
 4387.00    1.13038   1.11097   -1.000
 4388.00    1.12199   1.12356  203.437
 4389.00    1.11946   1.12423  204.780
 4390.00    1.13591   1.12655  206.348
 4391.00    1.14331   1.13559  204.724
 4392.00    1.15543   1.14613  200.272
 4393.00    1.15835   1.14786  198.487
 4394.00    1.13913   1.14221  201.503
 4395.00    1.12017   1.14701   -1.000
 4396.00    1.14367   1.16874   -1.000
 4397.00    1.16784   1.18867   -1.000
 4398.00    1.17166   1.18752   -1.000
 4399.00    1.16637   1.16796  194.132
 4400.00    1.13593   1.15125   -1.000
 4401.00    1.14073   1.14752  202.831
 4402.00    1.16502   1.14505   -1.000
 4403.00    1.14685   1.12831   -1.000
 4404.00    1.10433   1.10351  210.473
 4405.00    1.10477   1.09365  218.072
 4406.00    1.12576   1.10573   -1.000
 4407.00    1.11892   1.12540  209.453
 4408.00    1.12393   1.14529   -1.000
 4409.00    1.16109   1.17257   -1.000
 4410.00    1.20134   1.20962  193.961
 4411.00    1.23919   1.23890  186.444
 4412.00    1.24446   1.24047  182.123
 4413.00    1.21942   1.21371  183.402
 4414.00    1.17936   1.17307  191.243
 4415.00    1.13314   1.14088  200.659
 4416.00    1.12353   1.13981   -1.000
 4417.00    1.14277   1.16887   -1.000
 4418.00    1.19056   1.20948   -1.000
 4419.00    1.22728   1.23983   -1.000
 4420.00    1.23226   1.24782   -1.000
 4421.00    1.23477   1.23485  185.708
 4422.00    1.22507   1.21827  190.063
 4423.00    1.20333   1.21216  191.317
 4424.00    1.19454   1.21483   -1.000
 4425.00    1.20127   1.21718   -1.000
 4426.00    1.18677   1.21683   -1.000
 4427.00    1.17232   1.21870   -1.000
 4428.00    1.16724   1.22227   -1.000
 4429.00    1.16340   1.22413   -1.000
 4430.00    1.18284   1.22442   -1.000
 4431.00    1.20058   1.22542   -1.000
 4432.00    1.18894   1.22247   -1.000
 4433.00    1.17145   1.20602   -1.000
 4434.00    1.14352   1.18194   -1.000
 4435.00    1.12776   1.17284   -1.000
 4436.00    1.16283   1.19631   -1.000
 4437.00    1.22019   1.24303   -1.000
 4438.00    1.26223   1.28171   -1.000
 4439.00    1.25831   1.29103   -1.000
 4440.00    1.23181   1.26729   -1.000
 4441.00    1.20663   1.22795   -1.000
 4442.00    1.17644   1.19706   -1.000
 4443.00    1.15696   1.19448   -1.000
 4444.00    1.17323   1.22099   -1.000
 4445.00    1.22196   1.25848   -1.000
 4446.00    1.25992   1.28543   -1.000
 4447.00    1.27443   1.29425   -1.000
 4448.00    1.27207   1.29380   -1.000
 4449.00    1.25243   1.29129   -1.000
 4450.00    1.24582   1.28725   -1.000
 4451.00    1.25839   1.28086   -1.000
 4452.00    1.25654   1.26795  184.740
 4453.00    1.22255   1.24199   -1.000
 4454.00    1.19255   1.20751   -1.000
 4455.00    1.17458   1.18533  203.563
 4456.00    1.16984   1.18587   -1.000
 4457.00    1.19085   1.19859  200.168
 4458.00    1.19968   1.20642  198.311
 4459.00    1.19130   1.20502  199.001
 4460.00    1.17889   1.20138   -1.000
 4461.00    1.16375   1.20409   -1.000
 4462.00    1.17353   1.21857   -1.000
 4463.00    1.21900   1.24124   -1.000
 4464.00    1.25095   1.26032  189.136
 4465.00    1.25286   1.26769   -1.000
 4466.00    1.24490   1.26337   -1.000
 4467.00    1.23983   1.25140  187.860
 4468.00    1.21600   1.23863   -1.000
 4469.00    1.20685   1.23419   -1.000
 4470.00    1.22382   1.24687   -1.000
 4471.00    1.25564   1.27559   -1.000
 4472.00    1.28882   1.30712   -1.000
 4473.00    1.33085   1.33108  176.196
 4474.00    1.34648   1.34358  172.979
 4475.00    1.32837   1.34988   -1.000
 4476.00    1.33510   1.35625   -1.000
 4477.00    1.34852   1.35839  170.644
 4478.00    1.33449   1.34442  170.832
 4479.00    1.29128   1.31055   -1.000
 4480.00    1.25683   1.27123   -1.000
 4481.00    1.23023   1.25031   -1.000
 4482.00    1.22282   1.26071   -1.000
 4483.00    1.26384   1.29702   -1.000
 4484.00    1.30552   1.33908   -1.000
 4485.00    1.33419   1.36766   -1.000
 4486.00    1.33560   1.37170   -1.000
 4487.00    1.32255   1.35186   -1.000
 4488.00    1.29972   1.32056   -1.000
 4489.00    1.26483   1.29889   -1.000
 4490.00    1.25088   1.29938   -1.000
 4491.00    1.28774   1.31651   -1.000
 4492.00    1.32566   1.32947  177.406
 4493.00    1.31929   1.32226  177.150
 4494.00    1.28420   1.30370   -1.000
 4495.00    1.25862   1.29398   -1.000
 4496.00    1.26973   1.30284   -1.000
 4497.00    1.29515   1.32351   -1.000
 4498.00    1.31850   1.34146   -1.000
 4499.00    1.33142   1.34698   -1.000
 4500.00    1.31902   1.34116   -1.000
 4501.00    1.30344   1.33928   -1.000
 4502.00    1.31135   1.35364   -1.000
 4503.00    1.34466   1.38031   -1.000
 4504.00    1.38729   1.40490   -1.000
 4505.00    1.40037   1.41452   -1.000
 4506.00    1.37522   1.40887   -1.000
 4507.00    1.36115   1.39757   -1.000
 4508.00    1.37889   1.39148   -1.000
 4509.00    1.39959   1.39362  168.141
 4510.00    1.39651   1.39812  166.849
 4511.00    1.38542   1.39571  166.861
 4512.00    1.36877   1.38398   -1.000
 4513.00    1.34321   1.36949   -1.000
 4514.00    1.33544   1.35809   -1.000
 4515.00    1.33841   1.35217   -1.000
 4516.00    1.34285   1.35074  174.202
 4517.00    1.34927   1.34919  175.128
 4518.00    1.34206   1.34786  176.856
 4519.00    1.34124   1.35263   -1.000
 4520.00    1.35171   1.36193   -1.000
 4521.00    1.35102   1.36608   -1.000
 4522.00    1.32398   1.35823   -1.000
 4523.00    1.31013   1.34230   -1.000
 4524.00    1.31806   1.32673  179.862
 4525.00    1.30955   1.31086  181.988
 4526.00    1.28044   1.28920  186.239
 4527.00    1.24266   1.26299   -1.000
 4528.00    1.22224   1.24258   -1.000
 4529.00    1.23111   1.23846  196.385
 4530.00    1.25243   1.24963  193.893
 4531.00    1.27806   1.26567  190.347
 4532.00    1.29165   1.27138   -1.000
 4533.00    1.27288   1.26091  189.943
 4534.00    1.23652   1.24746   -1.000
 4535.00    1.22110   1.25235   -1.000
 4536.00    1.26344   1.28514   -1.000
 4537.00    1.32958   1.33101  180.179
 4538.00    1.36988   1.36489  172.164
 4539.00    1.37151   1.37276  170.546
 4540.00    1.34666   1.36227   -1.000
 4541.00    1.36474   1.35181  175.861
 4542.00    1.28098   1.35111   -1.000
 4543.00    0.67869   1.35476   -1.000
 4544.00    0.07128   1.35325   -1.000
 4545.00    0.17549   1.34660   -2.000
 4546.00    0.73863   1.34074   -2.000
 4547.00    0.87620   1.33320   -2.000
 4548.00    0.73342   1.31766   -1.000
 4549.00    1.25741   1.30084   -1.000
 4550.00    1.28560   1.29885  105.744
 4551.00    1.29181   1.31284   -1.000
 4552.00    1.30449   1.32329   -1.000
 4553.00    1.28730   1.31754   -1.000
 4554.00    1.25894   1.30633   -1.000
 4555.00    1.27754   1.30767   -1.000
 4556.00    1.31197   1.33037   -1.000
 4557.00    1.35704   1.36499  173.612
 4558.00    1.39099   1.39361  168.364
 4559.00    1.39352   1.40973   -1.000
 4560.00    1.38106   1.41698   -1.000
 4561.00    1.38316   1.41540   -1.000
 4562.00    1.38431   1.40155   -1.000
 4563.00    1.35654   1.37773   -1.000
 4564.00    1.31873   1.35769   -1.000
 4565.00    1.32144   1.35529   -1.000
 4566.00    1.34852   1.37192   -1.000
 4567.00    1.37423   1.39633   -1.000
 4568.00    1.40089   1.41262  167.128
 4569.00    1.41911   1.41074  167.099
 4570.00    1.39674   1.39322  170.124
 4571.00    1.34621   1.37247   -1.000
 4572.00    1.34082   1.36574   -1.000
 4573.00    1.36953   1.38048   -1.000
 4574.00    1.39208   1.40240  169.144
 4575.00    1.40574   1.41397  167.940
 4576.00    1.40781   1.41313  168.421
 4577.00    1.37767   1.40465   -1.000
 4578.00    1.34582   1.38897   -1.000
 4579.00    1.34617   1.36641   -1.000
 4580.00    1.34185   1.34455  179.743
 4581.00    1.32547   1.33300  181.533
 4582.00    1.32417   1.33276  179.967
 4583.00    1.33199   1.33675  177.892
 4584.00    1.33551   1.34066  177.434
 4585.00    1.33560   1.34536  178.287
 4586.00    1.33591   1.35534   -1.000
 4587.00    1.35715   1.37337   -1.000
 4588.00    1.38274   1.39267  169.997
 4589.00    1.39253   1.40273  167.893
 4590.00    1.39060   1.40069  168.941
 4591.00    1.37290   1.38948   -1.000
 4592.00    1.35689   1.37556   -1.000
 4593.00    1.34346   1.36761   -1.000
 4594.00    1.33886   1.36772   -1.000
 4595.00    1.35729   1.37167   -1.000
 4596.00    1.37036   1.37727  173.606
 4597.00    1.37488   1.38347  173.218
 4598.00    1.38297   1.38710  172.845
 4599.00    1.39763   1.38606  173.290
 4600.00    1.39383   1.38109  174.902
 4601.00    1.35838   1.37613   -1.000
 4602.00    1.34685   1.37535   -1.000
 4603.00    1.37112   1.37818  173.424
 4604.00    1.39319   1.38187  172.451
 4605.00    1.39061   1.38685  172.564
 4606.00    1.37658   1.39743   -1.000
 4607.00    1.39092   1.41592   -1.000
 4608.00    1.41713   1.43665   -1.000
 4609.00    1.44824   1.45160  162.580
 4610.00    1.45701   1.45399  161.870
 4611.00    1.43592   1.44438  163.342
 4612.00    1.42533   1.43274  165.461
 4613.00    1.40713   1.42694   -1.000
 4614.00    1.40635   1.42894   -1.000
 4615.00    1.41931   1.43437   -1.000
 4616.00    1.42472   1.43729   -1.000
 4617.00    1.42138   1.43620   -1.000
 4618.00    1.41613   1.43286   -1.000
 4619.00    1.41294   1.43167   -1.000
 4620.00    1.42961   1.43681  165.990
 4621.00    1.44348   1.44765  163.887
 4622.00    1.44903   1.45712  162.355
 4623.00    1.45304   1.45824  162.598
 4624.00    1.43921   1.45304   -1.000
 4625.00    1.44045   1.44782  163.812
 4626.00    1.45551   1.44433  164.885
 4627.00    1.44957   1.44296  165.033
 4628.00    1.43575   1.44215  165.432
 4629.00    1.42990   1.44166   -1.000
 4630.00    1.43571   1.44478  166.045
 4631.00    1.43427   1.45076   -1.000
 4632.00    1.43508   1.45200   -1.000
 4633.00    1.43586   1.44525  165.444
 4634.00    1.44384   1.43607  167.672
 4635.00    1.43885   1.43032  168.629
 4636.00    1.42996   1.42532  169.062
 4637.00    1.40687   1.41758  170.873
 4638.00    1.38855   1.41047   -1.000
 4639.00    1.38985   1.40974   -1.000
 4640.00    1.41313   1.41851  171.278
 4641.00    1.43659   1.43323  167.704
 4642.00    1.45239   1.44597  164.335
 4643.00    1.46655   1.44798   -1.000
 4644.00    1.43926   1.43545  165.204
 4645.00    1.39330   1.41271  169.057
 4646.00    1.37223   1.38705  173.858
 4647.00    1.36642   1.37177  176.912
 4648.00    1.38948   1.37684  175.818
 4649.00    1.41853   1.39824   -1.000
 4650.00    1.41848   1.42386  168.791
 4651.00    1.41529   1.44250   -1.000
 4652.00    1.42019   1.44770   -1.000
 4653.00    1.42227   1.44071   -1.000
 4654.00    1.40424   1.42683   -1.000
 4655.00    1.37676   1.41600   -1.000
 4656.00    1.38145   1.41782   -1.000
 4657.00    1.41751   1.43627   -1.000
 4658.00    1.45648   1.46720  164.833
 4659.00    1.49159   1.49656  159.615
 4660.00    1.50489   1.50870  157.598
 4661.00    1.49843   1.50018  158.469
 4662.00    1.47393   1.48034  161.343
 4663.00    1.45085   1.45947  165.056
 4664.00    1.44762   1.43964  167.043
 4665.00    1.42989   1.41453  168.333
 4666.00    1.39360   1.38217  173.089
 4667.00    1.34841   1.35343  180.637
 4668.00    1.32593   1.34595   -1.000
 4669.00    1.34800   1.36576   -1.000
 4670.00    1.39965   1.39880  175.642
 4671.00    1.44096   1.42708  169.349
 4672.00    1.44653   1.44235  166.401
 4673.00    1.44011   1.44791  166.019
 4674.00    1.43570   1.45309   -1.000
 4675.00    1.43941   1.46203   -1.000
 4676.00    1.46746   1.46998  162.635
 4677.00    1.48169   1.46679  161.571
 4678.00    1.45567   1.45040  163.660
 4679.00    1.42169   1.42913  167.190
 4680.00    1.41770   1.41218  170.253
 4681.00    1.40898   1.40603  172.550
 4682.00    1.40062   1.41216  172.527
 4683.00    1.42324   1.42611  169.274
 4684.00    1.44222   1.43940  165.802
 4685.00    1.44393   1.44573  164.877
 4686.00    1.45036   1.44548  165.327
 4687.00    1.45480   1.44286  165.746
 4688.00    1.45218   1.44147  166.329
 4689.00    1.45278   1.44155  166.303
 4690.00    1.45111   1.44120  166.827
 4691.00    1.45334   1.44016  167.713
 4692.00    1.45984   1.44261  167.019
 4693.00    1.47394   1.45104   -1.000
 4694.00    1.48528   1.46214   -1.000
 4695.00    1.50269   1.47105   -1.000
 4696.00    1.51743   1.47229   -1.000
 4697.00    1.49913   1.46063   -1.000
 4698.00    1.46611   1.43918   -1.000
 4699.00    1.44381   1.41957   -1.000
 4700.00    1.44255   1.40785   -1.000
 4701.00    1.44406   1.39951   -1.000
 4702.00    1.43031   1.39147   -1.000
 4703.00    1.42628   1.38940   -1.000
 4704.00    1.42966   1.39902   -1.000
 4705.00    1.43162   1.41275  169.293
 4706.00    1.43468   1.41657  168.877
 4707.00    1.41408   1.40821  171.865
 4708.00    1.39118   1.39838  174.601
 4709.00    1.40015   1.39950  175.107
 4710.00    1.42110   1.41403  172.257
 4711.00    1.45352   1.43313  167.177
 4712.00    1.48146   1.44481   -1.000
 4713.00    1.47768   1.44253   -1.000
 4714.00    1.44668   1.43491  166.030
 4715.00    1.43030   1.43714  167.906
 4716.00    1.46138   1.45366  166.354
 4717.00    1.48203   1.47603  162.973
 4718.00    1.49399   1.49398  160.750
 4719.00    1.51740   1.50455  160.015
 4720.00    1.52345   1.50826  159.470
 4721.00    1.50539   1.50607  159.728
 4722.00    1.48442   1.50165   -1.000
 4723.00    1.48119   1.50233   -1.000
 4724.00    1.49647   1.50792  159.949
 4725.00    1.50619   1.50699  159.022
 4726.00    1.48676   1.49069  160.858
 4727.00    1.45041   1.46141  165.842
 4728.00    1.42275   1.43281  171.172
 4729.00    1.41795   1.41900  173.012
 4730.00    1.42090   1.42033  171.727
 4731.00    1.44560   1.43054  170.105
 4732.00    1.46549   1.44547   -1.000
 4733.00    1.45588   1.46014  166.660
 4734.00    1.46328   1.46812  165.448
 4735.00    1.48331   1.46785  164.533
 4736.00    1.48100   1.46424  164.743
 4737.00    1.47543   1.46431  165.967
 4738.00    1.47422   1.47088  165.110
 4739.00    1.48772   1.47943  163.812
 4740.00    1.48307   1.48301  164.343
 4741.00    1.46172   1.48285   -1.000
 4742.00    1.48173   1.48606  164.557
 4743.00    1.49329   1.49259  162.976
 4744.00    1.49722   1.49840  162.063
 4745.00    1.50438   1.50340  162.396
 4746.00    1.50497   1.50928  161.955
 4747.00    1.50746   1.51740  160.510
 4748.00    1.50960   1.52557   -1.000
 4749.00    1.50866   1.53082   -1.000
 4750.00    1.50997   1.53345   -1.000
 4751.00    1.50909   1.53226   -1.000
 4752.00    1.49172   1.52450   -1.000
 4753.00    1.48525   1.51164   -1.000
 4754.00    1.48902   1.49955  164.506
 4755.00    1.48918   1.49328  165.030
 4756.00    1.47554   1.49415   -1.000
 4757.00    1.45928   1.50039   -1.000
 4758.00    1.45282   1.50935   -1.000
 4759.00    1.46778   1.51705   -1.000
 4760.00    1.47973   1.51768   -1.000
 4761.00    1.46393   1.50598   -1.000
 4762.00    1.43420   1.48379   -1.000
 4763.00    1.41220   1.46098   -1.000
 4764.00    1.41198   1.44723   -1.000
 4765.00    1.42270   1.44338   -1.000
 4766.00    1.42953   1.44781   -1.000
 4767.00    1.44449   1.46242   -1.000
 4768.00    1.47261   1.48729  168.764
 4769.00    1.49349   1.51316   -1.000
 4770.00    1.49845   1.52711   -1.000
 4771.00    1.48883   1.52540   -1.000
 4772.00    1.47710   1.51940   -1.000
 4773.00    1.49391   1.52306   -1.000
 4774.00    1.50460   1.53833   -1.000
 4775.00    1.50842   1.55467   -1.000
 4776.00    1.51753   1.56269   -1.000
 4777.00    1.51801   1.56314   -1.000
 4778.00    1.52374   1.55873   -1.000
 4779.00    1.50347   1.55039   -1.000
 4780.00    1.48044   1.54159   -1.000
 4781.00    1.47579   1.53563   -1.000
 4782.00    1.46818   1.52949   -1.000
 4783.00    1.46619   1.52105   -1.000
 4784.00    1.47925   1.51409   -1.000
 4785.00    1.47743   1.50976   -1.000
 4786.00    1.46224   1.50467   -1.000
 4787.00    1.46536   1.49978   -1.000
 4788.00    1.45642   1.49921   -1.000
 4789.00    1.45905   1.50251   -1.000
 4790.00    1.47231   1.50898   -1.000
 4791.00    1.48293   1.52170   -1.000
 4792.00    1.49871   1.54145   -1.000
 4793.00    1.52683   1.56484   -1.000
 4794.00    1.54530   1.58674   -1.000
 4795.00    1.54899   1.59919   -1.000
 4796.00    1.53980   1.59687   -1.000
 4797.00    1.52771   1.58080   -1.000
 4798.00    1.50446   1.55824   -1.000
 4799.00    1.48212   1.54120   -1.000
 4800.00    1.47974   1.54016   -1.000
 4801.00    1.51380   1.55470   -1.000
 4802.00    1.53909   1.57427   -1.000
 4803.00    1.52719   1.58405   -1.000
 4804.00    1.50242   1.57636   -1.000
 4805.00    1.48690   1.55962   -1.000
 4806.00    1.48495   1.54621   -1.000
 4807.00    1.48690   1.54152   -1.000
 4808.00    1.50370   1.54421   -1.000
 4809.00    1.51468   1.55153   -1.000
 4810.00    1.50666   1.55986   -1.000
 4811.00    1.51054   1.56642   -1.000
 4812.00    1.51845   1.57075   -1.000
 4813.00    1.52903   1.57487   -1.000
 4814.00    1.53466   1.58091   -1.000
 4815.00    1.52330   1.58875   -1.000
 4816.00    1.53274   1.59735   -1.000
 4817.00    1.55432   1.60555   -1.000
 4818.00    1.56604   1.61171   -1.000
 4819.00    1.55950   1.61491   -1.000
 4820.00    1.54408   1.61401   -1.000
 4821.00    1.54786   1.60434   -1.000
 4822.00    1.54643   1.58217   -1.000
 4823.00    1.51615   1.55430   -1.000
 4824.00    1.49697   1.53718   -1.000
 4825.00    1.50164   1.54147   -1.000
 4826.00    1.51914   1.55892   -1.000
 4827.00    1.52383   1.57083   -1.000
 4828.00    1.51761   1.56998   -1.000
 4829.00    1.51200   1.56247   -1.000
 4830.00    1.50624   1.55532   -1.000
 4831.00    1.51894   1.54849   -1.000
 4832.00    1.52197   1.54296   -1.000
 4833.00    1.52691   1.54461   -1.000
 4834.00    1.53241   1.55432   -1.000
 4835.00    1.53544   1.56610   -1.000
 4836.00    1.52836   1.57223   -1.000
 4837.00    1.52964   1.57136   -1.000
 4838.00    1.52941   1.56424   -1.000
 4839.00    1.51771   1.55183   -1.000
 4840.00    1.49474   1.54031   -1.000
 4841.00    1.49114   1.53539   -1.000
 4842.00    1.49824   1.53565   -1.000
 4843.00    1.50804   1.53832   -1.000
 4844.00    1.52192   1.54534   -1.000
 4845.00    1.53914   1.55785   -1.000
 4846.00    1.55677   1.56782  159.674
 4847.00    1.54147   1.56418   -1.000
 4848.00    1.51939   1.54978   -1.000
 4849.00    1.51661   1.54074   -1.000
 4850.00    1.52266   1.54347   -1.000
 4851.00    1.52375   1.54941   -1.000
 4852.00    1.51233   1.54841   -1.000
 4853.00    1.50406   1.53336   -1.000
 4854.00    1.47079   1.50224   -1.000
 4855.00    1.41777   1.46539   -1.000
 4856.00    1.40693   1.44029   -1.000
 4857.00    1.42900   1.42591  173.190
 4858.00    1.39460   1.39684  173.949
 4859.00    1.28171   1.32214   -1.000
 4860.00    1.10124   1.20731   -1.000
 4861.00    0.93874   1.11263   -1.000
 4862.00    0.95165   1.10083   -1.000
 4863.00    1.13242   1.17948   -1.000
 4864.00    1.31009   1.28847   -1.000
 4865.00    1.39435   1.37542   -1.000
 4866.00    1.42358   1.43170  173.273
 4867.00    1.43872   1.46749   -1.000
 4868.00    1.45163   1.48804   -1.000
 4869.00    1.46881   1.48984   -1.000
 4870.00    1.46184   1.46934  172.353
 4871.00    1.42520   1.43769  177.090
 4872.00    1.41950   1.42113  179.077
 4873.00    1.44184   1.43808  175.925
 4874.00    1.45127   1.47445   -1.000
 4875.00    1.46538   1.50391   -1.000
 4876.00    1.48032   1.51894   -1.000
 4877.00    1.49071   1.52834   -1.000
 4878.00    1.50464   1.54273   -1.000
 4879.00    1.52133   1.56173   -1.000
 4880.00    1.52318   1.57548   -1.000
 4881.00    1.50084   1.57495   -1.000
 4882.00    1.48576   1.56295   -1.000
 4883.00    1.47766   1.55141   -1.000
 4884.00    1.47214   1.54196   -1.000
 4885.00    1.47020   1.52978   -1.000
 4886.00    1.47008   1.51874   -1.000
 4887.00    1.47422   1.51554   -1.000
 4888.00    1.48392   1.51459   -1.000
 4889.00    1.47393   1.50384   -1.000
 4890.00    1.43925   1.48220   -1.000
 4891.00    1.42902   1.46858   -1.000
 4892.00    1.47175   1.48830   -1.000
 4893.00    1.51908   1.54178   -1.000
 4894.00    1.55722   1.60286   -1.000
 4895.00    1.59550   1.64626   -1.000
 4896.00    1.61259   1.66595   -1.000
 4897.00    1.61534   1.66761   -1.000
 4898.00    1.60503   1.65706   -1.000
 4899.00    1.58027   1.63896   -1.000
 4900.00    1.54147   1.62149   -1.000
 4901.00    1.53376   1.61134   -1.000
 4902.00    1.55080   1.60546   -1.000
 4903.00    1.53989   1.59926   -1.000
 4904.00    1.53565   1.59990   -1.000
 4905.00    1.56084   1.61629   -1.000
 4906.00    1.59124   1.63768   -1.000
 4907.00    1.60708   1.64198   -1.000
 4908.00    1.59263   1.62395   -1.000
 4909.00    1.54157   1.59380   -1.000
 4910.00    1.49980   1.56693   -1.000
 4911.00    1.50496   1.55748   -1.000
 4912.00    1.52618   1.56899   -1.000
 4913.00    1.55056   1.59213   -1.000
 4914.00    1.57128   1.61518   -1.000
 4915.00    1.57908   1.63146   -1.000
 4916.00    1.58941   1.63092   -1.000
 4917.00    1.57211   1.60096   -1.000
 4918.00    1.52089   1.54189   -1.000
 4919.00    1.46320   1.47580  176.613
 4920.00    1.42711   1.43267  182.573
 4921.00    1.44253   1.43253  181.355
 4922.00    1.47499   1.46460  174.994
 4923.00    1.49534   1.49935  170.076
 4924.00    1.52408   1.52125  168.549
 4925.00    1.54175   1.54118  167.669
 4926.00    1.54598   1.57100   -1.000
 4927.00    1.56982   1.60481   -1.000
 4928.00    1.60718   1.63276   -1.000
 4929.00    1.62524   1.65302   -1.000
 4930.00    1.63729   1.66354   -1.000
 4931.00    1.62626   1.65764   -1.000
 4932.00    1.59376   1.63182   -1.000
 4933.00    1.54960   1.59470   -1.000
 4934.00    1.52724   1.56800   -1.000
 4935.00    1.53840   1.56564   -1.000
 4936.00    1.55853   1.57183  164.600
 4937.00    1.54580   1.56111   -1.000
 4938.00    1.50924   1.53459   -1.000
 4939.00    1.48497   1.52113   -1.000
 4940.00    1.51726   1.54125   -1.000
 4941.00    1.57083   1.58617   -1.000
 4942.00    1.60217   1.63105   -1.000
 4943.00    1.60513   1.65680   -1.000
 4944.00    1.61747   1.66304   -1.000
 4945.00    1.62951   1.65760   -1.000
 4946.00    1.62101   1.65151   -1.000
 4947.00    1.61159   1.65341   -1.000
 4948.00    1.62376   1.66437   -1.000
 4949.00    1.63118   1.67737   -1.000
 4950.00    1.64196   1.68427   -1.000
 4951.00    1.65619   1.68369   -1.000
 4952.00    1.64934   1.67794   -1.000
 4953.00    1.63017   1.66986   -1.000
 4954.00    1.61357   1.65734   -1.000
 4955.00    1.58788   1.62859   -1.000
 4956.00    1.53248   1.57410   -1.000
 4957.00    1.47840   1.51406   -1.000
 4958.00    1.47741   1.49495   -1.000
 4959.00    1.52403   1.53342  171.915
 4960.00    1.58070   1.59711   -1.000
 4961.00    1.59656   1.64594   -1.000
 4962.00    1.58730   1.66476   -1.000
 4963.00    1.58818   1.66238   -1.000
 4964.00    1.58491   1.64747   -1.000
 4965.00    1.57132   1.62451   -1.000
 4966.00    1.55234   1.60303   -1.000
 4967.00    1.55475   1.59325   -1.000
 4968.00    1.56297   1.59357   -1.000
 4969.00    1.54895   1.59945   -1.000
 4970.00    1.54374   1.61073   -1.000
 4971.00    1.57005   1.62701   -1.000
 4972.00    1.59936   1.64527   -1.000
 4973.00    1.62494   1.66094   -1.000
 4974.00    1.62523   1.66912   -1.000
 4975.00    1.62699   1.66847   -1.000
 4976.00    1.61585   1.66013   -1.000
 4977.00    1.58977   1.64493   -1.000
 4978.00    1.57029   1.62711   -1.000
 4979.00    1.55946   1.61076   -1.000
 4980.00    1.54184   1.59058   -1.000
 4981.00    1.52116   1.55897   -1.000
 4982.00    1.48737   1.51856   -1.000
 4983.00    1.46564   1.48730   -1.000
 4984.00    1.47435   1.48460  181.344
 4985.00    1.49979   1.51122  177.220
 4986.00    1.52851   1.55351   -1.000
 4987.00    1.56305   1.59499   -1.000
 4988.00    1.58262   1.62126   -1.000
 4989.00    1.57669   1.62347   -1.000
 4990.00    1.55738   1.61051   -1.000
 4991.00    1.56056   1.59973   -1.000
 4992.00    1.59375   1.60015  168.255
 4993.00    1.59777   1.60772  167.016
 4994.00    1.58737   1.61568   -1.000
 4995.00    1.59512   1.62451   -1.000
 4996.00    1.60283   1.63421   -1.000
 4997.00    1.59487   1.63613   -1.000
 4998.00    1.57295   1.62076   -1.000
 4999.00    1.54397   1.58744   -1.000
 5000.00    1.52263   1.55339   -1.000
 5001.00    1.53218   1.54130  173.725
 5002.00    1.54220   1.54758  173.141
 5003.00    1.54036   1.55564  171.648
 5004.00    1.54274   1.55092  171.854
 5005.00    1.52793   1.53026  175.110
 5006.00    1.49984   1.50958  178.340
 5007.00    1.50260   1.51336  177.237
 5008.00    1.53940   1.54556  172.381
 5009.00    1.57993   1.58078  168.374
 5010.00    1.58369   1.59329  168.122
 5011.00    1.54337   1.57552   -1.000
 5012.00    1.50762   1.53935   -1.000
 5013.00    1.48342   1.50524   -1.000
 5014.00    1.45940   1.49045   -1.000
 5015.00    1.47122   1.49832   -1.000
 5016.00    1.49990   1.51413  178.978
 5017.00    1.51157   1.52231  176.346
 5018.00    1.52432   1.52279  175.952
 5019.00    1.53428   1.52987  175.243
 5020.00    1.54971   1.54675  173.412
 5021.00    1.55617   1.56023  172.815
 5022.00    1.55743   1.56590  173.486
 5023.00    1.57114   1.57345  173.349
 5024.00    1.58106   1.58956  172.012
 5025.00    1.59056   1.60546  170.418
 5026.00    1.58777   1.60831   -1.000
 5027.00    1.57536   1.60083   -1.000
 5028.00    1.57459   1.59806   -1.000
 5029.00    1.58541   1.60725   -1.000
 5030.00    1.60083   1.62494   -1.000
 5031.00    1.62615   1.64610   -1.000
 5032.00    1.64682   1.66665   -1.000
 5033.00    1.65136   1.67727   -1.000
 5034.00    1.62534   1.66647   -1.000
 5035.00    1.58964   1.63528   -1.000
 5036.00    1.54964   1.60328   -1.000
 5037.00    1.54053   1.58650   -1.000
 5038.00    1.53754   1.57421   -1.000
 5039.00    1.49792   1.54554   -1.000
 5040.00    1.44385   1.50106   -1.000
 5041.00    1.41790   1.47130   -1.000
 5042.00    1.45577   1.48734   -1.000
 5043.00    1.55831   1.54533  178.115
 5044.00    1.34648   1.61495   -1.000
 5045.00    0.51303   1.66765   -1.000
 5046.00    0.00653   1.69181   -1.000
 5047.00    0.25057   1.68565   -1.000
 5048.00    1.14113   1.65515   -1.000
 5049.00    1.66667   1.61581   -1.000
 5050.00    1.56022   1.58628   -1.000
 5051.00    1.55256   1.57593   -1.000
 5052.00    1.57194   1.58658   -1.000
 5053.00    1.60413   1.61594  166.845
 5054.00    1.63919   1.65201  163.055
 5055.00    1.66685   1.67855  160.635
 5056.00    1.66751   1.69190   -1.000
 5057.00    1.66611   1.69791   -1.000
 5058.00    1.67378   1.70220   -1.000
 5059.00    1.66519   1.70833   -1.000
 5060.00    1.67556   1.71682   -1.000
 5061.00    1.68404   1.72406   -1.000
 5062.00    1.65993   1.72038   -1.000
 5063.00    1.64143   1.69647   -1.000
 5064.00    1.60340   1.65733   -1.000
 5065.00    1.56716   1.62414   -1.000
 5066.00    1.56651   1.61286   -1.000
 5067.00    1.58384   1.61768   -1.000
 5068.00    1.60953   1.62584   -1.000
 5069.00    1.61362   1.63377   -1.000
 5070.00    1.62317   1.64173   -1.000
 5071.00    1.63086   1.64439  166.812
 5072.00    1.61733   1.63870   -1.000
 5073.00    1.62446   1.63250  168.290
 5074.00    1.64390   1.63385  166.406
 5075.00    1.63899   1.64057  165.521
 5076.00    1.62894   1.64485   -1.000
 5077.00    1.62484   1.63699  165.866
 5078.00    1.59991   1.60899  169.034
 5079.00    1.56925   1.56755  175.843
 5080.00    1.53731   1.53895  181.997
 5081.00    1.53704   1.54092  181.723
 5082.00    1.56251   1.56105  177.719
 5083.00    1.57787   1.58268  174.442
 5084.00    1.59872   1.60451  171.781
 5085.00    1.62078   1.62882  168.616
 5086.00    1.63907   1.65027  166.353
 5087.00    1.66034   1.66319  165.561
 5088.00    1.66268   1.66943  165.136
 5089.00    1.66527   1.67472  164.152
 5090.00    1.67804   1.68138  163.057
 5091.00    1.68952   1.69013  162.186
 5092.00    1.70108   1.70220  160.965
 5093.00    1.70793   1.71445  159.227
 5094.00    1.71217   1.71797  158.857
 5095.00    1.70745   1.70485  161.068
 5096.00    1.66312   1.67521  164.537
 5097.00    1.62086   1.63774   -1.000
 5098.00    1.61146   1.60505  172.155
 5099.00    1.59933   1.59169  174.635
 5100.00    1.60891   1.60700  173.307
 5101.00    1.64136   1.64058  168.626
 5102.00    1.67086   1.66985  164.962
 5103.00    1.66594   1.67968  164.490
 5104.00    1.65391   1.67360   -1.000
 5105.00    1.64234   1.65991   -1.000
 5106.00    1.62875   1.64086  170.261
 5107.00    1.60749   1.61991  172.363
 5108.00    1.57947   1.60508   -1.000
 5109.00    1.58661   1.60104  172.999
 5110.00    1.61566   1.60926  171.817
 5111.00    1.64310   1.62965  170.123
 5112.00    1.66527   1.65691  167.770
 5113.00    1.66766   1.68004  165.730
 5114.00    1.67647   1.69475   -1.000
 5115.00    1.69191   1.70544  162.658
 5116.00    1.70364   1.71683  161.493
 5117.00    1.71279   1.72783   -1.000
 5118.00    1.71904   1.73293   -1.000
 5119.00    1.70803   1.72753   -1.000
 5120.00    1.68899   1.71120   -1.000
 5121.00    1.66590   1.68682   -1.000
 5122.00    1.63279   1.65728   -1.000
 5123.00    1.60519   1.62662   -1.000
 5124.00    1.59170   1.60441  176.893
 5125.00    1.58802   1.59842  176.973
 5126.00    1.61241   1.60370  175.572
 5127.00    1.61674   1.60910  174.668
 5128.00    1.61427   1.61081  174.087
 5129.00    1.61555   1.61351  174.233
 5130.00    1.61916   1.62271  173.287
 5131.00    1.63740   1.63830  170.702
 5132.00    1.66620   1.65455  168.321
 5133.00    1.68422   1.66808  166.916
 5134.00    1.68958   1.67896  165.358
 5135.00    1.69403   1.68514  164.279
 5136.00    1.67499   1.67983  165.102
 5137.00    1.64352   1.65809  168.571
 5138.00    1.63109   1.62949  172.209
 5139.00    1.62077   1.61182  174.002
 5140.00    1.61247   1.61037  173.503
 5141.00    1.61807   1.61520  172.911
 5142.00    1.61320   1.61626  174.848
 5143.00    1.61085   1.61805  176.351
 5144.00    1.61491   1.62824  174.480
 5145.00    1.61766   1.63806   -1.000
 5146.00    1.62246   1.63548  172.599
 5147.00    1.63238   1.62757  173.862
 5148.00    1.63866   1.62749  173.315
 5149.00    1.64588   1.63400  171.516
 5150.00    1.63865   1.63447  171.700
 5151.00    1.61668   1.62436  174.301
 5152.00    1.59434   1.61314   -1.000
 5153.00    1.60831   1.61029  177.141
 5154.00    1.62819   1.61860  175.264
 5155.00    1.66156   1.63912   -1.000
 5156.00    1.70485   1.66877   -1.000
 5157.00    1.72711   1.69751   -1.000
 5158.00    1.73969   1.71677   -1.000
 5159.00    1.74331   1.72518  160.133
 5160.00    1.75446   1.72408   -1.000
 5161.00    1.73117   1.71417  161.043
 5162.00    1.70714   1.69679  162.302
 5163.00    1.71258   1.67252   -1.000
 5164.00    1.68414   1.63526   -1.000
 5165.00    1.60408   1.57107   -1.000
 5166.00    1.49747   1.47611   -1.000
 5167.00    1.40751   1.38509   -1.000
 5168.00    1.37074   1.35131   -1.000
 5169.00    1.41103   1.38209   -1.000
 5170.00    1.46531   1.42346   -1.000
 5171.00    1.44298   1.41573   -1.000
 5172.00    1.37863   1.37257  218.984
 5173.00    1.37194   1.36339  225.135
 5174.00    1.45357   1.42719   -1.000
 5175.00    1.56345   1.53222   -1.000
 5176.00    1.63829   1.61726   -1.000
 5177.00    1.68001   1.66061   -1.000
 5178.00    1.70018   1.67550   -1.000
 5179.00    1.70241   1.67340   -1.000
 5180.00    1.67383   1.64852   -1.000
 5181.00    1.59899   1.58479   -1.000
 5182.00    1.48377   1.48452  198.298
 5183.00    1.37375   1.38979   -1.000
 5184.00    1.36100   1.36059  225.987
 5185.00    1.45707   1.42236   -1.000
 5186.00    1.57473   1.52775   -1.000
 5187.00    1.64136   1.61026   -1.000
 5188.00    1.66558   1.64837  171.037
 5189.00    1.67744   1.65861  169.950
 5190.00    1.66946   1.65153  170.172
 5191.00    1.62659   1.62483  173.369
 5192.00    1.58990   1.59125  178.785
 5193.00    1.60307   1.57729   -1.000
 5194.00    1.62352   1.58808   -1.000
 5195.00    1.62993   1.60661   -1.000
 5196.00    1.64468   1.62525   -1.000
 5197.00    1.65549   1.64726  170.731
 5198.00    1.66421   1.67277  167.447
 5199.00    1.65552   1.69600   -1.000
 5200.00    1.65037   1.70976   -1.000
 5201.00    1.65529   1.70937   -1.000
 5202.00    1.67262   1.69257   -1.000
 5203.00    1.67590   1.65916  170.050
 5204.00    1.65101   1.61351   -1.000
 5205.00    1.60573   1.56934   -1.000
 5206.00    1.58286   1.54151   -1.000
 5207.00    1.57228   1.53299   -1.000
 5208.00    1.59250   1.53526   -1.000
 5209.00    1.61887   1.54819   -1.000
 5210.00    1.63358   1.58207   -1.000
 5211.00    1.68301   1.63432   -1.000
 5212.00    1.74504   1.68600   -1.000
 5213.00    1.76454   1.71767   -1.000
 5214.00    1.75486   1.71782   -1.000
 5215.00    1.72861   1.69396   -1.000
 5216.00    1.69916   1.66975   -1.000
 5217.00    1.70487   1.66857   -1.000
 5218.00    1.73958   1.69324   -1.000
 5219.00    1.75542   1.72750   -1.000
 5220.00    1.76364   1.75452  159.855
 5221.00    1.79094   1.76651   -1.000
 5222.00    1.79676   1.76086   -1.000
 5223.00    1.77001   1.73541   -1.000
 5224.00    1.72229   1.68836   -1.000
 5225.00    1.64232   1.62380   -1.000
 5226.00    1.59271   1.56459   -1.000
 5227.00    1.60132   1.54505   -1.000
 5228.00    1.64636   1.58020   -1.000
 5229.00    1.72488   1.64713   -1.000
 5230.00    1.76742   1.70236   -1.000
 5231.00    1.76380   1.71799   -1.000
 5232.00    1.75504   1.69932   -1.000
 5233.00    1.73794   1.67074   -1.000
 5234.00    1.72836   1.66141   -1.000
 5235.00    1.74556   1.68234   -1.000
 5236.00    1.77070   1.72082   -1.000
 5237.00    1.79929   1.75717   -1.000
 5238.00    1.80950   1.77777   -1.000
 5239.00    1.80350   1.78331  157.535
 5240.00    1.80762   1.78186   -1.000
 5241.00    1.80937   1.77860   -1.000
 5242.00    1.80988   1.77652   -1.000
 5243.00    1.80903   1.77898   -1.000
 5244.00    1.80930   1.78378   -1.000
 5245.00    1.79628   1.77941  157.403
 5246.00    1.75867   1.75700  161.352
 5247.00    1.73140   1.72612  166.047
 5248.00    1.73230   1.70418   -1.000
 5249.00    1.73696   1.69415   -1.000
 5250.00    1.72313   1.69021   -1.000
 5251.00    1.69770   1.69390  169.908
 5252.00    1.70837   1.70583  168.456
 5253.00    1.74679   1.71589   -1.000
 5254.00    1.75306   1.71830   -1.000
 5255.00    1.75099   1.72260   -1.000
 5256.00    1.78161   1.74344   -1.000
 5257.00    1.81413   1.77844   -1.000
 5258.00    1.83561   1.80645   -1.000
 5259.00    1.84042   1.81075   -1.000
 5260.00    1.81298   1.78645   -1.000
 5261.00    1.75892   1.73773   -1.000
 5262.00    1.70012   1.67659   -1.000
 5263.00    1.64615   1.61728   -1.000
 5264.00    1.60161   1.57084   -1.000
 5265.00    1.58658   1.54788   -1.000
 5266.00    1.61658   1.55065   -1.000
 5267.00    1.65435   1.56317   -1.000
 5268.00    1.65031   1.55595   -1.000
 5269.00    1.60568   1.52456   -1.000
 5270.00    1.57727   1.50714   -1.000
 5271.00    1.61636   1.54067   -1.000
 5272.00    1.69782   1.61038   -1.000
 5273.00    1.74080   1.66422   -1.000
 5274.00    1.74158   1.68213   -1.000
 5275.00    1.73823   1.68803   -1.000
 5276.00    1.76154   1.70823   -1.000
 5277.00    1.80773   1.74769   -1.000
 5278.00    1.85132   1.78665   -1.000
 5279.00    1.85216   1.80047   -1.000
 5280.00    1.82972   1.78353   -1.000
 5281.00    1.80215   1.74956   -1.000
 5282.00    1.77029   1.71614   -1.000
 5283.00    1.75290   1.69808   -1.000
 5284.00    1.75671   1.70883   -1.000
 5285.00    1.80114   1.74956   -1.000
 5286.00    1.84998   1.80068   -1.000
 5287.00    1.87619   1.83486   -1.000
 5288.00    1.87478   1.84723   -1.000
 5289.00    1.87745   1.85104   -1.000
 5290.00    1.88571   1.85466   -1.000
 5291.00    1.89432   1.85557   -1.000
 5292.00    1.88136   1.85044   -1.000
 5293.00    1.86085   1.84168  153.701
 5294.00    1.84675   1.82917  155.386
 5295.00    1.83752   1.80424   -1.000
 5296.00    1.79485   1.76241   -1.000
 5297.00    1.72847   1.71752  168.977
 5298.00    1.70775   1.69459  171.452
 5299.00    1.74848   1.70540   -1.000
 5300.00    1.77720   1.73302   -1.000
 5301.00    1.78429   1.75585   -1.000
 5302.00    1.80013   1.77395   -1.000
 5303.00    1.82964   1.79878   -1.000
 5304.00    1.86194   1.82985   -1.000
 5305.00    1.88851   1.85136   -1.000
 5306.00    1.89392   1.85323   -1.000
 5307.00    1.87800   1.84525   -1.000
 5308.00    1.87824   1.84319   -1.000
 5309.00    1.89233   1.85294   -1.000
 5310.00    1.90009   1.86604   -1.000
 5311.00    1.90672   1.87088   -1.000
 5312.00    1.89648   1.86610   -1.000
 5313.00    1.88317   1.85616   -1.000
 5314.00    1.88289   1.84265   -1.000
 5315.00    1.87578   1.82527   -1.000
 5316.00    1.85720   1.80774   -1.000
 5317.00    1.84918   1.80004   -1.000
 5318.00    1.85680   1.80755   -1.000
 5319.00    1.86968   1.82130   -1.000
 5320.00    1.87097   1.82870   -1.000
 5321.00    1.87293   1.82431   -1.000
 5322.00    1.85956   1.80712   -1.000
 5323.00    1.83652   1.77994   -1.000
 5324.00    1.81409   1.75343   -1.000
 5325.00    1.81095   1.73176   -1.000
 5326.00    1.78777   1.69904   -1.000
 5327.00    1.71162   1.64442   -1.000
 5328.00    1.65674   1.59509   -1.000
 5329.00    1.66665   1.59724   -1.000
 5330.00    1.73858   1.65953   -1.000
 5331.00    1.82748   1.73477   -1.000
 5332.00    1.85844   1.78138   -1.000
 5333.00    1.86240   1.80132   -1.000
 5334.00    1.86249   1.81460   -1.000
 5335.00    1.88093   1.82719   -1.000
 5336.00    1.86738   1.83215   -1.000
 5337.00    1.85185   1.82549   -1.000
 5338.00    1.84537   1.80697   -1.000
 5339.00    1.83906   1.77651   -1.000
 5340.00    1.80161   1.74505   -1.000
 5341.00    1.80092   1.73553   -1.000
 5342.00    1.84010   1.75777   -1.000
 5343.00    1.87245   1.79088   -1.000
 5344.00    1.87334   1.80951   -1.000
 5345.00    1.84645   1.80864   -1.000
 5346.00    1.84417   1.79802   -1.000
 5347.00    1.85049   1.78656   -1.000
 5348.00    1.84879   1.77719   -1.000
 5349.00    1.85042   1.77447   -1.000
 5350.00    1.85971   1.78698   -1.000
 5351.00    1.87711   1.81254   -1.000
 5352.00    1.89233   1.83860   -1.000
 5353.00    1.89262   1.85741   -1.000
 5354.00    1.89538   1.87172  153.122
 5355.00    1.92764   1.88740   -1.000
 5356.00    1.96094   1.90140   -1.000
 5357.00    1.96425   1.90784   -1.000
 5358.00    1.95946   1.90741   -1.000
 5359.00    1.94944   1.90207   -1.000
 5360.00    1.93065   1.89040   -1.000
 5361.00    1.91173   1.87225   -1.000
 5362.00    1.89123   1.85175   -1.000
 5363.00    1.88854   1.83275   -1.000
 5364.00    1.87548   1.81724   -1.000
 5365.00    1.85400   1.80696   -1.000
 5366.00    1.85170   1.80344   -1.000
 5367.00    1.85999   1.80336   -1.000
 5368.00    1.85573   1.79390   -1.000
 5369.00    1.84086   1.76430   -1.000
 5370.00    1.79447   1.72280   -1.000
 5371.00    1.76468   1.69655   -1.000
 5372.00    1.79114   1.71188   -1.000
 5373.00    1.84622   1.76517   -1.000
 5374.00    1.90674   1.82492   -1.000
 5375.00    1.94155   1.86387   -1.000
 5376.00    1.95127   1.87668   -1.000
 5377.00    1.95845   1.87592   -1.000
 5378.00    1.95126   1.87286   -1.000
 5379.00    1.93711   1.86887   -1.000
 5380.00    1.91450   1.86044   -1.000
 5381.00    1.88840   1.84720   -1.000
 5382.00    1.87151   1.83450   -1.000
 5383.00    1.87236   1.82942   -1.000
 5384.00    1.89172   1.83580   -1.000
 5385.00    1.91807   1.85061   -1.000
 5386.00    1.91772   1.86436   -1.000
 5387.00    1.92211   1.86756   -1.000
 5388.00    1.92519   1.85766   -1.000
 5389.00    1.90202   1.83867   -1.000
 5390.00    1.87491   1.81792   -1.000
 5391.00    1.86817   1.80219   -1.000
 5392.00    1.86505   1.79286   -1.000
 5393.00    1.86045   1.78873   -1.000
 5394.00    1.85056   1.78520   -1.000
 5395.00    1.83815   1.77272   -1.000
 5396.00    1.82037   1.74851   -1.000
 5397.00    1.80683   1.72930   -1.000
 5398.00    1.83523   1.73664   -1.000
 5399.00    1.88001   1.76840   -1.000
 5400.00    1.91632   1.80238   -1.000
 5401.00    1.91290   1.82130   -1.000
 5402.00    1.87938   1.81884   -1.000
 5403.00    1.84822   1.79091   -1.000
 5404.00    1.80173   1.74246   -1.000
 5405.00    1.76767   1.69824   -1.000
 5406.00    1.77700   1.68848   -1.000
 5407.00    1.80245   1.71290   -1.000
 5408.00    1.83109   1.74072   -1.000
 5409.00    1.82945   1.75016   -1.000
 5410.00    1.82366   1.75097   -1.000
 5411.00    1.84319   1.76809   -1.000
 5412.00    1.89394   1.80106   -1.000
 5413.00    1.91255   1.82704   -1.000
 5414.00    1.91548   1.83682   -1.000
 5415.00    1.91143   1.84178   -1.000
 5416.00    1.90767   1.85453   -1.000
 5417.00    1.91587   1.87071   -1.000
 5418.00    1.91191   1.87682   -1.000
 5419.00    1.90281   1.87105   -1.000
 5420.00    1.89683   1.86244   -1.000
 5421.00    1.90231   1.85676   -1.000
 5422.00    1.90443   1.85099   -1.000
 5423.00    1.89687   1.83962   -1.000
 5424.00    1.88160   1.82981   -1.000
 5425.00    1.87236   1.83763   -1.000
 5426.00    1.90079   1.86143   -1.000
 5427.00    1.92453   1.87455   -1.000
 5428.00    1.89665   1.85268   -1.000
 5429.00    1.84735   1.80879   -1.000
 5430.00    1.82448   1.78183   -1.000
 5431.00    1.84038   1.78588   -1.000
 5432.00    1.86808   1.79830   -1.000
 5433.00    1.85839   1.79329   -1.000
 5434.00    1.82692   1.77443   -1.000
 5435.00    1.82055   1.76786   -1.000
 5436.00    1.84835   1.78860   -1.000
 5437.00    1.88109   1.83017   -1.000
 5438.00    1.92081   1.87454   -1.000
 5439.00    1.97041   1.90673   -1.000
 5440.00    2.00059   1.92378   -1.000
 5441.00    1.98969   1.93076   -1.000
 5442.00    1.97090   1.93131   -1.000
 5443.00    1.96807   1.92060   -1.000
 5444.00    1.93640   1.88962   -1.000
 5445.00    1.88284   1.83772   -1.000
 5446.00    1.81961   1.78497   -1.000
 5447.00    1.79507   1.76349   -1.000
 5448.00    1.84423   1.78578   -1.000
 5449.00    1.89883   1.83374   -1.000
 5450.00    1.93341   1.87498   -1.000
 5451.00    1.93692   1.89129   -1.000
 5452.00    1.91696   1.88457   -1.000
 5453.00    1.88999   1.85838   -1.000
 5454.00    1.86689   1.81678   -1.000
 5455.00    1.82678   1.77864   -1.000
 5456.00    1.83134   1.77315   -1.000
 5457.00    1.86610   1.81014   -1.000
 5458.00    1.90825   1.86331   -1.000
 5459.00    1.94734   1.89518   -1.000
 5460.00    1.92761   1.89485   -1.000
 5461.00    1.90851   1.87260   -1.000
 5462.00    1.90716   1.84467   -1.000
 5463.00    1.88165   1.82802   -1.000
 5464.00    1.88079   1.83210   -1.000
 5465.00    1.90286   1.85052   -1.000
 5466.00    1.91775   1.86880   -1.000
 5467.00    1.92348   1.88079   -1.000
 5468.00    1.92687   1.88731   -1.000
 5469.00    1.91908   1.88817   -1.000
 5470.00    1.91741   1.88291   -1.000
 5471.00    1.92753   1.87375   -1.000
 5472.00    1.90972   1.86358   -1.000
 5473.00    1.88966   1.85190   -1.000
 5474.00    1.87706   1.83365   -1.000
 5475.00    1.84272   1.80531   -1.000
 5476.00    1.81458   1.77529   -1.000
 5477.00    1.81865   1.76578   -1.000
 5478.00    1.83481   1.78975   -1.000
 5479.00    1.87561   1.82508   -1.000
 5480.00    1.89725   1.84106   -1.000
 5481.00    1.87255   1.83495   -1.000
 5482.00    1.86852   1.82928   -1.000
 5483.00    1.88741   1.84353   -1.000
 5484.00    1.91563   1.87186   -1.000
 5485.00    1.93765   1.89295   -1.000
 5486.00    1.93498   1.89297   -1.000
 5487.00    1.89820   1.87709   -1.000
 5488.00    1.87494   1.86247  161.456
 5489.00    1.88227   1.86034   -1.000
 5490.00    1.89404   1.86966   -1.000
 5491.00    1.91632   1.88073   -1.000
 5492.00    1.93989   1.88652   -1.000
 5493.00    1.93745   1.88669   -1.000
 5494.00    1.93648   1.88502   -1.000
 5495.00    1.93166   1.88236   -1.000
 5496.00    1.93315   1.87508   -1.000
 5497.00    1.90907   1.86653   -1.000
 5498.00    1.90977   1.86779   -1.000
 5499.00    1.92970   1.87701   -1.000
 5500.00    1.92432   1.87766   -1.000
 5501.00    1.90595   1.86323   -1.000
 5502.00    1.90613   1.84733   -1.000
 5503.00    1.93574   1.84507   -1.000
 5504.00    1.93525   1.84983   -1.000
 5505.00    1.89912   1.84516   -1.000
 5506.00    1.87656   1.83266   -1.000
 5507.00    1.88567   1.82889   -1.000
 5508.00    1.90992   1.84301   -1.000
 5509.00    1.92503   1.86321   -1.000
 5510.00    1.92286   1.86861   -1.000
 5511.00    1.90395   1.85434   -1.000
 5512.00    1.87588   1.83197   -1.000
 5513.00    1.87144   1.81685   -1.000
 5514.00    1.87005   1.81818   -1.000
 5515.00    1.89818   1.83352   -1.000
 5516.00    1.93825   1.85563   -1.000
 5517.00    1.95778   1.87952   -1.000
 5518.00    1.96537   1.90215   -1.000
 5519.00    1.98580   1.91911   -1.000
 5520.00    1.98934   1.92599   -1.000
 5521.00    1.97954   1.92458   -1.000
 5522.00    1.98417   1.92201   -1.000
 5523.00    1.98037   1.92055   -1.000
 5524.00    1.95731   1.91524   -1.000
 5525.00    1.93178   1.89798   -1.000
 5526.00    1.90455   1.86587   -1.000
 5527.00    1.86263   1.82884   -1.000
 5528.00    1.84026   1.80713   -1.000
 5529.00    1.86413   1.81744   -1.000
 5530.00    1.91261   1.85267   -1.000
 5531.00    1.94331   1.88721   -1.000
 5532.00    1.95755   1.90137   -1.000
 5533.00    1.93608   1.89613   -1.000
 5534.00    1.90749   1.88439   -1.000
 5535.00    1.91025   1.87737   -1.000
 5536.00    1.92424   1.87995   -1.000
 5537.00    1.92892   1.88964   -1.000
 5538.00    1.94496   1.90119   -1.000
 5539.00    1.96452   1.91317   -1.000
 5540.00    1.99637   1.92534   -1.000
 5541.00    2.00817   1.93192   -1.000
 5542.00    1.98762   1.92752   -1.000
 5543.00    1.96882   1.91592   -1.000
 5544.00    1.96640   1.90716   -1.000
 5545.00    1.96862   1.90630   -1.000
 5546.00    1.96035   1.91134   -1.000
 5547.00    1.97004   1.92091   -1.000
 5548.00    1.98739   1.93571   -1.000
 5549.00    2.01109   1.95091   -1.000
 5550.00    2.00927   1.95898   -1.000
 5551.00    2.00405   1.95769   -1.000
 5552.00    1.99867   1.94889   -1.000
 5553.00    1.96163   1.93609   -1.000
 5554.00    1.94688   1.92565  158.565
 5555.00    1.96668   1.92292   -1.000
 5556.00    1.99034   1.92636   -1.000
 5557.00    1.98863   1.93026   -1.000
 5558.00    1.98646   1.93164   -1.000
 5559.00    1.98825   1.93247   -1.000
 5560.00    1.99106   1.93236   -1.000
 5561.00    1.98207   1.92691   -1.000
 5562.00    1.97444   1.91613   -1.000
 5563.00    1.96429   1.90605   -1.000
 5564.00    1.94260   1.90047   -1.000
 5565.00    1.92813   1.89764   -1.000
 5566.00    1.93682   1.89418   -1.000
 5567.00    1.95371   1.89019   -1.000
 5568.00    1.94204   1.88767   -1.000
 5569.00    1.93855   1.88763   -1.000
 5570.00    1.94887   1.88930   -1.000
 5571.00    1.93398   1.88849   -1.000
 5572.00    1.91665   1.88433   -1.000
 5573.00    1.92975   1.88315   -1.000
 5574.00    1.92291   1.89086   -1.000
 5575.00    1.85541   1.90501   -1.000
 5576.00    1.82012   1.91622   -1.000
 5577.00    1.62055   1.92207   -1.000
 5578.00    1.33765   1.92801   -1.000
 5579.00    2.59688   1.93458   -1.000
 5580.00    4.79809   1.93743   -1.000
 5581.00    5.00792   1.93510   -1.000
 5582.00    3.20377   1.93045   -1.000
 5583.00    2.10405   1.92625   -1.000
 5584.00    1.99525   1.91758   -1.000
 5585.00    1.96076   1.89394   -1.000
 5586.00    1.93080   1.85439   -1.000
 5587.00    1.89163   1.81385   -1.000
 5588.00    1.85019   1.79156   -1.000
 5589.00    1.85485   1.79538   -1.000
 5590.00    1.87518   1.81859   -1.000
 5591.00    1.91321   1.84646   -1.000
 5592.00    1.92844   1.86427   -1.000
 5593.00    1.92577   1.87023   -1.000
 5594.00    1.91636   1.87545   -1.000
 5595.00    1.93402   1.89026   -1.000
 5596.00    1.94283   1.90757   -1.000
 5597.00    1.94457   1.90939   -1.000
 5598.00    1.92710   1.89324   -1.000
 5599.00    1.90749   1.87277   -1.000
 5600.00    1.89425   1.85632   -1.000
 5601.00    1.89006   1.84302   -1.000
 5602.00    1.89536   1.83870   -1.000
 5603.00    1.90913   1.85510   -1.000
 5604.00    1.94210   1.89316   -1.000
 5605.00    1.98565   1.93717   -1.000
 5606.00    2.02339   1.96916   -1.000
 5607.00    2.03117   1.98404   -1.000
 5608.00    2.02635   1.98726   -1.000
 5609.00    2.01848   1.98675   -1.000
 5610.00    2.01720   1.98848   -1.000
 5611.00    2.01422   1.99207   -1.000
 5612.00    2.02038   1.98729   -1.000
 5613.00    2.01488   1.96088   -1.000
 5614.00    1.96836   1.91157   -1.000
 5615.00    1.91478   1.86279   -1.000
 5616.00    1.90566   1.84675   -1.000
 5617.00    1.94140   1.86838   -1.000
 5618.00    1.96576   1.90253   -1.000
 5619.00    1.96887   1.92459   -1.000
 5620.00    1.97804   1.93532   -1.000
 5621.00    1.99898   1.94309   -1.000
 5622.00    1.98524   1.94280   -1.000
 5623.00    1.95276   1.92670   -1.000
 5624.00    1.92871   1.90238   -1.000
 5625.00    1.95252   1.88907   -1.000
 5626.00    1.96346   1.89893   -1.000
 5627.00    1.98329   1.92307   -1.000
 5628.00    2.01258   1.94675   -1.000
 5629.00    2.02485   1.96544   -1.000
 5630.00    2.03928   1.97845   -1.000
 5631.00    2.02480   1.98344   -1.000
 5632.00    2.02011   1.97974   -1.000
 5633.00    2.01094   1.97044   -1.000
 5634.00    2.01347   1.95882   -1.000
 5635.00    2.00524   1.94587   -1.000
 5636.00    1.98312   1.93310   -1.000
 5637.00    1.97148   1.92413   -1.000
 5638.00    1.98292   1.92208   -1.000
 5639.00    1.98519   1.92407   -1.000
 5640.00    1.97653   1.92360   -1.000
 5641.00    1.96978   1.91949   -1.000
 5642.00    1.98065   1.91832   -1.000
 5643.00    1.98919   1.92449   -1.000
 5644.00    1.99852   1.93377   -1.000
 5645.00    2.01704   1.94174   -1.000
 5646.00    2.02245   1.94777   -1.000
 5647.00    2.01215   1.95077   -1.000
 5648.00    2.00227   1.94943   -1.000
 5649.00    2.01754   1.94567   -1.000
 5650.00    2.01516   1.94494   -1.000
 5651.00    2.00513   1.95052   -1.000
 5652.00    2.03326   1.95717   -1.000
 5653.00    2.03965   1.95636   -1.000
 5654.00    2.02450   1.94746   -1.000
 5655.00    2.01308   1.93414   -1.000
 5656.00    1.99443   1.91394   -1.000
 5657.00    1.95353   1.88480   -1.000
 5658.00    1.90920   1.85791   -1.000
 5659.00    1.89093   1.85166   -1.000
 5660.00    1.91993   1.86934   -1.000
 5661.00    1.95618   1.89035   -1.000
 5662.00    1.95108   1.90022   -1.000
 5663.00    1.95604   1.91018   -1.000
 5664.00    1.97595   1.92865   -1.000
 5665.00    1.99253   1.94461   -1.000
 5666.00    1.99155   1.94630   -1.000
 5667.00    1.98546   1.93638   -1.000
 5668.00    1.98564   1.92781   -1.000
 5669.00    1.98811   1.92899   -1.000
 5670.00    1.98886   1.93836   -1.000
 5671.00    2.01015   1.95240   -1.000
 5672.00    2.03267   1.96867   -1.000
 5673.00    2.05114   1.98234   -1.000
 5674.00    2.04430   1.98872   -1.000
 5675.00    2.02629   1.98897   -1.000
 5676.00    2.03601   1.98818   -1.000
 5677.00    2.04229   1.98845   -1.000
 5678.00    2.03350   1.98627   -1.000
 5679.00    2.02934   1.97871   -1.000
 5680.00    2.03673   1.96682   -1.000
 5681.00    2.03595   1.95116   -1.000
 5682.00    2.00086   1.93293   -1.000
 5683.00    1.98925   1.92006   -1.000
 5684.00    2.00359   1.92009   -1.000
 5685.00    2.00233   1.92691   -1.000
 5686.00    2.01073   1.92907   -1.000
 5687.00    2.00080   1.92494   -1.000
 5688.00    1.98391   1.92263   -1.000
 5689.00    1.99856   1.92979   -1.000
 5690.00    2.02236   1.94614   -1.000
 5691.00    2.04886   1.96484   -1.000
 5692.00    2.05176   1.97938   -1.000
 5693.00    2.04835   1.98681   -1.000
 5694.00    2.04326   1.98794   -1.000
 5695.00    2.03978   1.98591   -1.000
 5696.00    2.03309   1.98217   -1.000
 5697.00    2.03651   1.97519   -1.000
 5698.00    2.01802   1.96359   -1.000
 5699.00    1.99890   1.94958   -1.000
 5700.00    1.99749   1.93610   -1.000
 5701.00    1.99380   1.92590   -1.000
 5702.00    2.00334   1.92476   -1.000
 5703.00    2.00262   1.93402   -1.000
 5704.00    2.00542   1.94340   -1.000
 5705.00    2.00448   1.94163   -1.000
 5706.00    1.99026   1.92634   -1.000
 5707.00    1.96830   1.90377   -1.000
 5708.00    1.93628   1.88204   -1.000
 5709.00    1.92493   1.86591   -1.000
 5710.00    1.91763   1.86038   -1.000
 5711.00    1.92377   1.86936   -1.000
 5712.00    1.95108   1.89250   -1.000
 5713.00    1.99413   1.92485   -1.000
 5714.00    2.01984   1.95463   -1.000
 5715.00    2.03290   1.97274   -1.000
 5716.00    2.04899   1.98231   -1.000
 5717.00    2.05192   1.98913   -1.000
 5718.00    2.05702   1.99558   -1.000
 5719.00    2.06101   2.00331   -1.000
 5720.00    2.06366   2.01243   -1.000
 5721.00    2.07849   2.02125   -1.000
 5722.00    2.06760   2.02829   -1.000
 5723.00    2.05480   2.03245   -1.000
 5724.00    2.08450   2.03145   -1.000
 5725.00    2.09100   2.02245   -1.000
 5726.00    2.07416   2.00740   -1.000
 5727.00    2.05462   1.99559   -1.000
 5728.00    2.06080   1.99485   -1.000
 5729.00    2.07043   2.00067   -1.000
 5730.00    2.06307   2.00249   -1.000
 5731.00    2.06069   1.99890   -1.000
 5732.00    2.05799   1.99823   -1.000
 5733.00    2.06582   2.00730   -1.000
 5734.00    2.05491   2.02133   -1.000
 5735.00    2.05488   2.02861   -1.000
 5736.00    2.05093   2.02680   -1.000
 5737.00    2.04907   2.02187   -1.000
 5738.00    2.05324   2.01884   -1.000
 5739.00    2.07770   2.01890   -1.000
 5740.00    2.09405   2.01914   -1.000
 5741.00    2.09876   2.01712   -1.000
 5742.00    2.09043   2.01441   -1.000
 5743.00    2.08421   2.01605   -1.000
 5744.00    2.07890   2.02362   -1.000
 5745.00    2.07285   2.03077   -1.000
 5746.00    2.07104   2.02909   -1.000
 5747.00    2.06373   2.01888   -1.000
 5748.00    2.04926   2.01190   -1.000
 5749.00    2.05952   2.01613   -1.000
 5750.00    2.07307   2.02283   -1.000
 5751.00    2.06500   2.01730   -1.000
 5752.00    2.04362   1.99531   -1.000
 5753.00    2.02929   1.97117   -1.000
 5754.00    2.03436   1.96501   -1.000
 5755.00    2.05267   1.98274   -1.000
 5756.00    2.07019   2.01251   -1.000
 5757.00    2.08990   2.03606   -1.000
 5758.00    2.10304   2.04368   -1.000
 5759.00    2.09279   2.03488   -1.000
 5760.00    2.06433   2.01496   -1.000
 5761.00    2.04315   1.99266   -1.000
 5762.00    2.03788   1.97893   -1.000
 5763.00    2.04120   1.98387   -1.000
 5764.00    2.05989   2.00791   -1.000
 5765.00    2.09005   2.03630   -1.000
 5766.00    2.10634   2.05361   -1.000
 5767.00    2.09786   2.05889   -1.000
 5768.00    2.10013   2.05792   -1.000
 5769.00    2.09256   2.05409   -1.000
 5770.00    2.08607   2.04860   -1.000
 5771.00    2.09044   2.04216   -1.000
 5772.00    2.08106   2.03495   -1.000
 5773.00    2.07742   2.02808   -1.000
 5774.00    2.06774   2.02338   -1.000
 5775.00    2.05415   2.02282   -1.000
 5776.00    2.06939   2.02715   -1.000
 5777.00    2.07070   2.02990   -1.000
 5778.00    2.05615   2.02200   -1.000
 5779.00    2.01450   2.00068  157.513
 5780.00    1.96577   1.97167  160.374
 5781.00    1.93249   1.94657  163.662
 5782.00    1.93229   1.93463  164.890
 5783.00    1.97077   1.93539   -1.000
 5784.00    2.01353   1.93967   -1.000
 5785.00    2.02911   1.94498   -1.000
 5786.00    2.04051   1.95881   -1.000
 5787.00    2.06614   1.98118   -1.000
 5788.00    2.07569   2.00111   -1.000
 5789.00    2.07313   2.01032   -1.000
 5790.00    2.06453   2.00918   -1.000
 5791.00    2.06051   2.00633   -1.000
 5792.00    2.08994   2.01177   -1.000
 5793.00    2.09628   2.02693   -1.000
 5794.00    2.09258   2.04378   -1.000
 5795.00    2.09080   2.05265   -1.000
 5796.00    2.07843   2.04863   -1.000
 5797.00    2.07423   2.03728   -1.000
 5798.00    2.06184   2.03272   -1.000
 5799.00    2.08405   2.04295   -1.000
 5800.00    2.11812   2.06161   -1.000
 5801.00    2.11844   2.07561   -1.000
 5802.00    2.11257   2.07710   -1.000
 5803.00    2.11064   2.06624   -1.000
 5804.00    2.10782   2.05029   -1.000
 5805.00    2.10488   2.03964   -1.000
 5806.00    2.10589   2.03888   -1.000
 5807.00    2.09696   2.04527   -1.000
 5808.00    2.10844   2.05303   -1.000
 5809.00    2.13525   2.05929   -1.000
 5810.00    2.12640   2.06471   -1.000
 5811.00    2.12266   2.06909   -1.000
 5812.00    2.13518   2.07005   -1.000
 5813.00    2.13447   2.06526   -1.000
 5814.00    2.11949   2.05436   -1.000
 5815.00    2.11095   2.04142   -1.000
 5816.00    2.10587   2.03558   -1.000
 5817.00    2.12291   2.04406   -1.000
 5818.00    2.14348   2.06235   -1.000
 5819.00    2.14383   2.07877   -1.000
 5820.00    2.15155   2.08611   -1.000
 5821.00    2.15311   2.08566   -1.000
 5822.00    2.14766   2.08212   -1.000
 5823.00    2.15478   2.07914   -1.000
 5824.00    2.14954   2.07836   -1.000
 5825.00    2.15912   2.07965   -1.000
 5826.00    2.15403   2.08229   -1.000
 5827.00    2.15644   2.08541   -1.000
 5828.00    2.15579   2.08904   -1.000
 5829.00    2.15921   2.09225   -1.000
 5830.00    2.15003   2.09303   -1.000
 5831.00    2.15548   2.09120   -1.000
 5832.00    2.16447   2.08727   -1.000
 5833.00    2.16780   2.08131   -1.000
 5834.00    2.15834   2.07511   -1.000
 5835.00    2.15675   2.07228   -1.000
 5836.00    2.16441   2.07408   -1.000
 5837.00    2.15391   2.07704   -1.000
 5838.00    2.16955   2.07960   -1.000
 5839.00    2.16424   2.08452   -1.000
 5840.00    2.18356   2.09223   -1.000
 5841.00    2.19978   2.09905   -1.000
 5842.00    2.17779   2.10102   -1.000
 5843.00    2.17587   2.09722   -1.000
 5844.00    2.17314   2.08925   -1.000
 5845.00    2.14827   2.07855   -1.000
 5846.00    2.13180   2.06715   -1.000
 5847.00    2.13101   2.05890   -1.000
 5848.00    2.12576   2.05693   -1.000
 5849.00    2.12745   2.05930   -1.000
 5850.00    2.13223   2.05872   -1.000
 5851.00    2.12358   2.04882   -1.000
 5852.00    2.11778   2.03187   -1.000
 5853.00    2.10840   2.01768   -1.000
 5854.00    2.10129   2.01223   -1.000
 5855.00    2.09924   2.00842   -1.000
 5856.00    2.09018   1.99511   -1.000
 5857.00    2.07207   1.97614   -1.000
 5858.00    2.06815   1.96905   -1.000
 5859.00    2.09248   1.98278   -1.000
 5860.00    2.11233   2.00694   -1.000
 5861.00    2.12065   2.02570   -1.000
 5862.00    2.11639   2.03500   -1.000
 5863.00    2.12178   2.03967   -1.000
 5864.00    2.13203   2.04253   -1.000
 5865.00    2.12935   2.04030   -1.000
 5866.00    2.12525   2.03314   -1.000
 5867.00    2.13672   2.03054   -1.000
 5868.00    2.14146   2.03968   -1.000
 5869.00    2.13760   2.05516   -1.000
 5870.00    2.15511   2.06705   -1.000
 5871.00    2.15951   2.07036   -1.000
 5872.00    2.16786   2.06668   -1.000
 5873.00    2.15609   2.06123   -1.000
 5874.00    2.16581   2.05754   -1.000
 5875.00    2.16718   2.05549   -1.000
 5876.00    2.14577   2.05254   -1.000
 5877.00    2.14688   2.04633   -1.000
 5878.00    2.14533   2.03651   -1.000
 5879.00    2.11093   2.02557   -1.000
 5880.00    2.10462   2.01769   -1.000
 5881.00    2.10873   2.01511   -1.000
 5882.00    2.12854   2.01448   -1.000
 5883.00    2.11995   2.01051   -1.000
 5884.00    2.10424   2.00451   -1.000
 5885.00    2.10026   1.99904   -1.000
 5886.00    2.08480   1.98128   -1.000
 5887.00    2.02824   1.92584   -1.000
 5888.00    1.90396   1.82426   -1.000
 5889.00    1.76130   1.71375   -1.000
 5890.00    1.68544   1.65883   -1.000
 5891.00    1.80033   1.68691   -1.000
 5892.00    1.96607   1.75749   -1.000
 5893.00    2.03840   1.80252   -1.000
 5894.00    1.97133   1.79120   -1.000
 5895.00    1.84488   1.74767   -1.000
 5896.00    1.78345   1.72887   -1.000
 5897.00    1.84310   1.76888   -1.000
 5898.00    1.99264   1.84151   -1.000
 5899.00    2.05886   1.90577   -1.000
 5900.00    2.07243   1.95016   -1.000
 5901.00    2.07836   1.98105   -1.000
 5902.00    2.08944   2.00126   -1.000
 5903.00    2.10414   2.01184   -1.000
 5904.00    2.10083   2.01592   -1.000
 5905.00    2.11502   2.01719   -1.000
 5906.00    2.11028   2.01945   -1.000
 5907.00    2.10899   2.02466   -1.000
 5908.00    2.11653   2.03129   -1.000
 5909.00    2.12791   2.03706   -1.000
 5910.00    2.12429   2.04107   -1.000
 5911.00    2.10443   2.04091   -1.000
 5912.00    2.09817   2.03241   -1.000
 5913.00    2.09155   2.01486   -1.000
 5914.00    2.07434   1.99561   -1.000
 5915.00    2.07073   1.98556   -1.000
 5916.00    2.09620   1.98849   -1.000
 5917.00    2.10718   2.00054   -1.000
 5918.00    2.10462   2.01638   -1.000
 5919.00    2.10164   2.02946   -1.000
 5920.00    2.09696   2.03561   -1.000
 5921.00    2.09660   2.03555   -1.000
 5922.00    2.09208   2.03370   -1.000
 5923.00    2.08625   2.03534   -1.000
 5924.00    2.09625   2.04213   -1.000
 5925.00    2.11059   2.05055   -1.000
 5926.00    2.12159   2.05535   -1.000
 5927.00    2.13526   2.05229   -1.000
 5928.00    2.13370   2.04056   -1.000
 5929.00    2.10473   2.02689   -1.000
 5930.00    2.08454   2.02225   -1.000
 5931.00    2.10438   2.03013   -1.000
 5932.00    2.12436   2.04048   -1.000
 5933.00    2.13346   2.04199   -1.000
 5934.00    2.13723   2.03597   -1.000
 5935.00    2.12631   2.03352   -1.000
 5936.00    2.11550   2.04115   -1.000
 5937.00    2.12229   2.05242   -1.000
 5938.00    2.13394   2.05717   -1.000
 5939.00    2.14030   2.05219   -1.000
 5940.00    2.13157   2.04071   -1.000
 5941.00    2.12423   2.02932   -1.000
 5942.00    2.11490   2.02492   -1.000
 5943.00    2.09325   2.03021   -1.000
 5944.00    2.10278   2.04101   -1.000
 5945.00    2.12260   2.05005   -1.000
 5946.00    2.11996   2.05091   -1.000
 5947.00    2.10616   2.04205   -1.000
 5948.00    2.08015   2.03095   -1.000
 5949.00    2.07581   2.02844   -1.000
 5950.00    2.08862   2.03475   -1.000
 5951.00    2.11456   2.03948   -1.000
 5952.00    2.09865   2.03754   -1.000
 5953.00    2.08808   2.03446   -1.000
 5954.00    2.11827   2.03532   -1.000
 5955.00    2.14510   2.03607   -1.000
 5956.00    2.13197   2.03234   -1.000
 5957.00    2.11305   2.02942   -1.000
 5958.00    2.10962   2.03532   -1.000
 5959.00    2.12530   2.04948   -1.000
 5960.00    2.15045   2.06478   -1.000
 5961.00    2.17259   2.07527   -1.000
 5962.00    2.16549   2.07887   -1.000
 5963.00    2.16788   2.07628   -1.000
 5964.00    2.16385   2.06921   -1.000
 5965.00    2.14892   2.06118   -1.000
 5966.00    2.12854   2.05781   -1.000
 5967.00    2.13073   2.06194   -1.000
 5968.00    2.13477   2.06974   -1.000
 5969.00    2.14337   2.07701   -1.000
 5970.00    2.16858   2.08319   -1.000
 5971.00    2.17014   2.08743   -1.000
 5972.00    2.15811   2.08778   -1.000
 5973.00    2.15845   2.08304   -1.000
 5974.00    2.16485   2.07228   -1.000
 5975.00    2.14112   2.05626   -1.000
 5976.00    2.11802   2.04106   -1.000
 5977.00    2.10520   2.03441   -1.000
 5978.00    2.10459   2.03918   -1.000
 5979.00    2.11853   2.05226   -1.000
 5980.00    2.12301   2.06519   -1.000
 5981.00    2.13160   2.06827   -1.000
 5982.00    2.13867   2.05689   -1.000
 5983.00    2.12258   2.03718   -1.000
 5984.00    2.10938   2.02265   -1.000
 5985.00    2.12462   2.02328   -1.000
 5986.00    2.13700   2.03603   -1.000
 5987.00    2.13226   2.05030   -1.000
 5988.00    2.14443   2.06078   -1.000
 5989.00    2.15306   2.06660   -1.000
 5990.00    2.15229   2.06759   -1.000
 5991.00    2.16458   2.06746   -1.000
 5992.00    2.18314   2.07310   -1.000
 5993.00    2.19188   2.08504   -1.000
 5994.00    2.17827   2.09374   -1.000
 5995.00    2.16531   2.09097   -1.000
 5996.00    2.14550   2.07866   -1.000
 5997.00    2.14389   2.06596   -1.000
 5998.00    2.14891   2.06132   -1.000
 5999.00    2.15655   2.06561   -1.000
 6000.00    2.15132   2.07125   -1.000
 6001.00    2.15806   2.07128   -1.000
 6002.00    2.15391   2.06586   -1.000
 6003.00    2.15584   2.06104   -1.000
 6004.00    2.14529   2.06128   -1.000
 6005.00    2.13759   2.06011   -1.000
 6006.00    2.12677   2.04938   -1.000
 6007.00    2.12774   2.03357   -1.000
 6008.00    2.13272   2.02720   -1.000
 6009.00    2.13657   2.03923   -1.000
 6010.00    2.14848   2.05904   -1.000
 6011.00    2.15743   2.06775   -1.000
 6012.00    2.14143   2.06226   -1.000
 6013.00    2.13272   2.05395   -1.000
 6014.00    2.14522   2.05176   -1.000
 6015.00    2.14821   2.05375   -1.000
 6016.00    2.16118   2.05415   -1.000
 6017.00    2.15416   2.05301   -1.000
 6018.00    2.14431   2.05073   -1.000
 6019.00    2.15120   2.04457   -1.000
 6020.00    2.12965   2.03703   -1.000
 6021.00    2.13297   2.03504   -1.000
 6022.00    2.14398   2.03998   -1.000
 6023.00    2.14780   2.04830   -1.000
 6024.00    2.15005   2.05832   -1.000
 6025.00    2.15381   2.06980   -1.000
 6026.00    2.17179   2.08019   -1.000
 6027.00    2.19458   2.08796   -1.000
 6028.00    2.17952   2.09535   -1.000
 6029.00    2.16009   2.10256   -1.000
 6030.00    2.16942   2.10752   -1.000
 6031.00    2.16717   2.11097   -1.000
 6032.00    2.16532   2.11489   -1.000
 6033.00    2.18517   2.11991   -1.000
 6034.00    2.20223   2.12570   -1.000
 6035.00    2.20925   2.13009   -1.000
 6036.00    2.20618   2.13021   -1.000
 6037.00    2.17946   2.12558   -1.000
 6038.00    2.18188   2.11805   -1.000
 6039.00    2.18878   2.11012   -1.000
 6040.00    2.18162   2.10447   -1.000
 6041.00    2.18792   2.10071   -1.000
 6042.00    2.18262   2.09600   -1.000
 6043.00    2.19080   2.09647   -1.000
 6044.00    2.20619   2.10862   -1.000
 6045.00    2.20115   2.12339   -1.000
 6046.00    2.20961   2.13178   -1.000
 6047.00    2.21769   2.13521   -1.000
 6048.00    2.20538   2.13707   -1.000
 6049.00    2.20813   2.13768   -1.000
 6050.00    2.20630   2.13665   -1.000
 6051.00    2.19175   2.13300   -1.000
 6052.00    2.20085   2.12616   -1.000
 6053.00    2.20618   2.11720   -1.000
 6054.00    2.19896   2.10744   -1.000
 6055.00    2.19822   2.09841   -1.000
 6056.00    2.19189   2.09355   -1.000
 6057.00    2.19310   2.09587   -1.000
 6058.00    2.19250   2.10367   -1.000
 6059.00    2.18604   2.11222   -1.000
 6060.00    2.14996   2.11679   -1.000
 6061.00    2.24466   2.11378   -1.000
 6062.00    2.18112   2.10166   -1.000
 6063.00    1.26226   2.08224   -1.000
 6064.00    1.38444   2.06341   -1.000
 6065.00    2.45684   2.05752   -1.000
 6066.00    2.19579   2.07160   -1.000
 6067.00    2.12755   2.09821   56.446
 6068.00    2.02136   2.12186   -1.000
 6069.00    1.26642   2.13484   -1.000
 6070.00    0.96444   2.14051   -1.000
 6071.00    2.28197   2.14335   -1.000
 6072.00    2.24255   2.14372   -1.000
 6073.00    2.23833   2.14231   -1.000
 6074.00    2.20936   2.14112   -1.000
 6075.00    2.20251   2.13700   -1.000
 6076.00    2.20878   2.12675   -1.000
 6077.00    2.18380   2.11293   -1.000
 6078.00    2.18141   2.10109   -1.000
 6079.00    2.18634   2.09514   -1.000
 6080.00    2.18070   2.09258   -1.000
 6081.00    2.17189   2.08897   -1.000
 6082.00    2.15829   2.08531   -1.000
 6083.00    2.15271   2.08445   -1.000
 6084.00    2.15978   2.08586   -1.000
 6085.00    2.16776   2.08895   -1.000
 6086.00    2.18059   2.09426   -1.000
 6087.00    2.19085   2.09979   -1.000
 6088.00    2.19189   2.10097   -1.000
 6089.00    2.17637   2.09542   -1.000
 6090.00    2.15302   2.08698   -1.000
 6091.00    2.16750   2.08266   -1.000
 6092.00    2.16923   2.08590   -1.000
 6093.00    2.19347   2.09515   -1.000
 6094.00    2.21119   2.10651   -1.000
 6095.00    2.22094   2.11541   -1.000
 6096.00    2.20549   2.11996   -1.000
 6097.00    2.20157   2.12288   -1.000
 6098.00    2.20837   2.12564   -1.000
 6099.00    2.20033   2.12209   -1.000
 6100.00    2.19193   2.10283   -1.000
 6101.00    2.16290   2.06731   -1.000
 6102.00    2.11882   2.03369   -1.000
 6103.00    2.12196   2.02673   -1.000
 6104.00    2.14333   2.04888   -1.000
 6105.00    2.17365   2.07970   -1.000
 6106.00    2.18424   2.10055   -1.000
 6107.00    2.18507   2.11049   -1.000
 6108.00    2.18041   2.11729   -1.000
 6109.00    2.18586   2.12338   -1.000
 6110.00    2.19108   2.12544   -1.000
 6111.00    2.20194   2.12411   -1.000
 6112.00    2.19730   2.12469   -1.000
 6113.00    2.19415   2.12895   -1.000
 6114.00    2.19625   2.13251   -1.000
 6115.00    2.18304   2.13145   -1.000
 6116.00    2.17965   2.12802   -1.000
 6117.00    2.18288   2.12464   -1.000
 6118.00    2.18224   2.11586   -1.000
 6119.00    2.16680   2.09527   -1.000
 6120.00    2.14336   2.06465   -1.000
 6121.00    2.11264   2.03463   -1.000
 6122.00    2.10673   2.02355   -1.000
 6123.00    2.12913   2.04064   -1.000
 6124.00    2.14689   2.07013   -1.000
 6125.00    2.16720   2.09079   -1.000
 6126.00    2.16067   2.09743   -1.000
 6127.00    2.15203   2.09616   -1.000
 6128.00    2.15407   2.09596   -1.000
 6129.00    2.16515   2.10384   -1.000
 6130.00    2.17731   2.11877   -1.000
 6131.00    2.17785   2.13276   -1.000
 6132.00    2.18506   2.13800   -1.000
 6133.00    2.17165   2.12756   -1.000
 6134.00    2.13761   2.09441   -1.000
 6135.00    2.10078   2.04152   -1.000
 6136.00    2.05614   1.99247   -1.000
 6137.00    2.02092   1.97806   -1.000
 6138.00    2.04548   2.00325   -1.000
 6139.00    2.09622   2.04028   -1.000
 6140.00    2.12220   2.06012   -1.000
 6141.00    2.11335   2.06485   -1.000
 6142.00    2.07476   2.07476  165.151
 6143.00    2.10274   2.09568  164.906
 6144.00    2.14649   2.11630   -1.000
 6145.00    2.16155   2.12569   -1.000
 6146.00    2.16190   2.12298   -1.000
 6147.00    2.16656   2.11320   -1.000
 6148.00    2.16453   2.10172   -1.000
 6149.00    2.15242   2.09306   -1.000
 6150.00    2.15911   2.09076   -1.000
 6151.00    2.15422   2.09557   -1.000
 6152.00    2.14920   2.10265   -1.000
 6153.00    2.15845   2.10418   -1.000
 6154.00    2.16146   2.09753   -1.000
 6155.00    2.15432   2.08886   -1.000
 6156.00    2.14915   2.08415   -1.000
 6157.00    2.14557   2.08159   -1.000
 6158.00    2.11661   2.07291   -1.000
 6159.00    2.08514   2.04686   -1.000
 6160.00    2.04568   1.99956   -1.000
 6161.00    2.01170   1.94708   -1.000
 6162.00    1.97254   1.91825   -1.000
 6163.00    1.98660   1.92751   -1.000
 6164.00    2.02205   1.96241   -1.000
 6165.00    2.04387   1.99930   -1.000
 6166.00    2.07345   2.02101   -1.000
 6167.00    2.05349   2.02173   -1.000
 6168.00    2.04050   2.00559   -1.000
 6169.00    2.02505   1.98938   -1.000
 6170.00    2.01838   1.99251   -1.000
 6171.00    2.07109   2.01621   -1.000
 6172.00    2.08968   2.04318   -1.000
 6173.00    2.08004   2.06045   -1.000
 6174.00    2.09701   2.06892   -1.000
 6175.00    2.09034   2.07290   -1.000
 6176.00    2.08994   2.07534   -1.000
 6177.00    2.09713   2.07932   -1.000
 6178.00    2.11141   2.08507   -1.000
 6179.00    2.10410   2.09000  167.765
 6180.00    2.10668   2.09458  167.210
 6181.00    2.10425   2.10124  166.619
 6182.00    2.11301   2.10775  165.898
 6183.00    2.11516   2.10960  165.712
 6184.00    2.12387   2.10522   -1.000
 6185.00    2.11416   2.09522   -1.000
 6186.00    2.10046   2.08188   -1.000
 6187.00    2.09145   2.06878   -1.000
 6188.00    2.07300   2.05569   -1.000
 6189.00    2.05023   2.03734   -1.000
 6190.00    2.03134   2.01508   -1.000
 6191.00    2.02293   2.00379   -1.000
 6192.00    2.03817   2.01645   -1.000
 6193.00    2.07344   2.04669   -1.000
 6194.00    2.11102   2.07642   -1.000
 6195.00    2.12613   2.09508   -1.000
 6196.00    2.11248   2.10246  167.479
 6197.00    2.11055   2.09901  167.628
 6198.00    2.10803   2.08591   -1.000
 6199.00    2.08635   2.07246  171.009
 6200.00    2.08226   2.07142  171.929
 6201.00    2.07685   2.08415  171.197
 6202.00    2.08058   2.10102   -1.000
 6203.00    2.10077   2.11358  167.437
 6204.00    2.10319   2.12011  167.302
 6205.00    2.12348   2.12344  167.268
 6206.00    2.12049   2.12612  167.007
 6207.00    2.11978   2.12790  167.206
 6208.00    2.13640   2.12669  167.773
 6209.00    2.12764   2.12111  167.839
 6210.00    2.11028   2.11064  168.894
 6211.00    2.08496   2.09356  170.477
 6212.00    2.06904   2.06906  171.842
 6213.00    2.04787   2.04320  173.812
 6214.00    2.03422   2.02680  176.369
 6215.00    2.04553   2.02499   -1.000
 6216.00    2.05486   2.03247   -1.000
 6217.00    2.04596   2.03861  175.019
 6218.00    2.04755   2.03679  174.950
 6219.00    2.04556   2.03090   -1.000
 6220.00    2.02117   2.03095  174.934
 6221.00    1.91581   2.04037   -1.000
 6222.00    2.02178   2.05254   -1.000
 6223.00    2.10649   2.06076   -1.000
 6224.00    2.08936   2.06521   -1.000
 6225.00    2.09348   2.06849   -1.000
 6226.00    2.10452   2.06913   -1.000
 6227.00    2.09116   2.06130   -1.000
 6228.00    2.07884   2.03994   -1.000
 6229.00    2.06057   2.00878   -1.000
 6230.00    1.99908   1.98307   -1.000
 6231.00    1.98366   1.97860  181.922
 6232.00    2.01065   1.99810   -1.000
 6233.00    2.03432   2.03097  177.373
 6234.00    2.06993   2.06197  174.051
 6235.00    2.10938   2.07893   -1.000
 6236.00    2.10849   2.07789   -1.000
 6237.00    2.09688   2.06421   -1.000
 6238.00    2.09033   2.04704   -1.000
 6239.00    2.06969   2.03378   -1.000
 6240.00    2.05563   2.02697   -1.000
 6241.00    2.04507   2.02294   -1.000
 6242.00    2.03665   2.01564   -1.000
 6243.00    2.03044   2.00481   -1.000
 6244.00    2.01998   1.99614   -1.000
 6245.00    2.02539   1.99543   -1.000
 6246.00    2.04349   2.00679   -1.000
 6247.00    2.04953   2.02894   -1.000
 6248.00    2.05434   2.05199  175.184
 6249.00    2.06496   2.06352  173.803
 6250.00    2.05494   2.05664  174.232
 6251.00    2.04464   2.03426  176.415
 6252.00    2.03273   2.00877   -1.000
 6253.00    1.99893   1.99282  181.429
 6254.00    1.98430   1.98811  182.405
 6255.00    2.01335   1.98693   -1.000
 6256.00    2.01871   1.98280   -1.000
 6257.00    2.00145   1.97844   -1.000
 6258.00    1.98954   1.98266   -1.000
 6259.00    2.01030   1.99974   -1.000
 6260.00    2.05344   2.02492   -1.000
 6261.00    2.05588   2.04993  178.747
 6262.00    2.06908   2.06851  176.267
 6263.00    2.09201   2.07620   -1.000
 6264.00    2.09175   2.07398   -1.000
 6265.00    2.08088   2.07047  175.351
 6266.00    2.07722   2.07310  176.004
 6267.00    2.06062   2.07881  174.886
 6268.00    2.04946   2.07992   -1.000
 6269.00    2.05467   2.07645  174.919
 6270.00    2.05309   2.07481   -1.000
 6271.00    2.06056   2.07785  175.104
 6272.00    2.07112   2.08133  174.518
 6273.00    2.08751   2.07814  174.332
 6274.00    2.07393   2.06503  175.073
 6275.00    2.06659   2.04557   -1.000
 6276.00    2.03225   2.02581  178.209
 6277.00    1.98414   2.00919   -1.000
 6278.00    1.93567   1.99658   -1.000
 6279.00    1.89992   1.98894   -1.000
 6280.00    1.88997   1.99028   -1.000
 6281.00    1.87143   2.00380   -1.000
 6282.00    1.89609   2.02660   -1.000
 6283.00    1.92616   2.05132   -1.000
 6284.00    1.91184   2.07158   -1.000
 6285.00    1.92571   2.08584   -1.000
 6286.00    1.96298   2.09625   -1.000
 6287.00    2.01709   2.10356   -1.000
 6288.00    2.05204   2.10476   -1.000
 6289.00    2.07485   2.09757   -1.000
 6290.00    2.05966   2.08541   -1.000
 6291.00    2.03771   2.07497   -1.000
 6292.00    2.02619   2.07017   -1.000
 6293.00    2.02470   2.06947   -1.000
 6294.00    2.00222   2.06732   -1.000
 6295.00    1.98924   2.05863   -1.000
 6296.00    1.91029   2.04533   -1.000
 6297.00    1.75558   2.03564   -1.000
 6298.00    1.46483   2.03370   -1.000
 6299.00    1.08342   2.03397   -1.000
 6300.00    0.59058   2.02959   -1.000
 6301.00    0.08677   2.02418   -1.000
 6302.00    0.49725   2.02774   -1.000
 6303.00    1.87653   2.04259   -1.000
 6304.00    2.74862   2.06185   -1.000
 6305.00    2.51804   2.07919   -1.000
 6306.00    2.25354   2.09355   -1.000
 6307.00    2.11659   2.10461  173.469
 6308.00    2.09592   2.10972  172.159
 6309.00    2.09475   2.10780  172.250
 6310.00    2.07869   2.10133   -1.000
 6311.00    2.04488   2.09375   -1.000
 6312.00    2.03952   2.08634   -1.000
 6313.00    2.03219   2.07727   -1.000
 6314.00    2.03049   2.06579   -1.000
 6315.00    2.02508   2.05504   -1.000
 6316.00    2.01167   2.04695   -1.000
 6317.00    1.99882   2.04130   -1.000
 6318.00    1.99697   2.04247   -1.000
 6319.00    2.00884   2.05509   -1.000
 6320.00    2.04179   2.07364   -1.000
 6321.00    2.05303   2.08911   -1.000
 6322.00    2.07074   2.10091   -1.000
 6323.00    2.07061   2.11300   -1.000
 6324.00    2.08415   2.12453   -1.000
 6325.00    2.08837   2.13120   -1.000
 6326.00    2.07980   2.13216   -1.000
 6327.00    2.08223   2.13068   -1.000
 6328.00    2.09221   2.12955   -1.000
 6329.00    2.09889   2.12916   -1.000
 6330.00    2.09499   2.13065   -1.000
 6331.00    2.09826   2.13466   -1.000
 6332.00    2.10732   2.13576   -1.000
 6333.00    2.09928   2.12552   -1.000
 6334.00    2.07538   2.10308   -1.000
 6335.00    2.04142   2.07984   -1.000
 6336.00    2.03223   2.07037   -1.000
 6337.00    2.04769   2.07816   -1.000
 6338.00    2.07138   2.09536   -1.000
 6339.00    2.08648   2.11341   -1.000
 6340.00    2.09016   2.12637   -1.000
 6341.00    2.08917   2.12963   -1.000
 6342.00    2.08577   2.12297   -1.000
 6343.00    2.08776   2.11292  168.111
 6344.00    2.08254   2.10850  169.494
 6345.00    2.06460   2.11337   -1.000
 6346.00    2.06957   2.12454   -1.000
 6347.00    2.08380   2.13786   -1.000
 6348.00    2.10749   2.15052   -1.000
 6349.00    2.10159   2.16010   -1.000
 6350.00    2.10921   2.16476   -1.000
 6351.00    2.09265   2.16344   -1.000
 6352.00    2.08309   2.15547   -1.000
 6353.00    2.06249   2.14211   -1.000
 6354.00    2.05360   2.12841   -1.000
 6355.00    2.05465   2.11953   -1.000
 6356.00    2.05017   2.11362   -1.000
 6357.00    2.05025   2.10450   -1.000
 6358.00    2.02686   2.09210   -1.000
 6359.00    2.00528   2.08197   -1.000
 6360.00    1.95201   2.07571   -1.000
 6361.00    1.89598   2.07139   -1.000
 6362.00    1.84304   2.07060   -1.000
 6363.00    1.70441   2.07668   -1.000
 6364.00    1.50377   2.08932   -1.000
 6365.00    1.47694   2.10504   -1.000
 6366.00    1.72598   2.12087   -1.000
 6367.00    1.97710   2.13430   -1.000
 6368.00    2.12824   2.14201  167.762
 6369.00    2.09172   2.14340   -1.000
 6370.00    2.07243   2.14354   -1.000
 6371.00    2.07695   2.14794   -1.000
 6372.00    2.07649   2.15661   -1.000
 6373.00    2.06104   2.16467   -1.000
 6374.00    2.06209   2.16810   -1.000
 6375.00    2.03821   2.16687   -1.000
 6376.00    2.03389   2.16227   -1.000
 6377.00    2.01759   2.15510   -1.000
 6378.00    2.01867   2.14717   -1.000
 6379.00    2.02231   2.14111   -1.000
 6380.00    2.02257   2.13855   -1.000
 6381.00    2.00451   2.13947   -1.000
 6382.00    2.00825   2.14213   -1.000
 6383.00    2.01874   2.14445   -1.000
 6384.00    2.02513   2.14683   -1.000
 6385.00    2.00916   2.15115   -1.000
 6386.00    1.99429   2.15692   -1.000
 6387.00    1.99584   2.16120   -1.000
 6388.00    1.98368   2.16228   -1.000
 6389.00    1.97008   2.15952   -1.000
 6390.00    1.96392   2.14982   -1.000
 6391.00    1.93912   2.13060   -1.000
 6392.00    1.91846   2.10793   -1.000
 6393.00    1.89320   2.09654   -1.000
 6394.00    1.87882   2.10610   -1.000
 6395.00    1.89970   2.12904   -1.000
 6396.00    1.92639   2.14675   -1.000
 6397.00    1.90884   2.14490   -1.000
 6398.00    1.88690   2.12338   -1.000
 6399.00    1.85192   2.09897   -1.000
 6400.00    1.81402   2.09370   -1.000
 6401.00    1.81995   2.11367   -1.000
 6402.00    1.85373   2.14435   -1.000
 6403.00    1.86811   2.16761   -1.000
 6404.00    1.84890   2.17499   -1.000
 6405.00    1.84561   2.16686   -1.000
 6406.00    1.84326   2.14931   -1.000
 6407.00    1.80241   2.13200   -1.000
 6408.00    1.77164   2.12414   -1.000
 6409.00    1.77146   2.12698   -1.000
 6410.00    1.76321   2.13144   -1.000
 6411.00    1.74894   2.13207   -1.000
 6412.00    1.72672   2.13389   -1.000
 6413.00    1.71132   2.13985   -1.000
 6414.00    1.70957   2.14682   -1.000
 6415.00    1.70788   2.15238   -1.000
 6416.00    1.71270   2.15509   -1.000
 6417.00    1.68756   2.15165   -1.000
 6418.00    1.66511   2.13931   -1.000
 6419.00    1.64197   2.12167   -1.000
 6420.00    1.60723   2.10989   -1.000
 6421.00    1.57261   2.11490   -1.000
 6422.00    1.57366   2.13589   -1.000
 6423.00    1.58531   2.16033   -1.000
 6424.00    1.59314   2.17792   -1.000
 6425.00    1.58584   2.18822   -1.000
 6426.00    1.56749   2.19335   -1.000
 6427.00    1.54154   2.19020   -1.000
 6428.00    1.51732   2.17374   -1.000
