###################################################################
## OUTPUT of StarlightChains_v04.for    [Cid@UFSC - 01/Apr/2007] ##
###################################################################

## Some input info
NGC6528_c_2.cxt                          [arq_obs]
Base.BC03.S                              [arq_base]
NGC6528_c_2.msk                          [arq_masks]
StCv04.C99.config                        [arq_config]
  150                                    [N_base]
    0                                    [N_YAV_components = # of components with extra extinction!]
    0                                    [i_FitPowerLaw (1/0 = Yes/No)]
-9.99                                    [alpha_PowerLaw]
CCM                                      [red_law_option]
 1.458241                                [q_norm = A(l_norm)/A(V)]

## (Re)Sampling Parameters
 3359.00                                 [l_ini (A)]
 6428.00                                 [l_fin (A)]
    1.00                                 [dl    (A)]     (OBS: dl_cushion =    50.00 A)

## Normalization info
 4020.00                                 [l_norm (A) - for base]
 4010.00                                 [llow_norm (A) - window for f_obs]
 4060.00                                 [lupp_norm (A) - window for f_obs]
4.572307E-15                             [fobs_norm (in input units)]

## S/N
 4730.00                                 [llow_SN (A) - window for S/N]
 4780.00                                 [lupp_SN (A) - window for S/N]
  26.838                                 [S/N in S/N window]
  13.309                                 [S/N in norm. window]
 348.211                                 [S/N_err in S/N window]
 172.676                                 [S/N_err in norm. window]
  1.0000                                 [fscale_chi2]

## etc...
  2147483601                             [idum_orig]
  3066                                   [NOl_eff]
   532                                   [Nl_eff]
  2534    NSIGMA                         [Ntot_cliped & clip_method]
  4441710                                [Nglobal_steps]
   7                                     [N_chains]
  27                                     [NEX0s_base = N_base in EX0s-fits]
 0   0   1      162   2.0   3.907E+02    [Clip-Bug, RC-Crash & Burn-In warning-flags, n_censored_weights, wei_nsig_threshold & wei_limit]
   164    164.707    164.707      0.000  [idt_all, wdt_TotTime, wdt_UsrTime & wdt_SysTime (sec)]

## Synthesis Results - Best model ##

 2.89727E+00                             [chi2/Nl_eff]
     2.40400                             [adev (%)]

   104.51258                             [sum-of-x (%)]
 1.97748E-14                             [Flux_tot (units of input spectrum!)]
 2.32076E-09                             [Mini_tot (???)]
 1.15342E-09                             [Mcor_tot (???)]

   1.65                                  [v0_min  (km/s)]
 101.49                                  [vd_min  (km/s)]
 1.0575                                  [AV_min  (mag)]
 0.0000                                  [YAV_min (mag)]

# j     x_j(%)      Mini_j(%)     Mcor_j(%)     age_j(yr)     Z_j      (L/M)_j    YAV?  Mstars   component_j        a/Fe...       SSP_chi2r SSP_adev(%)   SSP_AV   SSP_x(%)
  1      3.8272     3.8239E-03    7.6940E-03    1.000000E+06  0.00010  8.160E-03    0   1.0000   age020_m22            0.0000     6.2698E+03    48.6751   4.0000    90.1469
  2      1.8467     3.1636E-04    6.3654E-04    3.160000E+06  0.00010  4.759E-02    0   1.0000   age045_m22            0.0000     8.6150E+02    14.5265   4.0000   101.0061
  3      1.2275     5.1800E-04    9.9867E-04    5.010000E+06  0.00010  1.932E-02    0   0.9582   age055_m22            0.0000     1.5550E+03    24.4148   4.0000    93.2218
  4      0.0000     0.0000E+00    0.0000E+00    6.610000E+06  0.00010  9.973E-03    0   0.9297   age061_m22            0.0000     6.2797E+03    48.0459   4.0000    92.9351
  5      0.0000     0.0000E+00    0.0000E+00    8.710000E+06  0.00010  7.690E-03    0   0.9030   age067_m22            0.0000     6.1481E+03    47.6112   4.0000    93.4929
  6      0.0000     0.0000E+00    0.0000E+00    1.000000E+07  0.00010  6.375E-03    0   0.8902   age070_m22            0.0000     6.1059E+03    47.4211   4.0000    93.7219
  7      0.0000     0.0000E+00    0.0000E+00    1.445000E+07  0.00010  4.874E-03    0   0.8589   age078_m22            0.0000     5.0843E+03    43.6718   4.0000    97.2919
  8      0.0000     0.0000E+00    0.0000E+00    2.512000E+07  0.00010  4.103E-03    0   0.8174   age090_m22            0.0000     3.3447E+03    34.9197   4.0000   103.6533
  9      0.0000     0.0000E+00    0.0000E+00    4.000000E+07  0.00010  3.654E-03    0   0.7830   age104_m22            0.0000     2.4932E+03    27.7244   4.0000   106.9557
 10      0.0000     0.0000E+00    0.0000E+00    5.500000E+07  0.00010  3.093E-03    0   0.7597   age110_m22            0.0000     2.2376E+03    25.2214   4.0000   107.7509
 11      0.0000     0.0000E+00    0.0000E+00    1.015200E+08  0.00010  2.431E-03    0   0.7138   age116_m22            0.0000     1.7933E+03    20.9897   4.0000   107.6901
 12      0.0000     0.0000E+00    0.0000E+00    1.609000E+08  0.00010  1.319E-03    0   0.6775   age120_m22            0.0000     1.2890E+03    17.7416   4.0000   105.0454
 13      0.0000     0.0000E+00    0.0000E+00    2.861200E+08  0.00010  1.075E-03    0   0.6412   age125_m22            0.0000     1.7435E+03    21.3735   4.0000   107.9161
 14      0.0000     0.0000E+00    0.0000E+00    5.088000E+08  0.00010  7.183E-04    0   0.6083   age130_m22            0.0000     1.7592E+03    21.7818   4.0000   106.3139
 15      0.0000     0.0000E+00    0.0000E+00    9.047900E+08  0.00010  4.524E-04    0   0.5785   age135_m22            0.0000     1.7248E+03    21.8889   4.0000   104.7339
 16      0.0000     0.0000E+00    0.0000E+00    1.278050E+09  0.00010  3.018E-04    0   0.5588   age138_m22            0.0000     1.2061E+03    18.4649   3.5218   102.9754
 17      0.1222     3.7011E-03    4.1195E-03    1.434000E+09  0.00010  2.691E-04    0   0.5532   age139_m22            0.0000     1.1048E+03    17.6666   3.3555   102.6772
 18      0.0000     0.0000E+00    0.0000E+00    2.500000E+09  0.00010  1.582E-04    0   0.5296   age150_m22            0.0000     1.0700E+03    17.6577   3.2920   103.2049
 19      0.0000     0.0000E+00    0.0000E+00    4.250000E+09  0.00010  1.007E-04    0   0.5110   age158_m22            0.0000     8.6982E+02    15.9319   3.1409   102.1681
 20      0.0000     0.0000E+00    0.0000E+00    6.250000E+09  0.00010  6.869E-05    0   0.4985   age166_m22            0.0000     7.0246E+02    14.3261   3.0883   100.1015
 21      0.0000     0.0000E+00    0.0000E+00    7.500000E+09  0.00010  5.873E-05    0   0.4931   age171_m22            0.0000     6.8562E+02    14.3035   3.0959    99.5960
 22      0.0000     0.0000E+00    0.0000E+00    1.000000E+10  0.00010  4.481E-05    0   0.4854   age181_m22            0.0000     6.7083E+02    14.1489   3.0499    99.3061
 23      0.0000     0.0000E+00    0.0000E+00    1.300000E+10  0.00010  3.489E-05    0   0.4791   age193_m22            0.0000     6.4244E+02    13.8079   2.9786    98.9143
 24      0.0000     0.0000E+00    0.0000E+00    1.500000E+10  0.00010  3.035E-05    0   0.4766   age201_m22            0.0000     6.2693E+02    13.6276   2.9343    98.8074
 25      0.0000     0.0000E+00    0.0000E+00    1.800000E+10  0.00010  2.510E-05    0   0.4735   age213_m22            0.0000     5.9240E+02    13.2386   2.8594    98.3544
 26      2.0950     2.0194E-03    4.0632E-03    1.000000E+06  0.00040  8.458E-03    0   1.0000   age020_m32            0.0000     6.3338E+03    48.6783   4.0000    90.7791
 27      0.0000     0.0000E+00    0.0000E+00    3.160000E+06  0.00040  3.973E-02    0   1.0000   age045_m32            0.0000     3.2101E+03    33.9146   4.0000   103.3851
 28      0.0000     0.0000E+00    0.0000E+00    5.010000E+06  0.00040  1.935E-02    0   0.9532   age055_m32            0.0000     4.4711E+03    40.8920   4.0000    97.4377
 29      0.0000     0.0000E+00    0.0000E+00    6.610000E+06  0.00040  1.204E-02    0   0.9243   age061_m32            0.0000     5.5402E+03    45.4377   4.0000    95.4273
 30      0.0000     0.0000E+00    0.0000E+00    8.710000E+06  0.00040  9.433E-03    0   0.9001   age067_m32            0.0000     5.3006E+03    44.5055   4.0000    96.5017
 31      0.0000     0.0000E+00    0.0000E+00    1.000000E+07  0.00040  8.053E-03    0   0.8877   age070_m32            0.0000     5.1233E+03    43.8126   4.0000    97.0468
 32      0.0000     0.0000E+00    0.0000E+00    1.445000E+07  0.00040  7.027E-03    0   0.8578   age078_m32            0.0000     3.2599E+03    34.5993   4.0000   101.8339
 33      0.0000     0.0000E+00    0.0000E+00    2.512000E+07  0.00040  4.707E-03    0   0.8166   age090_m32            0.0000     2.3307E+03    28.2192   4.0000   104.3934
 34      0.0000     0.0000E+00    0.0000E+00    4.000000E+07  0.00040  3.714E-03    0   0.7827   age104_m32            0.0000     1.8844E+03    23.2361   4.0000   106.0544
 35      0.0000     0.0000E+00    0.0000E+00    5.500000E+07  0.00040  2.982E-03    0   0.7593   age110_m32            0.0000     1.7880E+03    21.8007   4.0000   106.5084
 36      0.0000     0.0000E+00    0.0000E+00    1.015200E+08  0.00040  2.188E-03    0   0.7143   age116_m32            0.0000     1.6123E+03    19.9742   4.0000   107.3826
 37      0.0000     0.0000E+00    0.0000E+00    1.609000E+08  0.00040  1.690E-03    0   0.6856   age120_m32            0.0000     1.6412E+03    20.8448   4.0000   107.3138
 38      0.0000     0.0000E+00    0.0000E+00    2.861200E+08  0.00040  1.152E-03    0   0.6509   age125_m32            0.0000     1.6504E+03    21.2254   4.0000   105.8973
 39      0.0000     0.0000E+00    0.0000E+00    5.088000E+08  0.00040  7.331E-04    0   0.6182   age130_m32            0.0000     1.6492E+03    21.4133   4.0000   104.1343
 40      0.0000     0.0000E+00    0.0000E+00    9.047900E+08  0.00040  3.960E-04    0   0.5890   age135_m32            0.0000     1.2097E+03    18.3604   3.5528   102.8125
 41      0.0000     0.0000E+00    0.0000E+00    1.278050E+09  0.00040  2.854E-04    0   0.5687   age138_m32            0.0000     1.1269E+03    18.0343   3.3363   104.1936
 42      0.0000     0.0000E+00    0.0000E+00    1.434000E+09  0.00040  2.531E-04    0   0.5632   age139_m32            0.0000     1.1112E+03    17.9616   3.2838   104.1003
 43      0.0000     0.0000E+00    0.0000E+00    2.500000E+09  0.00040  1.488E-04    0   0.5386   age150_m32            0.0000     9.4015E+02    16.6137   3.0037   102.9422
 44      0.0000     0.0000E+00    0.0000E+00    4.250000E+09  0.00040  9.082E-05    0   0.5199   age158_m32            0.0000     6.6529E+02    13.7960   2.8987   100.6145
 45      0.0000     0.0000E+00    0.0000E+00    6.250000E+09  0.00040  6.362E-05    0   0.5076   age166_m32            0.0000     5.1458E+02    12.1861   2.8832    97.9536
 46      0.0000     0.0000E+00    0.0000E+00    7.500000E+09  0.00040  5.289E-05    0   0.5027   age171_m32            0.0000     4.7745E+02    11.7331   2.8293    96.9869
 47      6.8446     1.4049E+00    1.3987E+00    1.000000E+10  0.00040  3.972E-05    0   0.4948   age181_m32            0.0000     4.4479E+02    11.2934   2.7370    95.9066
 48      0.0000     0.0000E+00    0.0000E+00    1.300000E+10  0.00040  3.283E-05    0   0.4870   age193_m32            0.0000     5.0654E+02    11.8923   2.6844    98.1802
 49      0.0000     0.0000E+00    0.0000E+00    1.500000E+10  0.00040  2.925E-05    0   0.4854   age201_m32            0.0000     5.5424E+02    12.4188   2.6644    99.4794
 50      0.0000     0.0000E+00    0.0000E+00    1.800000E+10  0.00040  2.469E-05    0   0.4819   age213_m32            0.0000     5.6800E+02    12.5410   2.6173    99.9211
 51      2.3958     1.7534E-03    3.5280E-03    1.000000E+06  0.00400  1.114E-02    0   1.0000   age020_m42            0.0000     5.9781E+03    47.5027   4.0000    91.4967
 52      0.0000     0.0000E+00    0.0000E+00    3.160000E+06  0.00400  4.073E-02    0   0.9999   age045_m42            0.0000     2.2811E+03    27.3278   4.0000   104.8586
 53      0.0000     0.0000E+00    0.0000E+00    5.010000E+06  0.00400  2.534E-02    0   0.9488   age055_m42            0.0000     3.6346E+03    36.8967   4.0000    99.9675
 54      0.0000     0.0000E+00    0.0000E+00    6.610000E+06  0.00400  2.583E-02    0   0.9220   age061_m42            0.0000     1.9077E+03    24.0296   4.0000   104.3298
 55      0.0000     0.0000E+00    0.0000E+00    8.710000E+06  0.00400  1.706E-02    0   0.8983   age067_m42            0.0000     1.7232E+03    23.9594   4.0000   101.6492
 56      1.2656     8.1184E-04    1.4476E-03    1.000000E+07  0.00400  1.271E-02    0   0.8862   age070_m42            0.0000     1.8320E+03    25.6030   4.0000   100.3369
 57      0.0000     0.0000E+00    0.0000E+00    1.445000E+07  0.00400  7.666E-03    0   0.8571   age078_m42            0.0000     2.7284E+03    32.3670   4.0000    99.3944
 58      0.0000     0.0000E+00    0.0000E+00    2.512000E+07  0.00400  5.070E-03    0   0.8174   age090_m42            0.0000     1.5060E+03    23.0676   4.0000   100.9429
 59      0.0000     0.0000E+00    0.0000E+00    4.000000E+07  0.00400  3.505E-03    0   0.7851   age104_m42            0.0000     9.5925E+02    17.1491   4.0000   100.4994
 60      0.0000     0.0000E+00    0.0000E+00    5.500000E+07  0.00400  3.059E-03    0   0.7629   age110_m42            0.0000     1.0946E+03    16.0982   4.0000   104.0819
 61      0.0000     0.0000E+00    0.0000E+00    1.015200E+08  0.00400  2.268E-03    0   0.7207   age116_m42            0.0000     1.4243E+03    19.3180   4.0000   106.7688
 62      0.0000     0.0000E+00    0.0000E+00    1.609000E+08  0.00400  1.720E-03    0   0.6930   age120_m42            0.0000     1.4029E+03    19.3891   4.0000   106.5122
 63      0.0000     0.0000E+00    0.0000E+00    2.861200E+08  0.00400  1.079E-03    0   0.6613   age125_m42            0.0000     1.3054E+03    19.2268   3.8995   103.4486
 64      0.0000     0.0000E+00    0.0000E+00    5.088000E+08  0.00400  6.261E-04    0   0.6313   age130_m42            0.0000     1.4018E+03    19.9531   3.7118   105.9608
 65      0.0000     0.0000E+00    0.0000E+00    9.047900E+08  0.00400  3.535E-04    0   0.6024   age135_m42            0.0000     1.0449E+03    17.0513   3.2572   107.0739
 66      0.0000     0.0000E+00    0.0000E+00    1.278050E+09  0.00400  2.677E-04    0   0.5837   age138_m42            0.0000     4.6561E+02    11.0940   2.3414   106.9234
 67      0.0000     0.0000E+00    0.0000E+00    1.434000E+09  0.00400  1.910E-04    0   0.5716   age139_m42            0.0000     6.0813E+02    12.4710   2.5579   107.2870
 68      0.0000     0.0000E+00    0.0000E+00    2.500000E+09  0.00400  9.818E-05    0   0.5463   age150_m42            0.0000     2.8302E+02     8.2086   2.2062   103.9643
 69      0.0000     0.0000E+00    0.0000E+00    4.250000E+09  0.00400  5.491E-05    0   0.5269   age158_m42            0.0000     1.8142E+02     6.5166   2.0746   101.5887
 70      0.0000     0.0000E+00    0.0000E+00    6.250000E+09  0.00400  3.857E-05    0   0.5151   age166_m42            0.0000     1.2916E+02     5.5588   1.8928   100.7543
 71      0.0000     0.0000E+00    0.0000E+00    7.500000E+09  0.00400  3.243E-05    0   0.5110   age171_m42            0.0000     1.0544E+02     5.1244   1.7796   100.4654
 72      0.0000     0.0000E+00    0.0000E+00    1.000000E+10  0.00400  2.424E-05    0   0.5028   age181_m42            0.0000     8.0285E+01     4.7392   1.6622   100.1443
 73      0.0000     0.0000E+00    0.0000E+00    1.300000E+10  0.00400  1.883E-05    0   0.4927   age193_m42            0.0000     6.5821E+01     4.5445   1.6074    99.9607
 74      0.0000     0.0000E+00    0.0000E+00    1.500000E+10  0.00400  1.685E-05    0   0.4919   age201_m42            0.0000     6.8998E+01     4.5358   1.6229    99.8895
 75      0.0000     0.0000E+00    0.0000E+00    1.800000E+10  0.00400  1.452E-05    0   0.4874   age213_m42            0.0000     7.6031E+01     4.5749   1.6576    99.9891
 76      0.0000     0.0000E+00    0.0000E+00    1.000000E+06  0.00800  1.286E-02    0   1.0000   age020_m52            0.0000     5.7657E+03    46.5862   4.0000    93.4234
 77      0.0000     0.0000E+00    0.0000E+00    3.160000E+06  0.00800  3.147E-02    0   0.9966   age045_m52            0.0000     5.4613E+03    45.3787   4.0000    95.1546
 78      0.0000     0.0000E+00    0.0000E+00    5.010000E+06  0.00800  2.664E-02    0   0.9443   age055_m52            0.0000     4.0784E+03    39.4410   4.0000    99.0155
 79      0.0000     0.0000E+00    0.0000E+00    6.610000E+06  0.00800  2.151E-02    0   0.9177   age061_m52            0.0000     9.6851E+02    18.6089   4.0000    98.8343
 80      0.0000     0.0000E+00    0.0000E+00    8.710000E+06  0.00800  1.628E-02    0   0.8948   age067_m52            0.0000     1.6698E+03    24.2584   4.0000   101.7740
 81      0.0000     0.0000E+00    0.0000E+00    1.000000E+07  0.00800  1.215E-02    0   0.8827   age070_m52            0.0000     2.4581E+03    30.2405   4.0000   101.9034
 82      0.0000     0.0000E+00    0.0000E+00    1.445000E+07  0.00800  8.739E-03    0   0.8552   age078_m52            0.0000     2.4859E+03    29.9165   4.0000   103.2995
 83      0.0000     0.0000E+00    0.0000E+00    2.512000E+07  0.00800  5.676E-03    0   0.8162   age090_m52            0.0000     1.7186E+03    22.3697   4.0000   105.0545
 84      0.0000     0.0000E+00    0.0000E+00    4.000000E+07  0.00800  3.939E-03    0   0.7841   age104_m52            0.0000     1.4543E+03    18.9986   4.0000   105.6900
 85      0.0000     0.0000E+00    0.0000E+00    5.500000E+07  0.00800  3.155E-03    0   0.7627   age110_m52            0.0000     1.4231E+03    18.1533   4.0000   106.6683
 86      0.0000     0.0000E+00    0.0000E+00    1.015200E+08  0.00800  2.206E-03    0   0.7226   age116_m52            0.0000     1.3582E+03    18.0695   4.0000   107.6626
 87      0.0000     0.0000E+00    0.0000E+00    1.609000E+08  0.00800  1.596E-03    0   0.6963   age120_m52            0.0000     1.3033E+03    18.5222   4.0000   106.4212
 88      0.0000     0.0000E+00    0.0000E+00    2.861200E+08  0.00800  1.002E-03    0   0.6665   age125_m52            0.0000     1.4250E+03    19.7687   3.8622   105.9637
 89      0.0000     0.0000E+00    0.0000E+00    5.088000E+08  0.00800  5.759E-04    0   0.6377   age130_m52            0.0000     1.3870E+03    18.8820   3.4080   110.6314
 90      0.0000     0.0000E+00    0.0000E+00    9.047900E+08  0.00800  2.972E-04    0   0.6086   age135_m52            0.0000     8.4325E+02    14.0965   2.7251   111.2050
 91      0.0000     0.0000E+00    0.0000E+00    1.278050E+09  0.00800  2.242E-04    0   0.5907   age138_m52            0.0000     3.6579E+02     9.5684   2.0436   110.8115
 92      0.0000     0.0000E+00    0.0000E+00    1.434000E+09  0.00800  1.645E-04    0   0.5787   age139_m52            0.0000     3.8693E+02     9.5603   2.2373   109.9186
 93      0.0138     1.4554E-03    1.6162E-03    2.500000E+09  0.00800  7.723E-05    0   0.5519   age150_m52            0.0000     1.7571E+02     6.7399   1.8375   107.2233
 94      0.1559     3.0619E-02    3.2776E-02    4.250000E+09  0.00800  4.151E-05    0   0.5320   age158_m52            0.0000     1.2957E+02     5.8985   1.7658   104.8681
 95      0.0000     0.0000E+00    0.0000E+00    6.250000E+09  0.00800  3.010E-05    0   0.5197   age166_m52            0.0000     7.2003E+01     4.9690   1.5004   104.1294
 96      0.0000     0.0000E+00    0.0000E+00    7.500000E+09  0.00800  2.467E-05    0   0.5139   age171_m52            0.0000     6.2492E+01     4.8542   1.4369   103.9133
 97      0.1402     6.1379E-02    6.2416E-02    1.000000E+10  0.00800  1.862E-05    0   0.5054   age181_m52            0.0000     4.4789E+01     4.7688   1.2419   104.0586
 98      0.0000     0.0000E+00    0.0000E+00    1.300000E+10  0.00800  1.433E-05    0   0.4988   age193_m52            0.0000     3.3475E+01     4.9885   1.0922   105.2057
 99      0.0000     0.0000E+00    0.0000E+00    1.500000E+10  0.00800  1.244E-05    0   0.4936   age201_m52            0.0000     3.1880E+01     5.1824   1.0451   105.8509
100      0.0000     0.0000E+00    0.0000E+00    1.800000E+10  0.00800  1.070E-05    0   0.4888   age213_m52            0.0000     3.2117E+01     5.3776   0.9925   105.8509
101      0.0000     0.0000E+00    0.0000E+00    1.000000E+06  0.02000  1.989E-02    0   1.0000   age020_m62            0.0000     5.8115E+03    46.6854   4.0000    92.5215
102      0.0000     0.0000E+00    0.0000E+00    3.160000E+06  0.02000  3.772E-02    0   0.9858   age045_m62            0.0000     5.2416E+03    44.7037   4.0000    95.0346
103      0.0000     0.0000E+00    0.0000E+00    5.010000E+06  0.02000  3.227E-02    0   0.9342   age055_m62            0.0000     3.0279E+03    33.3381   4.0000   102.5891
104      0.0000     0.0000E+00    0.0000E+00    6.610000E+06  0.02000  2.387E-02    0   0.9090   age061_m62            0.0000     2.7518E+03    32.0621   4.0000   101.0459
105      0.0000     0.0000E+00    0.0000E+00    8.710000E+06  0.02000  1.102E-02    0   0.8861   age067_m62            0.0000     2.7547E+03    32.9029   4.0000    95.5784
106      0.0000     0.0000E+00    0.0000E+00    1.000000E+07  0.02000  1.011E-02    0   0.8751   age070_m62            0.0000     2.3750E+03    30.3690   4.0000    97.8527
107      0.0000     0.0000E+00    0.0000E+00    1.445000E+07  0.02000  7.331E-03    0   0.8472   age078_m62            0.0000     2.1026E+03    28.4093   4.0000    99.1173
108      0.0000     0.0000E+00    0.0000E+00    2.512000E+07  0.02000  4.206E-03    0   0.8099   age090_m62            0.0000     1.9298E+03    27.4496   4.0000    97.9037
109      0.0000     0.0000E+00    0.0000E+00    4.000000E+07  0.02000  3.373E-03    0   0.7799   age104_m62            0.0000     1.3073E+03    19.5979   4.0000   103.7540
110      0.0000     0.0000E+00    0.0000E+00    5.500000E+07  0.02000  2.747E-03    0   0.7595   age110_m62            0.0000     1.2792E+03    17.5526   4.0000   105.7493
111      0.0000     0.0000E+00    0.0000E+00    1.015200E+08  0.02000  1.878E-03    0   0.7221   age116_m62            0.0000     1.4201E+03    18.6877   4.0000   107.8983
112      0.0000     0.0000E+00    0.0000E+00    1.609000E+08  0.02000  1.378E-03    0   0.6978   age120_m62            0.0000     1.5203E+03    19.9649   4.0000   107.9879
113      0.0000     0.0000E+00    0.0000E+00    2.861200E+08  0.02000  8.869E-04    0   0.6700   age125_m62            0.0000     1.7483E+03    21.6858   3.8776   107.8509
114      0.0000     0.0000E+00    0.0000E+00    5.088000E+08  0.02000  4.834E-04    0   0.6430   age130_m62            0.0000     1.4690E+03    19.0494   3.2586   111.9660
115      1.3454     4.7445E-02    5.8728E-02    9.047900E+08  0.02000  2.312E-04    0   0.6152   age135_m62            0.0000     8.1402E+02    13.6914   2.5492   112.6710
116      0.0000     0.0000E+00    0.0000E+00    1.278050E+09  0.02000  1.387E-04    0   0.5927   age138_m62            0.0000     4.1230E+02     9.5626   2.1226   109.3515
117      0.6087     4.2490E-02    5.0141E-02    1.434000E+09  0.02000  1.168E-04    0   0.5865   age139_m62            0.0000     3.4221E+02     8.6548   2.0820   108.0640
118      0.0000     0.0000E+00    0.0000E+00    2.500000E+09  0.02000  5.505E-05    0   0.5610   age150_m62            0.0000     1.3883E+02     5.9934   1.5978   106.4492
119      1.0388     2.7588E-01    3.0014E-01    4.250000E+09  0.02000  3.070E-05    0   0.5407   age158_m62            0.0000     6.2179E+01     5.4552   1.1574   107.7738
120      0.0434     1.6810E-02    1.7849E-02    6.250000E+09  0.02000  2.104E-05    0   0.5277   age166_m62            0.0000     4.7027E+01     5.8353   0.9651   108.8203
121      0.1585     7.3004E-02    7.6720E-02    7.500000E+09  0.02000  1.770E-05    0   0.5223   age171_m62            0.0000     4.8014E+01     6.2101   0.8418   109.5127
122     14.9353     9.3883E+00    9.6735E+00    1.000000E+10  0.02000  1.297E-05    0   0.5121   age181_m62            0.0000     5.8630E+01     7.2365   0.6139   110.6659
123      0.0000     0.0000E+00    0.0000E+00    1.300000E+10  0.02000  9.691E-06    0   0.5047   age193_m62            0.0000     7.2340E+01     7.9562   0.4878   111.4535
124      2.8157     2.7459E+00    2.7619E+00    1.500000E+10  0.02000  8.360E-06    0   0.4999   age201_m62            0.0000     8.9285E+01     8.6018   0.3765   112.1169
125     42.3523     4.9963E+01    4.9722E+01    1.800000E+10  0.02000  6.911E-06    0   0.4946   age213_m62            0.0000     1.1523E+02     9.4139   0.2484   112.9687
126      0.0000     0.0000E+00    0.0000E+00    1.000000E+06  0.05000  2.651E-02    0   0.9998   age020_m72            0.0000     5.6750E+03    46.1534   4.0000    93.6817
127      0.1132     1.9158E-05    3.6917E-05    3.160000E+06  0.05000  4.817E-02    0   0.9577   age045_m72            0.0000     4.4325E+03    40.9873   4.0000    98.9102
128      0.0000     0.0000E+00    0.0000E+00    5.010000E+06  0.05000  3.101E-02    0   0.9147   age055_m72            0.0000     3.4215E+03    35.8812   4.0000   101.0880
129      0.0000     0.0000E+00    0.0000E+00    6.610000E+06  0.05000  1.472E-02    0   0.8877   age061_m72            0.0000     2.9755E+03    33.7865   4.0000    97.9727
130      0.0000     0.0000E+00    0.0000E+00    8.710000E+06  0.05000  1.050E-02    0   0.8638   age067_m72            0.0000     3.5269E+03    36.7903   4.0000    99.5253
131      0.0000     0.0000E+00    0.0000E+00    1.000000E+07  0.05000  8.954E-03    0   0.8524   age070_m72            0.0000     3.8880E+03    38.5998   4.0000   100.3718
132      0.0000     0.0000E+00    0.0000E+00    1.445000E+07  0.05000  6.392E-03    0   0.8262   age078_m72            0.0000     3.5663E+03    37.0005   4.0000   101.4521
133      0.0000     0.0000E+00    0.0000E+00    2.512000E+07  0.05000  4.207E-03    0   0.7902   age090_m72            0.0000     2.3793E+03    29.5400   4.0000   104.6527
134      0.0000     0.0000E+00    0.0000E+00    4.000000E+07  0.05000  3.198E-03    0   0.7618   age104_m72            0.0000     1.5050E+03    18.7830   4.0000   108.0434
135      0.0000     0.0000E+00    0.0000E+00    5.500000E+07  0.05000  2.593E-03    0   0.7432   age110_m72            0.0000     1.5355E+03    18.8742   4.0000   108.7647
136      0.0000     0.0000E+00    0.0000E+00    1.015200E+08  0.05000  1.716E-03    0   0.7092   age116_m72            0.0000     1.5901E+03    19.6495   4.0000   108.9849
137      0.0000     0.0000E+00    0.0000E+00    1.609000E+08  0.05000  1.218E-03    0   0.6876   age120_m72            0.0000     1.6215E+03    20.5442   4.0000   107.7877
138      0.0000     0.0000E+00    0.0000E+00    2.861200E+08  0.05000  7.047E-04    0   0.6618   age125_m72            0.0000     1.6552E+03    20.5268   3.5669   109.1103
139      0.0116     2.6262E-04    3.3585E-04    5.088000E+08  0.05000  3.590E-04    0   0.6356   age130_m72            0.0000     1.2475E+03    16.9005   2.8137   113.5074
140      1.5610     8.5760E-02    1.0505E-01    9.047900E+08  0.05000  1.484E-04    0   0.6088   age135_m72            0.0000     3.9822E+02     9.7088   1.9120   109.7881
141      0.0000     0.0000E+00    0.0000E+00    1.278050E+09  0.05000  9.435E-05    0   0.5924   age138_m72            0.0000     1.6765E+02     7.0855   1.3598   108.4845
142      0.0000     0.0000E+00    0.0000E+00    1.434000E+09  0.05000  7.827E-05    0   0.5847   age139_m72            0.0000     1.3662E+02     6.5404   1.3872   107.9049
143      0.0000     0.0000E+00    0.0000E+00    2.500000E+09  0.05000  3.759E-05    0   0.5583   age150_m72            0.0000     5.0703E+01     5.6726   0.9697   108.2800
144      0.6402     2.8336E-01    3.0639E-01    4.250000E+09  0.05000  1.842E-05    0   0.5374   age158_m72            0.0000     5.2764E+01     6.8632   0.5736   108.6931
145      3.0835     2.0828E+00    2.1968E+00    6.250000E+09  0.05000  1.207E-05    0   0.5242   age166_m72            0.0000     8.5951E+01     8.3633   0.2163   109.4977
146      0.0000     0.0000E+00    0.0000E+00    7.500000E+09  0.05000  9.993E-06    0   0.5183   age171_m72            0.0000     9.1468E+01     8.5238   0.1538   109.6203
147      0.9005     1.0070E+00    1.0295E+00    1.000000E+10  0.05000  7.291E-06    0   0.5081   age181_m72            0.0000     1.2478E+02     9.5526  -0.0674   110.4671
148      0.2561     3.9270E-01    3.9649E-01    1.300000E+10  0.05000  5.316E-06    0   0.5018   age193_m72            0.0000     1.8796E+02    11.1041  -0.3959   111.9433
149      0.0000     0.0000E+00    0.0000E+00    1.500000E+10  0.05000  4.497E-06    0   0.4972   age201_m72            0.0000     2.2434E+02    11.9117  -0.5422   113.0576
150     14.7139     3.2084E+01    3.1787E+01    1.800000E+10  0.05000  3.739E-06    0   0.4924   age213_m72            0.0000     2.7050E+02    12.8547  -0.7431   114.4099


## Synthesis Results - Average & Chains ##

# j      x_j: min, <> & last-chain-values for 1 ...  7 chains
  1      3.8272      3.5070      3.5499      3.4386      3.6923      3.4491      3.5995      3.7078      3.4712
  2      1.8467      1.7094      1.8707      1.6398      1.7703      1.7683      2.0146      1.6909      1.8320
  3      1.2275      0.2023      0.3505      0.4914      0.3454      0.3582      0.0855      0.3324      0.2148
  4      0.0000      0.0457      0.3342      0.0802      0.0418      0.0000      0.0571      0.0000      0.0000
  5      0.0000      0.0636      0.0000      0.0000      0.0000      0.0418      0.0465      0.1576      0.3388
  6      0.0000      0.0281      0.0000      0.0000      0.0348      0.0170      0.0000      0.0000      0.0000
  7      0.0000      0.0329      0.0000      0.0000      0.1013      0.0000      0.0000      0.0000      0.0000
  8      0.0000      0.0512      0.0000      0.0000      0.0000      0.0000      0.0000      0.0000      0.2446
  9      0.0000      0.0213      0.0000      0.0000      0.0000      0.0000      0.0000      0.0000      0.0000
 10      0.0000      0.0170      0.0000      0.0000      0.0129      0.0000      0.0000      0.0000      0.0000
 11      0.0000      0.0149      0.0000      0.0000      0.0000      0.0000      0.0000      0.0000      0.0000
 12      0.0000      0.0170      0.0000      0.0607      0.0000      0.0000      0.0596      0.0000      0.0000
 13      0.0000      0.0117      0.1713      0.0000      0.0000      0.0738      0.0000      0.0000      0.0000
 14      0.0000      0.0179      0.0000      0.0000      0.0990      0.0000      0.0000      0.0000      0.0000
 15      0.0000      0.0169      0.0000      0.0000      0.1393      0.0007      0.0000      0.0000      0.0000
 16      0.0000      0.0234      0.0000      0.0000      0.0000      0.0000      0.0000      0.0000      0.0000
 17      0.1222      0.0219      0.0000      0.0000      0.0000      0.4330      0.0000      0.0550      0.1155
 18      0.0000      0.0412      0.2434      0.0000      0.0000      0.0000      0.0000      0.0000      0.0000
 19      0.0000      0.0408      0.1103      0.0000      0.0000      0.0000      0.0000      0.0000      0.0000
 20      0.0000      0.0401      0.0000      0.1770      0.0000      0.1318      0.0433      0.0000      0.0000
 21      0.0000      0.0438      0.0000      0.0000      0.0000      0.0000      0.0590      0.1171      0.0000
 22      0.0000      0.0505      0.0000      0.3560      0.0000      0.0000      0.0000      0.0350      0.0000
 23      0.0000      0.0528      0.1080      0.4909      0.0000      0.0000      0.1391      0.0259      0.3423
 24      0.0000      0.0579      0.0000      0.1656      0.0000      0.0000      0.0000      0.3626      0.0000
 25      0.0000      0.0460      0.0000      0.0740      0.0000      0.0000      0.1487      0.0000      0.0000
 26      2.0950      1.9174      2.2679      1.9475      2.0175      2.0693      1.9605      2.0175      1.8338
 27      0.0000      0.0344      0.0000      0.0000      0.0000      0.0000      0.0724      0.0000      0.0000
 28      0.0000      0.0449      0.0000      0.0000      0.0280      0.0000      0.0000      0.0000      0.0637
 29      0.0000      0.0345      0.0000      0.0000      0.0000      0.0000      0.0000      0.0000      0.0000
 30      0.0000      0.0908      0.0391      0.0000      0.0241      0.1593      0.1325      0.0000      0.0000
 31      0.0000      0.0385      0.0000      0.0000      0.2732      0.0717      0.0000      0.0000      0.0076
 32      0.0000      0.0332      0.1879      0.0000      0.1559      0.1258      0.1296      0.0000      0.0196
 33      0.0000      0.0197      0.0000      0.0000      0.0000      0.1640      0.0000      0.0000      0.1048
 34      0.0000      0.0248      0.0000      0.0000      0.1230      0.0224      0.0000      0.0000      0.0000
 35      0.0000      0.0220      0.0205      0.0000      0.0000      0.0000      0.0000      0.0000      0.0000
 36      0.0000      0.0117      0.0000      0.0000      0.0000      0.0000      0.0000      0.0000      0.0000
 37      0.0000      0.0109      0.0201      0.0000      0.0000      0.0000      0.0540      0.0000      0.0285
 38      0.0000      0.0126      0.0000      0.0125      0.0006      0.0000      0.0000      0.0000      0.0000
 39      0.0000      0.0145      0.0000      0.0249      0.1239      0.0000      0.0633      0.0000      0.2506
 40      0.0000      0.0281      0.0000      0.0557      0.0000      0.0000      0.0044      0.1306      0.0000
 41      0.0000      0.0240      0.0000      0.0000      0.0000      0.0000      0.0000      0.0000      0.0000
 42      0.0000      0.0332      0.0000      0.0000      0.0000      0.0000      0.0000      0.0000      0.1005
 43      0.0000      0.0434      0.0000      0.0000      0.0000      0.0000      0.2348      0.0000      0.0000
 44      0.0000      0.0553      0.0000      0.2203      0.4028      0.0000      0.0000      0.0000      0.0000
 45      0.0000      0.0669      0.0000      0.1837      0.0000      0.0599      0.0042      0.0000      0.0000
 46      0.0000      0.0758      0.0000      0.2478      0.0000      0.0000      0.1968      0.0000      0.3581
 47      6.8446      5.9143      6.1300      5.7812      6.0619      5.9178      6.1234      6.3646      5.9834
 48      0.0000      0.0722      0.5453      0.0562      0.0502      0.0768      0.0000      0.0000      0.0000
 49      0.0000      0.0496      0.2844      0.0000      0.0001      0.0000      0.2293      0.0000      0.0669
 50      0.0000      0.0568      0.0000      0.0000      0.2407      0.0000      0.0000      0.1140      0.0869
 51      2.3958      2.1900      2.1409      2.4350      2.1576      2.2481      2.5646      2.2765      2.1224
 52      0.0000      0.0407      0.0000      0.0000      0.0000      0.0000      0.0000      0.0000      0.0000
 53      0.0000      0.0550      0.1170      0.0000      0.0000      0.0000      0.1028      0.0000      0.1705
 54      0.0000      0.0208      0.0000      0.0000      0.1157      0.0000      0.0000      0.0000      0.0000
 55      0.0000      0.0431      0.0000      0.1698      0.0000      0.0000      0.0000      0.0000      0.0000
 56      1.2656      1.2148      1.1643      1.1140      0.9417      1.5748      1.1356      1.3604      1.4919
 57      0.0000      0.0330      0.0000      0.2651      0.1005      0.0000      0.0687      0.0000      0.0000
 58      0.0000      0.0244      0.0000      0.0000      0.1631      0.1046      0.0000      0.0000      0.0000
 59      0.0000      0.0272      0.0000      0.0000      0.0000      0.0000      0.0435      0.0000      0.0233
 60      0.0000      0.0148      0.0000      0.0000      0.0000      0.0000      0.0000      0.3377      0.0000
 61      0.0000      0.0142      0.0000      0.0000      0.0000      0.0000      0.0000      0.0000      0.0000
 62      0.0000      0.0158      0.2221      0.0000      0.0000      0.0000      0.0000      0.0000      0.0000
 63      0.0000      0.0173      0.0000      0.0000      0.0000      0.0000      0.0000      0.0000      0.0000
 64      0.0000      0.0126      0.0000      0.0000      0.0000      0.0000      0.0000      0.0000      0.0000
 65      0.0000      0.0185      0.0000      0.0000      0.0000      0.0000      0.0000      0.0000      0.0000
 66      0.0000      0.0265      0.0000      0.0000      0.0000      0.0000      0.0000      0.0680      0.0000
 67      0.0000      0.0264      0.0000      0.0000      0.0000      0.0000      0.0121      0.0000      0.0000
 68      0.0000      0.0531      0.0000      0.0000      0.0201      0.0000      0.0000      0.0000      0.0790
 69      0.0000      0.0568      0.0000      0.0000      0.0000      0.0000      0.0000      0.0000      0.0000
 70      0.0000      0.0570      0.0000      0.0000      0.0000      0.0000      0.0000      0.0000      0.0000
 71      0.0000      0.0553      0.0000      0.1180      0.0000      0.0000      0.0000      0.0000      0.0000
 72      0.0000      0.0397      0.0000      0.0000      0.0000      0.0000      0.0000      0.0000      0.0000
 73      0.0000      0.0347      0.0000      0.0000      0.0000      0.0000      0.0000      0.0000      0.0000
 74      0.0000      0.0348      0.0000      0.0000      0.0015      0.0000      0.0000      0.0000      0.0562
 75      0.0000      0.0341      0.0000      0.0000      0.0000      0.0000      0.0000      0.0051      0.0000
 76      0.0000      0.0416      0.0000      0.1767      0.0000      0.0000      0.0000      0.0000      0.1860
 77      0.0000      0.0569      0.0000      0.0064      0.0000      0.0000      0.0000      0.3516      0.0000
 78      0.0000      0.0334      0.0000      0.0000      0.3247      0.0000      0.0000      0.0000      0.0000
 79      0.0000      0.0594      0.3963      0.0416      0.0000      0.0000      0.0000      0.0000      0.1420
 80      0.0000      0.0215      0.0221      0.0000      0.0000      0.0000      0.0912      0.0079      0.0000
 81      0.0000      0.0482      0.0000      0.0000      0.0000      0.0000      0.0000      0.0000      0.0000
 82      0.0000      0.0198      0.0000      0.0000      0.0453      0.0000      0.0000      0.0000      0.0015
 83      0.0000      0.0192      0.1353      0.0000      0.0099      0.1021      0.0778      0.1850      0.0000
 84      0.0000      0.0225      0.0000      0.1289      0.1525      0.0000      0.0218      0.0000      0.0000
 85      0.0000      0.0123      0.0000      0.0000      0.0000      0.0000      0.0000      0.0000      0.0000
 86      0.0000      0.0125      0.0000      0.0000      0.0000      0.0000      0.0000      0.0000      0.0000
 87      0.0000      0.0147      0.0221      0.0000      0.0000      0.0000      0.0112      0.0000      0.0000
 88      0.0000      0.0154      0.0000      0.0000      0.0000      0.0000      0.0000      0.0919      0.0000
 89      0.0000      0.0196      0.0000      0.0000      0.1023      0.0211      0.1564      0.0000      0.0000
 90      0.0000      0.0481      0.0000      0.0000      0.1016      0.0000      0.0000      0.0132      0.0000
 91      0.0000      0.0781      0.0000      0.0000      0.0160      0.0477      0.0344      0.0000      0.2326
 92      0.0000      0.0739      0.0000      0.0000      0.0000      0.0609      0.0000      0.2359      0.0000
 93      0.0138      0.1402      0.0000      0.1119      0.0000      0.2710      0.0634      0.1776      0.0000
 94      0.1559      0.1849      0.0000      0.8185      0.0000      0.4539      0.5895      0.0000      0.0970
 95      0.0000      0.2426      0.0000      0.0000      0.0000      0.0000      0.0946      0.2392      0.5672
 96      0.0000      0.2294      0.2506      0.3564      0.0000      0.0878      0.0000      0.0144      0.1846
 97      0.1402      0.2630      0.0000      0.0000      0.1648      0.2378      0.2388      0.7716      0.1519
 98      0.0000      0.1938      0.0000      0.2056      0.0000      0.0000      0.1489      0.0000      0.0000
 99      0.0000      0.1807      0.0000      0.0000      0.2416      0.0000      0.0958      0.0000      0.0785
100      0.0000      0.1603      0.0000      0.0000      0.0000      0.0000      0.4220      0.1673      0.1555
101      0.0000      0.0259      0.0000      0.0000      0.0180      0.0000      0.1121      0.0000      0.0114
102      0.0000      0.0320      0.0000      0.0000      0.0000      0.1203      0.0000      0.0000      0.0178
103      0.0000      0.0341      0.0701      0.0000      0.0789      0.0000      0.0000      0.0000      0.2656
104      0.0000      0.0375      0.0000      0.0000      0.0065      0.0000      0.0000      0.0000      0.0000
105      0.0000      0.0242      0.0390      0.0000      0.0000      0.0000      0.0596      0.0000      0.0000
106      0.0000      0.0450      0.0000      0.1482      0.0000      0.0000      0.0000      0.0000      0.0775
107      0.0000      0.0421      0.0000      0.0485      0.0000      0.0000      0.0644      0.0068      0.0000
108      0.0000      0.0351      0.0230      0.0000      0.0124      0.0000      0.0000      0.0000      0.0000
109      0.0000      0.0283      0.0000      0.0000      0.0000      0.0000      0.0000      0.0000      0.0953
110      0.0000      0.0192      0.0000      0.0000      0.0000      0.0280      0.0000      0.0000      0.0000
111      0.0000      0.0119      0.0000      0.0491      0.0000      0.0000      0.0000      0.0000      0.0000
112      0.0000      0.0134      0.0000      0.0000      0.0000      0.0000      0.0000      0.0000      0.0000
113      0.0000      0.0153      0.0000      0.0000      0.0000      0.0000      0.0000      0.0000      0.0000
114      0.0000      0.0203      0.2144      0.0000      0.0000      0.0000      0.1717      0.0000      0.0000
115      1.3454      0.0529      0.0000      0.1309      0.0841      0.2214      0.0000      0.0000      0.0000
116      0.0000      0.1156      0.0000      0.0000      0.2014      0.0840      0.9721      0.4232      0.3299
117      0.6087      0.1100      0.0440      0.0000      0.3186      0.5897      0.0754      0.3033      0.0000
118      0.0000      0.1948      0.4057      0.4232      0.0000      0.0000      0.0000      0.0559      0.0000
119      1.0388      2.9937      2.1409      1.6982      3.3839      3.0287      2.5505      3.6174      3.3356
120      0.0434      0.3151      0.0000      0.0000      0.0000      0.3513      0.3189      0.0904      0.0000
121      0.1585      0.4771      0.0259      1.0553      1.0564      0.3504      0.5478      0.2094      1.3840
122     14.9353     15.9534     18.0144     15.4274     14.9249     17.0800     16.6708     15.6526     15.3921
123      0.0000      0.4883      0.4181      0.4330      0.0781      0.2183      0.2608      0.0000      0.5056
124      2.8157      2.6246      2.7528      3.8012      5.4389      2.8465      2.8290      2.6511      2.2938
125     42.3523     38.8034     39.3749     40.1608     38.0253     39.2694     39.2318     40.4792     39.6620
126      0.0000      0.0392      0.0000      0.0000      0.0000      0.1335      0.1041      0.0000      0.1074
127      0.1132      0.0588      0.0000      0.0000      0.0231      0.2197      0.0000      0.0000      0.0000
128      0.0000      0.0391      0.0000      0.1337      0.0000      0.0000      0.0138      0.1727      0.0000
129      0.0000      0.0402      0.0000      0.1925      0.0000      0.0000      0.0000      0.0000      0.0000
130      0.0000      0.0309      0.0000      0.0000      0.0000      0.0200      0.0000      0.0000      0.0000
131      0.0000      0.0384      0.0000      0.0000      0.0116      0.0000      0.0000      0.0000      0.0000
132      0.0000      0.0325      0.0000      0.0000      0.0563      0.0000      0.0460      0.0000      0.0000
133      0.0000      0.0281      0.0000      0.0000      0.0000      0.0000      0.0000      0.0000      0.0000
134      0.0000      0.0142      0.0000      0.1082      0.0000      0.0000      0.0000      0.0000      0.0389
135      0.0000      0.0103      0.0000      0.0000      0.0000      0.0000      0.0000      0.0000      0.0000
136      0.0000      0.0119      0.0000      0.0000      0.0000      0.0000      0.0000      0.0000      0.0000
137      0.0000      0.0107      0.0000      0.0000      0.0000      0.0352      0.0000      0.0000      0.0000
138      0.0000      0.0153      0.0003      0.0000      0.0000      0.0000      0.0000      0.0000      0.0000
139      0.0116      0.0272      0.0000      0.0000      0.0567      0.2514      0.0000      0.0000      0.0000
140      1.5610      0.0862      0.3759      0.1767      0.0000      0.3115      0.0000      0.2937      0.0196
141      0.0000      0.1693      0.0000      0.7480      0.6259      0.0000      0.0628      0.0000      0.0508
142      0.0000      0.1729      0.0000      0.0000      0.2910      0.0000      0.0000      0.0000      0.0566
143      0.0000      0.3623      1.4035      0.0000      0.0000      0.0000      0.0000      0.3314      0.2794
144      0.6402      0.3831      0.1019      0.0288      0.5795      0.4769      0.0853      0.2329      0.6044
145      3.0835      0.4990      0.0000      0.0000      0.7502      1.0665      0.1633      0.0000      0.3588
146      0.0000      0.6941      1.0074      0.8998      0.3342      0.0779      0.8267      0.8214      0.8437
147      0.9005      0.4104      0.5477      0.0892      0.0926      0.8165      0.3287      0.5542      0.3549
148      0.2561      0.4789      0.0219      0.5562      0.5927      0.6781      0.4864      0.0252      0.5229
149      0.0000      0.2054      0.2875      0.1121      0.7464      0.0000      0.0000      0.0672      0.0000
150     14.7139     16.9730     16.5830     16.6729     16.3695     16.1672     17.1392     17.1450     16.7161

# j      m_j: min, <> & last-chain-values for 1 ...  7 chains
  1  7.6940E-03  6.9232E-03  7.0271E-03  6.7516E-03  7.2906E-03  6.8689E-03  7.0741E-03  7.2850E-03  6.8751E-03
  2  6.3654E-04  5.7861E-04  6.3496E-04  5.5205E-04  5.9936E-04  6.0382E-04  6.7888E-04  5.6963E-04  6.2214E-04
  3  9.9867E-04  1.6162E-04  2.8078E-04  3.9046E-04  2.7604E-04  2.8866E-04  6.8021E-05  2.6434E-04  1.7220E-04
  4  0.0000E+00  6.8659E-05  5.0325E-04  1.1982E-04  6.2799E-05  0.0000E+00  8.5393E-05  0.0000E+00  0.0000E+00
  5  0.0000E+00  1.2027E-04  0.0000E+00  0.0000E+00  0.0000E+00  7.9711E-05  8.7550E-05  2.9661E-04  6.4298E-04
  6  0.0000E+00  6.3282E-05  0.0000E+00  0.0000E+00  7.8321E-05  3.8616E-05  0.0000E+00  0.0000E+00  0.0000E+00
  7  0.0000E+00  9.3383E-05  0.0000E+00  0.0000E+00  2.8768E-04  0.0000E+00  0.0000E+00  0.0000E+00  0.0000E+00
  8  0.0000E+00  1.6419E-04  0.0000E+00  0.0000E+00  0.0000E+00  0.0000E+00  0.0000E+00  0.0000E+00  7.8743E-04
  9  0.0000E+00  7.3562E-05  0.0000E+00  0.0000E+00  0.0000E+00  0.0000E+00  0.0000E+00  0.0000E+00  0.0000E+00
 10  0.0000E+00  6.7101E-05  0.0000E+00  0.0000E+00  5.1191E-05  0.0000E+00  0.0000E+00  0.0000E+00  0.0000E+00
 11  0.0000E+00  7.0621E-05  0.0000E+00  0.0000E+00  0.0000E+00  0.0000E+00  0.0000E+00  0.0000E+00  0.0000E+00
 12  0.0000E+00  1.4072E-04  0.0000E+00  4.9938E-04  0.0000E+00  0.0000E+00  4.9105E-04  0.0000E+00  0.0000E+00
 13  0.0000E+00  1.1200E-04  1.6504E-03  0.0000E+00  0.0000E+00  7.1509E-04  0.0000E+00  0.0000E+00  0.0000E+00
 14  0.0000E+00  2.4427E-04  0.0000E+00  0.0000E+00  1.3508E-03  0.0000E+00  0.0000E+00  0.0000E+00  0.0000E+00
 15  0.0000E+00  3.4803E-04  0.0000E+00  0.0000E+00  2.8707E-03  1.3880E-05  0.0000E+00  0.0000E+00  0.0000E+00
 16  0.0000E+00  6.9866E-04  0.0000E+00  0.0000E+00  0.0000E+00  0.0000E+00  0.0000E+00  0.0000E+00  0.0000E+00
 17  4.1195E-03  7.2428E-04  0.0000E+00  0.0000E+00  0.0000E+00  1.4465E-02  0.0000E+00  1.8141E-03  3.8375E-03
 18  0.0000E+00  2.2231E-03  1.3162E-02  0.0000E+00  0.0000E+00  0.0000E+00  0.0000E+00  0.0000E+00  0.0000E+00
 19  0.0000E+00  3.3368E-03  9.0413E-03  0.0000E+00  0.0000E+00  0.0000E+00  0.0000E+00  0.0000E+00  0.0000E+00
 20  0.0000E+00  4.6871E-03  0.0000E+00  2.0585E-02  0.0000E+00  1.5543E-02  5.0387E-03  0.0000E+00  0.0000E+00
 21  0.0000E+00  5.9306E-03  0.0000E+00  0.0000E+00  0.0000E+00  0.0000E+00  7.9379E-03  1.5757E-02  0.0000E+00
 22  0.0000E+00  8.8109E-03  0.0000E+00  6.1783E-02  0.0000E+00  0.0000E+00  0.0000E+00  6.0841E-03  0.0000E+00
 23  0.0000E+00  1.1688E-02  2.3961E-02  1.0801E-01  0.0000E+00  0.0000E+00  3.0626E-02  5.7028E-03  7.5965E-02
 24  0.0000E+00  1.4635E-02  0.0000E+00  4.1655E-02  0.0000E+00  0.0000E+00  0.0000E+00  9.1287E-02  0.0000E+00
 25  0.0000E+00  1.3987E-02  0.0000E+00  2.2369E-02  0.0000E+00  0.0000E+00  4.4982E-02  0.0000E+00  0.0000E+00
 26  4.0632E-03  3.6517E-03  4.3311E-03  3.6891E-03  3.8433E-03  3.9758E-03  3.7172E-03  3.8243E-03  3.5041E-03
 27  0.0000E+00  1.3939E-05  0.0000E+00  0.0000E+00  0.0000E+00  0.0000E+00  2.9241E-05  0.0000E+00  0.0000E+00
 28  0.0000E+00  3.5648E-05  0.0000E+00  0.0000E+00  2.2240E-05  0.0000E+00  0.0000E+00  0.0000E+00  5.0752E-05
 29  0.0000E+00  4.2636E-05  0.0000E+00  0.0000E+00  0.0000E+00  0.0000E+00  0.0000E+00  0.0000E+00  0.0000E+00
 30  0.0000E+00  1.3957E-04  6.0287E-05  0.0000E+00  3.7056E-05  2.4695E-04  2.0272E-04  0.0000E+00  0.0000E+00
 31  0.0000E+00  6.8378E-05  0.0000E+00  0.0000E+00  4.8528E-04  1.2836E-04  0.0000E+00  0.0000E+00  1.3507E-05
 32  0.0000E+00  6.5380E-05  3.7045E-04  0.0000E+00  3.0672E-04  2.4959E-04  2.5365E-04  0.0000E+00  3.8649E-05
 33  0.0000E+00  5.5007E-05  0.0000E+00  0.0000E+00  0.0000E+00  4.6223E-04  0.0000E+00  0.0000E+00  2.9371E-04
 34  0.0000E+00  8.4194E-05  0.0000E+00  0.0000E+00  4.1767E-04  7.6821E-05  0.0000E+00  0.0000E+00  0.0000E+00
 35  0.0000E+00  9.0092E-05  8.4192E-05  0.0000E+00  0.0000E+00  0.0000E+00  0.0000E+00  0.0000E+00  0.0000E+00
 36  0.0000E+00  6.1546E-05  0.0000E+00  0.0000E+00  0.0000E+00  0.0000E+00  0.0000E+00  0.0000E+00  0.0000E+00
 37  0.0000E+00  7.1270E-05  1.3168E-04  0.0000E+00  0.0000E+00  0.0000E+00  3.5155E-04  0.0000E+00  1.8715E-04
 38  0.0000E+00  1.1464E-04  0.0000E+00  1.1339E-04  5.6795E-06  0.0000E+00  0.0000E+00  0.0000E+00  0.0000E+00
 39  0.0000E+00  1.9727E-04  0.0000E+00  3.3590E-04  1.6829E-03  0.0000E+00  8.5626E-04  0.0000E+00  3.4154E-03
 40  0.0000E+00  6.7351E-04  0.0000E+00  1.3276E-03  0.0000E+00  0.0000E+00  1.0436E-04  3.1146E-03  0.0000E+00
 41  0.0000E+00  7.7110E-04  0.0000E+00  0.0000E+00  0.0000E+00  0.0000E+00  0.0000E+00  0.0000E+00  0.0000E+00
 42  0.0000E+00  1.1911E-03  0.0000E+00  0.0000E+00  0.0000E+00  0.0000E+00  0.0000E+00  0.0000E+00  3.6131E-03
 43  0.0000E+00  2.5316E-03  0.0000E+00  0.0000E+00  0.0000E+00  0.0000E+00  1.3632E-02  0.0000E+00  0.0000E+00
 44  0.0000E+00  5.0990E-03  0.0000E+00  2.0209E-02  3.7155E-02  0.0000E+00  0.0000E+00  0.0000E+00  0.0000E+00
 45  0.0000E+00  8.5936E-03  0.0000E+00  2.3485E-02  0.0000E+00  7.7656E-03  5.3518E-04  0.0000E+00  0.0000E+00
 46  0.0000E+00  1.1611E-02  0.0000E+00  3.7742E-02  0.0000E+00  0.0000E+00  2.9996E-02  0.0000E+00  5.5012E-02
 47  1.3987E+00  1.1868E+00  1.2335E+00  1.1538E+00  1.2167E+00  1.1980E+00  1.2233E+00  1.2711E+00  1.2047E+00
 48  0.0000E+00  1.7243E-02  1.3067E-01  1.3360E-02  1.2000E-02  1.8510E-02  0.0000E+00  0.0000E+00  0.0000E+00
 49  0.0000E+00  1.3256E-02  7.6222E-02  0.0000E+00  2.3901E-05  0.0000E+00  6.1026E-02  0.0000E+00  1.7933E-02
 50  0.0000E+00  1.7855E-02  0.0000E+00  0.0000E+00  7.5701E-02  0.0000E+00  0.0000E+00  3.5670E-02  2.7419E-02
 51  3.5280E-03  3.1667E-03  3.1043E-03  3.5021E-03  3.1205E-03  3.2795E-03  3.6920E-03  3.2764E-03  3.0792E-03
 52  0.0000E+00  1.6096E-05  0.0000E+00  0.0000E+00  0.0000E+00  0.0000E+00  0.0000E+00  0.0000E+00  0.0000E+00
 53  0.0000E+00  3.3155E-05  7.0757E-05  0.0000E+00  0.0000E+00  0.0000E+00  6.1714E-05  0.0000E+00  1.0315E-04
 54  0.0000E+00  1.1948E-05  0.0000E+00  0.0000E+00  6.6520E-05  0.0000E+00  0.0000E+00  0.0000E+00  0.0000E+00
 55  0.0000E+00  3.6542E-05  0.0000E+00  1.4322E-04  0.0000E+00  0.0000E+00  0.0000E+00  0.0000E+00  0.0000E+00
 56  1.4476E-03  1.3645E-03  1.3114E-03  1.2445E-03  1.0579E-03  1.7844E-03  1.2698E-03  1.5208E-03  1.6812E-03
 57  0.0000E+00  5.9495E-05  0.0000E+00  4.7482E-04  1.8100E-04  0.0000E+00  1.2323E-04  0.0000E+00  0.0000E+00
 58  0.0000E+00  6.3254E-05  0.0000E+00  0.0000E+00  4.2359E-04  2.7415E-04  0.0000E+00  0.0000E+00  0.0000E+00
 59  0.0000E+00  9.8228E-05  0.0000E+00  0.0000E+00  0.0000E+00  0.0000E+00  1.5611E-04  0.0000E+00  8.4233E-05
 60  0.0000E+00  5.9531E-05  0.0000E+00  0.0000E+00  0.0000E+00  0.0000E+00  0.0000E+00  1.3503E-03  0.0000E+00
 61  0.0000E+00  7.2471E-05  0.0000E+00  0.0000E+00  0.0000E+00  0.0000E+00  0.0000E+00  0.0000E+00  0.0000E+00
 62  0.0000E+00  1.0285E-04  1.4456E-03  0.0000E+00  0.0000E+00  0.0000E+00  0.0000E+00  0.0000E+00  0.0000E+00
 63  0.0000E+00  1.7104E-04  0.0000E+00  0.0000E+00  0.0000E+00  0.0000E+00  0.0000E+00  0.0000E+00  0.0000E+00
 64  0.0000E+00  2.0506E-04  0.0000E+00  0.0000E+00  0.0000E+00  0.0000E+00  0.0000E+00  0.0000E+00  0.0000E+00
 65  0.0000E+00  5.0833E-04  0.0000E+00  0.0000E+00  0.0000E+00  0.0000E+00  0.0000E+00  0.0000E+00  0.0000E+00
 66  0.0000E+00  9.2909E-04  0.0000E+00  0.0000E+00  0.0000E+00  0.0000E+00  0.0000E+00  2.3776E-03  0.0000E+00
 67  0.0000E+00  1.2710E-03  0.0000E+00  0.0000E+00  0.0000E+00  0.0000E+00  5.7988E-04  0.0000E+00  0.0000E+00
 68  0.0000E+00  4.7586E-03  0.0000E+00  0.0000E+00  1.8018E-03  0.0000E+00  0.0000E+00  0.0000E+00  7.1079E-03
 69  0.0000E+00  8.7739E-03  0.0000E+00  0.0000E+00  0.0000E+00  0.0000E+00  0.0000E+00  0.0000E+00  0.0000E+00
 70  0.0000E+00  1.2272E-02  0.0000E+00  0.0000E+00  0.0000E+00  0.0000E+00  0.0000E+00  0.0000E+00  0.0000E+00
 71  0.0000E+00  1.4027E-02  0.0000E+00  2.9786E-02  0.0000E+00  0.0000E+00  0.0000E+00  0.0000E+00  0.0000E+00
 72  0.0000E+00  1.3278E-02  0.0000E+00  0.0000E+00  0.0000E+00  0.0000E+00  0.0000E+00  0.0000E+00  0.0000E+00
 73  0.0000E+00  1.4639E-02  0.0000E+00  0.0000E+00  0.0000E+00  0.0000E+00  0.0000E+00  0.0000E+00  0.0000E+00
 74  0.0000E+00  1.6379E-02  0.0000E+00  0.0000E+00  6.8403E-04  0.0000E+00  0.0000E+00  0.0000E+00  2.6532E-02
 75  0.0000E+00  1.8440E-02  0.0000E+00  0.0000E+00  0.0000E+00  0.0000E+00  0.0000E+00  2.7438E-03  0.0000E+00
 76  0.0000E+00  5.2146E-05  0.0000E+00  2.2010E-04  0.0000E+00  0.0000E+00  0.0000E+00  0.0000E+00  2.3372E-04
 77  0.0000E+00  2.9040E-05  0.0000E+00  3.2473E-06  0.0000E+00  0.0000E+00  0.0000E+00  1.7854E-04  0.0000E+00
 78  0.0000E+00  1.9050E-05  0.0000E+00  0.0000E+00  1.8543E-04  0.0000E+00  0.0000E+00  0.0000E+00  0.0000E+00
 79  0.0000E+00  4.0814E-05  2.7308E-04  2.8455E-05  0.0000E+00  0.0000E+00  0.0000E+00  0.0000E+00  9.7921E-05
 80  0.0000E+00  1.9064E-05  1.9596E-05  0.0000E+00  0.0000E+00  0.0000E+00  8.0423E-05  6.9251E-06  0.0000E+00
 81  0.0000E+00  5.6452E-05  0.0000E+00  0.0000E+00  0.0000E+00  0.0000E+00  0.0000E+00  0.0000E+00  0.0000E+00
 82  0.0000E+00  3.1155E-05  0.0000E+00  0.0000E+00  7.1461E-05  0.0000E+00  0.0000E+00  0.0000E+00  2.4258E-06
 83  0.0000E+00  4.4580E-05  3.1433E-04  0.0000E+00  2.2841E-05  2.3851E-04  1.7939E-04  4.2649E-04  0.0000E+00
 84  0.0000E+00  7.2079E-05  0.0000E+00  4.1115E-04  4.8918E-04  0.0000E+00  6.9735E-05  0.0000E+00  0.0000E+00
 85  0.0000E+00  4.7828E-05  0.0000E+00  0.0000E+00  0.0000E+00  0.0000E+00  0.0000E+00  0.0000E+00  0.0000E+00
 86  0.0000E+00  6.5791E-05  0.0000E+00  0.0000E+00  0.0000E+00  0.0000E+00  0.0000E+00  0.0000E+00  0.0000E+00
 87  0.0000E+00  1.0341E-04  1.5567E-04  0.0000E+00  0.0000E+00  0.0000E+00  7.8654E-05  0.0000E+00  0.0000E+00
 88  0.0000E+00  1.6481E-04  0.0000E+00  0.0000E+00  0.0000E+00  0.0000E+00  0.0000E+00  9.8035E-04  0.0000E+00
 89  0.0000E+00  3.4974E-04  0.0000E+00  0.0000E+00  1.8243E-03  3.8028E-04  2.7768E-03  0.0000E+00  0.0000E+00
 90  0.0000E+00  1.5883E-03  0.0000E+00  0.0000E+00  3.3507E-03  0.0000E+00  0.0000E+00  4.3355E-04  0.0000E+00
 91  0.0000E+00  3.3156E-03  0.0000E+00  0.0000E+00  6.7839E-04  2.0408E-03  1.4539E-03  0.0000E+00  9.9036E-03
 92  0.0000E+00  4.1900E-03  0.0000E+00  0.0000E+00  0.0000E+00  3.4821E-03  0.0000E+00  1.3304E-02  0.0000E+00
 93  1.6162E-03  1.6135E-02  0.0000E+00  1.2809E-02  0.0000E+00  3.1475E-02  7.2605E-03  2.0344E-02  0.0000E+00
 94  3.2776E-02  3.8180E-02  0.0000E+00  1.6808E-01  0.0000E+00  9.4541E-02  1.2117E-01  0.0000E+00  2.0090E-02
 95  0.0000E+00  6.7487E-02  0.0000E+00  0.0000E+00  0.0000E+00  0.0000E+00  2.6183E-02  6.6210E-02  1.5829E-01
 96  0.0000E+00  7.6965E-02  8.4312E-02  1.1894E-01  0.0000E+00  2.9719E-02  0.0000E+00  4.8067E-03  6.2153E-02
 97  6.2416E-02  1.1501E-01  0.0000E+00  0.0000E+00  7.2058E-02  1.0488E-01  1.0394E-01  3.3578E-01  6.6616E-02
 98  0.0000E+00  1.0867E-01  0.0000E+00  1.1469E-01  0.0000E+00  0.0000E+00  8.3113E-02  0.0000E+00  0.0000E+00
 99  0.0000E+00  1.1549E-01  0.0000E+00  0.0000E+00  1.5442E-01  0.0000E+00  6.0954E-02  0.0000E+00  5.0325E-02
100  0.0000E+00  1.1797E-01  0.0000E+00  0.0000E+00  0.0000E+00  0.0000E+00  3.0918E-01  1.2250E-01  1.1481E-01
101  0.0000E+00  2.1000E-05  0.0000E+00  0.0000E+00  1.4606E-05  0.0000E+00  9.0390E-05  0.0000E+00  9.2356E-06
102  0.0000E+00  1.3461E-05  0.0000E+00  0.0000E+00  0.0000E+00  5.1094E-05  0.0000E+00  0.0000E+00  7.5253E-06
103  0.0000E+00  1.5886E-05  3.2792E-05  0.0000E+00  3.6819E-05  0.0000E+00  0.0000E+00  0.0000E+00  1.2425E-04
104  0.0000E+00  2.3031E-05  0.0000E+00  0.0000E+00  3.9729E-06  0.0000E+00  0.0000E+00  0.0000E+00  0.0000E+00
105  0.0000E+00  3.1366E-05  5.0689E-05  0.0000E+00  0.0000E+00  0.0000E+00  7.6897E-05  0.0000E+00  0.0000E+00
106  0.0000E+00  6.2748E-05  0.0000E+00  2.0555E-04  0.0000E+00  0.0000E+00  0.0000E+00  0.0000E+00  1.0836E-04
107  0.0000E+00  7.8392E-05  0.0000E+00  8.9825E-05  0.0000E+00  0.0000E+00  1.1938E-04  1.2665E-05  0.0000E+00
108  0.0000E+00  1.0877E-04  7.1493E-05  0.0000E+00  3.8518E-05  0.0000E+00  0.0000E+00  0.0000E+00  0.0000E+00
109  0.0000E+00  1.0530E-04  0.0000E+00  0.0000E+00  0.0000E+00  0.0000E+00  0.0000E+00  0.0000E+00  3.5617E-04
110  0.0000E+00  8.5552E-05  0.0000E+00  0.0000E+00  0.0000E+00  1.2573E-04  0.0000E+00  0.0000E+00  0.0000E+00
111  0.0000E+00  7.3720E-05  0.0000E+00  3.0226E-04  0.0000E+00  0.0000E+00  0.0000E+00  0.0000E+00  0.0000E+00
112  0.0000E+00  1.0910E-04  0.0000E+00  0.0000E+00  0.0000E+00  0.0000E+00  0.0000E+00  0.0000E+00  0.0000E+00
113  0.0000E+00  1.8566E-04  0.0000E+00  0.0000E+00  0.0000E+00  0.0000E+00  0.0000E+00  0.0000E+00  0.0000E+00
114  0.0000E+00  4.3410E-04  4.6064E-03  0.0000E+00  0.0000E+00  0.0000E+00  3.6619E-03  0.0000E+00  0.0000E+00
115  5.8728E-02  2.2687E-03  0.0000E+00  5.5797E-03  3.6070E-03  9.5738E-03  0.0000E+00  0.0000E+00  0.0000E+00
116  0.0000E+00  7.9548E-03  0.0000E+00  0.0000E+00  1.3864E-02  5.8322E-03  6.6617E-02  2.8995E-02  2.2781E-02
117  5.0141E-02  8.9009E-03  3.5714E-03  0.0000E+00  2.5773E-02  4.8118E-02  6.0737E-03  2.4415E-02  0.0000E+00
118  0.0000E+00  3.1977E-02  6.6775E-02  6.9099E-02  0.0000E+00  0.0000E+00  0.0000E+00  9.1255E-03  0.0000E+00
119  3.0014E-01  8.4935E-01  6.0907E-01  4.7920E-01  9.6026E-01  8.6685E-01  7.2037E-01  1.0215E+00  9.4947E-01
120  1.7849E-02  1.2732E-01  0.0000E+00  0.0000E+00  0.0000E+00  1.4319E-01  1.2827E-01  3.6332E-02  0.0000E+00
121  7.6720E-02  2.2677E-01  1.2349E-02  4.9891E-01  5.0226E-01  1.6802E-01  2.5922E-01  9.9043E-02  6.6005E-01
122  9.6735E+00  1.0147E+01  1.1489E+01  9.7594E+00  9.4946E+00  1.0959E+01  1.0556E+01  9.9084E+00  9.8221E+00
123  0.0000E+00  4.0967E-01  3.5171E-01  3.6131E-01  6.5575E-02  1.8477E-01  2.1781E-01  0.0000E+00  4.2557E-01
124  2.7619E+00  2.5281E+00  2.6589E+00  3.6417E+00  5.2401E+00  2.7660E+00  2.7129E+00  2.5416E+00  2.2168E+00
125  4.9722E+01  4.4734E+01  4.5518E+01  4.6050E+01  4.3847E+01  4.5671E+01  4.5027E+01  4.6446E+01  4.5876E+01
126  0.0000E+00  2.3843E-05  0.0000E+00  0.0000E+00  0.0000E+00  8.1829E-05  6.2961E-05  0.0000E+00  6.5472E-05
127  3.6917E-05  1.8820E-05  0.0000E+00  0.0000E+00  7.3877E-06  7.0983E-05  0.0000E+00  0.0000E+00  0.0000E+00
128  0.0000E+00  1.8572E-05  0.0000E+00  6.3176E-05  0.0000E+00  0.0000E+00  6.5388E-06  8.1688E-05  0.0000E+00
129  0.0000E+00  3.9059E-05  0.0000E+00  1.8603E-04  0.0000E+00  0.0000E+00  0.0000E+00  0.0000E+00  0.0000E+00
130  0.0000E+00  4.0993E-05  0.0000E+00  0.0000E+00  0.0000E+00  2.6728E-05  0.0000E+00  0.0000E+00  0.0000E+00
131  0.0000E+00  5.8935E-05  0.0000E+00  0.0000E+00  1.7748E-05  0.0000E+00  0.0000E+00  0.0000E+00  0.0000E+00
132  0.0000E+00  6.7703E-05  0.0000E+00  0.0000E+00  1.1725E-04  0.0000E+00  9.5368E-05  0.0000E+00  0.0000E+00
133  0.0000E+00  8.5167E-05  0.0000E+00  0.0000E+00  0.0000E+00  0.0000E+00  0.0000E+00  0.0000E+00  0.0000E+00
134  0.0000E+00  5.4398E-05  0.0000E+00  4.1291E-04  0.0000E+00  0.0000E+00  0.0000E+00  0.0000E+00  1.4960E-04
135  0.0000E+00  4.7718E-05  0.0000E+00  0.0000E+00  0.0000E+00  0.0000E+00  0.0000E+00  0.0000E+00  0.0000E+00
136  0.0000E+00  7.9538E-05  0.0000E+00  0.0000E+00  0.0000E+00  0.0000E+00  0.0000E+00  0.0000E+00  0.0000E+00
137  0.0000E+00  9.7069E-05  0.0000E+00  0.0000E+00  0.0000E+00  3.2297E-04  0.0000E+00  0.0000E+00  0.0000E+00
138  0.0000E+00  2.3145E-04  5.1805E-06  0.0000E+00  0.0000E+00  0.0000E+00  0.0000E+00  0.0000E+00  0.0000E+00
139  3.3585E-04  7.7697E-04  0.0000E+00  0.0000E+00  1.6187E-03  7.2338E-03  0.0000E+00  0.0000E+00  0.0000E+00
140  1.0505E-01  5.6967E-03  2.4909E-02  1.1611E-02  0.0000E+00  2.0770E-02  0.0000E+00  1.9320E-02  1.2983E-03
141  0.0000E+00  1.7125E-02  0.0000E+00  7.5249E-02  6.3320E-02  0.0000E+00  6.3277E-03  0.0000E+00  5.1517E-03
142  0.0000E+00  2.0806E-02  0.0000E+00  0.0000E+00  3.5029E-02  0.0000E+00  0.0000E+00  0.0000E+00  6.8354E-03
143  0.0000E+00  8.6680E-02  3.3672E-01  0.0000E+00  0.0000E+00  0.0000E+00  0.0000E+00  7.8914E-02  6.7075E-02
144  3.0639E-01  1.8006E-01  4.8000E-02  1.3443E-02  2.7239E-01  2.2610E-01  3.9932E-02  1.0894E-01  2.8501E-01
145  2.1968E+00  3.4912E-01  0.0000E+00  0.0000E+00  5.2494E-01  7.5270E-01  1.1377E-01  0.0000E+00  2.5183E-01
146  0.0000E+00  5.7990E-01  8.4397E-01  7.4772E-01  2.7932E-01  6.5631E-02  6.8763E-01  6.8304E-01  7.0724E-01
147  1.0295E+00  4.6071E-01  6.1653E-01  9.9607E-02  1.0400E-01  9.2470E-01  3.6737E-01  6.1916E-01  3.9976E-01
148  3.9649E-01  7.2823E-01  3.3392E-02  8.4121E-01  9.0147E-01  1.0402E+00  7.3625E-01  3.8096E-02  7.9776E-01
149  0.0000E+00  3.6578E-01  5.1350E-01  1.9854E-01  1.3295E+00  0.0000E+00  0.0000E+00  1.1913E-01  0.0000E+00
150  3.1787E+01  3.6006E+01  3.5276E+01  3.5179E+01  3.4734E+01  3.4599E+01  3.6197E+01  3.6199E+01  3.5579E+01

# AV, chi2 & Mass for <> & i_chain = 1 ...  7 solutions
AV       1.0575      1.0312      1.0417      1.0391      1.0373      1.0421      1.0393      1.0352      1.0412
chi2 2.8973E+00  2.9759E+00  2.9478E+00  2.9469E+00  2.9539E+00  2.9461E+00  2.9483E+00  2.9519E+00  2.9522E+00
Mass 1.1534E-09  1.1339E-09  1.1468E-09  1.1522E-09  1.1430E-09  1.1406E-09  1.1514E-09  1.1455E-09  1.1454E-09
   1.71                                  [v0_min (km/s) before EX0s...]
 102.39                                  [vd_min (km/s) before EX0s...]


## Synthetic spectrum (Best Model) ##l_obs f_obs f_syn wei
 3070    [Nl_obs]
 3359.00    0.26891   0.40048   -1.000
 3360.00    0.28396   0.37789   -1.000
 3361.00    0.27327   0.37995   -1.000
 3362.00    0.26212   0.40352   -1.000
 3363.00    0.26184   0.43498   -1.000
 3364.00    0.27323   0.45746   -1.000
 3365.00    0.30327   0.46044   -1.000
 3366.00    0.30170   0.44565   -1.000
 3367.00    0.30462   0.42316   -1.000
 3368.00    0.31847   0.40199   -1.000
 3369.00    0.31149   0.38697   -1.000
 3370.00    0.34088   0.37885   -1.000
 3371.00    0.31621   0.37844   -1.000
 3372.00    0.29847   0.38823   -1.000
 3373.00    0.28740   0.40909   -1.000
 3374.00    0.30933   0.43710   -1.000
 3375.00    0.33803   0.46385   -1.000
 3376.00    0.33117   0.47924   -1.000
 3377.00    0.32740   0.47690   -1.000
 3378.00    0.34567   0.46007   -1.000
 3379.00    0.32598   0.44051   -1.000
 3380.00    0.31990   0.43013   -1.000
 3381.00    0.32623   0.43353   -1.000
 3382.00    0.32054   0.44621   -1.000
 3383.00    0.31465   0.46117   -1.000
 3384.00    0.32522   0.47391   -1.000
 3385.00    0.35282   0.48283   -1.000
 3386.00    0.37742   0.48698   -1.000
 3387.00    0.38014   0.48698   -1.000
 3388.00    0.35317   0.48479   -1.000
 3389.00    0.37409   0.48082   -1.000
 3390.00    0.37132   0.47280   -1.000
 3391.00    0.34809   0.46027   -1.000
 3392.00    0.35237   0.44918   -1.000
 3393.00    0.35324   0.44762   -1.000
 3394.00    0.36144   0.45855   -1.000
 3395.00    0.35351   0.47791   -1.000
 3396.00    0.37657   0.49904   -1.000
 3397.00    0.39686   0.51837   -1.000
 3398.00    0.42953   0.53354   -1.000
 3399.00    0.42622   0.54147   -1.000
 3400.00    0.40920   0.54033   -1.000
 3401.00    0.41570   0.53090   -1.000
 3402.00    0.42085   0.51669   -1.000
 3403.00    0.41127   0.50246   -1.000
 3404.00    0.40458   0.49050   -1.000
 3405.00    0.42991   0.48046   53.899
 3406.00    0.41771   0.47171   54.735
 3407.00    0.44431   0.46555   54.970
 3408.00    0.42921   0.46457   54.503
 3409.00    0.41834   0.46881   52.922
 3410.00    0.40516   0.47307   -1.000
 3411.00    0.40769   0.46942   -1.000
 3412.00    0.44704   0.45559   55.881
 3413.00    0.44459   0.43839   55.623
 3414.00    0.43729   0.42895   54.122
 3415.00    0.43591   0.43482   51.752
 3416.00    0.43044   0.45451   49.282
 3417.00    0.43786   0.48096   46.985
 3418.00    0.43778   0.50630   -1.000
 3419.00    0.44220   0.52443   -1.000
 3420.00    0.47150   0.53010   46.939
 3421.00    0.49333   0.52182   48.315
 3422.00    0.46286   0.50538   49.173
 3423.00    0.44802   0.49141   47.730
 3424.00    0.46347   0.48571   46.565
 3425.00    0.45051   0.48740   50.432
 3426.00    0.45511   0.49413   -1.000
 3427.00    0.48305   0.50587   -1.000
 3428.00    0.46490   0.52221   -1.000
 3429.00    0.49279   0.53630   -1.000
 3430.00    0.49868   0.53760   -1.000
 3431.00    0.47630   0.52405   46.517
 3432.00    0.47111   0.50504   50.494
 3433.00    0.43877   0.49340   -1.000
 3434.00    0.44592   0.49310   -1.000
 3435.00    0.45292   0.49619   46.414
 3436.00    0.45712   0.49223   48.672
 3437.00    0.45031   0.47604   51.705
 3438.00    0.44378   0.44890   55.653
 3439.00    0.44485   0.41660   57.657
 3440.00    0.40841   0.38744   57.694
 3441.00    0.39588   0.36880   57.229
 3442.00    0.39895   0.36480   54.838
 3443.00    0.40272   0.37351   51.819
 3444.00    0.42009   0.38957   49.061
 3445.00    0.42566   0.40888   52.325
 3446.00    0.43074   0.43030  390.695
 3447.00    0.43703   0.45365   -1.000
 3448.00    0.46093   0.47719   -1.000
 3449.00    0.47890   0.49505   -1.000
 3450.00    0.47775   0.50046   -1.000
 3451.00    0.46959   0.49420   -1.000
 3452.00    0.48682   0.48570  390.695
 3453.00    0.51203   0.48366   -1.000
 3454.00    0.48934   0.48839  390.695
 3455.00    0.48687   0.49162  390.695
 3456.00    0.45915   0.48533   -1.000
 3457.00    0.46273   0.46899   46.418
 3458.00    0.45709   0.44860   46.947
 3459.00    0.43983   0.43207   51.806
 3460.00    0.47226   0.42460   -1.000
 3461.00    0.46018   0.42892   -1.000
 3462.00    0.45044   0.44350   -1.000
 3463.00    0.46339   0.46008  390.695
 3464.00    0.47508   0.46921   -1.000
 3465.00    0.49453   0.47095   -1.000
 3466.00    0.49481   0.47323   -1.000
 3467.00    0.48475   0.48247  390.695
 3468.00    0.50167   0.49751  390.695
 3469.00    0.51616   0.51066  390.695
 3470.00    0.51864   0.51392  390.695
 3471.00    0.51884   0.50316   -1.000
 3472.00    0.50515   0.48016   -1.000
 3473.00    0.48324   0.45122   46.941
 3474.00    0.46891   0.42516   48.377
 3475.00    0.45486   0.41064   53.130
 3476.00    0.46349   0.41317   -1.000
 3477.00    0.45745   0.43051   -1.000
 3478.00    0.46710   0.45396   -1.000
 3479.00    0.50821   0.47374   -1.000
 3480.00    0.52199   0.48378   -1.000
 3481.00    0.49425   0.48309   -1.000
 3482.00    0.48158   0.47569  390.695
 3483.00    0.48204   0.46926   -1.000
 3484.00    0.49298   0.47101   -1.000
 3485.00    0.50172   0.48193   -1.000
 3486.00    0.50363   0.49415   -1.000
 3487.00    0.49320   0.49647  390.695
 3488.00    0.50569   0.48315   -1.000
 3489.00    0.51130   0.45985   -1.000
 3490.00    0.48932   0.43934   -1.000
 3491.00    0.47591   0.43166   -1.000
 3492.00    0.49402   0.43727   -1.000
 3493.00    0.49269   0.44834   -1.000
 3494.00    0.47615   0.45560   -1.000
 3495.00    0.47969   0.45550   -1.000
 3496.00    0.48110   0.45406   -1.000
 3497.00    0.47578   0.46157   -1.000
 3498.00    0.48597   0.48185  369.811
 3499.00    0.50476   0.50727  365.344
 3500.00    0.52082   0.52751  361.218
 3501.00    0.52467   0.54071   -1.000
 3502.00    0.54881   0.54949  370.069
 3503.00    0.57944   0.55330   -1.000
 3504.00    0.55961   0.54997   -1.000
 3505.00    0.53861   0.54088  375.972
 3506.00    0.53310   0.53100  373.022
 3507.00    0.53930   0.52296   -1.000
 3508.00    0.51801   0.51417  390.695
 3509.00    0.51205   0.50206   -1.000
 3510.00    0.51545   0.48742   -1.000
 3511.00    0.51433   0.47197   -1.000
 3512.00    0.52134   0.45755   -1.000
 3513.00    0.47795   0.44811   -1.000
 3514.00    0.45624   0.45058  390.695
 3515.00    0.47514   0.46977  371.362
 3516.00    0.49440   0.50029  368.264
 3517.00    0.51699   0.52754   -1.000
 3518.00    0.52766   0.53814   -1.000
 3519.00    0.53794   0.52805   -1.000
 3520.00    0.52141   0.50333   -1.000
 3521.00    0.51021   0.47367   -1.000
 3522.00    0.49288   0.44610   46.574
 3523.00    0.45424   0.42316   47.962
 3524.00    0.44887   0.40782   55.075
 3525.00    0.42920   0.40591   -1.000
 3526.00    0.42222   0.42130  390.695
 3527.00    0.44521   0.45051  389.775
 3528.00    0.47099   0.48299   -1.000
 3529.00    0.52027   0.50669   -1.000
 3530.00    0.53487   0.51614   -1.000
 3531.00    0.51566   0.51580  390.042
 3532.00    0.49086   0.51525   -1.000
 3533.00    0.49748   0.52021   -1.000
 3534.00    0.53033   0.52933  370.852
 3535.00    0.54909   0.53804   -1.000
 3536.00    0.55280   0.54449   -1.000
 3537.00    0.54479   0.55064  364.349
 3538.00    0.55808   0.55677  368.228
 3539.00    0.54798   0.55926   -1.000
 3540.00    0.54418   0.55574   -1.000
 3541.00    0.51851   0.54972   -1.000
 3542.00    0.51150   0.54808   -1.000
 3543.00    0.51885   0.55314   -1.000
 3544.00    0.53361   0.55987   -1.000
 3545.00    0.54019   0.56195   -1.000
 3546.00    0.52165   0.55804   -1.000
 3547.00    0.52202   0.55232   -1.000
 3548.00    0.52591   0.54884   -1.000
 3549.00    0.51882   0.54698   -1.000
 3550.00    0.50933   0.54273   -1.000
 3551.00    0.51218   0.53296   -1.000
 3552.00    0.51040   0.51892  390.695
 3553.00    0.50429   0.50625  390.695
 3554.00    0.49652   0.50061  390.695
 3555.00    0.47069   0.50208   -1.000
 3556.00    0.45973   0.50550   -1.000
 3557.00    0.46780   0.50654   -1.000
 3558.00    0.48311   0.50579   -1.000
 3559.00    0.47729   0.50770   -1.000
 3560.00    0.47372   0.51473   -1.000
 3561.00    0.48027   0.52262   -1.000
 3562.00    0.48627   0.52189   -1.000
 3563.00    0.49393   0.50503   47.128
 3564.00    0.47480   0.47468   48.626
 3565.00    0.44906   0.44370   48.093
 3566.00    0.42469   0.42412   48.160
 3567.00    0.42589   0.41563   49.697
 3568.00    0.44022   0.40977   50.149
 3569.00    0.41714   0.40286   48.425
 3570.00    0.39972   0.39953   55.514
 3571.00    0.40314   0.40577  390.695
 3572.00    0.40228   0.42096   -1.000
 3573.00    0.42915   0.43824  390.695
 3574.00    0.45978   0.45144   -1.000
 3575.00    0.46762   0.45720   -1.000
 3576.00    0.46819   0.45322   -1.000
 3577.00    0.45132   0.43857   49.038
 3578.00    0.43475   0.41499   52.756
 3579.00    0.42029   0.38778   55.166
 3580.00    0.40131   0.36492   55.474
 3581.00    0.38375   0.35251   55.918
 3582.00    0.37730   0.35027   57.428
 3583.00    0.36810   0.35227   59.131
 3584.00    0.37374   0.35280   59.199
 3585.00    0.36687   0.35165   56.133
 3586.00    0.36724   0.35369   53.191
 3587.00    0.37675   0.36438   50.168
 3588.00    0.39251   0.38574   55.954
 3589.00    0.41624   0.41536  390.695
 3590.00    0.44638   0.44644  390.695
 3591.00    0.47160   0.47069  390.695
 3592.00    0.48691   0.48455  390.695
 3593.00    0.49167   0.49312  388.898
 3594.00    0.48741   0.50515   -1.000
 3595.00    0.49277   0.52423   -1.000
 3596.00    0.50729   0.54624   -1.000
 3597.00    0.53177   0.56524   -1.000
 3598.00    0.54030   0.57896   -1.000
 3599.00    0.55958   0.58551   -1.000
 3600.00    0.56067   0.58027   -1.000
 3601.00    0.54263   0.56090   -1.000
 3602.00    0.53337   0.53203  390.695
 3603.00    0.50415   0.50297  390.695
 3604.00    0.48869   0.48145   -1.000
 3605.00    0.47432   0.46845  390.695
 3606.00    0.47393   0.45868   -1.000
 3607.00    0.47859   0.44745   -1.000
 3608.00    0.47251   0.43701   -1.000
 3609.00    0.46414   0.43501   -1.000
 3610.00    0.47583   0.44618   -1.000
 3611.00    0.49847   0.46693   -1.000
 3612.00    0.50160   0.48942   -1.000
 3613.00    0.50162   0.50912  377.610
 3614.00    0.51488   0.52376   -1.000
 3615.00    0.50877   0.52752   -1.000
 3616.00    0.50816   0.51347  160.389
 3617.00    0.49344   0.48324   56.561
 3618.00    0.47476   0.45262   -1.000
 3619.00    0.45908   0.44165   -1.000
 3620.00    0.46833   0.45764   -1.000
 3621.00    0.50648   0.49125   -1.000
 3622.00    0.52334   0.52801  356.187
 3623.00    0.54319   0.56043   -1.000
 3624.00    0.56910   0.59045   -1.000
 3625.00    0.58791   0.62048   -1.000
 3626.00    0.59111   0.64532   -1.000
 3627.00    0.60754   0.65324   -1.000
 3628.00    0.60962   0.63446   -1.000
 3629.00    0.59306   0.58999  390.695
 3630.00    0.56942   0.53554   -1.000
 3631.00    0.53067   0.49337   -1.000
 3632.00    0.49383   0.47708   -1.000
 3633.00    0.50547   0.48495   -1.000
 3634.00    0.51698   0.50592   -1.000
 3635.00    0.51925   0.52960   -1.000
 3636.00    0.54379   0.55271   -1.000
 3637.00    0.56013   0.57688   -1.000
 3638.00    0.57955   0.60165   -1.000
 3639.00    0.57509   0.62130   -1.000
 3640.00    0.59094   0.62885   -1.000
 3641.00    0.60647   0.62111   -1.000
 3642.00    0.57712   0.60107   -1.000
 3643.00    0.56218   0.57531   -1.000
 3644.00    0.54918   0.54902  390.695
 3645.00    0.53881   0.52434   -1.000
 3646.00    0.53388   0.50259   -1.000
 3647.00    0.50296   0.48778   -1.000
 3648.00    0.50591   0.48649   -1.000
 3649.00    0.51830   0.50276   -1.000
 3650.00    0.53526   0.53416  342.544
 3651.00    0.55753   0.57246   -1.000
 3652.00    0.57735   0.60751   -1.000
 3653.00    0.59748   0.63301   -1.000
 3654.00    0.61803   0.65029   -1.000
 3655.00    0.62147   0.66509   -1.000
 3656.00    0.63120   0.68122   -1.000
 3657.00    0.63450   0.69753   -1.000
 3658.00    0.63821   0.70969   -1.000
 3659.00    0.65352   0.71418   -1.000
 3660.00    0.65490   0.70974   -1.000
 3661.00    0.64700   0.69748   -1.000
 3662.00    0.64145   0.68168   -1.000
 3663.00    0.63764   0.66840   -1.000
 3664.00    0.63231   0.66111   -1.000
 3665.00    0.62066   0.65799   -1.000
 3666.00    0.62801   0.65350   -1.000
 3667.00    0.62787   0.64375   -1.000
 3668.00    0.61918   0.63137   -1.000
 3669.00    0.60471   0.62491   -1.000
 3670.00    0.60497   0.63112   -1.000
 3671.00    0.62603   0.64740   -1.000
 3672.00    0.63959   0.66428   -1.000
 3673.00    0.64236   0.67359   -1.000
 3674.00    0.64218   0.67176   -1.000
 3675.00    0.63867   0.65830   -1.000
 3676.00    0.61536   0.63467   -1.000
 3677.00    0.60959   0.60518  366.127
 3678.00    0.58955   0.57742   -1.000
 3679.00    0.56444   0.56033  352.856
 3680.00    0.55916   0.55926  344.369
 3681.00    0.56043   0.57151   -1.000
 3682.00    0.58569   0.58717  354.176
 3683.00    0.60164   0.59452  368.889
 3684.00    0.58107   0.58636  381.949
 3685.00    0.57479   0.56482   -1.000
 3686.00    0.55664   0.54203   -1.000
 3687.00    0.52844   0.53366  344.368
 3688.00    0.54098   0.54871   -1.000
 3689.00    0.56357   0.58369   -1.000
 3690.00    0.58857   0.62418   -1.000
 3691.00    0.63706   0.65257   -1.000
 3692.00    0.66190   0.65933  333.330
 3693.00    0.64851   0.64965  331.373
 3694.00    0.62023   0.63717   -1.000
 3695.00    0.61233   0.63296   -1.000
 3696.00    0.62484   0.64110   -1.000
 3697.00    0.63529   0.65960   -1.000
 3698.00    0.63877   0.68161   -1.000
 3699.00    0.66265   0.69757   -1.000
 3700.00    0.68182   0.69889   -1.000
 3701.00    0.67376   0.68022  362.156
 3702.00    0.64429   0.64121  390.695
 3703.00    0.60631   0.58903   -1.000
 3704.00    0.57025   0.53706   -1.000
 3705.00    0.53480   0.49842   -1.000
 3706.00    0.51586   0.47926   -1.000
 3707.00    0.53078   0.47780   -1.000
 3708.00    0.53059   0.49069   -1.000
 3709.00    0.54022   0.51736   -1.000
 3710.00    0.56961   0.55655   -1.000
 3711.00    0.58999   0.60245   -1.000
 3712.00    0.62063   0.64561   -1.000
 3713.00    0.65882   0.67543   -1.000
 3714.00    0.67857   0.68413  311.481
 3715.00    0.67520   0.66986  329.698
 3716.00    0.65024   0.63506   -1.000
 3717.00    0.61770   0.58374   -1.000
 3718.00    0.57547   0.52293   -1.000
 3719.00    0.51924   0.46445   -1.000
 3720.00    0.46043   0.42384   -1.000
 3721.00    0.43565   0.41387   -1.000
 3722.00    0.46048   0.43588   -1.000
 3723.00    0.50340   0.47821   -1.000
 3724.00    0.55403   0.52209   -1.000
 3725.00    0.58612   0.55069   -1.000
 3726.00    0.59135   0.55881   -1.000
 3727.00    0.59193   0.55506   -1.000
 3728.00    0.58019   0.55035   -1.000
 3729.00    0.57543   0.54509   -1.000
 3730.00    0.58663   0.53025   -1.000
 3731.00    0.56488   0.49831   -1.000
 3732.00    0.52039   0.45212   -1.000
 3733.00    0.47993   0.40407   -1.000
 3734.00    0.43074   0.36812   -1.000
 3735.00    0.39588   0.35437   61.321
 3736.00    0.40068   0.36667   -1.000
 3737.00    0.43002   0.40180   -1.000
 3738.00    0.46037   0.45044   -1.000
 3739.00    0.50167   0.49851  347.754
 3740.00    0.54898   0.53052   -1.000
 3741.00    0.56142   0.53666   -1.000
 3742.00    0.55711   0.51815   -1.000
 3743.00    0.53487   0.48541   -1.000
 3744.00    0.50964   0.45125   -1.000
 3745.00    0.47733   0.42342   47.661
 3746.00    0.45475   0.40215   50.031
 3747.00    0.46018   0.38606   -1.000
 3748.00    0.45583   0.37894   -1.000
 3749.00    0.43061   0.38865   -1.000
 3750.00    0.44394   0.41969   -1.000
 3751.00    0.49087   0.46732   -1.000
 3752.00    0.53894   0.52038   -1.000
 3753.00    0.56675   0.56737  312.285
 3754.00    0.58846   0.59664  336.898
 3755.00    0.60427   0.59795  380.422
 3756.00    0.59927   0.57090   -1.000
 3757.00    0.56887   0.52986   -1.000
 3758.00    0.53235   0.49666   -1.000
 3759.00    0.51865   0.48487   -1.000
 3760.00    0.51923   0.49121   -1.000
 3761.00    0.53789   0.50223   -1.000
 3762.00    0.54467   0.50772   -1.000
 3763.00    0.53629   0.50676   -1.000
 3764.00    0.53834   0.50302   -1.000
 3765.00    0.54453   0.49937   -1.000
 3766.00    0.55984   0.49866   -1.000
 3767.00    0.54624   0.50425   -1.000
 3768.00    0.55153   0.51720   -1.000
 3769.00    0.57556   0.53562   -1.000
 3770.00    0.58837   0.55716   -1.000
 3771.00    0.59231   0.57953   -1.000
 3772.00    0.61459   0.59959   -1.000
 3773.00    0.62603   0.61370   -1.000
 3774.00    0.63466   0.62053   -1.000
 3775.00    0.63676   0.62297   -1.000
 3776.00    0.62205   0.62596  310.232
 3777.00    0.62127   0.63290   -1.000
 3778.00    0.62672   0.64427   -1.000
 3779.00    0.64286   0.65809   -1.000
 3780.00    0.65659   0.67119   -1.000
 3781.00    0.66529   0.68077   -1.000
 3782.00    0.66650   0.68440   -1.000
 3783.00    0.67347   0.67823  322.657
 3784.00    0.66780   0.65801   -1.000
 3785.00    0.64902   0.62408   -1.000
 3786.00    0.60969   0.58366   -1.000
 3787.00    0.56610   0.54761   -1.000
 3788.00    0.54895   0.52534   -1.000
 3789.00    0.54395   0.52003   -1.000
 3790.00    0.53295   0.52633  362.026
 3791.00    0.54886   0.53339   -1.000
 3792.00    0.55726   0.53165   -1.000
 3793.00    0.53828   0.51899   -1.000
 3794.00    0.50300   0.50019  390.695
 3795.00    0.49579   0.48061   -1.000
 3796.00    0.50028   0.46266   -1.000
 3797.00    0.49433   0.44919   -1.000
 3798.00    0.48463   0.44694   -1.000
 3799.00    0.47840   0.46289   -1.000
 3800.00    0.49088   0.49629  331.784
 3801.00    0.52007   0.53757   -1.000
 3802.00    0.54381   0.57458   -1.000
 3803.00    0.56333   0.59809   -1.000
 3804.00    0.57768   0.60454   -1.000
 3805.00    0.57318   0.59722   -1.000
 3806.00    0.54662   0.58553   -1.000
 3807.00    0.53489   0.58028   -1.000
 3808.00    0.54010   0.58605   -1.000
 3809.00    0.55414   0.59695   -1.000
 3810.00    0.57745   0.60104   -1.000
 3811.00    0.58396   0.58931  376.955
 3812.00    0.55980   0.56195  390.695
 3813.00    0.52566   0.52725  390.695
 3814.00    0.48215   0.49606   -1.000
 3815.00    0.45398   0.47626   -1.000
 3816.00    0.45142   0.46807   -1.000
 3817.00    0.46014   0.46370  390.695
 3818.00    0.47448   0.45434   -1.000
 3819.00    0.46757   0.43975   -1.000
 3820.00    0.44717   0.42802   -1.000
 3821.00    0.44573   0.42496   -1.000
 3822.00    0.44916   0.42613   -1.000
 3823.00    0.44577   0.42163   48.752
 3824.00    0.42789   0.40843   49.288
 3825.00    0.40572   0.39315   48.711
 3826.00    0.40153   0.38408   47.912
 3827.00    0.39673   0.38448   47.595
 3828.00    0.39988   0.39146   48.744
 3829.00    0.41983   0.39848   51.565
 3830.00    0.43330   0.39909   54.885
 3831.00    0.42941   0.39089   55.553
 3832.00    0.41363   0.37750   53.999
 3833.00    0.39889   0.36624   52.143
 3834.00    0.38491   0.36256   51.792
 3835.00    0.39760   0.36630   52.992
 3836.00    0.41902   0.37246   53.493
 3837.00    0.42551   0.37598   51.735
 3838.00    0.43050   0.37737   -1.000
 3839.00    0.41632   0.38297   -1.000
 3840.00    0.40796   0.39947   -1.000
 3841.00    0.43236   0.42802  379.613
 3842.00    0.46827   0.46306  375.295
 3843.00    0.49191   0.49570  375.317
 3844.00    0.50470   0.51883   -1.000
 3845.00    0.50790   0.53095   -1.000
 3846.00    0.49727   0.53433   -1.000
 3847.00    0.49174   0.53117   -1.000
 3848.00    0.48128   0.52338   -1.000
 3849.00    0.49235   0.51487   -1.000
 3850.00    0.49135   0.51092   -1.000
 3851.00    0.48745   0.51323   -1.000
 3852.00    0.49935   0.51703   -1.000
 3853.00    0.50757   0.51560  390.695
 3854.00    0.48558   0.50629   -1.000
 3855.00    0.46259   0.49136  108.842
 3856.00    0.46512   0.47363   46.839
 3857.00    0.47699   0.45505   48.355
 3858.00    0.46415   0.44001   69.434
 3859.00    0.45614   0.43574   -1.000
 3860.00    0.46241   0.44732   -1.000
 3861.00    0.46793   0.47229  366.910
 3862.00    0.49843   0.50005  371.461
 3863.00    0.52628   0.51896   -1.000
 3864.00    0.53107   0.52461   -1.000
 3865.00    0.52133   0.52149  390.695
 3866.00    0.50773   0.51617  390.695
 3867.00    0.49427   0.51071   -1.000
 3868.00    0.49467   0.50301  109.103
 3869.00    0.49099   0.49115   68.653
 3870.00    0.47888   0.47801  390.695
 3871.00    0.45947   0.47136   -1.000
 3872.00    0.45765   0.47794   -1.000
 3873.00    0.47943   0.49739   -1.000
 3874.00    0.51417   0.52032  379.793
 3875.00    0.54840   0.53296   -1.000
 3876.00    0.55329   0.52753   -1.000
 3877.00    0.52912   0.51003   -1.000
 3878.00    0.50234   0.49339   -1.000
 3879.00    0.49390   0.48563   -1.000
 3880.00    0.48941   0.48682  390.695
 3881.00    0.48813   0.49335  381.647
 3882.00    0.49007   0.50221   -1.000
 3883.00    0.51083   0.50912  382.377
 3884.00    0.54122   0.50676   -1.000
 3885.00    0.53584   0.49167   -1.000
 3886.00    0.51451   0.47136   -1.000
 3887.00    0.51462   0.46009   -1.000
 3888.00    0.53172   0.46934   -1.000
 3889.00    0.54918   0.50054   -1.000
 3890.00    0.57994   0.54506   -1.000
 3891.00    0.62941   0.58898   -1.000
 3892.00    0.66197   0.61952   -1.000
 3893.00    0.65424   0.63126   -1.000
 3894.00    0.64355   0.62963   -1.000
 3895.00    0.64596   0.62490   -1.000
 3896.00    0.64804   0.62279   -1.000
 3897.00    0.65710   0.62255   -1.000
 3898.00    0.65743   0.62156   -1.000
 3899.00    0.64630   0.62027   -1.000
 3900.00    0.65097   0.62052   -1.000
 3901.00    0.65691   0.62070   -1.000
 3902.00    0.66744   0.61693   -1.000
 3903.00    0.66123   0.60820   -1.000
 3904.00    0.62893   0.59911   -1.000
 3905.00    0.59914   0.59758  305.780
 3906.00    0.60718   0.60951  290.398
 3907.00    0.64715   0.63480   -1.000
 3908.00    0.68055   0.66642   -1.000
 3909.00    0.70738   0.69522   -1.000
 3910.00    0.72594   0.71581  280.841
 3911.00    0.73718   0.72801  285.255
 3912.00    0.75364   0.73313   -1.000
 3913.00    0.74701   0.73178   -1.000
 3914.00    0.73546   0.72429   -1.000
 3915.00    0.72591   0.71150   -1.000
 3916.00    0.71401   0.69399   -1.000
 3917.00    0.69321   0.67154   -1.000
 3918.00    0.67019   0.64419   -1.000
 3919.00    0.64110   0.61456   -1.000
 3920.00    0.61574   0.58855   -1.000
 3921.00    0.59338   0.57238   -1.000
 3922.00    0.58603   0.56826   -1.000
 3923.00    0.59388   0.57086   -1.000
 3924.00    0.60255   0.57032   -1.000
 3925.00    0.59591   0.55816   -1.000
 3926.00    0.57523   0.53143   54.427
 3927.00    0.52909   0.49355   63.778
 3928.00    0.46542   0.45098   74.937
 3929.00    0.40022   0.40937   88.337
 3930.00    0.33791   0.37072  100.708
 3931.00    0.31062   0.33557  104.332
 3932.00    0.31567   0.30717   95.696
 3933.00    0.31970   0.29200   81.194
 3934.00    0.32283   0.29616   66.889
 3935.00    0.32902   0.32022   55.495
 3936.00    0.36125   0.35915   78.008
 3937.00    0.41644   0.40562   -1.000
 3938.00    0.46189   0.45221   -1.000
 3939.00    0.50267   0.49153   -1.000
 3940.00    0.54777   0.51887   -1.000
 3941.00    0.56776   0.53309   -1.000
 3942.00    0.55501   0.53838   -1.000
 3943.00    0.53668   0.54393  330.046
 3944.00    0.53931   0.55806   -1.000
 3945.00    0.57689   0.58165  314.759
 3946.00    0.63300   0.60895   -1.000
 3947.00    0.66452   0.63399   -1.000
 3948.00    0.68156   0.65566   -1.000
 3949.00    0.70440   0.67543   -1.000
 3950.00    0.72738   0.69198   -1.000
 3951.00    0.73894   0.70282   -1.000
 3952.00    0.73128   0.70934   -1.000
 3953.00    0.73429   0.71390   -1.000
 3954.00    0.75282   0.71534   -1.000
 3955.00    0.74659   0.71086   -1.000
 3956.00    0.71525   0.70055   -1.000
 3957.00    0.69967   0.68701   -1.000
 3958.00    0.70388   0.66894   -1.000
 3959.00    0.69040   0.63970   -1.000
 3960.00    0.63948   0.59695   -1.000
 3961.00    0.57434   0.54858  100.404
 3962.00    0.51756   0.50520   51.412
 3963.00    0.48028   0.47123   61.548
 3964.00    0.45468   0.44071   75.766
 3965.00    0.42485   0.40529   89.078
 3966.00    0.38236   0.36417   91.337
 3967.00    0.35067   0.32582   80.163
 3968.00    0.33257   0.30318   65.901
 3969.00    0.34054   0.30474   54.599
 3970.00    0.37237   0.33055   -1.000
 3971.00    0.41229   0.37417   -1.000
 3972.00    0.46034   0.42790   -1.000
 3973.00    0.51978   0.48522   -1.000
 3974.00    0.58269   0.54216   -1.000
 3975.00    0.63895   0.59621   -1.000
 3976.00    0.67511   0.64696   -1.000
 3977.00    0.71124   0.69442   -1.000
 3978.00    0.75942   0.73677   -1.000
 3979.00    0.79250   0.76996   -1.000
 3980.00    0.81106   0.78975   -1.000
 3981.00    0.81451   0.79693   -1.000
 3982.00    0.80054   0.79743  258.594
 3983.00    0.80431   0.79954  253.904
 3984.00    0.81934   0.80862  249.461
 3985.00    0.82578   0.82486  245.717
 3986.00    0.83762   0.84484  244.846
 3987.00    0.85475   0.86336   -1.000
 3988.00    0.87064   0.87589  241.237
 3989.00    0.87598   0.88227  235.434
 3990.00    0.87575   0.88704   -1.000
 3991.00    0.89135   0.89443  237.736
 3992.00    0.91629   0.90344  243.433
 3993.00    0.93129   0.90809   -1.000
 3994.00    0.92763   0.90346   -1.000
 3995.00    0.90012   0.89110  250.694
 3996.00    0.87523   0.87941  242.162
 3997.00    0.87119   0.87832  232.247
 3998.00    0.88116   0.89207   -1.000
 3999.00    0.90783   0.91698   -1.000
 4000.00    0.93523   0.94353  223.169
 4001.00    0.95632   0.96130  232.507
 4002.00    0.97671   0.96152   -1.000
 4003.00    0.97507   0.94115   -1.000
 4004.00    0.92678   0.90782   -1.000
 4005.00    0.87678   0.88020  232.414
 4006.00    0.85812   0.87527   -1.000
 4007.00    0.88215   0.89579   -1.000
 4008.00    0.93529   0.92908  221.835
 4009.00    0.96214   0.95917  222.198
 4010.00    0.95916   0.97947   -1.000
 4011.00    0.96729   0.99171   -1.000
 4012.00    0.98806   1.00015   -1.000
 4013.00    1.00000   1.00764  220.251
 4014.00    1.01798   1.01391  222.637
 4015.00    1.02376   1.01724  223.636
 4016.00    1.01837   1.01811  221.361
 4017.00    1.00712   1.01973   -1.000
 4018.00    1.00204   1.02439   -1.000
 4019.00    1.02297   1.03022  223.983
 4020.00    1.03191   1.03267  225.334
 4021.00    1.01825   1.02871   -1.000
 4022.00    1.00757   1.02011   -1.000
 4023.00    0.99558   1.01137   -1.000
 4024.00    0.99176   1.00791   -1.000
 4025.00    1.00605   1.01393  210.720
 4026.00    1.02645   1.02778  215.895
 4027.00    1.04747   1.03785  227.699
 4028.00    1.05138   1.02757   -1.000
 4029.00    1.01312   0.98832   -1.000
 4030.00    0.94205   0.92914  247.298
 4031.00    0.87285   0.87176  241.654
 4032.00    0.83672   0.83583  231.659
 4033.00    0.83937   0.83200  220.116
 4034.00    0.85895   0.86108  210.753
 4035.00    0.90278   0.91544   -1.000
 4036.00    0.97738   0.97921  208.322
 4037.00    1.04412   1.03337  213.131
 4038.00    1.07846   1.06329  216.928
 4039.00    1.07009   1.06726  218.614
 4040.00    1.04715   1.05310  224.122
 4041.00    1.04556   1.02714   -1.000
 4042.00    1.03447   0.98561   -1.000
 4043.00    0.99117   0.92499   -1.000
 4044.00    0.90216   0.85729   -1.000
 4045.00    0.80411   0.81099  227.923
 4046.00    0.78347   0.81212   -1.000
 4047.00    0.86200   0.86034  213.474
 4048.00    0.95776   0.93072   -1.000
 4049.00    1.00980   0.99486   -1.000
 4050.00    1.03585   1.03507  222.531
 4051.00    1.05422   1.04850  227.185
 4052.00    1.04588   1.04055  229.843
 4053.00    1.01270   1.01981  231.511
 4054.00    0.97929   0.99434   -1.000
 4055.00    0.95923   0.96993   -1.000
 4056.00    0.94132   0.95063  227.677
 4057.00    0.92360   0.94087   -1.000
 4058.00    0.92345   0.94329   -1.000
 4059.00    0.93829   0.95134   -1.000
 4060.00    0.96485   0.94967   -1.000
 4061.00    0.96852   0.92587   -1.000
 4062.00    0.91106   0.88495   -1.000
 4063.00    0.83152   0.84888   -1.000
 4064.00    0.81034   0.83664   -1.000
 4065.00    0.86026   0.85242  223.521
 4066.00    0.91531   0.88618   -1.000
 4067.00    0.94603   0.92198   -1.000
 4068.00    0.97517   0.94556   -1.000
 4069.00    0.99649   0.94818   -1.000
 4070.00    0.98748   0.93154   -1.000
 4071.00    0.94314   0.91133   -1.000
 4072.00    0.91700   0.90506  229.950
 4073.00    0.94517   0.91320   -1.000
 4074.00    0.96811   0.91954   -1.000
 4075.00    0.94474   0.90930   -1.000
 4076.00    0.88533   0.88876  245.624
 4077.00    0.84561   0.88027   -1.000
 4078.00    0.86866   0.90033   -1.000
 4079.00    0.93376   0.94669   -1.000
 4080.00    1.00328   0.99913  221.675
 4081.00    1.05241   1.03562   -1.000
 4082.00    1.05414   1.04592  227.166
 4083.00    1.01713   1.03851   -1.000
 4084.00    0.99490   1.03183   -1.000
 4085.00    1.00165   1.04104   -1.000
 4086.00    1.03253   1.06838   -1.000
 4087.00    1.08564   1.10294   -1.000
 4088.00    1.12938   1.12992  209.849
 4089.00    1.13672   1.13899  212.980
 4090.00    1.11751   1.13056   -1.000
 4091.00    1.08451   1.11268   -1.000
 4092.00    1.06171   1.09273   -1.000
 4093.00    1.06646   1.07039  232.410
 4094.00    1.06220   1.04199   -1.000
 4095.00    1.01739   1.00719  239.727
 4096.00    0.95486   0.97128   -1.000
 4097.00    0.92143   0.93957   -1.000
 4098.00    0.91548   0.91010  289.097
 4099.00    0.90421   0.87839   -1.000
 4100.00    0.86668   0.84783   -1.000
 4101.00    0.82161   0.83103   -1.000
 4102.00    0.81606   0.83998   -1.000
 4103.00    0.85404   0.87572   -1.000
 4104.00    0.89941   0.92578   -1.000
 4105.00    0.94742   0.97446   -1.000
 4106.00    1.00477   1.00961  229.602
 4107.00    1.02552   1.02668  233.587
 4108.00    1.00462   1.02723   -1.000
 4109.00    0.98535   1.01812   -1.000
 4110.00    0.95762   1.00902   -1.000
 4111.00    0.93978   1.00819   -1.000
 4112.00    0.94877   1.01845   -1.000
 4113.00    0.97553   1.03704   -1.000
 4114.00    1.01829   1.05630   -1.000
 4115.00    1.03425   1.06728   -1.000
 4116.00    1.02639   1.06428   -1.000
 4117.00    1.01145   1.04932   -1.000
 4118.00    0.99437   1.03065   -1.000
 4119.00    0.97249   1.01774   -1.000
 4120.00    0.97609   1.01511   -1.000
 4121.00    0.99940   1.02076   -1.000
 4122.00    0.99543   1.03074   -1.000
 4123.00    0.99568   1.04258   -1.000
 4124.00    1.02140   1.05372   -1.000
 4125.00    1.04089   1.05949   -1.000
 4126.00    1.02706   1.05557   -1.000
 4127.00    1.00478   1.04231   -1.000
 4128.00    0.98570   1.02307   -1.000
 4129.00    0.96933   0.99943   -1.000
 4130.00    0.95211   0.97146   -1.000
 4131.00    0.93285   0.94301  246.386
 4132.00    0.90991   0.92415   -1.000
 4133.00    0.89849   0.92678   -1.000
 4134.00    0.91367   0.95338   -1.000
 4135.00    0.95015   0.99498   -1.000
 4136.00    0.99889   1.03761   -1.000
 4137.00    1.03355   1.06992   -1.000
 4138.00    1.05374   1.08587   -1.000
 4139.00    1.05611   1.08217   -1.000
 4140.00    1.04223   1.05486  258.117
 4141.00    1.00667   1.00577  258.819
 4142.00    0.93179   0.94966   -1.000
 4143.00    0.84942   0.91081   -1.000
 4144.00    0.83610   0.90558   -1.000
 4145.00    0.89254   0.93133   -1.000
 4146.00    0.94680   0.96813   -1.000
 4147.00    0.97256   0.99479   -1.000
 4148.00    0.97562   1.00389   -1.000
 4149.00    0.95839   1.00028   -1.000
 4150.00    0.93316   0.99274   -1.000
 4151.00    0.92259   0.98584   -1.000
 4152.00    0.92280   0.97968   -1.000
 4153.00    0.92410   0.97371   -1.000
 4154.00    0.95045   0.96985   -1.000
 4155.00    1.09067   0.97252   -1.000
 4156.00    1.15477   0.98559   -1.000
 4157.00    0.90336   1.00876   -1.000
 4158.00    0.77705   1.03814   -1.000
 4159.00    0.93589   1.06805   -1.000
 4160.00    1.03796   1.09373   -1.000
 4161.00    1.04702   1.11327   -1.000
 4162.00    1.04497   1.12428   -1.000
 4163.00    1.04706   1.12358   -1.000
 4164.00    1.03615   1.10952   -1.000
 4165.00    1.00414   1.08625   -1.000
 4166.00    0.97127   1.06303   -1.000
 4167.00    0.95029   1.04894   -1.000
 4168.00    0.95580   1.04385   -1.000
 4169.00    0.98259   1.03930   -1.000
 4170.00    0.98599   1.02435   -1.000
 4171.00    0.94999   0.99695   -1.000
 4172.00    0.89649   0.96775   -1.000
 4173.00    0.86804   0.95018   -1.000
 4174.00    0.88190   0.95042   -1.000
 4175.00    0.91551   0.96288   -1.000
 4176.00    0.93320   0.97868   -1.000
 4177.00    0.92443   0.99376   -1.000
 4178.00    0.92711   1.00755   -1.000
 4179.00    0.94859   1.01836   -1.000
 4180.00    0.95506   1.02481   -1.000
 4181.00    0.95033   1.02905   -1.000
 4182.00    0.95739   1.03683   -1.000
 4183.00    0.98863   1.05001   -1.000
 4184.00    1.02558   1.06098   -1.000
 4185.00    1.03738   1.06061   -1.000
 4186.00    1.00959   1.04809   -1.000
 4187.00    0.97358   1.03425   -1.000
 4188.00    0.96787   1.03094   -1.000
 4189.00    0.99257   1.04035   -1.000
 4190.00    1.00871   1.05669   -1.000
 4191.00    1.01582   1.07301   -1.000
 4192.00    1.03285   1.08408   -1.000
 4193.00    1.05602   1.08361   -1.000
 4194.00    1.04302   1.06539   -1.000
 4195.00    0.98149   1.03073   -1.000
 4196.00    0.93462   0.99106   -1.000
 4197.00    0.92592   0.95829   -1.000
 4198.00    0.92029   0.93928   -1.000
 4199.00    0.91670   0.93309   -1.000
 4200.00    0.92042   0.93674   -1.000
 4201.00    0.92490   0.94834   -1.000
 4202.00    0.93018   0.96910   -1.000
 4203.00    0.95325   1.00051   -1.000
 4204.00    0.99986   1.04009   -1.000
 4205.00    1.03199   1.08077   -1.000
 4206.00    1.06717   1.11476   -1.000
 4207.00    1.08993   1.13699   -1.000
 4208.00    1.08727   1.14576   -1.000
 4209.00    1.08677   1.14470   -1.000
 4210.00    1.06520   1.13942   -1.000
 4211.00    1.05597   1.13202   -1.000
 4212.00    1.07012   1.11838   -1.000
 4213.00    1.05356   1.09456   -1.000
 4214.00    0.99822   1.06830   -1.000
 4215.00    0.95526   1.05756   -1.000
 4216.00    0.97879   1.07524   -1.000
 4217.00    1.06686   1.11789   -1.000
 4218.00    1.14894   1.16545   -1.000
 4219.00    1.18050   1.19779   -1.000
 4220.00    1.18582   1.20119   -1.000
 4221.00    1.17217   1.17073  245.774
 4222.00    1.12603   1.10623   -1.000
 4223.00    1.04193   1.01448   -1.000
 4224.00    0.94076   0.91109   -1.000
 4225.00    0.82648   0.82403  268.141
 4226.00    0.72910   0.78211   -1.000
 4227.00    0.72721   0.80300   -1.000
 4228.00    0.84290   0.87697   -1.000
 4229.00    0.98221   0.97256  217.368
 4230.00    1.08410   1.05193   -1.000
 4231.00    1.13449   1.09599   -1.000
 4232.00    1.12950   1.10437   -1.000
 4233.00    1.10085   1.09054  235.393
 4234.00    1.06749   1.07054  235.945
 4235.00    1.03141   1.05692   -1.000
 4236.00    1.02310   1.05523   -1.000
 4237.00    1.04178   1.06689   -1.000
 4238.00    1.06236   1.08970   -1.000
 4239.00    1.08354   1.11958   -1.000
 4240.00    1.11337   1.15310   -1.000
 4241.00    1.14423   1.18863   -1.000
 4242.00    1.17430   1.22390   -1.000
 4243.00    1.20518   1.25483   -1.000
 4244.00    1.24786   1.27250   -1.000
 4245.00    1.26556   1.26667  234.091
 4246.00    1.21492   1.23366   -1.000
 4247.00    1.13839   1.18149   -1.000
 4248.00    1.08575   1.12652   -1.000
 4249.00    1.05244   1.08555   -1.000
 4250.00    1.01843   1.06584   -1.000
 4251.00    1.01245   1.06354   -1.000
 4252.00    1.04143   1.06705   -1.000
 4253.00    1.05143   1.06982   -1.000
 4254.00    1.02889   1.07566   -1.000
 4255.00    1.03666   1.09186   -1.000
 4256.00    1.09829   1.11346   -1.000
 4257.00    1.14810   1.12210   -1.000
 4258.00    1.12929   1.10742   -1.000
 4259.00    1.06503   1.08154   -1.000
 4260.00    1.02038   1.07175   -1.000
 4261.00    1.02807   1.09822   -1.000
 4262.00    1.08738   1.15639   -1.000
 4263.00    1.17848   1.22343   -1.000
 4264.00    1.24474   1.27318   -1.000
 4265.00    1.26472   1.29217   -1.000
 4266.00    1.25071   1.27845   -1.000
 4267.00    1.21413   1.23564   -1.000
 4268.00    1.16347   1.16984  256.453
 4269.00    1.10057   1.09121  263.960
 4270.00    1.01674   1.01351  260.880
 4271.00    0.92691   0.95437   -1.000
 4272.00    0.88688   0.92640   -1.000
 4273.00    0.90349   0.93405   -1.000
 4274.00    0.93701   0.97296   -1.000
 4275.00    0.97242   1.03433   -1.000
 4276.00    1.04900   1.10462   -1.000
 4277.00    1.14792   1.16527   -1.000
 4278.00    1.20160   1.19893  232.581
 4279.00    1.19017   1.20369   -1.000
 4280.00    1.14936   1.19172   -1.000
 4281.00    1.11902   1.17973   -1.000
 4282.00    1.11168   1.17400   -1.000
 4283.00    1.13289   1.17053   -1.000
 4284.00    1.14242   1.16343   -1.000
 4285.00    1.10855   1.14925   -1.000
 4286.00    1.07455   1.12672   -1.000
 4287.00    1.05650   1.09452   -1.000
 4288.00    1.02149   1.05574   -1.000
 4289.00    0.96149   1.02229   -1.000
 4290.00    0.93240   1.01029   -1.000
 4291.00    0.97496   1.02574   -1.000
 4292.00    1.05789   1.05729  239.728
 4293.00    1.10979   1.08458   -1.000
 4294.00    1.10312   1.09411  254.759
 4295.00    1.07719   1.08219  273.784
 4296.00    1.05544   1.05054  295.727
 4297.00    1.02286   1.00219   -1.000
 4298.00    0.95118   0.94599  300.669
 4299.00    0.86464   0.89640   -1.000
 4300.00    0.82705   0.86731   -1.000
 4301.00    0.84055   0.86112   -1.000
 4302.00    0.86682   0.86928  285.798
 4303.00    0.88844   0.87839   -1.000
 4304.00    0.90357   0.87801   -1.000
 4305.00    0.89680   0.86248   -1.000
 4306.00    0.85378   0.83461   -1.000
 4307.00    0.80526   0.80738  302.229
 4308.00    0.78225   0.79810   -1.000
 4309.00    0.80374   0.81813   -1.000
 4310.00    0.86317   0.86701  255.988
 4311.00    0.93739   0.93654  242.659
 4312.00    1.00595   1.01807   -1.000
 4313.00    1.06943   1.10842   -1.000
 4314.00    1.13918   1.20593   -1.000
 4315.00    1.23170   1.30328   -1.000
 4316.00    1.35708   1.38749   -1.000
 4317.00    1.44807   1.44199  199.896
 4318.00    1.46551   1.45933  205.977
 4319.00    1.43308   1.44313  215.144
 4320.00    1.37468   1.40094   -1.000
 4321.00    1.32041   1.33551   -1.000
 4322.00    1.26564   1.24972   -1.000
 4323.00    1.16662   1.15486  254.696
 4324.00    1.04049   1.07781   -1.000
 4325.00    0.95553   1.05035   -1.000
 4326.00    0.97657   1.08752   -1.000
 4327.00    1.11300   1.17473   -1.000
 4328.00    1.27642   1.27579  202.827
 4329.00    1.36067   1.35536  199.975
 4330.00    1.35932   1.40314   -1.000
 4331.00    1.35537   1.42842   -1.000
 4332.00    1.37494   1.44523   -1.000
 4333.00    1.39837   1.45532   -1.000
 4334.00    1.42309   1.44824   -1.000
 4335.00    1.43392   1.41076   -1.000
 4336.00    1.37355   1.33847   -1.000
 4337.00    1.26504   1.24378   -1.000
 4338.00    1.14835   1.15357   -1.000
 4339.00    1.07203   1.09856   -1.000
 4340.00    1.04794   1.09320   -1.000
 4341.00    1.08644   1.13382   -1.000
 4342.00    1.16805   1.20068   -1.000
 4343.00    1.24233   1.27099   -1.000
 4344.00    1.29158   1.32999   -1.000
 4345.00    1.33284   1.37648   -1.000
 4346.00    1.35872   1.41298   -1.000
 4347.00    1.36737   1.43865   -1.000
 4348.00    1.39771   1.44542   -1.000
 4349.00    1.41712   1.42268  230.224
 4350.00    1.36958   1.37202  224.235
 4351.00    1.25338   1.31407   -1.000
 4352.00    1.18432   1.27753   -1.000
 4353.00    1.20884   1.27920   -1.000
 4354.00    1.27294   1.31166   -1.000
 4355.00    1.33102   1.35434   -1.000
 4356.00    1.37777   1.38801   -1.000
 4357.00    1.39378   1.40621   -1.000
 4358.00    1.38524   1.41351   -1.000
 4359.00    1.35874   1.42173   -1.000
 4360.00    1.35530   1.43971   -1.000
 4361.00    1.40235   1.46680   -1.000
 4362.00    1.44475   1.49597   -1.000
 4363.00    1.46160   1.51870   -1.000
 4364.00    1.48640   1.52893   -1.000
 4365.00    1.50161   1.52173   -1.000
 4366.00    1.46083   1.49617   -1.000
 4367.00    1.39304   1.46102   -1.000
 4368.00    1.36200   1.43012   -1.000
 4369.00    1.36836   1.40957   -1.000
 4370.00    1.37360   1.39490   -1.000
 4371.00    1.36449   1.37534  220.783
 4372.00    1.34764   1.34480  223.407
 4373.00    1.31742   1.30812  216.593
 4374.00    1.26006   1.27964   -1.000
 4375.00    1.24834   1.27503   -1.000
 4376.00    1.28384   1.29710   -1.000
 4377.00    1.33774   1.33078  203.437
 4378.00    1.38076   1.35016   -1.000
 4379.00    1.38212   1.33460   -1.000
 4380.00    1.34769   1.27597   -1.000
 4381.00    1.27044   1.18342   -1.000
 4382.00    1.13779   1.08329   -1.000
 4383.00    0.99321   1.01311   -1.000
 4384.00    0.92915   0.99979   -1.000
 4385.00    1.00205   1.04487   -1.000
 4386.00    1.15123   1.11985   -1.000
 4387.00    1.25323   1.18843   -1.000
 4388.00    1.28447   1.23177   -1.000
 4389.00    1.27130   1.25310   -1.000
 4390.00    1.26589   1.26624  208.157
 4391.00    1.28802   1.28069  212.048
 4392.00    1.31486   1.29828  212.828
 4393.00    1.32837   1.31759  205.283
 4394.00    1.32129   1.34017   -1.000
 4395.00    1.33467   1.36947   -1.000
 4396.00    1.39681   1.40194  205.061
 4397.00    1.45686   1.42469   -1.000
 4398.00    1.46891   1.42574   -1.000
 4399.00    1.42200   1.40472   -1.000
 4400.00    1.34076   1.37146   -1.000
 4401.00    1.31134   1.33085   -1.000
 4402.00    1.31901   1.28210   -1.000
 4403.00    1.26787   1.22609   -1.000
 4404.00    1.17070   1.17597  218.474
 4405.00    1.12018   1.15315   -1.000
 4406.00    1.15803   1.16804  209.630
 4407.00    1.21717   1.21483  200.746
 4408.00    1.25946   1.28169   -1.000
 4409.00    1.31510   1.35614   -1.000
 4410.00    1.39708   1.42415   -1.000
 4411.00    1.46911   1.46658  203.156
 4412.00    1.50085   1.46801   -1.000
 4413.00    1.47166   1.43245   -1.000
 4414.00    1.36975   1.38313   -1.000
 4415.00    1.26871   1.35122   -1.000
 4416.00    1.26765   1.35904   -1.000
 4417.00    1.34629   1.40351   -1.000
 4418.00    1.41408   1.46075   -1.000
 4419.00    1.45848   1.50145   -1.000
 4420.00    1.46743   1.51045   -1.000
 4421.00    1.41742   1.49134   -1.000
 4422.00    1.35529   1.46221   -1.000
 4423.00    1.32101   1.44081   -1.000
 4424.00    1.32467   1.43446   -1.000
 4425.00    1.34176   1.43863   -1.000
 4426.00    1.35469   1.44651   -1.000
 4427.00    1.38863   1.45405   -1.000
 4428.00    1.40891   1.45848   -1.000
 4429.00    1.40457   1.45848   -1.000
 4430.00    1.37614   1.45407   -1.000
 4431.00    1.37772   1.44481   -1.000
 4432.00    1.40491   1.42831   -1.000
 4433.00    1.38670   1.40344   -1.000
 4434.00    1.33062   1.38091   -1.000
 4435.00    1.30381   1.38018   -1.000
 4436.00    1.33765   1.41273   -1.000
 4437.00    1.42879   1.46878   -1.000
 4438.00    1.52107   1.51956  198.571
 4439.00    1.57385   1.54016   -1.000
 4440.00    1.55214   1.52458   -1.000
 4441.00    1.47967   1.49082  203.934
 4442.00    1.41169   1.46672   -1.000
 4443.00    1.40437   1.47306   -1.000
 4444.00    1.47892   1.50959   -1.000
 4445.00    1.55432   1.55766  190.155
 4446.00    1.59185   1.59705  191.865
 4447.00    1.61078   1.61777  193.855
 4448.00    1.62450   1.62271  193.164
 4449.00    1.60596   1.61744  193.762
 4450.00    1.59347   1.60273  199.601
 4451.00    1.59398   1.57555   -1.000
 4452.00    1.57545   1.53285   -1.000
 4453.00    1.51643   1.47703   -1.000
 4454.00    1.43040   1.41918  208.402
 4455.00    1.36881   1.37561  207.650
 4456.00    1.36305   1.35321  208.581
 4457.00    1.37974   1.34777   -1.000
 4458.00    1.38656   1.34819   -1.000
 4459.00    1.37843   1.34897   -1.000
 4460.00    1.36282   1.35419  202.182
 4461.00    1.33761   1.37184   -1.000
 4462.00    1.35788   1.40577   -1.000
 4463.00    1.43992   1.44981  195.533
 4464.00    1.50478   1.49031  197.300
 4465.00    1.51371   1.51595  200.819
 4466.00    1.50287   1.52462   -1.000
 4467.00    1.50567   1.52301   -1.000
 4468.00    1.50218   1.52108   -1.000
 4469.00    1.48366   1.52760   -1.000
 4470.00    1.47940   1.54872   -1.000
 4471.00    1.53220   1.58406   -1.000
 4472.00    1.60791   1.62531   -1.000
 4473.00    1.66176   1.66367  179.475
 4474.00    1.68155   1.69333  178.278
 4475.00    1.67567   1.71449   -1.000
 4476.00    1.70138   1.72613   -1.000
 4477.00    1.75392   1.72168   -1.000
 4478.00    1.75321   1.69374   -1.000
 4479.00    1.67720   1.64537   -1.000
 4480.00    1.58549   1.59528  191.469
 4481.00    1.52367   1.56936   -1.000
 4482.00    1.53464   1.58190   -1.000
 4483.00    1.59422   1.62751   -1.000
 4484.00    1.67270   1.68301  182.170
 4485.00    1.74915   1.72347   -1.000
 4486.00    1.76805   1.73135   -1.000
 4487.00    1.72280   1.70754  192.905
 4488.00    1.64964   1.66774   -1.000
 4489.00    1.58559   1.63507   -1.000
 4490.00    1.55686   1.62163   -1.000
 4491.00    1.57550   1.62310   -1.000
 4492.00    1.62137   1.62355  196.167
 4493.00    1.62594   1.61202  195.306
 4494.00    1.56906   1.59484   -1.000
 4495.00    1.51798   1.58778   -1.000
 4496.00    1.52367   1.60284   -1.000
 4497.00    1.57025   1.63606   -1.000
 4498.00    1.64341   1.67310   -1.000
 4499.00    1.69784   1.70189  180.244
 4500.00    1.70191   1.72116   -1.000
 4501.00    1.68805   1.74041   -1.000
 4502.00    1.71233   1.76836   -1.000
 4503.00    1.79857   1.80516  174.022
 4504.00    1.87331   1.84050   -1.000
 4505.00    1.87667   1.86241  176.573
 4506.00    1.83864   1.86563   -1.000
 4507.00    1.80367   1.85692   -1.000
 4508.00    1.80113   1.84672   -1.000
 4509.00    1.82130   1.83944   -1.000
 4510.00    1.82898   1.83218  181.594
 4511.00    1.80642   1.81825  183.134
 4512.00    1.75824   1.79498   -1.000
 4513.00    1.70595   1.76778   -1.000
 4514.00    1.68135   1.74541   -1.000
 4515.00    1.70831   1.73316   -1.000
 4516.00    1.73554   1.73008  183.039
 4517.00    1.72057   1.73303  179.450
 4518.00    1.69961   1.74149   -1.000
 4519.00    1.73080   1.75613   -1.000
 4520.00    1.78952   1.77297  186.708
 4521.00    1.81103   1.78201   -1.000
 4522.00    1.76449   1.77369  191.561
 4523.00    1.71248   1.74492   -1.000
 4524.00    1.67979   1.69971   -1.000
 4525.00    1.64248   1.64405  205.727
 4526.00    1.57770   1.58367  204.919
 4527.00    1.51002   1.52778   -1.000
 4528.00    1.44757   1.48821   -1.000
 4529.00    1.43320   1.47309   -1.000
 4530.00    1.46896   1.48194  200.830
 4531.00    1.52092   1.50384   -1.000
 4532.00    1.56721   1.52508   -1.000
 4533.00    1.56435   1.53797   -1.000
 4534.00    1.52403   1.54697   -1.000
 4535.00    1.50626   1.56562   -1.000
 4536.00    1.58200   1.60348   -1.000
 4537.00    1.71790   1.65587   -1.000
 4538.00    1.77848   1.70424   -1.000
 4539.00    1.75410   1.73180   -1.000
 4540.00    1.70781   1.73685   -1.000
 4541.00    1.68609   1.73080   -1.000
 4542.00    1.71199   1.72566   -2.000
 4543.00    1.59513   1.72331   -2.000
 4544.00    0.63712   1.71954   -2.000
 4545.00    0.07711   1.71072   -1.000
 4546.00    0.13591   1.69889   -1.000
 4547.00    0.94630   1.68810   -1.000
 4548.00    0.69758   1.68032   -1.000
 4549.00    1.07386   1.67711   -1.000
 4550.00    1.58226   1.67879   -1.000
 4551.00    1.68582   1.68302  195.036
 4552.00    1.69215   1.68387  192.892
 4553.00    1.67904   1.67975  186.463
 4554.00    1.66310   1.67766   -1.000
 4555.00    1.66513   1.68955   -1.000
 4556.00    1.73722   1.72205  175.491
 4557.00    1.82488   1.77010   -1.000
 4558.00    1.88103   1.81946   -1.000
 4559.00    1.88544   1.85514   -1.000
 4560.00    1.88265   1.87124  183.535
 4561.00    1.88179   1.86676   -1.000
 4562.00    1.86022   1.84598  185.729
 4563.00    1.81042   1.81534  181.377
 4564.00    1.75180   1.78713   -1.000
 4565.00    1.73761   1.77459   -1.000
 4566.00    1.79674   1.78526  175.663
 4567.00    1.86791   1.81212   -1.000
 4568.00    1.90918   1.83915   -1.000
 4569.00    1.90593   1.84959   -1.000
 4570.00    1.84704   1.84181  179.199
 4571.00    1.78280   1.82667   -1.000
 4572.00    1.77369   1.82014   -1.000
 4573.00    1.82273   1.82961  176.571
 4574.00    1.87180   1.84790   -1.000
 4575.00    1.87609   1.86199  180.296
 4576.00    1.86057   1.86132  185.372
 4577.00    1.84666   1.84314  189.518
 4578.00    1.81279   1.80986  189.674
 4579.00    1.75537   1.76987  187.275
 4580.00    1.70555   1.73515   -1.000
 4581.00    1.70663   1.71683  185.939
 4582.00    1.74952   1.71553   -1.000
 4583.00    1.77014   1.72387   -1.000
 4584.00    1.76585   1.73261   -1.000
 4585.00    1.72997   1.74042  176.468
 4586.00    1.72661   1.75431   -1.000
 4587.00    1.77800   1.77925  177.858
 4588.00    1.84479   1.81053   -1.000
 4589.00    1.89197   1.83485   -1.000
 4590.00    1.86646   1.84031   -1.000
 4591.00    1.80636   1.82506   -1.000
 4592.00    1.74975   1.79734   -1.000
 4593.00    1.73059   1.76967   -1.000
 4594.00    1.73189   1.74981   -1.000
 4595.00    1.72510   1.74070  180.722
 4596.00    1.72806   1.74083  182.022
 4597.00    1.74205   1.74766  183.678
 4598.00    1.78042   1.75687   -1.000
 4599.00    1.78306   1.76448   -1.000
 4600.00    1.77403   1.76840  180.681
 4601.00    1.77118   1.76944  180.645
 4602.00    1.79199   1.77002   -1.000
 4603.00    1.80922   1.77164   -1.000
 4604.00    1.81029   1.77669   -1.000
 4605.00    1.79404   1.78984  171.638
 4606.00    1.80686   1.81608  169.379
 4607.00    1.89158   1.85554   -1.000
 4608.00    1.98643   1.89974   -1.000
 4609.00    2.04992   1.93580   -1.000
 4610.00    2.03237   1.95114   -1.000
 4611.00    1.98039   1.94651   -1.000
 4612.00    1.95260   1.93130   -1.000
 4613.00    1.95095   1.91903   -1.000
 4614.00    1.96969   1.91788   -1.000
 4615.00    1.98027   1.92750   -1.000
 4616.00    2.00626   1.94131   -1.000
 4617.00    2.01098   1.95259   -1.000
 4618.00    1.99885   1.95885   -1.000
 4619.00    1.98407   1.96125   -1.000
 4620.00    1.97183   1.96298  170.344
 4621.00    1.99119   1.96538   -1.000
 4622.00    2.00893   1.96665   -1.000
 4623.00    1.99660   1.96419   -1.000
 4624.00    1.98497   1.95711   -1.000
 4625.00    1.96887   1.94749   -1.000
 4626.00    1.95757   1.93828   -1.000
 4627.00    1.95541   1.93304   -1.000
 4628.00    1.94703   1.93313  171.491
 4629.00    1.94936   1.93736  171.904
 4630.00    1.96752   1.94223   -1.000
 4631.00    1.98207   1.94369   -1.000
 4632.00    1.95680   1.93782   -1.000
 4633.00    1.90994   1.92332  177.569
 4634.00    1.88635   1.90273  179.836
 4635.00    1.88588   1.88008  180.784
 4636.00    1.87046   1.85668  180.633
 4637.00    1.84046   1.83293  177.883
 4638.00    1.80131   1.81153  173.641
 4639.00    1.77372   1.79834   -1.000
 4640.00    1.79231   1.79771  171.382
 4641.00    1.84822   1.80806   -1.000
 4642.00    1.90335   1.81871   -1.000
 4643.00    1.90198   1.81744   -1.000
 4644.00    1.86763   1.79606   -1.000
 4645.00    1.79923   1.75963   -1.000
 4646.00    1.73741   1.72106   -1.000
 4647.00    1.70809   1.69834  175.646
 4648.00    1.72280   1.70308   -1.000
 4649.00    1.79475   1.73424   -1.000
 4650.00    1.87081   1.77963   -1.000
 4651.00    1.90462   1.82206   -1.000
 4652.00    1.93116   1.84904   -1.000
 4653.00    1.91865   1.85661   -1.000
 4654.00    1.87751   1.85089   -1.000
 4655.00    1.83235   1.84519  169.574
 4656.00    1.83372   1.85447   -1.000
 4657.00    1.89968   1.88482  164.947
 4658.00    2.00307   1.93119   -1.000
 4659.00    2.08583   1.97562   -1.000
 4660.00    2.09778   2.00042   -1.000
 4661.00    2.03338   1.99467   -1.000
 4662.00    1.95836   1.96172  177.507
 4663.00    1.88805   1.91090   -1.000
 4664.00    1.87468   1.85175   -1.000
 4665.00    1.85381   1.79011   -1.000
 4666.00    1.78286   1.73265   -1.000
 4667.00    1.66507   1.69078   -1.000
 4668.00    1.62662   1.67849   -1.000
 4669.00    1.68484   1.70039  173.779
 4670.00    1.79534   1.74764   -1.000
 4671.00    1.87688   1.79927   -1.000
 4672.00    1.91007   1.83955   -1.000
 4673.00    1.90448   1.86261   -1.000
 4674.00    1.91297   1.87586   -1.000
 4675.00    1.93120   1.88547   -1.000
 4676.00    1.95865   1.89160   -1.000
 4677.00    1.97497   1.88842   -1.000
 4678.00    1.93364   1.87159   -1.000
 4679.00    1.87931   1.84541   -1.000
 4680.00    1.84148   1.81947   -1.000
 4681.00    1.81721   1.80452  172.541
 4682.00    1.82779   1.80541   -1.000
 4683.00    1.89219   1.81952   -1.000
 4684.00    1.95008   1.83834   -1.000
 4685.00    1.96049   1.85226   -1.000
 4686.00    1.93999   1.85761   -1.000
 4687.00    1.91044   1.85518   -1.000
 4688.00    1.90980   1.85011   -1.000
 4689.00    1.92799   1.84566   -1.000
 4690.00    1.91653   1.84371   -1.000
 4691.00    1.89971   1.84491   -1.000
 4692.00    1.90516   1.85156   -1.000
 4693.00    1.94370   1.86474   -1.000
 4694.00    1.98003   1.88196   -1.000
 4695.00    2.00570   1.89560   -1.000
 4696.00    2.02645   1.89724   -1.000
 4697.00    1.99295   1.88144   -1.000
 4698.00    1.92507   1.85172   -1.000
 4699.00    1.87455   1.81694   -1.000
 4700.00    1.88286   1.78786   -1.000
 4701.00    1.89081   1.76930   -1.000
 4702.00    1.84851   1.76304   -1.000
 4703.00    1.83515   1.76777   -1.000
 4704.00    1.87150   1.78025   -1.000
 4705.00    1.92969   1.79323   -1.000
 4706.00    1.95309   1.79972   -1.000
 4707.00    1.91735   1.79833   -1.000
 4708.00    1.86919   1.79546   -1.000
 4709.00    1.86073   1.80000   -1.000
 4710.00    1.90908   1.81427   -1.000
 4711.00    1.96688   1.83290   -1.000
 4712.00    1.98829   1.84697   -1.000
 4713.00    1.95669   1.85355   -1.000
 4714.00    1.91730   1.85814   -1.000
 4715.00    1.91423   1.87128   -1.000
 4716.00    1.97926   1.89887   -1.000
 4717.00    2.05357   1.93773   -1.000
 4718.00    2.07917   1.97851   -1.000
 4719.00    2.10808   2.01114   -1.000
 4720.00    2.13849   2.03119   -1.000
 4721.00    2.12159   2.03827   -1.000
 4722.00    2.09219   2.03712   -1.000
 4723.00    2.06616   2.03202   -1.000
 4724.00    2.06899   2.02304   -1.000
 4725.00    2.10487   2.00286   -1.000
 4726.00    2.05825   1.96484   -1.000
 4727.00    1.93467   1.91147   -1.000
 4728.00    1.84028   1.85609  177.345
 4729.00    1.82763   1.81835  175.246
 4730.00    1.86792   1.80764   -1.000
 4731.00    1.90504   1.82295   -1.000
 4732.00    1.95049   1.85186   -1.000
 4733.00    1.98299   1.88179   -1.000
 4734.00    2.01677   1.90404   -1.000
 4735.00    2.03588   1.91741   -1.000
 4736.00    2.00064   1.92620   -1.000
 4737.00    1.99887   1.93563   -1.000
 4738.00    2.03990   1.94817   -1.000
 4739.00    2.07111   1.96138   -1.000
 4740.00    2.07790   1.97115   -1.000
 4741.00    2.06102   1.97617   -1.000
 4742.00    2.04382   1.97962   -1.000
 4743.00    2.07196   1.98530   -1.000
 4744.00    2.10087   1.99508   -1.000
 4745.00    2.08847   2.00981   -1.000
 4746.00    2.10341   2.02728   -1.000
 4747.00    2.13638   2.04534   -1.000
 4748.00    2.12463   2.05996   -1.000
 4749.00    2.10978   2.06862   -1.000
 4750.00    2.11436   2.06902   -1.000
 4751.00    2.10348   2.05951   -1.000
 4752.00    2.06805   2.04032   -1.000
 4753.00    2.02410   2.01610  173.128
 4754.00    2.01338   1.99338   -1.000
 4755.00    2.01535   1.97930   -1.000
 4756.00    2.01003   1.97630   -1.000
 4757.00    2.00346   1.98246   -1.000
 4758.00    1.99087   1.99266  175.470
 4759.00    1.99627   1.99985  179.828
 4760.00    2.00252   1.99720  182.242
 4761.00    1.96051   1.98022  182.586
 4762.00    1.91633   1.95007   -1.000
 4763.00    1.89326   1.91301  180.970
 4764.00    1.87567   1.87784  178.501
 4765.00    1.84570   1.85276  174.484
 4766.00    1.85911   1.84437  172.000
 4767.00    1.87749   1.85749   -1.000
 4768.00    1.93982   1.88972   -1.000
 4769.00    1.99449   1.92993   -1.000
 4770.00    2.01955   1.96335   -1.000
 4771.00    2.00565   1.98343   -1.000
 4772.00    1.98927   1.99499  168.346
 4773.00    2.02124   2.00941  168.447
 4774.00    2.06556   2.03165   -1.000
 4775.00    2.08693   2.05780   -1.000
 4776.00    2.08074   2.07957  171.927
 4777.00    2.08238   2.09153  172.971
 4778.00    2.07328   2.09282  173.418
 4779.00    2.06924   2.08367  174.256
 4780.00    2.05834   2.06555  175.653
 4781.00    2.03985   2.03999  175.622
 4782.00    2.00891   2.01117  176.194
 4783.00    1.97871   1.98406  177.929
 4784.00    1.97279   1.96458  178.979
 4785.00    1.98118   1.95447   -1.000
 4786.00    1.97407   1.95169   -1.000
 4787.00    1.97399   1.95262   -1.000
 4788.00    1.98664   1.95621   -1.000
 4789.00    2.00234   1.96360   -1.000
 4790.00    2.00341   1.97866   -1.000
 4791.00    2.02836   2.00542   -1.000
 4792.00    2.07262   2.04535   -1.000
 4793.00    2.13019   2.09408   -1.000
 4794.00    2.19418   2.14023   -1.000
 4795.00    2.21559   2.17077   -1.000
 4796.00    2.20173   2.17594   -1.000
 4797.00    2.14920   2.15661  173.549
 4798.00    2.08872   2.12362   -1.000
 4799.00    2.04930   2.09423   -1.000
 4800.00    2.04830   2.08208   -1.000
 4801.00    2.10066   2.09192  170.023
 4802.00    2.16881   2.11422   -1.000
 4803.00    2.17917   2.13354   -1.000
 4804.00    2.12714   2.13522  173.762
 4805.00    2.07596   2.11794   -1.000
 4806.00    2.04681   2.09029   -1.000
 4807.00    2.02797   2.06565   -1.000
 4808.00    2.02431   2.05305   -1.000
 4809.00    2.03629   2.05571  168.884
 4810.00    2.06430   2.06917  168.712
 4811.00    2.09993   2.08609  168.302
 4812.00    2.10818   2.10042  167.698
 4813.00    2.10624   2.11122  166.641
 4814.00    2.11161   2.12173  165.606
 4815.00    2.13714   2.13571  164.931
 4816.00    2.17150   2.15438   -1.000
 4817.00    2.19326   2.17560   -1.000
 4818.00    2.21281   2.19479   -1.000
 4819.00    2.23013   2.20548   -1.000
 4820.00    2.23623   2.20163   -1.000
 4821.00    2.21804   2.17979   -1.000
 4822.00    2.14198   2.14374  170.607
 4823.00    2.07304   2.10478   -1.000
 4824.00    2.05393   2.07759   -1.000
 4825.00    2.10659   2.07077   -1.000
 4826.00    2.16300   2.08025   -1.000
 4827.00    2.14832   2.09295   -1.000
 4828.00    2.11658   2.09731   -1.000
 4829.00    2.12517   2.09102   -1.000
 4830.00    2.13151   2.07756   -1.000
 4831.00    2.09294   2.06366   -1.000
 4832.00    2.07490   2.05540   -1.000
 4833.00    2.08956   2.05929   -1.000
 4834.00    2.13585   2.07482   -1.000
 4835.00    2.17245   2.09621   -1.000
 4836.00    2.16608   2.11209   -1.000
 4837.00    2.16132   2.11514   -1.000
 4838.00    2.14319   2.10411   -1.000
 4839.00    2.10589   2.08415   -1.000
 4840.00    2.07491   2.06384  171.928
 4841.00    2.07542   2.04982   -1.000
 4842.00    2.08451   2.04580   -1.000
 4843.00    2.06845   2.05256   -1.000
 4844.00    2.08012   2.06924  170.099
 4845.00    2.16680   2.09162   -1.000
 4846.00    2.20768   2.11117   -1.000
 4847.00    2.16642   2.11994   -1.000
 4848.00    2.10224   2.11782  169.767
 4849.00    2.09206   2.11146  170.755
 4850.00    2.12586   2.10857   -1.000
 4851.00    2.14264   2.10732   -1.000
 4852.00    2.14622   2.10006   -1.000
 4853.00    2.11905   2.07868   -1.000
 4854.00    2.06360   2.04388   -1.000
 4855.00    1.97870   2.00460   -1.000
 4856.00    1.95259   1.96962  201.349
 4857.00    2.00620   1.93855   -1.000
 4858.00    2.00734   1.89794   -1.000
 4859.00    1.92333   1.83729   -1.000
 4860.00    1.76617   1.76203  201.465
 4861.00    1.64832   1.70040   -1.000
 4862.00    1.66849   1.68084  182.976
 4863.00    1.79571   1.71387   -1.000
 4864.00    1.90064   1.78328   -1.000
 4865.00    1.96673   1.86206   -1.000
 4866.00    2.00939   1.92844   -1.000
 4867.00    2.01838   1.97081   -1.000
 4868.00    2.03596   1.98524   -1.000
 4869.00    2.02761   1.97165   -1.000
 4870.00    1.97104   1.93639   -1.000
 4871.00    1.87561   1.89569   -1.000
 4872.00    1.87044   1.87153  176.424
 4873.00    1.94544   1.87959   -1.000
 4874.00    2.01066   1.91727   -1.000
 4875.00    2.02830   1.96869   -1.000
 4876.00    2.06516   2.01850   -1.000
 4877.00    2.08566   2.05973   -1.000
 4878.00    2.13012   2.09240   -1.000
 4879.00    2.17052   2.11475   -1.000
 4880.00    2.15704   2.12427   -1.000
 4881.00    2.07638   2.11900   -1.000
 4882.00    2.06320   2.10254   -1.000
 4883.00    2.08869   2.07991  180.002
 4884.00    2.09318   2.05377   -1.000
 4885.00    2.02810   2.02452  178.761
 4886.00    1.97587   1.99575  181.491
 4887.00    1.98944   1.97098   -1.000
 4888.00    2.02876   1.95012   -1.000
 4889.00    2.03386   1.92926   -1.000
 4890.00    1.97630   1.91159   -1.000
 4891.00    1.94512   1.91037   -1.000
 4892.00    2.00254   1.94456   -1.000
 4893.00    2.14481   2.01845   -1.000
 4894.00    2.30133   2.11656   -1.000
 4895.00    2.37856   2.21009   -1.000
 4896.00    2.39447   2.27491   -1.000
 4897.00    2.40537   2.30331   -1.000
 4898.00    2.39249   2.30011   -1.000
 4899.00    2.32966   2.27763   -1.000
 4900.00    2.25554   2.24734  170.905
 4901.00    2.24290   2.21907   -1.000
 4902.00    2.24089   2.19797   -1.000
 4903.00    2.22124   2.18835   -1.000
 4904.00    2.24999   2.19269   -1.000
 4905.00    2.31693   2.20909   -1.000
 4906.00    2.36155   2.22647   -1.000
 4907.00    2.35577   2.22903   -1.000
 4908.00    2.30668   2.20753   -1.000
 4909.00    2.22781   2.16903   -1.000
 4910.00    2.18932   2.13146   -1.000
 4911.00    2.20561   2.11386   -1.000
 4912.00    2.23480   2.12379   -1.000
 4913.00    2.27092   2.15476   -1.000
 4914.00    2.32667   2.19027   -1.000
 4915.00    2.34598   2.21058   -1.000
 4916.00    2.36166   2.19692   -1.000
 4917.00    2.30329   2.14005   -1.000
 4918.00    2.14219   2.04619   -1.000
 4919.00    1.99319   1.94321   -1.000
 4920.00    1.91911   1.86735   -1.000
 4921.00    1.97032   1.84462   -1.000
 4922.00    2.09138   1.87563   -1.000
 4923.00    2.18015   1.93818   -1.000
 4924.00    2.20314   2.00780   -1.000
 4925.00    2.23489   2.07182   16.486
 4926.00    2.29830   2.13205   16.374
 4927.00    2.33594   2.19201   16.278
 4928.00    2.39383   2.24879   16.450
 4929.00    2.41612   2.29415   16.913
 4930.00    2.43376   2.31721   17.533
 4931.00    2.42337   2.31260   17.553
 4932.00    2.35337   2.28271   17.226
 4933.00    2.25752   2.23996   17.230
 4934.00    2.25038   2.19769   17.760
 4935.00    2.27127   2.16299   18.244
 4936.00    2.28432   2.13100   18.057
 4937.00    2.21557   2.09568   17.423
 4938.00    2.13301   2.06267   16.867
 4939.00    2.11047   2.04962   16.566
 4940.00    2.18676   2.07197   16.422
 4941.00    2.32508   2.12663   -1.000
 4942.00    2.40518   2.19441   -1.000
 4943.00    2.43347   2.25286   -1.000
 4944.00    2.45297   2.29012   16.434
 4945.00    2.43497   2.30789   16.239
 4946.00    2.40094   2.31603   16.195
 4947.00    2.41218   2.32523   16.129
 4948.00    2.44573   2.34033   16.219
 4949.00    2.44658   2.35859   16.333
 4950.00    2.44917   2.37300   16.526
 4951.00    2.45071   2.37734   16.738
 4952.00    2.43472   2.36639   17.204
 4953.00    2.40345   2.33536   18.109
 4954.00    2.32693   2.28005   18.809
 4955.00    2.24897   2.19877   18.376
 4956.00    2.11843   2.10322   17.307
 4957.00    1.97603   2.02004   16.735
 4958.00    1.95702   1.98084   16.626
 4959.00    2.10710   2.00250   16.712
 4960.00    2.26867   2.06802   -1.000
 4961.00    2.28009   2.14340   17.056
 4962.00    2.28479   2.19483   17.421
 4963.00    2.27889   2.20962   17.637
 4964.00    2.27797   2.19226   17.632
 4965.00    2.23307   2.15705   17.576
 4966.00    2.19553   2.12097   17.442
 4967.00    2.19167   2.09742   17.253
 4968.00    2.18380   2.09327   17.067
 4969.00    2.20060   2.10813   16.863
 4970.00    2.24022   2.13822   16.708
 4971.00    2.26960   2.17601   16.649
 4972.00    2.30761   2.21442   16.774
 4973.00    2.33495   2.24550   16.955
 4974.00    2.36318   2.26324   17.189
 4975.00    2.34823   2.26440   17.469
 4976.00    2.31274   2.24876   17.684
 4977.00    2.28462   2.21850   17.948
 4978.00    2.20120   2.17821   18.553
 4979.00    2.15858   2.13089   19.133
 4980.00    2.15008   2.07733   19.100
 4981.00    2.09704   2.01824   18.722
 4982.00    1.99860   1.96024   18.187
 4983.00    1.95058   1.91859   17.611
 4984.00    1.99697   1.90944   17.197
 4985.00    2.07997   1.93851   17.235
 4986.00    2.16092   1.99598   -1.000
 4987.00    2.23923   2.06105   -1.000
 4988.00    2.30268   2.11357   -1.000
 4989.00    2.28515   2.14277   17.501
 4990.00    2.24824   2.15161   17.433
 4991.00    2.24560   2.15146   17.423
 4992.00    2.26096   2.15194   17.330
 4993.00    2.27744   2.15712   17.253
 4994.00    2.27381   2.16536   17.370
 4995.00    2.27352   2.17340   17.613
 4996.00    2.29000   2.17632   17.968
 4997.00    2.28763   2.16820   18.178
 4998.00    2.24968   2.14294   18.175
 4999.00    2.18020   2.10340   18.000
 5000.00    2.10326   2.05836   17.902
 5001.00    2.07972   2.02007   18.181
 5002.00    2.11914   1.99377   18.635
 5003.00    2.15201   1.97506   -1.000
 5004.00    2.14697   1.95679   -1.000
 5005.00    2.08045   1.93741   17.675
 5006.00    2.03524   1.92667   17.520
 5007.00    2.05763   1.93567   17.779
 5008.00    2.15060   1.96594   -1.000
 5009.00    2.22834   2.00225   -1.000
 5010.00    2.21055   2.02248   -1.000
 5011.00    2.14850   2.01301   19.287
 5012.00    2.06549   1.97668   18.850
 5013.00    2.00158   1.93150   18.475
 5014.00    2.00094   1.89762   18.411
 5015.00    2.02448   1.88762   18.404
 5016.00    2.08116   1.89950   -1.000
 5017.00    2.10418   1.92341   -1.000
 5018.00    2.09675   1.94921   18.144
 5019.00    2.12260   1.97065   18.173
 5020.00    2.16146   1.98603   -1.000
 5021.00    2.16809   1.99545   -1.000
 5022.00    2.12495   2.00370   17.765
 5023.00    2.13803   2.01696   17.856
 5024.00    2.21488   2.03749   -1.000
 5025.00    2.25434   2.05935   -1.000
 5026.00    2.25501   2.07488   -1.000
 5027.00    2.22090   2.08220   17.158
 5028.00    2.20859   2.09045   16.883
 5029.00    2.26402   2.11056   16.706
 5030.00    2.33169   2.14672   -1.000
 5031.00    2.35682   2.19190   -1.000
 5032.00    2.40923   2.23103   -1.000
 5033.00    2.44613   2.24977   -1.000
 5034.00    2.39810   2.23843   -1.000
 5035.00    2.27368   2.20031   18.616
 5036.00    2.17266   2.14639   19.370
 5037.00    2.17827   2.08872   20.103
 5038.00    2.18968   2.03052   -1.000
 5039.00    2.11476   1.97151   18.987
 5040.00    1.98355   1.91944   17.835
 5041.00    1.93676   1.89475   17.147
 5042.00    2.04138   1.91789   16.771
 5043.00    2.21769   1.99092   -1.000
 5044.00    2.32700   2.09121   -1.000
 5045.00    1.44112   2.18425   -1.000
 5046.00    0.16850   2.23944   -1.000
 5047.00    0.09678   2.24543   -1.000
 5048.00    0.80489   2.20944   -1.000
 5049.00    2.07615   2.15460   17.585
 5050.00    2.21709   2.10639   17.149
 5051.00    2.24148   2.08433   16.853
 5052.00    2.28168   2.09298   -1.000
 5053.00    2.34269   2.12638   -1.000
 5054.00    2.39952   2.17172   -1.000
 5055.00    2.44561   2.21686   -1.000
 5056.00    2.48855   2.25404   -1.000
 5057.00    2.49909   2.28371   -1.000
 5058.00    2.49299   2.30863   -1.000
 5059.00    2.50099   2.33166   -1.000
 5060.00    2.52762   2.35003   -1.000
 5061.00    2.56068   2.35528   -1.000
 5062.00    2.55593   2.33867   -1.000
 5063.00    2.47542   2.29584   -1.000
 5064.00    2.34889   2.23611   17.649
 5065.00    2.26137   2.17639   17.598
 5066.00    2.28184   2.13461   17.510
 5067.00    2.32845   2.11722   -1.000
 5068.00    2.33183   2.12013   -1.000
 5069.00    2.35933   2.13338   -1.000
 5070.00    2.38524   2.14785   -1.000
 5071.00    2.36725   2.15726   -1.000
 5072.00    2.34188   2.16100   -1.000
 5073.00    2.36597   2.16240   -1.000
 5074.00    2.40305   2.16558   -1.000
 5075.00    2.40209   2.16792   -1.000
 5076.00    2.37645   2.16261   -1.000
 5077.00    2.36811   2.14177   -1.000
 5078.00    2.31478   2.10261   -1.000
 5079.00    2.20305   2.05229   -1.000
 5080.00    2.12105   2.00667   18.065
 5081.00    2.12542   1.98305   17.722
 5082.00    2.19283   1.98760   -1.000
 5083.00    2.24345   2.01534   -1.000
 5084.00    2.28619   2.05654   -1.000
 5085.00    2.35333   2.10185   -1.000
 5086.00    2.39896   2.14471   -1.000
 5087.00    2.42563   2.18077   -1.000
 5088.00    2.44605   2.20839   -1.000
 5089.00    2.45177   2.23025   -1.000
 5090.00    2.46324   2.25030   -1.000
 5091.00    2.49506   2.27175   -1.000
 5092.00    2.52964   2.29315   -1.000
 5093.00    2.55553   2.30677   -1.000
 5094.00    2.55744   2.30241   -1.000
 5095.00    2.47752   2.27372   -1.000
 5096.00    2.39223   2.22379   -1.000
 5097.00    2.33206   2.16575   -1.000
 5098.00    2.27396   2.11679   17.296
 5099.00    2.24229   2.09132   17.187
 5100.00    2.28136   2.09590   -1.000
 5101.00    2.37231   2.12298   -1.000
 5102.00    2.42210   2.15598   -1.000
 5103.00    2.42074   2.17740   -1.000
 5104.00    2.38358   2.17959   -1.000
 5105.00    2.34813   2.16488   -1.000
 5106.00    2.31324   2.14042   -1.000
 5107.00    2.29529   2.11434   -1.000
 5108.00    2.28744   2.09389   -1.000
 5109.00    2.28729   2.08537   -1.000
 5110.00    2.29223   2.09298   -1.000
 5111.00    2.34308   2.11578   -1.000
 5112.00    2.39485   2.14963   -1.000
 5113.00    2.44045   2.18809   -1.000
 5114.00    2.48388   2.22672   -1.000
 5115.00    2.53411   2.26330   -1.000
 5116.00    2.56570   2.29503   -1.000
 5117.00    2.58203   2.31752   -1.000
 5118.00    2.58965   2.32523   -1.000
 5119.00    2.55667   2.31350   -1.000
 5120.00    2.49584   2.28115   -1.000
 5121.00    2.44456   2.23205   -1.000
 5122.00    2.36793   2.17386   -1.000
 5123.00    2.27328   2.11661   -1.000
 5124.00    2.22026   2.07129   18.211
 5125.00    2.23305   2.04415   -1.000
 5126.00    2.27828   2.03539   -1.000
 5127.00    2.29226   2.03930   -1.000
 5128.00    2.28509   2.05013   -1.000
 5129.00    2.29847   2.06676   -1.000
 5130.00    2.33874   2.09048   -1.000
 5131.00    2.40870   2.12158   -1.000
 5132.00    2.46482   2.15654   -1.000
 5133.00    2.47523   2.18873   -1.000
 5134.00    2.51000   2.21240   -1.000
 5135.00    2.55053   2.22197   -1.000
 5136.00    2.54115   2.21389   -1.000
 5137.00    2.46598   2.18876   -1.000
 5138.00    2.37003   2.15447   -1.000
 5139.00    2.33272   2.12467   -1.000
 5140.00    2.36887   2.10687   -1.000
 5141.00    2.39435   2.10070   -1.000
 5142.00    2.34951   2.10075   -1.000
 5143.00    2.32108   2.10217   -1.000
 5144.00    2.36794   2.10242   -1.000
 5145.00    2.36215   2.09966   -1.000
 5146.00    2.30948   2.09230   -1.000
 5147.00    2.28993   2.08466   -1.000
 5148.00    2.31496   2.08118   -1.000
 5149.00    2.33207   2.08155   -1.000
 5150.00    2.34393   2.08098   -1.000
 5151.00    2.30789   2.07545   -1.000
 5152.00    2.27551   2.06792   -1.000
 5153.00    2.27519   2.06735   -1.000
 5154.00    2.30699   2.08220   -1.000
 5155.00    2.40076   2.11722   -1.000
 5156.00    2.49877   2.16777   -1.000
 5157.00    2.57974   2.22265   -1.000
 5158.00    2.59404   2.26802   -1.000
 5159.00    2.59359   2.29498   -1.000
 5160.00    2.59205   2.29935   -1.000
 5161.00    2.57942   2.28000   -1.000
 5162.00    2.54655   2.23588   -1.000
 5163.00    2.47145   2.16538   -1.000
 5164.00    2.35490   2.06675   -1.000
 5165.00    2.14520   1.94405   -1.000
 5166.00    1.87075   1.81098   21.164
 5167.00    1.68383   1.69278   21.177
 5168.00    1.66891   1.61629   22.640
 5169.00    1.82310   1.58365   -1.000
 5170.00    1.94031   1.57490   -1.000
 5171.00    1.84198   1.56720   -1.000
 5172.00    1.67844   1.55923   18.524
 5173.00    1.67107   1.57876   17.946
 5174.00    1.88299   1.64491   -1.000
 5175.00    2.16367   1.75372   -1.000
 5176.00    2.31199   1.87280   -1.000
 5177.00    2.36401   1.96676   -1.000
 5178.00    2.42985   2.01602   -1.000
 5179.00    2.41508   2.01201   -1.000
 5180.00    2.28739   1.95522   -1.000
 5181.00    2.12327   1.85609   -1.000
 5182.00    1.89158   1.73884   -1.000
 5183.00    1.66027   1.64816   18.383
 5184.00    1.64085   1.62367   17.923
 5185.00    1.89890   1.68282   -1.000
 5186.00    2.19809   1.80329   -1.000
 5187.00    2.36690   1.93883   -1.000
 5188.00    2.42389   2.04886   -1.000
 5189.00    2.45383   2.10996   -1.000
 5190.00    2.45095   2.12118   -1.000
 5191.00    2.37394   2.09520   -1.000
 5192.00    2.29809   2.05595   -1.000
 5193.00    2.28472   2.02735   -1.000
 5194.00    2.34034   2.02663   -1.000
 5195.00    2.37720   2.05194   -1.000
 5196.00    2.42003   2.09624   -1.000
 5197.00    2.47896   2.14934   -1.000
 5198.00    2.52623   2.20120   -1.000
 5199.00    2.55908   2.24169   -1.000
 5200.00    2.55621   2.26175   -1.000
 5201.00    2.53631   2.25480   -1.000
 5202.00    2.49836   2.21730   -1.000
 5203.00    2.44654   2.15179   -1.000
 5204.00    2.36514   2.06669   -1.000
 5205.00    2.27536   1.97686   -1.000
 5206.00    2.23100   1.90156   -1.000
 5207.00    2.21812   1.85503   -1.000
 5208.00    2.20485   1.84600   -1.000
 5209.00    2.23538   1.87635   -1.000
 5210.00    2.32530   1.94430   -1.000
 5211.00    2.45064   2.03802   -1.000
 5212.00    2.58527   2.13523   -1.000
 5213.00    2.65882   2.21208   -1.000
 5214.00    2.64458   2.25360   -1.000
 5215.00    2.59616   2.26430   -1.000
 5216.00    2.57508   2.26341   -1.000
 5217.00    2.59916   2.27264   -1.000
 5218.00    2.64331   2.30156   -1.000
 5219.00    2.70518   2.34241   -1.000
 5220.00    2.74471   2.37856   -1.000
 5221.00    2.75104   2.39175   -1.000
 5222.00    2.72450   2.37106   -1.000
 5223.00    2.62897   2.31374   -1.000
 5224.00    2.48186   2.22931   -1.000
 5225.00    2.33517   2.13856   -1.000
 5226.00    2.25086   2.07040   -1.000
 5227.00    2.28144   2.04963   -1.000
 5228.00    2.45739   2.08395   -1.000
 5229.00    2.65491   2.15508   -1.000
 5230.00    2.74567   2.22900   -1.000
 5231.00    2.74715   2.27462   -1.000
 5232.00    2.68599   2.28642   -1.000
 5233.00    2.60584   2.28081   -1.000
 5234.00    2.60153   2.28296   -1.000
 5235.00    2.66503   2.31058   -1.000
 5236.00    2.76980   2.35911   -1.000
 5237.00    2.84777   2.41403   -1.000
 5238.00    2.86066   2.45735   -1.000
 5239.00    2.83365   2.48095   -1.000
 5240.00    2.79164   2.48787   -1.000
 5241.00    2.77306   2.48611   -1.000
 5242.00    2.78482   2.48315   -1.000
 5243.00    2.80824   2.47999   -1.000
 5244.00    2.82978   2.47093   -1.000
 5245.00    2.79013   2.44751   -1.000
 5246.00    2.68125   2.40674   -1.000
 5247.00    2.58321   2.35665   -1.000
 5248.00    2.57473   2.31102   -1.000
 5249.00    2.59923   2.28119   -1.000
 5250.00    2.56807   2.26961   -1.000
 5251.00    2.57300   2.27300   -1.000
 5252.00    2.63146   2.28724   -1.000
 5253.00    2.67197   2.30671   -1.000
 5254.00    2.67272   2.33012   -1.000
 5255.00    2.67669   2.36136   -1.000
 5256.00    2.74758   2.40371   -1.000
 5257.00    2.85950   2.45320   -1.000
 5258.00    2.92071   2.49175   -1.000
 5259.00    2.89459   2.49940   -1.000
 5260.00    2.83292   2.46367   -1.000
 5261.00    2.72927   2.38525   -1.000
 5262.00    2.57888   2.27819   -1.000
 5263.00    2.42969   2.16365   -1.000
 5264.00    2.31407   2.06296   -1.000
 5265.00    2.25987   1.99014   -1.000
 5266.00    2.29547   1.94594   -1.000
 5267.00    2.36784   1.92012   -1.000
 5268.00    2.35463   1.90172   -1.000
 5269.00    2.22551   1.88897   -1.000
 5270.00    2.20287   1.89911   -1.000
 5271.00    2.36795   1.94747   -1.000
 5272.00    2.59234   2.03132   -1.000
 5273.00    2.70136   2.12822   -1.000
 5274.00    2.71132   2.21232   -1.000
 5275.00    2.71503   2.28360   -1.000
 5276.00    2.77522   2.34741   -1.000
 5277.00    2.88649   2.40798   -1.000
 5278.00    2.96832   2.45754   -1.000
 5279.00    2.99002   2.47926   -1.000
 5280.00    2.92627   2.46690   -1.000
 5281.00    2.83199   2.42862   -1.000
 5282.00    2.77064   2.38699   -1.000
 5283.00    2.73034   2.36661   -1.000
 5284.00    2.74508   2.38514   -1.000
 5285.00    2.90495   2.44073   -1.000
 5286.00    3.04902   2.51530   -1.000
 5287.00    3.10193   2.58361   -1.000
 5288.00    3.09638   2.63089   -1.000
 5289.00    3.09265   2.65675   -1.000
 5290.00    3.10940   2.66750   -1.000
 5291.00    3.10137   2.66836   -1.000
 5292.00    3.07424   2.65856   -1.000
 5293.00    3.05139   2.63464   -1.000
 5294.00    3.03284   2.59304   -1.000
 5295.00    2.95435   2.53175   -1.000
 5296.00    2.80370   2.45617   -1.000
 5297.00    2.67011   2.38286   -1.000
 5298.00    2.63761   2.33405   -1.000
 5299.00    2.72772   2.32392   -1.000
 5300.00    2.83964   2.35091   -1.000
 5301.00    2.89387   2.40130   -1.000
 5302.00    2.94120   2.46403   -1.000
 5303.00    3.03396   2.53106   -1.000
 5304.00    3.13551   2.59495   -1.000
 5305.00    3.18664   2.64645   -1.000
 5306.00    3.17160   2.67785   -1.000
 5307.00    3.13638   2.69213   -1.000
 5308.00    3.14241   2.69882   -1.000
 5309.00    3.18537   2.70498   -1.000
 5310.00    3.21242   2.71145   -1.000
 5311.00    3.21129   2.71259   -1.000
 5312.00    3.16943   2.70467   -1.000
 5313.00    3.13613   2.68868   -1.000
 5314.00    3.11029   2.66757   -1.000
 5315.00    3.09050   2.64611   -1.000
 5316.00    3.07590   2.62773   -1.000
 5317.00    3.06602   2.61438   -1.000
 5318.00    3.07850   2.60702   -1.000
 5319.00    3.08428   2.60178   -1.000
 5320.00    3.08479   2.59293   -1.000
 5321.00    3.06388   2.57444   -1.000
 5322.00    3.00564   2.54114   -1.000
 5323.00    2.93569   2.49126   -1.000
 5324.00    2.88497   2.42563   -1.000
 5325.00    2.87392   2.34713   -1.000
 5326.00    2.80868   2.26222   -1.000
 5327.00    2.60954   2.18212   -1.000
 5328.00    2.42796   2.13347   -1.000
 5329.00    2.47315   2.13724   -1.000
 5330.00    2.70722   2.20024   -1.000
 5331.00    2.91125   2.30056   -1.000
 5332.00    2.99992   2.40510   -1.000
 5333.00    3.04345   2.49398   -1.000
 5334.00    3.09691   2.56029   -1.000
 5335.00    3.14817   2.60424   -1.000
 5336.00    3.14463   2.62354   -1.000
 5337.00    3.10585   2.61409   -1.000
 5338.00    3.05133   2.57803   -1.000
 5339.00    2.96120   2.52545   -1.000
 5340.00    2.86649   2.47595   -1.000
 5341.00    2.85468   2.44858   -1.000
 5342.00    2.94856   2.45344   -1.000
 5343.00    3.05559   2.47948   -1.000
 5344.00    3.09183   2.50734   -1.000
 5345.00    3.05980   2.52233   -1.000
 5346.00    3.04232   2.52065   -1.000
 5347.00    3.03905   2.50917   -1.000
 5348.00    3.00330   2.49953   -1.000
 5349.00    2.99127   2.50269   -1.000
 5350.00    3.06271   2.52688   -1.000
 5351.00    3.17520   2.57181   -1.000
 5352.00    3.22740   2.62801   -1.000
 5353.00    3.24027   2.68590   -1.000
 5354.00    3.25346   2.73640   -1.000
 5355.00    3.29321   2.77741   -1.000
 5356.00    3.34496   2.80684   -1.000
 5357.00    3.34314   2.82212   -1.000
 5358.00    3.32350   2.82296   -1.000
 5359.00    3.31321   2.80955   -1.000
 5360.00    3.26388   2.78347   -1.000
 5361.00    3.18805   2.74851   -1.000
 5362.00    3.14580   2.70997   -1.000
 5363.00    3.13425   2.67214   -1.000
 5364.00    3.10946   2.63746   -1.000
 5365.00    3.07650   2.60642   -1.000
 5366.00    3.07700   2.57691   -1.000
 5367.00    3.07100   2.54410   -1.000
 5368.00    3.04851   2.50170   -1.000
 5369.00    2.96053   2.44806   -1.000
 5370.00    2.82279   2.39566   -1.000
 5371.00    2.76591   2.36778   -1.000
 5372.00    2.86384   2.38352   -1.000
 5373.00    3.06137   2.44489   -1.000
 5374.00    3.23286   2.52923   -1.000
 5375.00    3.30809   2.60970   -1.000
 5376.00    3.29645   2.66613   -1.000
 5377.00    3.26943   2.69687   -1.000
 5378.00    3.29018   2.71010   -1.000
 5379.00    3.31286   2.71210   -1.000
 5380.00    3.29292   2.70537   -1.000
 5381.00    3.24041   2.69076   -1.000
 5382.00    3.19697   2.67306   -1.000
 5383.00    3.18537   2.65976   -1.000
 5384.00    3.19648   2.65571   -1.000
 5385.00    3.23243   2.65990   -1.000
 5386.00    3.25449   2.66481   -1.000
 5387.00    3.23672   2.66024   -1.000
 5388.00    3.18126   2.63994   -1.000
 5389.00    3.10207   2.60663   -1.000
 5390.00    3.04393   2.56832   -1.000
 5391.00    3.02216   2.53419   -1.000
 5392.00    3.02153   2.50863   -1.000
 5393.00    3.02751   2.48867   -1.000
 5394.00    3.03086   2.46819   -1.000
 5395.00    3.00367   2.44346   -1.000
 5396.00    2.91685   2.41884   -1.000
 5397.00    2.87240   2.40515   -1.000
 5398.00    2.94264   2.41419   -1.000
 5399.00    3.04009   2.44679   -1.000
 5400.00    3.09131   2.48759   -1.000
 5401.00    3.09832   2.51521   -1.000
 5402.00    3.09669   2.51316   -1.000
 5403.00    3.02719   2.47638   -1.000
 5404.00    2.88752   2.41550   -1.000
 5405.00    2.77211   2.35332   -1.000
 5406.00    2.76298   2.31400   -1.000
 5407.00    2.85631   2.31044   -1.000
 5408.00    2.93919   2.33305   -1.000
 5409.00    2.93743   2.36975   -1.000
 5410.00    2.94903   2.41271   -1.000
 5411.00    3.03307   2.46300   -1.000
 5412.00    3.14602   2.52128   -1.000
 5413.00    3.22901   2.57883   -1.000
 5414.00    3.25079   2.62901   -1.000
 5415.00    3.25814   2.66933   -1.000
 5416.00    3.29254   2.70013   -1.000
 5417.00    3.32420   2.72141   -1.000
 5418.00    3.31900   2.72949   -1.000
 5419.00    3.27373   2.72379   -1.000
 5420.00    3.24515   2.70903   -1.000
 5421.00    3.26204   2.69080   -1.000
 5422.00    3.27610   2.67533   -1.000
 5423.00    3.22528   2.66599   -1.000
 5424.00    3.16708   2.66404   -1.000
 5425.00    3.20731   2.67126   -1.000
 5426.00    3.29467   2.67976   -1.000
 5427.00    3.30025   2.67474   -1.000
 5428.00    3.18503   2.64635   -1.000
 5429.00    3.04475   2.59738   -1.000
 5430.00    3.01780   2.54741   -1.000
 5431.00    3.08038   2.51210   -1.000
 5432.00    3.10133   2.49254   -1.000
 5433.00    3.04693   2.48159   -1.000
 5434.00    2.99641   2.47561   -1.000
 5435.00    3.00213   2.48412   -1.000
 5436.00    3.06232   2.51741   -1.000
 5437.00    3.17351   2.57699   -1.000
 5438.00    3.28030   2.65371   -1.000
 5439.00    3.37731   2.72986   -1.000
 5440.00    3.43807   2.79125   -1.000
 5441.00    3.43137   2.82749   -1.000
 5442.00    3.37857   2.83396   -1.000
 5443.00    3.31636   2.80765   -1.000
 5444.00    3.27194   2.74904   -1.000
 5445.00    3.14864   2.66859   -1.000
 5446.00    2.95716   2.58794   -1.000
 5447.00    2.87914   2.53446   -1.000
 5448.00    2.96453   2.52394   -1.000
 5449.00    3.10914   2.55048   -1.000
 5450.00    3.20979   2.59095   -1.000
 5451.00    3.26508   2.61673   -1.000
 5452.00    3.22336   2.61383   -1.000
 5453.00    3.14697   2.58265   -1.000
 5454.00    3.03714   2.53677   -1.000
 5455.00    2.95650   2.49904   -1.000
 5456.00    2.97021   2.49126   -1.000
 5457.00    3.06669   2.51922   -1.000
 5458.00    3.20199   2.56995   -1.000
 5459.00    3.26330   2.61486   -1.000
 5460.00    3.22810   2.63463   -1.000
 5461.00    3.15288   2.62776   -1.000
 5462.00    3.07783   2.60621   -1.000
 5463.00    3.03670   2.58872   -1.000
 5464.00    3.05479   2.58724   -1.000
 5465.00    3.11200   2.60258   -1.000
 5466.00    3.16385   2.62624   -1.000
 5467.00    3.17830   2.64791   -1.000
 5468.00    3.18629   2.66000   -1.000
 5469.00    3.18451   2.65948   -1.000
 5470.00    3.14149   2.64776   -1.000
 5471.00    3.12188   2.62831   -1.000
 5472.00    3.12596   2.60369   -1.000
 5473.00    3.09345   2.57423   -1.000
 5474.00    3.05631   2.53904   -1.000
 5475.00    2.99862   2.50242   -1.000
 5476.00    2.90886   2.47481   -1.000
 5477.00    2.89696   2.46483   -1.000
 5478.00    3.00422   2.47738   -1.000
 5479.00    3.10735   2.50242   -1.000
 5480.00    3.10383   2.52419   -1.000
 5481.00    3.01700   2.53984   -1.000
 5482.00    2.97597   2.55577   -1.000
 5483.00    3.04054   2.58260   -1.000
 5484.00    3.13945   2.61842   -1.000
 5485.00    3.20871   2.64885   -1.000
 5486.00    3.21181   2.66334   -1.000
 5487.00    3.16576   2.65939   -1.000
 5488.00    3.13748   2.64804   -1.000
 5489.00    3.14575   2.64181   -1.000
 5490.00    3.15920   2.64681   -1.000
 5491.00    3.20657   2.65872   -1.000
 5492.00    3.24563   2.66967   -1.000
 5493.00    3.23995   2.67527   -1.000
 5494.00    3.22476   2.67431   -1.000
 5495.00    3.22918   2.66985   -1.000
 5496.00    3.20259   2.66501   -1.000
 5497.00    3.15421   2.66170   -1.000
 5498.00    3.17642   2.66166   -1.000
 5499.00    3.22296   2.66248   -1.000
 5500.00    3.21596   2.65766   -1.000
 5501.00    3.16410   2.64427   -1.000
 5502.00    3.12418   2.62464   -1.000
 5503.00    3.13508   2.60516   -1.000
 5504.00    3.15190   2.59062   -1.000
 5505.00    3.11406   2.58011   -1.000
 5506.00    3.08373   2.57548   -1.000
 5507.00    3.11926   2.58005   -1.000
 5508.00    3.17863   2.59223   -1.000
 5509.00    3.20884   2.60416   -1.000
 5510.00    3.18200   2.60299   -1.000
 5511.00    3.12207   2.58385   -1.000
 5512.00    3.07010   2.55468   -1.000
 5513.00    3.05317   2.52879   -1.000
 5514.00    3.09272   2.52062   -1.000
 5515.00    3.14248   2.53552   -1.000
 5516.00    3.17961   2.57122   -1.000
 5517.00    3.25232   2.62036   -1.000
 5518.00    3.34676   2.67303   -1.000
 5519.00    3.39005   2.71917   -1.000
 5520.00    3.38796   2.75167   -1.000
 5521.00    3.38877   2.76807   -1.000
 5522.00    3.37185   2.77202   -1.000
 5523.00    3.36741   2.76549   -1.000
 5524.00    3.35229   2.74741   -1.000
 5525.00    3.30514   2.71605   -1.000
 5526.00    3.23828   2.67318   -1.000
 5527.00    3.14886   2.62949   -1.000
 5528.00    3.08274   2.59883   -1.000
 5529.00    3.11223   2.59458   -1.000
 5530.00    3.22194   2.61628   -1.000
 5531.00    3.28542   2.64963   -1.000
 5532.00    3.28578   2.67849   -1.000
 5533.00    3.27127   2.69347   -1.000
 5534.00    3.26733   2.69658   -1.000
 5535.00    3.26893   2.69440   -1.000
 5536.00    3.28265   2.69427   -1.000
 5537.00    3.30610   2.70171   -1.000
 5538.00    3.32866   2.71757   -1.000
 5539.00    3.37329   2.73854   -1.000
 5540.00    3.42838   2.75950   -1.000
 5541.00    3.45520   2.77358   -1.000
 5542.00    3.42771   2.77660   -1.000
 5543.00    3.39278   2.77007   -1.000
 5544.00    3.39195   2.76089   -1.000
 5545.00    3.40453   2.75669   -1.000
 5546.00    3.40889   2.76213   -1.000
 5547.00    3.42828   2.77781   -1.000
 5548.00    3.48066   2.80101   -1.000
 5549.00    3.52922   2.82492   -1.000
 5550.00    3.53633   2.84055   -1.000
 5551.00    3.51222   2.84324   -1.000
 5552.00    3.47888   2.83308   -1.000
 5553.00    3.43902   2.81446   -1.000
 5554.00    3.40599   2.79461   -1.000
 5555.00    3.39430   2.77952   -1.000
 5556.00    3.40410   2.77125   -1.000
 5557.00    3.41348   2.76822   -1.000
 5558.00    3.40579   2.76680   -1.000
 5559.00    3.41107   2.76447   -1.000
 5560.00    3.42345   2.75910   -1.000
 5561.00    3.39979   2.74883   -1.000
 5562.00    3.35741   2.73429   -1.000
 5563.00    3.33314   2.71867   -1.000
 5564.00    3.32482   2.70435   -1.000
 5565.00    3.31330   2.69231   -1.000
 5566.00    3.30239   2.68206   -1.000
 5567.00    3.31213   2.67485   -1.000
 5568.00    3.33040   2.67206   -1.000
 5569.00    3.34906   2.67319   -1.000
 5570.00    3.39730   2.67683   -1.000
 5571.00    3.46146   2.68136   -1.000
 5572.00    3.38469   2.68602   -1.000
 5573.00    3.21989   2.69207   -1.000
 5574.00    3.20990   2.70246   -1.000
 5575.00    3.32772   2.72027   -1.000
 5576.00    3.49463   2.74142   -1.000
 5577.00    3.51175   2.76028   -1.000
 5578.00    3.47750   2.77644   -1.000
 5579.00    3.45460   2.78808   -1.000
 5580.00    3.45180   2.79163   -1.000
 5581.00    3.44976   2.78678   -1.000
 5582.00    3.43366   2.77177   -1.000
 5583.00    3.40675   2.74487   -1.000
 5584.00    3.37841   2.70601   -1.000
 5585.00    3.31432   2.65331   -1.000
 5586.00    3.20928   2.59257   -1.000
 5587.00    3.11884   2.53594   -1.000
 5588.00    3.07959   2.49765   -1.000
 5589.00    3.10863   2.48811   -1.000
 5590.00    3.17175   2.50432   -1.000
 5591.00    3.22533   2.53755   -1.000
 5592.00    3.24953   2.57584   -1.000
 5593.00    3.24992   2.61237   -1.000
 5594.00    3.28069   2.64520   -1.000
 5595.00    3.35291   2.67271   -1.000
 5596.00    3.39917   2.69029   -1.000
 5597.00    3.34777   2.69037   -1.000
 5598.00    3.25462   2.67013   -1.000
 5599.00    3.20154   2.63683   -1.000
 5600.00    3.18560   2.60359   -1.000
 5601.00    3.16735   2.58401   -1.000
 5602.00    3.16099   2.58681   -1.000
 5603.00    3.21202   2.61546   -1.000
 5604.00    3.29428   2.66774   -1.000
 5605.00    3.38375   2.73171   -1.000
 5606.00    3.47597   2.79128   -1.000
 5607.00    3.52104   2.83660   -1.000
 5608.00    3.50433   2.86451   -1.000
 5609.00    3.47791   2.87821   -1.000
 5610.00    3.47823   2.88151   -1.000
 5611.00    3.50356   2.87412   -1.000
 5612.00    3.51412   2.84963   -1.000
 5613.00    3.44817   2.80345   -1.000
 5614.00    3.30522   2.73970   -1.000
 5615.00    3.18549   2.67435   -1.000
 5616.00    3.18027   2.63046   -1.000
 5617.00    3.24906   2.61935   -1.000
 5618.00    3.30390   2.63777   -1.000
 5619.00    3.29957   2.66885   -1.000
 5620.00    3.30787   2.69731   -1.000
 5621.00    3.35812   2.71521   -1.000
 5622.00    3.37055   2.71637   -1.000
 5623.00    3.30832   2.69984   -1.000
 5624.00    3.23025   2.67598   -1.000
 5625.00    3.21281   2.65888   -1.000
 5626.00    3.26948   2.66265   -1.000
 5627.00    3.34933   2.68907   -1.000
 5628.00    3.42112   2.72743   -1.000
 5629.00    3.46720   2.76754   -1.000
 5630.00    3.47904   2.80006   -1.000
 5631.00    3.47853   2.81868   -1.000
 5632.00    3.47314   2.82259   -1.000
 5633.00    3.43985   2.81316   -1.000
 5634.00    3.40701   2.79403   -1.000
 5635.00    3.37481   2.76983   -1.000
 5636.00    3.34221   2.74578   -1.000
 5637.00    3.33201   2.72685   -1.000
 5638.00    3.34220   2.71495   -1.000
 5639.00    3.34981   2.70840   -1.000
 5640.00    3.33677   2.70454   -1.000
 5641.00    3.31480   2.70172   -1.000
 5642.00    3.31476   2.70148   -1.000
 5643.00    3.33727   2.70785   -1.000
 5644.00    3.37007   2.72006   -1.000
 5645.00    3.39134   2.73450   -1.000
 5646.00    3.40432   2.74838   -1.000
 5647.00    3.42566   2.75897   -1.000
 5648.00    3.43302   2.76607   -1.000
 5649.00    3.43319   2.77228   -1.000
 5650.00    3.45273   2.77998   -1.000
 5651.00    3.49408   2.78955   -1.000
 5652.00    3.52690   2.79743   -1.000
 5653.00    3.51383   2.79674   -1.000
 5654.00    3.47783   2.78336   -1.000
 5655.00    3.44449   2.75834   -1.000
 5656.00    3.39631   2.72409   -1.000
 5657.00    3.30361   2.68574   -1.000
 5658.00    3.20685   2.65047   -1.000
 5659.00    3.21193   2.62752   -1.000
 5660.00    3.29398   2.62514   -1.000
 5661.00    3.33997   2.64016   -1.000
 5662.00    3.33548   2.66201   -1.000
 5663.00    3.34290   2.68795   -1.000
 5664.00    3.39312   2.71614   -1.000
 5665.00    3.43157   2.73995   -1.000
 5666.00    3.42241   2.75505   -1.000
 5667.00    3.38851   2.75991   -1.000
 5668.00    3.36606   2.75932   -1.000
 5669.00    3.37742   2.76181   -1.000
 5670.00    3.40767   2.77223   -1.000
 5671.00    3.45231   2.79189   -1.000
 5672.00    3.52033   2.81889   -1.000
 5673.00    3.57776   2.84745   -1.000
 5674.00    3.59757   2.87062   -1.000
 5675.00    3.60339   2.88576   -1.000
 5676.00    3.60535   2.89251   -1.000
 5677.00    3.59775   2.89240   -1.000
 5678.00    3.59364   2.88500   -1.000
 5679.00    3.58086   2.86875   -1.000
 5680.00    3.54517   2.84534   -1.000
 5681.00    3.50931   2.81948   -1.000
 5682.00    3.47328   2.79536   -1.000
 5683.00    3.47085   2.77756   -1.000
 5684.00    3.50863   2.76953   -1.000
 5685.00    3.52064   2.76761   -1.000
 5686.00    3.47985   2.76544   -1.000
 5687.00    3.43155   2.76358   -1.000
 5688.00    3.42748   2.76699   -1.000
 5689.00    3.48248   2.78151   -1.000
 5690.00    3.56013   2.80797   -1.000
 5691.00    3.62233   2.84000   -1.000
 5692.00    3.66498   2.86972   -1.000
 5693.00    3.66866   2.88959   -1.000
 5694.00    3.64505   2.89620   -1.000
 5695.00    3.63057   2.89034   -1.000
 5696.00    3.60860   2.87474   -1.000
 5697.00    3.56103   2.85136   -1.000
 5698.00    3.48625   2.82237   -1.000
 5699.00    3.41387   2.79200   -1.000
 5700.00    3.36612   2.76608   -1.000
 5701.00    3.33217   2.74782   -1.000
 5702.00    3.34449   2.73919   -1.000
 5703.00    3.40429   2.73959   -1.000
 5704.00    3.44737   2.74039   -1.000
 5705.00    3.43988   2.73271   -1.000
 5706.00    3.38947   2.71189   -1.000
 5707.00    3.32807   2.68092   -1.000
 5708.00    3.28563   2.65029   -1.000
 5709.00    3.26871   2.62900   -1.000
 5710.00    3.28904   2.62474   -1.000
 5711.00    3.32975   2.64147   -1.000
 5712.00    3.39026   2.67668   -1.000
 5713.00    3.49136   2.72491   -1.000
 5714.00    3.58382   2.77753   -1.000
 5715.00    3.63486   2.82398   -1.000
 5716.00    3.65242   2.86110   -1.000
 5717.00    3.66083   2.88935   -1.000
 5718.00    3.67088   2.91161   -1.000
 5719.00    3.68745   2.93190   -1.000
 5720.00    3.71832   2.95290   -1.000
 5721.00    3.75141   2.97332   -1.000
 5722.00    3.77847   2.98935   -1.000
 5723.00    3.77535   2.99642   -1.000
 5724.00    3.75015   2.99167   -1.000
 5725.00    3.72040   2.97548   -1.000
 5726.00    3.66670   2.95305   -1.000
 5727.00    3.62404   2.93276   -1.000
 5728.00    3.64484   2.92104   -1.000
 5729.00    3.68489   2.91878   -1.000
 5730.00    3.67846   2.92108   -1.000
 5731.00    3.64057   2.92542   -1.000
 5732.00    3.65700   2.93302   -1.000
 5733.00    3.73453   2.94615   -1.000
 5734.00    3.78488   2.96234   -1.000
 5735.00    3.77403   2.97406   -1.000
 5736.00    3.73866   2.97800   -1.000
 5737.00    3.70717   2.97535   -1.000
 5738.00    3.69288   2.96985   -1.000
 5739.00    3.69736   2.96564   -1.000
 5740.00    3.70809   2.96324   -1.000
 5741.00    3.71598   2.96343   -1.000
 5742.00    3.71604   2.96640   -1.000
 5743.00    3.71574   2.97283   -1.000
 5744.00    3.73254   2.98212   -1.000
 5745.00    3.77284   2.98962   -1.000
 5746.00    3.79393   2.99095   -1.000
 5747.00    3.74511   2.98478   -1.000
 5748.00    3.69942   2.97498   -1.000
 5749.00    3.73505   2.96717   -1.000
 5750.00    3.77910   2.95904   -1.000
 5751.00    3.75137   2.94583   -1.000
 5752.00    3.67845   2.92569   -1.000
 5753.00    3.62359   2.90639   -1.000
 5754.00    3.61825   2.90145   -1.000
 5755.00    3.65326   2.91677   -1.000
 5756.00    3.72173   2.94694   -1.000
 5757.00    3.78052   2.97512   -1.000
 5758.00    3.78269   2.98629   -1.000
 5759.00    3.73201   2.97439   -1.000
 5760.00    3.65054   2.94471   -1.000
 5761.00    3.57722   2.91235   -1.000
 5762.00    3.54833   2.89378   -1.000
 5763.00    3.59360   2.89937   -1.000
 5764.00    3.68208   2.92918   -1.000
 5765.00    3.76289   2.97192   -1.000
 5766.00    3.79875   3.01074   -1.000
 5767.00    3.79729   3.03730   -1.000
 5768.00    3.78210   3.04925   -1.000
 5769.00    3.74839   3.04832   -1.000
 5770.00    3.72543   3.03865   -1.000
 5771.00    3.70537   3.02526   -1.000
 5772.00    3.65676   3.01109   -1.000
 5773.00    3.59045   2.99901   -1.000
 5774.00    3.52285   2.99097   -1.000
 5775.00    3.45450   2.98650   -1.000
 5776.00    3.41314   2.98286   -1.000
 5777.00    3.43331   2.97332   -1.000
 5778.00    3.50403   2.95033   -1.000
 5779.00    3.54669   2.91099   -1.000
 5780.00    3.51074   2.85928   -1.000
 5781.00    3.44514   2.80609   -1.000
 5782.00    3.41385   2.76331   -1.000
 5783.00    3.42305   2.73989   -1.000
 5784.00    3.44561   2.73593   -1.000
 5785.00    3.47635   2.74872   -1.000
 5786.00    3.53459   2.77724   -1.000
 5787.00    3.62201   2.81649   -1.000
 5788.00    3.69736   2.85620   -1.000
 5789.00    3.71603   2.88939   -1.000
 5790.00    3.67509   2.91393   -1.000
 5791.00    3.63846   2.93439   -1.000
 5792.00    3.64184   2.95706   -1.000
 5793.00    3.68558   2.98421   -1.000
 5794.00    3.75539   3.01068   -1.000
 5795.00    3.80613   3.02828   -1.000
 5796.00    3.82217   3.03453   -1.000
 5797.00    3.81596   3.03404   -1.000
 5798.00    3.81422   3.03773   -1.000
 5799.00    3.83849   3.05275   -1.000
 5800.00    3.88138   3.07674   -1.000
 5801.00    3.89742   3.09847   -1.000
 5802.00    3.89211   3.10667   -1.000
 5803.00    3.86351   3.09843   -1.000
 5804.00    3.78260   3.07881   -1.000
 5805.00    3.73895   3.05881   -1.000
 5806.00    3.75723   3.04687   -1.000
 5807.00    3.76280   3.04563   -1.000
 5808.00    3.77331   3.05251   -1.000
 5809.00    3.81532   3.06268   -1.000
 5810.00    3.86255   3.07134   -1.000
 5811.00    3.88846   3.07404   -1.000
 5812.00    3.87277   3.06772   -1.000
 5813.00    3.83987   3.05287   -1.000
 5814.00    3.81048   3.03331   -1.000
 5815.00    3.78086   3.01615   -1.000
 5816.00    3.77190   3.00954   -1.000
 5817.00    3.80996   3.01935   -1.000
 5818.00    3.86438   3.04257   -1.000
 5819.00    3.91252   3.06948   -1.000
 5820.00    3.93882   3.09000   -1.000
 5821.00    3.93779   3.10004   -1.000
 5822.00    3.91880   3.10131   -1.000
 5823.00    3.90754   3.09854   -1.000
 5824.00    3.91804   3.09740   -1.000
 5825.00    3.94424   3.09970   -1.000
 5826.00    3.96417   3.10516   -1.000
 5827.00    3.96031   3.11202   -1.000
 5828.00    3.96798   3.11880   -1.000
 5829.00    3.96732   3.12426   -1.000
 5830.00    3.96272   3.12667   -1.000
 5831.00    3.96778   3.12454   -1.000
 5832.00    3.95668   3.11788   -1.000
 5833.00    3.94592   3.10792   -1.000
 5834.00    3.93700   3.09710   -1.000
 5835.00    3.93467   3.08811   -1.000
 5836.00    3.93991   3.08396   -1.000
 5837.00    3.91992   3.08459   -1.000
 5838.00    3.89655   3.08949   -1.000
 5839.00    3.89582   3.09961   -1.000
 5840.00    3.91753   3.11417   -1.000
 5841.00    3.95902   3.12904   -1.000
 5842.00    3.98471   3.13858   -1.000
 5843.00    3.97652   3.13761   -1.000
 5844.00    3.94529   3.12515   -1.000
 5845.00    3.88406   3.10380   -1.000
 5846.00    3.82085   3.07880   -1.000
 5847.00    3.80111   3.05531   -1.000
 5848.00    3.80367   3.03636   -1.000
 5849.00    3.79577   3.02134   -1.000
 5850.00    3.76923   3.00697   -1.000
 5851.00    3.72248   2.98958   -1.000
 5852.00    3.67568   2.96866   -1.000
 5853.00    3.66965   2.94655   -1.000
 5854.00    3.68930   2.92492   -1.000
 5855.00    3.68332   2.90334   -1.000
 5856.00    3.63719   2.88078   -1.000
 5857.00    3.58520   2.86140   -1.000
 5858.00    3.59345   2.85376   -1.000
 5859.00    3.65507   2.86308   -1.000
 5860.00    3.70047   2.88653   -1.000
 5861.00    3.71009   2.91305   -1.000
 5862.00    3.71661   2.93413   -1.000
 5863.00    3.71278   2.94613   -1.000
 5864.00    3.69847   2.95050   -1.000
 5865.00    3.68562   2.95084   -1.000
 5866.00    3.66664   2.95105   -1.000
 5867.00    3.66164   2.95600   -1.000
 5868.00    3.70951   2.96999   -1.000
 5869.00    3.76370   2.99007   -1.000
 5870.00    3.78643   3.00891   -1.000
 5871.00    3.78526   3.02152   -1.000
 5872.00    3.75716   3.02623   -1.000
 5873.00    3.75035   3.02486   -1.000
 5874.00    3.77105   3.01960   -1.000
 5875.00    3.77716   3.01105   -1.000
 5876.00    3.74998   2.99724   -1.000
 5877.00    3.71199   2.97699   -1.000
 5878.00    3.65935   2.95296   -1.000
 5879.00    3.61221   2.92936   -1.000
 5880.00    3.56734   2.91066   -1.000
 5881.00    3.49193   2.89874   -1.000
 5882.00    3.33117   2.89192   -1.000
 5883.00    3.04802   2.88192   -1.000
 5884.00    2.74113   2.85841   18.236
 5885.00    2.46573   2.81097   -1.000
 5886.00    2.39292   2.72764   -1.000
 5887.00    2.51692   2.60283   19.796
 5888.00    2.52832   2.44828   19.037
 5889.00    2.34466   2.29449   18.533
 5890.00    2.15988   2.18352   18.584
 5891.00    2.12967   2.13913   19.043
 5892.00    2.29381   2.15410   -1.000
 5893.00    2.56928   2.19237   -1.000
 5894.00    2.75460   2.22305   -1.000
 5895.00    2.80756   2.24176   -1.000
 5896.00    2.87042   2.26736   -1.000
 5897.00    3.04690   2.32736   -1.000
 5898.00    3.28150   2.42317   -1.000
 5899.00    3.46526   2.53593   -1.000
 5900.00    3.57702   2.64536   -1.000
 5901.00    3.64039   2.73745   -1.000
 5902.00    3.67071   2.80440   -1.000
 5903.00    3.68054   2.84770   -1.000
 5904.00    3.67825   2.87309   -1.000
 5905.00    3.68501   2.88774   -1.000
 5906.00    3.71431   2.89822   -1.000
 5907.00    3.73940   2.90977   -1.000
 5908.00    3.75282   2.92305   -1.000
 5909.00    3.74940   2.93475   -1.000
 5910.00    3.75807   2.94118   -1.000
 5911.00    3.76141   2.93846   -1.000
 5912.00    3.67593   2.92474   -1.000
 5913.00    3.59027   2.90227   -1.000
 5914.00    3.53692   2.87850   -1.000
 5915.00    3.51837   2.86317   -1.000
 5916.00    3.54829   2.86287   -1.000
 5917.00    3.60157   2.87618   -1.000
 5918.00    3.65450   2.89761   -1.000
 5919.00    3.69334   2.91896   -1.000
 5920.00    3.70293   2.93477   -1.000
 5921.00    3.67837   2.94347   -1.000
 5922.00    3.69753   2.94771   -1.000
 5923.00    3.72219   2.95171   -1.000
 5924.00    3.74274   2.95811   -1.000
 5925.00    3.75696   2.96525   -1.000
 5926.00    3.75452   2.96878   -1.000
 5927.00    3.76193   2.96585   -1.000
 5928.00    3.72059   2.95669   -1.000
 5929.00    3.66038   2.94631   -1.000
 5930.00    3.65726   2.93989   -1.000
 5931.00    3.70794   2.94044   -1.000
 5932.00    3.73357   2.94519   -1.000
 5933.00    3.72601   2.94927   -1.000
 5934.00    3.67981   2.95210   -1.000
 5935.00    3.67219   2.95681   -1.000
 5936.00    3.71735   2.96657   -1.000
 5937.00    3.75093   2.97835   -1.000
 5938.00    3.76432   2.98575   -1.000
 5939.00    3.76783   2.98569   -1.000
 5940.00    3.72360   2.97828   -1.000
 5941.00    3.67972   2.96824   -1.000
 5942.00    3.69068   2.96283   -1.000
 5943.00    3.73810   2.96697   -1.000
 5944.00    3.77403   2.97811   -1.000
 5945.00    3.79781   2.98894   -1.000
 5946.00    3.79618   2.99318   -1.000
 5947.00    3.76405   2.98811   -1.000
 5948.00    3.73060   2.97634   -1.000
 5949.00    3.70571   2.96346   -1.000
 5950.00    3.69665   2.95516   -1.000
 5951.00    3.70122   2.95046   -1.000
 5952.00    3.69706   2.94710   -1.000
 5953.00    3.68264   2.94416   -1.000
 5954.00    3.68581   2.94246   -1.000
 5955.00    3.70913   2.94192   -1.000
 5956.00    3.69073   2.94153   -1.000
 5957.00    3.66650   2.94411   -1.000
 5958.00    3.69091   2.95456   -1.000
 5959.00    3.74578   2.97394   -1.000
 5960.00    3.78949   2.99780   -1.000
 5961.00    3.81809   3.01979   -1.000
 5962.00    3.83143   3.03376   -1.000
 5963.00    3.82148   3.03814   -1.000
 5964.00    3.79152   3.03531   -1.000
 5965.00    3.76581   3.03060   -1.000
 5966.00    3.77987   3.02972   -1.000
 5967.00    3.80860   3.03656   -1.000
 5968.00    3.82172   3.04944   -1.000
 5969.00    3.84852   3.06388   -1.000
 5970.00    3.87686   3.07593   -1.000
 5971.00    3.87575   3.08230   -1.000
 5972.00    3.86513   3.07992   -1.000
 5973.00    3.85023   3.06784   -1.000
 5974.00    3.81609   3.04726   -1.000
 5975.00    3.77168   3.02171   -1.000
 5976.00    3.73763   2.99724   -1.000
 5977.00    3.72805   2.98118   -1.000
 5978.00    3.75177   2.97611   -1.000
 5979.00    3.77802   2.98032   -1.000
 5980.00    3.80638   2.98673   -1.000
 5981.00    3.81904   2.98757   -1.000
 5982.00    3.79506   2.97830   -1.000
 5983.00    3.72727   2.96230   -1.000
 5984.00    3.69021   2.94906   -1.000
 5985.00    3.72727   2.94766   -1.000
 5986.00    3.78816   2.96081   -1.000
 5987.00    3.82672   2.98210   -1.000
 5988.00    3.84667   3.00489   -1.000
 5989.00    3.87203   3.02554   -1.000
 5990.00    3.89161   3.04267   -1.000
 5991.00    3.88965   3.05723   -1.000
 5992.00    3.88550   3.07099   -1.000
 5993.00    3.91238   3.08344   -1.000
 5994.00    3.93955   3.08990   -1.000
 5995.00    3.92611   3.08586   -1.000
 5996.00    3.86566   3.07119   -1.000
 5997.00    3.82288   3.05217   -1.000
 5998.00    3.82219   3.03619   -1.000
 5999.00    3.84124   3.02792   -1.000
 6000.00    3.84030   3.02602   -1.000
 6001.00    3.81916   3.02647   -1.000
 6002.00    3.79779   3.02562   -1.000
 6003.00    3.79743   3.02176   -1.000
 6004.00    3.80240   3.01533   -1.000
 6005.00    3.77492   3.00537   -1.000
 6006.00    3.73331   2.99141   -1.000
 6007.00    3.71148   2.97832   -1.000
 6008.00    3.72283   2.97329   -1.000
 6009.00    3.77194   2.98012   -1.000
 6010.00    3.81982   2.99432   -1.000
 6011.00    3.85303   3.00521   -1.000
 6012.00    3.84264   3.00764   -1.000
 6013.00    3.81185   3.00323   -1.000
 6014.00    3.80164   2.99734   -1.000
 6015.00    3.80282   2.99310   -1.000
 6016.00    3.80669   2.98905   -1.000
 6017.00    3.82561   2.98470   -1.000
 6018.00    3.84753   2.98135   -1.000
 6019.00    3.82432   2.97851   -1.000
 6020.00    3.80361   2.97703   -1.000
 6021.00    3.82977   2.98098   -1.000
 6022.00    3.85010   2.99193   -1.000
 6023.00    3.86013   3.00914   -1.000
 6024.00    3.88609   3.03071   -1.000
 6025.00    3.92990   3.05450   -1.000
 6026.00    3.96065   3.07844   -1.000
 6027.00    3.96723   3.10099   -1.000
 6028.00    3.97888   3.12175   -1.000
 6029.00    3.99250   3.14028   -1.000
 6030.00    3.99696   3.15583   -1.000
 6031.00    3.99850   3.16962   -1.000
 6032.00    4.00166   3.18341   -1.000
 6033.00    4.01686   3.19751   -1.000
 6034.00    4.03864   3.21050   -1.000
 6035.00    4.05433   3.21884   -1.000
 6036.00    4.05333   3.21952   -1.000
 6037.00    4.04748   3.21315   -1.000
 6038.00    4.03727   3.20234   -1.000
 6039.00    4.01901   3.19147   -1.000
 6040.00    4.01290   3.18468   -1.000
 6041.00    4.02244   3.18513   -1.000
 6042.00    4.04223   3.19325   -1.000
 6043.00    4.07177   3.20687   -1.000
 6044.00    4.10751   3.22234   -1.000
 6045.00    4.11327   3.23558   -1.000
 6046.00    4.11463   3.24562   -1.000
 6047.00    4.11947   3.25177   -1.000
 6048.00    4.12343   3.25422   -1.000
 6049.00    4.12694   3.25299   -1.000
 6050.00    4.10950   3.24772   -1.000
 6051.00    4.08837   3.23715   -1.000
 6052.00    4.07504   3.22036   -1.000
 6053.00    4.06516   3.19913   -1.000
 6054.00    4.04423   3.17756   -1.000
 6055.00    4.01838   3.15985   -1.000
 6056.00    4.00143   3.14929   -1.000
 6057.00    4.00644   3.14813   -1.000
 6058.00    4.02169   3.15439   -1.000
 6059.00    4.06383   3.16271   -1.000
 6060.00    4.08260   3.16646   -1.000
 6061.00    3.99204   3.16037   -1.000
 6062.00    3.84010   3.14454   -1.000
 6063.00    3.21727   3.12417   10.279
 6064.00    2.37955   3.10888   -1.000
 6065.00    3.09909   3.10734   16.591
 6066.00    3.85280   3.12483   -1.000
 6067.00    4.08066   3.15801   -1.000
 6068.00    3.63297   3.19722   -1.000
 6069.00    2.01182   3.23237   -1.000
 6070.00    3.00800   3.25881   -1.000
 6071.00    4.08405   3.27560   -1.000
 6072.00    4.20921   3.28294   -1.000
 6073.00    4.17308   3.28143   -1.000
 6074.00    4.16666   3.27176   -1.000
 6075.00    4.14535   3.25469   -1.000
 6076.00    4.10294   3.23126   -1.000
 6077.00    4.05286   3.20385   -1.000
 6078.00    4.03307   3.17581   -1.000
 6079.00    4.01593   3.15110   -1.000
 6080.00    4.01337   3.13172   -1.000
 6081.00    4.00753   3.11818   -1.000
 6082.00    3.99811   3.11100   -1.000
 6083.00    3.99665   3.11129   -1.000
 6084.00    4.01713   3.11744   -1.000
 6085.00    4.03542   3.12586   -1.000
 6086.00    4.01654   3.13356   -1.000
 6087.00    4.02923   3.13733   -1.000
 6088.00    4.05507   3.13479   -1.000
 6089.00    4.00880   3.12649   -1.000
 6090.00    3.94285   3.11660   -1.000
 6091.00    3.95313   3.11187   -1.000
 6092.00    3.97312   3.11630   -1.000
 6093.00    4.01621   3.12964   -1.000
 6094.00    4.05552   3.14854   -1.000
 6095.00    4.06324   3.16759   -1.000
 6096.00    4.05527   3.18194   -1.000
 6097.00    4.07897   3.18842   -1.000
 6098.00    4.11020   3.18510   -1.000
 6099.00    4.09348   3.16919   -1.000
 6100.00    4.03857   3.13896   -1.000
 6101.00    3.91176   3.09994   -1.000
 6102.00    3.80688   3.06404   -1.000
 6103.00    3.83756   3.04746   -1.000
 6104.00    3.94096   3.05683   -1.000
 6105.00    4.01838   3.08534   -1.000
 6106.00    4.05497   3.12023   -1.000
 6107.00    4.06446   3.15160   -1.000
 6108.00    4.07008   3.17599   -1.000
 6109.00    4.04110   3.19340   -1.000
 6110.00    4.02661   3.20482   -1.000
 6111.00    4.06492   3.21283   -1.000
 6112.00    4.08004   3.22090   -1.000
 6113.00    4.06261   3.22902   -1.000
 6114.00    4.03815   3.23388   -1.000
 6115.00    4.02718   3.23103   -1.000
 6116.00    4.02521   3.21836   -1.000
 6117.00    4.01913   3.19624   -1.000
 6118.00    4.02869   3.16442   -1.000
 6119.00    4.01393   3.12406   -1.000
 6120.00    3.95114   3.08152   -1.000
 6121.00    3.87566   3.04717   -1.000
 6122.00    3.83534   3.03221   -1.000
 6123.00    3.91636   3.04041   -1.000
 6124.00    4.02859   3.06499   -1.000
 6125.00    4.04568   3.09306   -1.000
 6126.00    4.00677   3.11664   -1.000
 6127.00    3.98964   3.13555   -1.000
 6128.00    3.97845   3.15356   -1.000
 6129.00    3.97495   3.17417   -1.000
 6130.00    4.00603   3.19429   -1.000
 6131.00    4.04178   3.20483   -1.000
 6132.00    4.03906   3.19536   -1.000
 6133.00    3.99819   3.15985   -1.000
 6134.00    3.88103   3.10156   -1.000
 6135.00    3.75136   3.03452   -1.000
 6136.00    3.64380   2.97995   -1.000
 6137.00    3.62015   2.95800   -1.000
 6138.00    3.66158   2.97470   -1.000
 6139.00    3.80240   3.01844   -1.000
 6140.00    3.89930   3.07033   -1.000
 6141.00    3.89684   3.11637   -1.000
 6142.00    3.91821   3.15443   -1.000
 6143.00    3.97533   3.18572   -1.000
 6144.00    4.00008   3.20825   -1.000
 6145.00    4.00818   3.21868   -1.000
 6146.00    3.99608   3.21537   -1.000
 6147.00    3.98081   3.20066   -1.000
 6148.00    3.94663   3.17966   -1.000
 6149.00    3.92696   3.15984   -1.000
 6150.00    3.92273   3.14645   -1.000
 6151.00    3.92170   3.14089   -1.000
 6152.00    3.89578   3.13922   -1.000
 6153.00    3.90623   3.13527   -1.000
 6154.00    3.89735   3.12505   -1.000
 6155.00    3.86439   3.10776   -1.000
 6156.00    3.79410   3.08305   -1.000
 6157.00    3.76404   3.04697   -1.000
 6158.00    3.69875   2.99517   -1.000
 6159.00    3.58816   2.92669   -1.000
 6160.00    3.46130   2.84822   -1.000
 6161.00    3.34438   2.77598   -1.000
 6162.00    3.28119   2.72871   -1.000
 6163.00    3.34134   2.71923   -1.000
 6164.00    3.44202   2.74286   -1.000
 6165.00    3.53105   2.78352   -1.000
 6166.00    3.58144   2.82184   -1.000
 6167.00    3.58120   2.84632   -1.000
 6168.00    3.55010   2.85530   -1.000
 6169.00    3.50852   2.85810   -1.000
 6170.00    3.49280   2.86755   -1.000
 6171.00    3.55063   2.89001   -1.000
 6172.00    3.64337   2.92122   -1.000
 6173.00    3.65205   2.95159   -1.000
 6174.00    3.67566   2.97612   -1.000
 6175.00    3.68356   2.99419   -1.000
 6176.00    3.64425   3.00807   -1.000
 6177.00    3.65210   3.02141   -1.000
 6178.00    3.68294   3.03639   -1.000
 6179.00    3.70983   3.05227   -1.000
 6180.00    3.74698   3.06673   -1.000
 6181.00    3.76983   3.07780   -1.000
 6182.00    3.76476   3.08231   -1.000
 6183.00    3.72805   3.07683   -1.000
 6184.00    3.69028   3.06030   -1.000
 6185.00    3.66974   3.03389   -1.000
 6186.00    3.64372   3.00036   -1.000
 6187.00    3.58921   2.96377   -1.000
 6188.00    3.58319   2.92816   -1.000
 6189.00    3.54925   2.89698   -1.000
 6190.00    3.47477   2.87454   -1.000
 6191.00    3.45536   2.86730   -1.000
 6192.00    3.53031   2.88076   -1.000
 6193.00    3.62534   2.91224   -1.000
 6194.00    3.67954   2.95160   -1.000
 6195.00    3.72342   2.98649   -1.000
 6196.00    3.71331   3.00935   -1.000
 6197.00    3.65792   3.01769   -1.000
 6198.00    3.59241   3.01553   -1.000
 6199.00    3.54838   3.01132   -1.000
 6200.00    3.56060   3.01476   -1.000
 6201.00    3.61387   3.02924   -1.000
 6202.00    3.67768   3.05086   -1.000
 6203.00    3.72806   3.07385   -1.000
 6204.00    3.74546   3.09307   -1.000
 6205.00    3.74421   3.10665   -1.000
 6206.00    3.75626   3.11402   -1.000
 6207.00    3.75069   3.11447   -1.000
 6208.00    3.73745   3.10653   -1.000
 6209.00    3.73051   3.08800   -1.000
 6210.00    3.71646   3.05794   -1.000
 6211.00    3.66112   3.01739   -1.000
 6212.00    3.61082   2.97008   -1.000
 6213.00    3.56398   2.92257   -1.000
 6214.00    3.53657   2.88338   -1.000
 6215.00    3.59396   2.85874   -1.000
 6216.00    3.63190   2.84934   -1.000
 6217.00    3.67022   2.85033   -1.000
 6218.00    3.68517   2.85539   -1.000
 6219.00    3.59694   2.86028   -1.000
 6220.00    3.52350   2.86590   -1.000
 6221.00    3.54729   2.87404   -1.000
 6222.00    3.61894   2.88437   -1.000
 6223.00    3.70737   2.89483   -1.000
 6224.00    3.72871   2.90328   -1.000
 6225.00    3.72000   2.90713   -1.000
 6226.00    3.70007   2.90310   -1.000
 6227.00    3.66974   2.88818   -1.000
 6228.00    3.61900   2.86246   -1.000
 6229.00    3.54560   2.83159   -1.000
 6230.00    3.47284   2.80652   -1.000
 6231.00    3.45878   2.79968   -1.000
 6232.00    3.48448   2.81649   -1.000
 6233.00    3.52297   2.85218   -1.000
 6234.00    3.58303   2.89419   -1.000
 6235.00    3.65260   2.92810   -1.000
 6236.00    3.66817   2.94318   -1.000
 6237.00    3.64204   2.93761   -1.000
 6238.00    3.60755   2.91637   -1.000
 6239.00    3.55673   2.88790   -1.000
 6240.00    3.51028   2.85975   -1.000
 6241.00    3.50746   2.83667   -1.000
 6242.00    3.52274   2.82067   -1.000
 6243.00    3.48647   2.81335   -1.000
 6244.00    3.44447   2.81723   -1.000
 6245.00    3.46281   2.83331   -1.000
 6246.00    3.51092   2.85909   -1.000
 6247.00    3.58831   2.88890   -1.000
 6248.00    3.62781   2.91371   -1.000
 6249.00    3.62407   2.92503   -1.000
 6250.00    3.60217   2.91897   -1.000
 6251.00    3.53553   2.89751   -1.000
 6252.00    3.46707   2.86723   -1.000
 6253.00    3.44172   2.83654   -1.000
 6254.00    3.44200   2.81032   -1.000
 6255.00    3.42998   2.78971   -1.000
 6256.00    3.39472   2.77516   -1.000
 6257.00    3.39040   2.76977   -1.000
 6258.00    3.42583   2.77934   -1.000
 6259.00    3.44746   2.80626   -1.000
 6260.00    3.52151   2.84735   -1.000
 6261.00    3.61029   2.89428   -1.000
 6262.00    3.65389   2.93737   -1.000
 6263.00    3.67760   2.96888   -1.000
 6264.00    3.65345   2.98644   -1.000
 6265.00    3.61080   2.99319   -1.000
 6266.00    3.61980   2.99496   -1.000
 6267.00    3.63369   2.99625   -1.000
 6268.00    3.62684   2.99826   -1.000
 6269.00    3.60886   3.00175   -1.000
 6270.00    3.61012   3.00733   -1.000
 6271.00    3.61058   3.01398   -1.000
 6272.00    3.55125   3.01852   -1.000
 6273.00    3.46869   3.01733   -1.000
 6274.00    3.42705   3.00813   -1.000
 6275.00    3.38505   2.99127   -1.000
 6276.00    3.35847   2.96935   -1.000
 6277.00    3.31702   2.94596   -1.000
 6278.00    3.27392   2.92547   -1.000
 6279.00    3.23396   2.91222   -1.000
 6280.00    3.24466   2.91034   -1.000
 6281.00    3.32170   2.92217   -1.000
 6282.00    3.45089   2.94697   -1.000
 6283.00    3.58739   2.98027   -1.000
 6284.00    3.66251   3.01609   -1.000
 6285.00    3.69375   3.04946   -1.000
 6286.00    3.74775   3.07751   -1.000
 6287.00    3.80501   3.09773   -1.000
 6288.00    3.87041   3.10772   -1.000
 6289.00    3.87404   3.10572   -1.000
 6290.00    3.82838   3.09308   -1.000
 6291.00    3.80497   3.07384   -1.000
 6292.00    3.78655   3.05305   -1.000
 6293.00    3.75912   3.03314   -1.000
 6294.00    3.76987   3.01458   -1.000
 6295.00    3.74308   2.99643   -1.000
 6296.00    3.70506   2.97918   -1.000
 6297.00    3.68427   2.96586   -1.000
 6298.00    3.67252   2.95885   -1.000
 6299.00    3.70089   2.95668   -1.000
 6300.00    3.72832   2.95713   -1.000
 6301.00    3.71878   2.95975   -1.000
 6302.00    3.70836   2.96748   -1.000
 6303.00    3.73986   2.98287   -1.000
 6304.00    3.78820   3.00596   -1.000
 6305.00    3.81484   3.03428   -1.000
 6306.00    3.85721   3.06424   -1.000
 6307.00    3.92397   3.09094   -1.000
 6308.00    3.97109   3.10921   -1.000
 6309.00    3.97097   3.11511   -1.000
 6310.00    3.93612   3.10898   -1.000
 6311.00    3.88231   3.09460   -1.000
 6312.00    3.86039   3.07589   -1.000
 6313.00    3.84088   3.05560   -1.000
 6314.00    3.81806   3.03460   -1.000
 6315.00    3.80002   3.01476   -1.000
 6316.00    3.80156   2.99932   -1.000
 6317.00    3.80883   2.99130   -1.000
 6318.00    3.82623   2.99359   -1.000
 6319.00    3.84915   3.00841   -1.000
 6320.00    3.90927   3.03384   -1.000
 6321.00    3.96760   3.06416   -1.000
 6322.00    3.99637   3.09454   -1.000
 6323.00    4.03665   3.12207   -1.000
 6324.00    4.07260   3.14507   -1.000
 6325.00    4.06373   3.16250   -1.000
 6326.00    4.07541   3.17456   -1.000
 6327.00    4.10657   3.18304   -1.000
 6328.00    4.10037   3.18947   -1.000
 6329.00    4.12332   3.19445   -1.000
 6330.00    4.12812   3.19727   -1.000
 6331.00    4.10973   3.19669   -1.000
 6332.00    4.13314   3.18999   -1.000
 6333.00    4.13437   3.17393   -1.000
 6334.00    4.08054   3.14971   -1.000
 6335.00    4.01147   3.12404   -1.000
 6336.00    3.98730   3.10678   -1.000
 6337.00    3.99913   3.10424   -1.000
 6338.00    4.04195   3.11481   -1.000
 6339.00    4.11778   3.13182   -1.000
 6340.00    4.15760   3.14687   -1.000
 6341.00    4.12364   3.15354   -1.000
 6342.00    4.08666   3.15099   -1.000
 6343.00    4.06858   3.14475   -1.000
 6344.00    4.06380   3.14288   -1.000
 6345.00    4.05930   3.15213   -1.000
 6346.00    4.09411   3.17223   -1.000
 6347.00    4.15282   3.19811   -1.000
 6348.00    4.17818   3.22316   -1.000
 6349.00    4.17679   3.24171   -1.000
 6350.00    4.18687   3.25012   -1.000
 6351.00    4.18319   3.24700   -1.000
 6352.00    4.14280   3.23286   -1.000
 6353.00    4.10426   3.20994   -1.000
 6354.00    4.06269   3.18161   -1.000
 6355.00    4.00956   3.15154   -1.000
 6356.00    3.99416   3.12099   -1.000
 6357.00    3.96406   3.08916   -1.000
 6358.00    3.90141   3.05662   -1.000
 6359.00    3.88822   3.02669   -1.000
 6360.00    3.89177   3.00398   -1.000
 6361.00    3.90557   2.99245   -1.000
 6362.00    3.91636   2.99509   -1.000
 6363.00    3.93873   3.01294   -1.000
 6364.00    3.99770   3.04416   -1.000
 6365.00    4.05796   3.08415   -1.000
 6366.00    4.13195   3.12737   -1.000
 6367.00    4.20032   3.16862   -1.000
 6368.00    4.24871   3.20440   -1.000
 6369.00    4.27035   3.23273   -1.000
 6370.00    4.27075   3.25468   -1.000
 6371.00    4.28628   3.27227   -1.000
 6372.00    4.30077   3.28657   -1.000
 6373.00    4.29475   3.29672   -1.000
 6374.00    4.29065   3.30099   -1.000
 6375.00    4.29799   3.29875   -1.000
 6376.00    4.28662   3.29035   -1.000
 6377.00    4.25642   3.27682   -1.000
 6378.00    4.23293   3.26092   -1.000
 6379.00    4.20056   3.24722   -1.000
 6380.00    4.19006   3.23900   -1.000
 6381.00    4.20060   3.23739   -1.000
 6382.00    4.21207   3.24120   -1.000
 6383.00    4.21727   3.24836   -1.000
 6384.00    4.18897   3.25690   -1.000
 6385.00    4.18361   3.26589   -1.000
 6386.00    4.20058   3.27427   -1.000
 6387.00    4.20133   3.27956   -1.000
 6388.00    4.20270   3.27898   -1.000
 6389.00    4.17582   3.27042   -1.000
 6390.00    4.14087   3.25318   -1.000
 6391.00    4.09663   3.22944   -1.000
 6392.00    4.01068   3.20570   -1.000
 6393.00    3.94808   3.19050   -1.000
 6394.00    3.94782   3.18972   -1.000
 6395.00    3.99952   3.20083   -1.000
 6396.00    4.06057   3.21361   -1.000
 6397.00    4.08763   3.21847   -1.000
 6398.00    4.04264   3.21266   -1.000
 6399.00    3.95760   3.20312   -1.000
 6400.00    3.91081   3.20151   -1.000
 6401.00    3.94068   3.21601   -1.000
 6402.00    4.00543   3.24335   -1.000
 6403.00    4.05841   3.27203   -1.000
 6404.00    4.05176   3.29132   -1.000
 6405.00    3.99169   3.29600   -1.000
 6406.00    3.93000   3.28797   -1.000
 6407.00    3.85670   3.27358   -1.000
 6408.00    3.81708   3.25977   -1.000
 6409.00    3.81693   3.24944   -1.000
 6410.00    3.78762   3.24201   -1.000
 6411.00    3.74797   3.23710   -1.000
 6412.00    3.71332   3.23601   -1.000
 6413.00    3.68068   3.24034   -1.000
 6414.00    3.65668   3.24849   -1.000
 6415.00    3.64977   3.25647   -1.000
 6416.00    3.64699   3.25923   -1.000
 6417.00    3.60471   3.25318   -1.000
 6418.00    3.56763   3.23932   -1.000
 6419.00    3.49906   3.22356   -1.000
 6420.00    3.39894   3.21474   -1.000
 6421.00    3.36119   3.22003   -1.000
 6422.00    3.41252   3.24064   -1.000
 6423.00    3.48527   3.27017   -1.000
 6424.00    3.47632   3.29983   -1.000
 6425.00    3.42212   3.32200   -1.000
 6426.00    3.39678   3.33187   -1.000
 6427.00    0.26855   3.32727   -1.000
 6428.00    0.00000   3.30913   -2.000
