###################################################################
## OUTPUT of StarlightChains_v04.for    [Cid@UFSC - 01/Apr/2007] ##
###################################################################

## Some input info
NGC6284_a_1.cxt                          [arq_obs]
Base.BC03.S                              [arq_base]
NGC6284_a_1.msk                          [arq_masks]
StCv04.C99.config                        [arq_config]
  150                                    [N_base]
    0                                    [N_YAV_components = # of components with extra extinction!]
    0                                    [i_FitPowerLaw (1/0 = Yes/No)]
-9.99                                    [alpha_PowerLaw]
CCM                                      [red_law_option]
 1.458241                                [q_norm = A(l_norm)/A(V)]

## (Re)Sampling Parameters
 3359.00                                 [l_ini (A)]
 6428.00                                 [l_fin (A)]
    1.00                                 [dl    (A)]     (OBS: dl_cushion =    50.00 A)

## Normalization info
 4020.00                                 [l_norm (A) - for base]
 4010.00                                 [llow_norm (A) - window for f_obs]
 4060.00                                 [lupp_norm (A) - window for f_obs]
9.247314E-15                             [fobs_norm (in input units)]

## S/N
 4730.00                                 [llow_SN (A) - window for S/N]
 4780.00                                 [lupp_SN (A) - window for S/N]
  76.302                                 [S/N in S/N window]
  62.584                                 [S/N in norm. window]
  42.607                                 [S/N_err in S/N window]
  34.947                                 [S/N_err in norm. window]
  1.0000                                 [fscale_chi2]

## etc...
  2147483621                             [idum_orig]
  3065                                   [NOl_eff]
  1589                                   [Nl_eff]
  1476    NSIGMA                         [Ntot_cliped & clip_method]
  3475920                                [Nglobal_steps]
   7                                     [N_chains]
  21                                     [NEX0s_base = N_base in EX0s-fits]
 0   0   1      208   2.0   7.612E+02    [Clip-Bug, RC-Crash & Burn-In warning-flags, n_censored_weights, wei_nsig_threshold & wei_limit]
   133    133.351    133.339      0.012  [idt_all, wdt_TotTime, wdt_UsrTime & wdt_SysTime (sec)]

## Synthesis Results - Best model ##

 1.21722E+00                             [chi2/Nl_eff]
     1.47747                             [adev (%)]

   100.28188                             [sum-of-x (%)]
 2.77683E-14                             [Flux_tot (units of input spectrum!)]
 7.01172E-10                             [Mini_tot (???)]
 3.50592E-10                             [Mcor_tot (???)]

  -6.48                                  [v0_min  (km/s)]
  59.52                                  [vd_min  (km/s)]
 0.8166                                  [AV_min  (mag)]
 0.0000                                  [YAV_min (mag)]

# j     x_j(%)      Mini_j(%)     Mcor_j(%)     age_j(yr)     Z_j      (L/M)_j    YAV?  Mstars   component_j        a/Fe...       SSP_chi2r SSP_adev(%)   SSP_AV   SSP_x(%)
  1      0.0000     0.0000E+00    0.0000E+00    1.000000E+06  0.00010  8.160E-03    0   1.0000   age020_m22            0.0000     7.1704E+02    12.8614   4.0000    75.2394
  2      7.9755     6.6183E-03    1.3236E-02    3.160000E+06  0.00010  4.759E-02    0   1.0000   age045_m22            0.0000     6.7440E+01     5.4322   2.4086    93.3659
  3      0.0000     0.0000E+00    0.0000E+00    5.010000E+06  0.00010  1.932E-02    0   0.9582   age055_m22            0.0000     3.9065E+02    13.7080   2.9032    80.3709
  4      0.0000     0.0000E+00    0.0000E+00    6.610000E+06  0.00010  9.973E-03    0   0.9297   age061_m22            0.0000     6.3670E+02    12.5400   4.0000    77.5117
  5      0.0000     0.0000E+00    0.0000E+00    8.710000E+06  0.00010  7.690E-03    0   0.9030   age067_m22            0.0000     6.0165E+02    12.1349   4.0000    77.9678
  6      0.0000     0.0000E+00    0.0000E+00    1.000000E+07  0.00010  6.375E-03    0   0.8902   age070_m22            0.0000     5.8311E+02    12.3267   4.0000    78.1866
  7      0.0000     0.0000E+00    0.0000E+00    1.445000E+07  0.00010  4.874E-03    0   0.8589   age078_m22            0.0000     3.7388E+02     7.9285   4.0000    80.9848
  8      0.0000     0.0000E+00    0.0000E+00    2.512000E+07  0.00010  4.103E-03    0   0.8174   age090_m22            0.0000     1.3571E+02     8.2306   3.8360    86.4480
  9      0.0000     0.0000E+00    0.0000E+00    4.000000E+07  0.00010  3.654E-03    0   0.7830   age104_m22            0.0000     1.1647E+02     4.8879   3.4523    90.6143
 10      1.4704     1.8774E-02    2.8525E-02    5.500000E+07  0.00010  3.093E-03    0   0.7597   age110_m22            0.0000     1.2706E+02     3.9450   3.2976    92.4215
 11     14.9158     2.4231E-01    3.4591E-01    1.015200E+08  0.00010  2.431E-03    0   0.7138   age116_m22            0.0000     1.8222E+02     4.5140   2.8818    95.3292
 12      0.0000     0.0000E+00    0.0000E+00    1.609000E+08  0.00010  1.319E-03    0   0.6775   age120_m22            0.0000     1.8252E+02     5.6271   2.3200    98.4790
 13      0.0000     0.0000E+00    0.0000E+00    2.861200E+08  0.00010  1.075E-03    0   0.6412   age125_m22            0.0000     5.2384E+02    12.5309   2.1153   103.5601
 14      0.0000     0.0000E+00    0.0000E+00    5.088000E+08  0.00010  7.183E-04    0   0.6083   age130_m22            0.0000     6.5165E+02    15.6142   1.7458   106.3446
 15      0.0000     0.0000E+00    0.0000E+00    9.047900E+08  0.00010  4.524E-04    0   0.5785   age135_m22            0.0000     6.5807E+02    16.4293   1.5083   107.7841
 16      0.0000     0.0000E+00    0.0000E+00    1.278050E+09  0.00010  3.018E-04    0   0.5588   age138_m22            0.0000     2.9253E+02    11.0196   1.1820   104.8724
 17      0.0000     0.0000E+00    0.0000E+00    1.434000E+09  0.00010  2.691E-04    0   0.5532   age139_m22            0.0000     2.3007E+02     9.9700   1.0606   104.1768
 18      0.0000     0.0000E+00    0.0000E+00    2.500000E+09  0.00010  1.582E-04    0   0.5296   age150_m22            0.0000     1.9453E+02     8.8534   1.0067   104.2294
 19      0.0000     0.0000E+00    0.0000E+00    4.250000E+09  0.00010  1.007E-04    0   0.5110   age158_m22            0.0000     9.2022E+01     5.9752   0.9474   102.2798
 20      0.0000     0.0000E+00    0.0000E+00    6.250000E+09  0.00010  6.869E-05    0   0.4985   age166_m22            0.0000     3.0880E+01     3.2615   0.9775    99.3835
 21      1.4476     9.7340E-01    9.5996E-01    7.500000E+09  0.00010  5.873E-05    0   0.4931   age171_m22            0.0000     2.5792E+01     2.8396   0.9911    98.6510
 22      0.2106     1.8563E-01    1.8020E-01    1.000000E+10  0.00010  4.481E-05    0   0.4854   age181_m22            0.0000     2.4033E+01     2.7510   0.9522    98.3783
 23      0.0315     3.5632E-02    3.4142E-02    1.300000E+10  0.00010  3.489E-05    0   0.4791   age193_m22            0.0000     2.0085E+01     2.5435   0.8960    98.0025
 24      0.0000     0.0000E+00    0.0000E+00    1.500000E+10  0.00010  3.035E-05    0   0.4766   age201_m22            0.0000     1.7688E+01     2.3801   0.8610    97.8762
 25      0.0000     0.0000E+00    0.0000E+00    1.800000E+10  0.00010  2.510E-05    0   0.4735   age213_m22            0.0000     1.3331E+01     2.0732   0.8043    97.3718
 26      0.0000     0.0000E+00    0.0000E+00    1.000000E+06  0.00040  8.458E-03    0   1.0000   age020_m32            0.0000     7.0426E+02    13.3860   4.0000    75.7888
 27      0.0000     0.0000E+00    0.0000E+00    3.160000E+06  0.00040  3.973E-02    0   1.0000   age045_m32            0.0000     1.5414E+02     9.0944   3.7657    86.2884
 28      0.0000     0.0000E+00    0.0000E+00    5.010000E+06  0.00040  1.935E-02    0   0.9532   age055_m32            0.0000     3.3676E+02    11.4048   4.0000    80.6441
 29      0.0000     0.0000E+00    0.0000E+00    6.610000E+06  0.00040  1.204E-02    0   0.9243   age061_m32            0.0000     4.7582E+02     9.1739   4.0000    79.3826
 30      0.0000     0.0000E+00    0.0000E+00    8.710000E+06  0.00040  9.433E-03    0   0.9001   age067_m32            0.0000     4.1819E+02     8.5497   4.0000    80.2433
 31      0.0000     0.0000E+00    0.0000E+00    1.000000E+07  0.00040  8.053E-03    0   0.8877   age070_m32            0.0000     3.8705E+02     8.2414   4.0000    80.6840
 32      0.0000     0.0000E+00    0.0000E+00    1.445000E+07  0.00040  7.027E-03    0   0.8578   age078_m32            0.0000     1.8711E+02    10.1402   3.7487    84.8282
 33      0.0000     0.0000E+00    0.0000E+00    2.512000E+07  0.00040  4.707E-03    0   0.8166   age090_m32            0.0000     1.1318E+02     7.3035   3.3806    88.6840
 34      0.0000     0.0000E+00    0.0000E+00    4.000000E+07  0.00040  3.714E-03    0   0.7827   age104_m32            0.0000     1.0045E+02     4.9000   3.1056    91.8729
 35      0.0035     4.6951E-05    7.1298E-05    5.500000E+07  0.00040  2.982E-03    0   0.7593   age110_m32            0.0000     1.1290E+02     4.2159   3.0015    93.1433
 36      0.0000     0.0000E+00    0.0000E+00    1.015200E+08  0.00040  2.188E-03    0   0.7143   age116_m32            0.0000     2.6097E+02     6.6561   2.5492    98.3006
 37      0.0000     0.0000E+00    0.0000E+00    1.609000E+08  0.00040  1.690E-03    0   0.6856   age120_m32            0.0000     4.1183E+02     9.7392   2.2254   101.5900
 38      0.0000     0.0000E+00    0.0000E+00    2.861200E+08  0.00040  1.152E-03    0   0.6509   age125_m32            0.0000     5.5633E+02    13.6855   1.8180   105.0485
 39      0.0000     0.0000E+00    0.0000E+00    5.088000E+08  0.00040  7.331E-04    0   0.6182   age130_m32            0.0000     6.0386E+02    15.2647   1.5749   106.5069
 40      0.0000     0.0000E+00    0.0000E+00    9.047900E+08  0.00040  3.960E-04    0   0.5890   age135_m32            0.0000     2.9696E+02    11.6345   1.2277   104.7865
 41      0.0000     0.0000E+00    0.0000E+00    1.278050E+09  0.00040  2.854E-04    0   0.5687   age138_m32            0.0000     2.3430E+02     9.8518   1.0309   105.5454
 42      0.0000     0.0000E+00    0.0000E+00    1.434000E+09  0.00040  2.531E-04    0   0.5632   age139_m32            0.0000     2.2539E+02     9.6776   0.9787   105.4283
 43      0.0000     0.0000E+00    0.0000E+00    2.500000E+09  0.00040  1.488E-04    0   0.5386   age150_m32            0.0000     1.3753E+02     7.8698   0.7743   103.6545
 44     42.8181     1.8619E+01    1.9359E+01    4.250000E+09  0.00040  9.082E-05    0   0.5199   age158_m32            0.0000     2.7301E+01     3.5197   0.8090   100.1212
 45      4.7537     2.9508E+00    2.9956E+00    6.250000E+09  0.00040  6.362E-05    0   0.5076   age166_m32            0.0000     1.2031E+01     2.0054   0.8788    96.5518
 46      0.0631     4.7128E-02    4.7382E-02    7.500000E+09  0.00040  5.289E-05    0   0.5027   age171_m32            0.0000     1.7545E+01     2.1865   0.8522    95.4939
 47      0.0000     0.0000E+00    0.0000E+00    1.000000E+10  0.00040  3.972E-05    0   0.4948   age181_m32            0.0000     2.4430E+01     2.2837   0.7873    94.4459
 48      0.0000     0.0000E+00    0.0000E+00    1.300000E+10  0.00040  3.283E-05    0   0.4870   age193_m32            0.0000     8.8832E+00     1.6900   0.6884    97.2214
 49      0.0000     0.0000E+00    0.0000E+00    1.500000E+10  0.00040  2.925E-05    0   0.4854   age201_m32            0.0000     1.0742E+01     2.2168   0.6371    98.8263
 50      0.0124     1.9756E-02    1.9041E-02    1.800000E+10  0.00040  2.469E-05    0   0.4819   age213_m32            0.0000     1.3697E+01     2.5540   0.5809    99.4363
 51      0.0000     0.0000E+00    0.0000E+00    1.000000E+06  0.00400  1.114E-02    0   1.0000   age020_m42            0.0000     6.4648E+02    11.1819   4.0000    76.3592
 52      0.0009     8.3528E-07    1.6704E-06    3.160000E+06  0.00400  4.073E-02    0   0.9999   age045_m42            0.0000     1.0411E+02     7.0839   3.4190    89.3633
 53      0.0000     0.0000E+00    0.0000E+00    5.010000E+06  0.00400  2.534E-02    0   0.9488   age055_m42            0.0000     2.3804E+02    11.2174   3.9210    83.0368
 54      0.0290     4.4413E-05    8.1895E-05    6.610000E+06  0.00400  2.583E-02    0   0.9220   age061_m42            0.0000     1.0063E+02     6.1385   3.2202    89.7485
 55      0.0000     0.0000E+00    0.0000E+00    8.710000E+06  0.00400  1.706E-02    0   0.8983   age067_m42            0.0000     1.3637E+02     8.4211   3.1175    87.5778
 56      0.0000     0.0000E+00    0.0000E+00    1.000000E+07  0.00400  1.271E-02    0   0.8862   age070_m42            0.0000     1.8650E+02     9.9297   3.1463    85.8881
 57      0.0000     0.0000E+00    0.0000E+00    1.445000E+07  0.00400  7.666E-03    0   0.8571   age078_m42            0.0000     2.6493E+02    11.5831   3.5647    83.3358
 58      0.0000     0.0000E+00    0.0000E+00    2.512000E+07  0.00400  5.070E-03    0   0.8174   age090_m42            0.0000     1.5317E+02     8.9186   2.9823    87.9748
 59      0.0000     0.0000E+00    0.0000E+00    4.000000E+07  0.00400  3.505E-03    0   0.7851   age104_m42            0.0000     9.3293E+01     6.3567   2.5935    91.6218
 60      0.0000     0.0000E+00    0.0000E+00    5.500000E+07  0.00400  3.059E-03    0   0.7629   age110_m42            0.0000     8.9367E+01     2.9680   2.4826    96.6369
 61      0.0000     0.0000E+00    0.0000E+00    1.015200E+08  0.00400  2.268E-03    0   0.7207   age116_m42            0.0000     3.4700E+02     8.7308   2.1464   102.9040
 62      0.0000     0.0000E+00    0.0000E+00    1.609000E+08  0.00400  1.720E-03    0   0.6930   age120_m42            0.0000     3.8367E+02    10.1301   1.9349   105.2739
 63      0.0000     0.0000E+00    0.0000E+00    2.861200E+08  0.00400  1.079E-03    0   0.6613   age125_m42            0.0000     4.0478E+02    11.8272   1.5027   106.4214
 64      0.0000     0.0000E+00    0.0000E+00    5.088000E+08  0.00400  6.261E-04    0   0.6313   age130_m42            0.0000     4.7870E+02    13.6573   1.2497   109.4372
 65      2.7687     3.0930E-01    3.7264E-01    9.047900E+08  0.00400  3.535E-04    0   0.6024   age135_m42            0.0000     2.5568E+02    10.6298   0.9451   109.4704
 66      0.0000     0.0000E+00    0.0000E+00    1.278050E+09  0.00400  2.677E-04    0   0.5837   age138_m42            0.0000     7.7243E+01     7.4594   0.3318   108.6050
 67      0.0000     0.0000E+00    0.0000E+00    1.434000E+09  0.00400  1.910E-04    0   0.5716   age139_m42            0.0000     9.5378E+01     7.9153   0.4796   108.9296
 68      0.0000     0.0000E+00    0.0000E+00    2.500000E+09  0.00400  9.818E-05    0   0.5463   age150_m42            0.0000     4.1799E+01     5.2758   0.3344   104.3993
 69      0.0000     0.0000E+00    0.0000E+00    4.250000E+09  0.00400  5.491E-05    0   0.5269   age158_m42            0.0000     7.5670E+01     4.5456   0.2726   101.7363
 70      0.0000     0.0000E+00    0.0000E+00    6.250000E+09  0.00400  3.857E-05    0   0.5151   age166_m42            0.0000     1.1840E+02     5.0664   0.1512   100.8912
 71      0.0000     0.0000E+00    0.0000E+00    7.500000E+09  0.00400  3.243E-05    0   0.5110   age171_m42            0.0000     1.4832E+02     5.4982   0.0679   100.6791
 72      0.0000     0.0000E+00    0.0000E+00    1.000000E+10  0.00400  2.424E-05    0   0.5028   age181_m42            0.0000     1.9942E+02     6.0430  -0.0186   100.5085
 73      0.0000     0.0000E+00    0.0000E+00    1.300000E+10  0.00400  1.883E-05    0   0.4927   age193_m42            0.0000     2.5096E+02     6.3850  -0.0574   100.5236
 74      0.0000     0.0000E+00    0.0000E+00    1.500000E+10  0.00400  1.685E-05    0   0.4919   age201_m42            0.0000     2.3770E+02     6.2465  -0.0489   100.4346
 75      0.0000     0.0000E+00    0.0000E+00    1.800000E+10  0.00400  1.452E-05    0   0.4874   age213_m42            0.0000     2.1519E+02     6.0108  -0.0276   100.5112
 76      0.0000     0.0000E+00    0.0000E+00    1.000000E+06  0.00800  1.286E-02    0   1.0000   age020_m52            0.0000     5.4867E+02    10.2417   4.0000    78.1301
 77      0.0000     0.0000E+00    0.0000E+00    3.160000E+06  0.00800  3.147E-02    0   0.9966   age045_m52            0.0000     4.8133E+02     8.7090   4.0000    79.3485
 78      0.0000     0.0000E+00    0.0000E+00    5.010000E+06  0.00800  2.664E-02    0   0.9443   age055_m52            0.0000     2.8522E+02    10.9563   4.0000    82.4097
 79      0.0000     0.0000E+00    0.0000E+00    6.610000E+06  0.00800  2.151E-02    0   0.9177   age061_m52            0.0000     1.5853E+02     9.0655   2.6977    88.8356
 80      0.0000     0.0000E+00    0.0000E+00    8.710000E+06  0.00800  1.628E-02    0   0.8948   age067_m52            0.0000     1.4261E+02     8.6005   3.0650    88.4133
 81      0.0000     0.0000E+00    0.0000E+00    1.000000E+07  0.00800  1.215E-02    0   0.8827   age070_m52            0.0000     1.8177E+02     9.6299   3.4258    86.4881
 82      0.0000     0.0000E+00    0.0000E+00    1.445000E+07  0.00800  8.739E-03    0   0.8552   age078_m52            0.0000     1.5328E+02     8.5997   3.4413    87.6092
 83      0.0000     0.0000E+00    0.0000E+00    2.512000E+07  0.00800  5.676E-03    0   0.8162   age090_m52            0.0000     1.1812E+02     5.7132   2.9741    91.8456
 84      0.0000     0.0000E+00    0.0000E+00    4.000000E+07  0.00800  3.939E-03    0   0.7841   age104_m52            0.0000     1.1657E+02     4.0289   2.7183    94.9550
 85      0.0000     0.0000E+00    0.0000E+00    5.500000E+07  0.00800  3.155E-03    0   0.7627   age110_m52            0.0000     1.4659E+02     3.8907   2.6082    97.2383
 86      0.0000     0.0000E+00    0.0000E+00    1.015200E+08  0.00800  2.206E-03    0   0.7226   age116_m52            0.0000     2.5341E+02     6.9746   2.2720   102.2072
 87      0.0000     0.0000E+00    0.0000E+00    1.609000E+08  0.00800  1.596E-03    0   0.6963   age120_m52            0.0000     3.1747E+02     8.9907   1.9691   104.6167
 88      0.0000     0.0000E+00    0.0000E+00    2.861200E+08  0.00800  1.002E-03    0   0.6665   age125_m52            0.0000     5.0613E+02    13.9532   1.4524   109.4494
 89      0.0000     0.0000E+00    0.0000E+00    5.088000E+08  0.00800  5.759E-04    0   0.6377   age130_m52            0.0000     5.3487E+02    16.1615   0.9838   114.7985
 90      0.0000     0.0000E+00    0.0000E+00    9.047900E+08  0.00800  2.972E-04    0   0.6086   age135_m52            0.0000     2.5078E+02    13.5777   0.5056   114.0733
 91      0.0000     0.0000E+00    0.0000E+00    1.278050E+09  0.00800  2.242E-04    0   0.5907   age138_m52            0.0000     1.0417E+02     8.9393   0.0932   112.7086
 92      0.0000     0.0000E+00    0.0000E+00    1.434000E+09  0.00800  1.645E-04    0   0.5787   age139_m52            0.0000     8.1328E+01     7.9009   0.2840   111.5462
 93      0.0016     8.3421E-04    9.2079E-04    2.500000E+09  0.00800  7.723E-05    0   0.5519   age150_m52            0.0000     1.1079E+02     7.1758   0.0000   108.2681
 94      0.0000     0.0000E+00    0.0000E+00    4.250000E+09  0.00800  4.151E-05    0   0.5320   age158_m52            0.0000     1.3669E+02     6.3291  -0.0002   105.5047
 95      0.0000     0.0000E+00    0.0000E+00    6.250000E+09  0.00800  3.010E-05    0   0.5197   age166_m52            0.0000     2.2205E+02     7.1031  -0.1978   104.8767
 96      0.0000     0.0000E+00    0.0000E+00    7.500000E+09  0.00800  2.467E-05    0   0.5139   age171_m52            0.0000     2.4707E+02     7.3817  -0.2452   104.7090
 97      0.0011     2.3480E-03    2.3733E-03    1.000000E+10  0.00800  1.862E-05    0   0.5054   age181_m52            0.0000     3.2381E+02     8.3396  -0.4006   105.0457
 98      4.9050     1.3518E+01    1.3485E+01    1.300000E+10  0.00800  1.433E-05    0   0.4988   age193_m52            0.0000     4.2984E+02     9.1973  -0.5109   106.4448
 99     12.5817     3.9941E+01    3.9429E+01    1.500000E+10  0.00800  1.244E-05    0   0.4936   age201_m52            0.0000     4.7670E+02     9.5075  -0.5449   107.1924
100      5.7968     2.1395E+01    2.0915E+01    1.800000E+10  0.00800  1.070E-05    0   0.4888   age213_m52            0.0000     5.0667E+02     9.7944  -0.5870   107.2455
101      0.0000     0.0000E+00    0.0000E+00    1.000000E+06  0.02000  1.989E-02    0   1.0000   age020_m62            0.0000     6.2889E+02    10.1193   4.0000    77.1924
102      0.0000     0.0000E+00    0.0000E+00    3.160000E+06  0.02000  3.772E-02    0   0.9858   age045_m62            0.0000     5.0127E+02     8.5325   4.0000    79.0307
103      0.0000     0.0000E+00    0.0000E+00    5.010000E+06  0.02000  3.227E-02    0   0.9342   age055_m62            0.0000     1.6383E+02     9.3035   3.7332    85.6793
104      0.0000     0.0000E+00    0.0000E+00    6.610000E+06  0.02000  2.387E-02    0   0.9090   age061_m62            0.0000     2.3097E+02    11.1328   3.5432    84.6011
105      0.0000     0.0000E+00    0.0000E+00    8.710000E+06  0.02000  1.102E-02    0   0.8861   age067_m62            0.0000     5.6336E+02    16.1113   3.2911    79.5217
106      0.0000     0.0000E+00    0.0000E+00    1.000000E+07  0.02000  1.011E-02    0   0.8751   age070_m62            0.0000     4.0459E+02    13.8571   3.2585    82.4008
107      0.0000     0.0000E+00    0.0000E+00    1.445000E+07  0.02000  7.331E-03    0   0.8472   age078_m62            0.0000     2.9797E+02    12.1319   3.2260    84.3439
108      0.0000     0.0000E+00    0.0000E+00    2.512000E+07  0.02000  4.206E-03    0   0.8099   age090_m62            0.0000     3.0897E+02    11.9566   3.1294    84.0094
109      0.0000     0.0000E+00    0.0000E+00    4.000000E+07  0.02000  3.373E-03    0   0.7799   age104_m62            0.0000     9.4778E+01     5.1208   2.7361    93.1564
110      0.0000     0.0000E+00    0.0000E+00    5.500000E+07  0.02000  2.747E-03    0   0.7595   age110_m62            0.0000     1.2281E+02     3.8125   2.5506    97.0356
111      0.0000     0.0000E+00    0.0000E+00    1.015200E+08  0.02000  1.878E-03    0   0.7221   age116_m62            0.0000     3.1362E+02     8.0135   2.2167   102.8338
112      0.0000     0.0000E+00    0.0000E+00    1.609000E+08  0.02000  1.378E-03    0   0.6978   age120_m62            0.0000     4.7193E+02    11.6524   1.9157   106.4765
113      0.0000     0.0000E+00    0.0000E+00    2.861200E+08  0.02000  8.869E-04    0   0.6700   age125_m62            0.0000     7.5016E+02    17.0590   1.3118   112.7120
114      0.0000     0.0000E+00    0.0000E+00    5.088000E+08  0.02000  4.834E-04    0   0.6430   age130_m62            0.0000     6.0518E+02    18.0441   0.7723   116.6659
115      0.0000     0.0000E+00    0.0000E+00    9.047900E+08  0.02000  2.312E-04    0   0.6152   age135_m62            0.0000     2.0812E+02    12.4778   0.3641   115.5565
116      0.0000     0.0000E+00    0.0000E+00    1.278050E+09  0.02000  1.387E-04    0   0.5927   age138_m62            0.0000     7.4436E+01     8.1586   0.1557   111.0830
117      0.0000     0.0000E+00    0.0000E+00    1.434000E+09  0.02000  1.168E-04    0   0.5865   age139_m62            0.0000     7.0613E+01     7.5318   0.1608   109.5222
118      0.0000     0.0000E+00    0.0000E+00    2.500000E+09  0.02000  5.505E-05    0   0.5610   age150_m62            0.0000     1.5580E+02     7.7724  -0.1719   107.6953
119      0.0000     0.0000E+00    0.0000E+00    4.250000E+09  0.02000  3.070E-05    0   0.5407   age158_m62            0.0000     3.2247E+02     9.7889  -0.5209   109.2610
120      0.0000     0.0000E+00    0.0000E+00    6.250000E+09  0.02000  2.104E-05    0   0.5277   age166_m62            0.0000     4.4276E+02    10.7122  -0.6761   110.5018
121      0.0000     0.0000E+00    0.0000E+00    7.500000E+09  0.02000  1.770E-05    0   0.5223   age171_m62            0.0000     4.9792E+02    11.3386  -0.7876   111.3987
122      0.0000     0.0000E+00    0.0000E+00    1.000000E+10  0.02000  1.297E-05    0   0.5121   age181_m62            0.0000     6.2803E+02    12.5434  -0.9888   112.9462
123      0.0000     0.0000E+00    0.0000E+00    1.300000E+10  0.02000  9.691E-06    0   0.5047   age193_m62            0.0000     7.2844E+02    12.3757  -1.0000   113.7312
124      0.0000     0.0000E+00    0.0000E+00    1.500000E+10  0.02000  8.360E-06    0   0.4999   age201_m62            0.0000     8.1495E+02    12.4420  -1.0000   114.2620
125      0.0000     0.0000E+00    0.0000E+00    1.800000E+10  0.02000  6.911E-06    0   0.4946   age213_m62            0.0000     9.2445E+02    12.9993  -1.0000   114.8901
126      0.0000     0.0000E+00    0.0000E+00    1.000000E+06  0.05000  2.651E-02    0   0.9998   age020_m72            0.0000     5.9547E+02     9.7004   4.0000    78.2091
127      0.0000     0.0000E+00    0.0000E+00    3.160000E+06  0.05000  4.817E-02    0   0.9577   age045_m72            0.0000     3.2869E+02     8.9770   4.0000    82.1091
128      0.0000     0.0000E+00    0.0000E+00    5.010000E+06  0.05000  3.101E-02    0   0.9147   age055_m72            0.0000     2.7060E+02    12.1028   3.8109    84.1415
129      0.0000     0.0000E+00    0.0000E+00    6.610000E+06  0.05000  1.472E-02    0   0.8877   age061_m72            0.0000     4.8184E+02    15.2278   3.4487    81.5885
130      0.0000     0.0000E+00    0.0000E+00    8.710000E+06  0.05000  1.050E-02    0   0.8638   age067_m72            0.0000     3.7196E+02    13.3639   3.7812    82.8958
131      0.0000     0.0000E+00    0.0000E+00    1.000000E+07  0.05000  8.954E-03    0   0.8524   age070_m72            0.0000     3.0486E+02    11.8154   4.0000    83.7008
132      0.0000     0.0000E+00    0.0000E+00    1.445000E+07  0.05000  6.392E-03    0   0.8262   age078_m72            0.0000     2.6033E+02    10.9853   3.9283    84.9113
133      0.0000     0.0000E+00    0.0000E+00    2.512000E+07  0.05000  4.207E-03    0   0.7902   age090_m72            0.0000     1.3947E+02     7.4694   3.4642    89.4632
134      0.0000     0.0000E+00    0.0000E+00    4.000000E+07  0.05000  3.198E-03    0   0.7618   age104_m72            0.0000     1.6959E+02     4.5657   2.7059    98.2695
135      0.0000     0.0000E+00    0.0000E+00    5.500000E+07  0.05000  2.593E-03    0   0.7432   age110_m72            0.0000     2.3697E+02     6.2426   2.5543   100.2350
136      0.0000     0.0000E+00    0.0000E+00    1.015200E+08  0.05000  1.716E-03    0   0.7092   age116_m72            0.0000     3.8553E+02     9.4070   2.2469   103.4186
137      0.0000     0.0000E+00    0.0000E+00    1.609000E+08  0.05000  1.218E-03    0   0.6876   age120_m72            0.0000     5.5926E+02    12.8642   1.8307   107.5055
138      0.0000     0.0000E+00    0.0000E+00    2.861200E+08  0.05000  7.047E-04    0   0.6618   age125_m72            0.0000     6.8971E+02    16.9738   1.0752   113.8873
139      0.0000     0.0000E+00    0.0000E+00    5.088000E+08  0.05000  3.590E-04    0   0.6356   age130_m72            0.0000     4.6023E+02    16.9297   0.4449   117.9893
140      0.0000     0.0000E+00    0.0000E+00    9.047900E+08  0.05000  1.484E-04    0   0.6088   age135_m72            0.0000     1.1654E+02    10.5376  -0.0515   111.8474
141      0.0000     0.0000E+00    0.0000E+00    1.278050E+09  0.05000  9.435E-05    0   0.5924   age138_m72            0.0000     1.8554E+02    10.4265  -0.4083   110.1949
142      0.0000     0.0000E+00    0.0000E+00    1.434000E+09  0.05000  7.827E-05    0   0.5847   age139_m72            0.0000     2.0346E+02     9.8877  -0.3607   109.3828
143      0.0000     0.0000E+00    0.0000E+00    2.500000E+09  0.05000  3.759E-05    0   0.5583   age150_m72            0.0000     4.0719E+02    10.7744  -0.6745   109.7760
144      0.0000     0.0000E+00    0.0000E+00    4.250000E+09  0.05000  1.842E-05    0   0.5374   age158_m72            0.0000     5.7787E+02    11.8675  -1.0000   110.6094
145      0.3228     1.0562E+00    1.1073E+00    6.250000E+09  0.05000  1.207E-05    0   0.5242   age166_m72            0.0000     7.6371E+02    12.7308  -1.0000   110.7731
146      0.1718     6.7902E-01    7.0386E-01    7.500000E+09  0.05000  9.993E-06    0   0.5183   age171_m72            0.0000     7.9136E+02    13.4194  -1.0000   110.7132
147      0.0000     0.0000E+00    0.0000E+00    1.000000E+10  0.05000  7.291E-06    0   0.5081   age181_m72            0.0000     9.4827E+02    16.5352  -1.0000   110.8257
148      0.0000     0.0000E+00    0.0000E+00    1.300000E+10  0.05000  5.316E-06    0   0.5018   age193_m72            0.0000     1.2502E+03    22.6732  -1.0000   110.6514
149      0.0000     0.0000E+00    0.0000E+00    1.500000E+10  0.05000  4.497E-06    0   0.4972   age201_m72            0.0000     1.4156E+03    25.4297  -1.0000   110.8380
150      0.0000     0.0000E+00    0.0000E+00    1.800000E+10  0.05000  3.739E-06    0   0.4924   age213_m72            0.0000     1.6654E+03    29.3785  -1.0000   110.6354


## Synthesis Results - Average & Chains ##

# j      x_j: min, <> & last-chain-values for 1 ...  7 chains
  1      0.0000      0.0027      0.0000      0.0000      0.0000      0.0000      0.0000      0.0000      0.0000
  2      7.9755      5.0532      6.2584      5.5557      5.6064      5.8887      5.8562      5.9953      5.8286
  3      0.0000      0.0054      0.0000      0.0000      0.0000      0.0000      0.0000      0.0000      0.0000
  4      0.0000      0.0030      0.0000      0.0000      0.0000      0.0000      0.0000      0.0000      0.0000
  5      0.0000      0.0055      0.0000      0.0000      0.0000      0.0000      0.0000      0.0000      0.0000
  6      0.0000      0.0033      0.0000      0.0000      0.0000      0.0000      0.0000      0.0000      0.0000
  7      0.0000      0.0045      0.0000      0.0000      0.0000      0.0000      0.0073      0.0000      0.0000
  8      0.0000      0.0197      0.0000      0.0348      0.0000      0.0000      0.0000      0.0000      0.0000
  9      0.0000      0.1877      0.0000      0.3717      0.1640      0.1115      0.1801      0.2472      0.0000
 10      1.4704      0.6144      0.8405      0.8489      0.7540      0.4950      0.8439      0.7727      0.5616
 11     14.9158     15.1048     15.8320     15.6031     15.5543     15.6970     15.8106     15.1511     15.7741
 12      0.0000      0.0169      0.0000      0.0000      0.0335      0.0000      0.0000      0.0000      0.0000
 13      0.0000      0.0125      0.0000      0.0000      0.0000      0.0000      0.0000      0.1328      0.0000
 14      0.0000      0.0068      0.0000      0.0000      0.0026      0.0000      0.0000      0.0027      0.0000
 15      0.0000      0.0096      0.0000      0.0000      0.0000      0.0000      0.0000      0.0003      0.0000
 16      0.0000      0.0127      0.0000      0.0070      0.0000      0.0000      0.0000      0.0000      0.0000
 17      0.0000      0.0129      0.0000      0.0182      0.0000      0.0000      0.0000      0.0000      0.0000
 18      0.0000      0.0353      0.0000      0.0000      0.0000      0.0000      0.0097      0.0000      0.0000
 19      0.0000      0.0914      0.0000      0.0000      0.0000      0.0000      0.0000      0.0000      0.0000
 20      0.0000      0.1505      0.0114      0.0000      0.1371      0.0000      0.0000      0.1089      0.0000
 21      1.4476      0.2793      0.0000      0.3570      0.6381      0.2416      0.0309      0.4836      0.0000
 22      0.2106      0.2920      0.0000      0.1036      0.3119      0.6553      0.2751      0.5480      0.5260
 23      0.0315      0.2857      0.2833      0.1481      0.7558      0.3888      0.2498      0.0460      0.0000
 24      0.0000      0.3715      0.0000      0.0000      0.4829      0.1833      0.5439      0.1327      0.3200
 25      0.0000      0.3754      0.1522      0.4336      0.1748      0.0000      0.0886      0.0000      0.0000
 26      0.0000      0.0021      0.0000      0.0000      0.0000      0.0000      0.0000      0.0000      0.0066
 27      0.0000      0.0242      0.0000      0.0000      0.0000      0.0000      0.0086      0.0000      0.0656
 28      0.0000      0.0051      0.0000      0.0000      0.0000      0.0000      0.0000      0.0000      0.0000
 29      0.0000      0.0047      0.0000      0.0000      0.0000      0.0000      0.0000      0.0000      0.0000
 30      0.0000      0.0029      0.0000      0.0000      0.0000      0.0000      0.0000      0.0000      0.0000
 31      0.0000      0.0066      0.0000      0.0000      0.0000      0.0000      0.0000      0.0000      0.0000
 32      0.0000      0.0158      0.0000      0.0583      0.0000      0.0000      0.0000      0.0000      0.0000
 33      0.0000      0.0306      0.0751      0.0917      0.0000      0.1341      0.0000      0.0000      0.0000
 34      0.0000      0.1930      0.0000      0.2344      0.2495      0.0528      0.0000      0.0000      0.0604
 35      0.0035      0.2161      0.0000      0.2047      0.3600      0.3470      0.0000      0.1453      0.0000
 36      0.0000      0.0478      0.0000      0.0000      0.0000      0.0163      0.0000      0.0163      0.0000
 37      0.0000      0.0448      0.0000      0.0000      0.0000      0.0358      0.0000      0.0000      0.0000
 38      0.0000      0.0130      0.0000      0.0044      0.0000      0.0000      0.0000      0.0000      0.0000
 39      0.0000      0.0090      0.0000      0.0000      0.0000      0.0000      0.0000      0.0000      0.0000
 40      0.0000      0.0071      0.0000      0.0000      0.0000      0.0000      0.0000      0.0000      0.0000
 41      0.0000      0.0375      0.0000      0.0000      0.0000      0.0000      0.0000      0.0487      0.0000
 42      0.0000      0.0418      0.0000      0.0000      0.0000      0.0000      0.0000      0.1509      0.5915
 43      0.0000      0.1405      0.0000      0.0000      0.1834      0.0730      0.0000      0.1541      0.0000
 44     42.8181     47.2317     47.3708     47.3590     46.2433     46.6963     46.0404     47.5260     48.3526
 45      4.7537      1.9764      1.9970      2.2088      1.9426      2.0697      2.7322      2.3392      1.7520
 46      0.0631      0.3290      1.1667      0.7867      0.0000      0.2727      0.5554      0.1375      0.5714
 47      0.0000      0.1061      0.0106      0.0000      0.0000      0.0000      0.0417      0.0000      0.0117
 48      0.0000      0.1806      0.1624      0.0000      0.0000      0.0000      0.0000      0.0000      0.0000
 49      0.0000      0.2658      0.1178      0.0000      0.1082      0.0000      0.7096      0.0000      0.0000
 50      0.0124      0.3905      0.4440      0.0080      0.9270      0.8256      0.3287      0.0000      0.0000
 51      0.0000      0.0013      0.0000      0.0000      0.0000      0.0000      0.0000      0.0000      0.0000
 52      0.0009      0.2524      0.0000      0.0000      0.1625      0.3085      0.2675      0.3118      0.2412
 53      0.0000      0.0062      0.0000      0.0000      0.0000      0.0026      0.0000      0.0000      0.0000
 54      0.0290      0.4109      0.5008      0.2488      0.4073      0.4901      0.3152      0.5913      0.6181
 55      0.0000      0.0392      0.0000      0.0000      0.0000      0.0000      0.0838      0.0000      0.0000
 56      0.0000      0.0255      0.0000      0.0000      0.0000      0.0000      0.0000      0.0000      0.0000
 57      0.0000      0.0079      0.0000      0.0000      0.0000      0.0000      0.0000      0.0000      0.0077
 58      0.0000      0.0164      0.0000      0.0053      0.1112      0.0000      0.0000      0.0000      0.0000
 59      0.0000      0.0080      0.0000      0.0000      0.0000      0.0000      0.0000      0.0000      0.0000
 60      0.0000      0.0125      0.0000      0.0000      0.0000      0.0000      0.0000      0.0000      0.0000
 61      0.0000      0.0275      0.0367      0.2989      0.0000      0.0000      0.0000      0.0000      0.0000
 62      0.0000      0.0416      0.0000      0.0983      0.0164      0.0000      0.1806      0.0000      0.0000
 63      0.0000      0.0132      0.0000      0.0000      0.0000      0.0000      0.0000      0.0000      0.0000
 64      0.0000      0.0309      0.0000      0.0000      0.0000      0.0000      0.0000      0.0000      0.0000
 65      2.7687      0.2541      1.0619      0.5442      0.2291      0.6049      0.0000      0.7861      0.0000
 66      0.0000      0.1390      0.0055      0.0423      0.0000      0.1202      0.4489      0.0000      0.0000
 67      0.0000      0.0948      0.0000      0.0209      0.0144      0.1188      0.4736      0.0280      0.0000
 68      0.0000      0.0755      0.1577      0.0000      0.0000      0.0067      0.1440      0.0000      0.0000
 69      0.0000      0.0937      0.0000      0.2821      0.1207      0.0000      0.0000      0.0000      0.0000
 70      0.0000      0.0907      0.1255      0.2945      0.0000      0.0000      0.0000      0.0947      0.0000
 71      0.0000      0.0960      0.0000      0.0000      0.0000      0.0000      0.0000      0.0000      0.1115
 72      0.0000      0.0778      0.0000      0.0000      0.0000      0.1203      0.0000      0.0000      0.1193
 73      0.0000      0.0872      0.2721      0.4791      0.0000      0.0000      0.2148      0.0000      0.0000
 74      0.0000      0.0708      0.0000      0.0000      0.2573      0.0000      0.0000      0.1987      0.3345
 75      0.0000      0.0604      0.0000      0.0000      0.0000      0.0000      0.1769      0.0000      0.0000
 76      0.0000      0.0021      0.0000      0.0000      0.0000      0.0000      0.0000      0.0000      0.0000
 77      0.0000      0.0030      0.0000      0.0000      0.0000      0.0029      0.0000      0.0000      0.0000
 78      0.0000      0.0040      0.0000      0.0000      0.0000      0.0000      0.0000      0.0000      0.0000
 79      0.0000      0.0064      0.0000      0.0000      0.0000      0.0000      0.0000      0.0000      0.0000
 80      0.0000      0.0096      0.0000      0.0052      0.0000      0.0025      0.0000      0.0000      0.0000
 81      0.0000      0.0066      0.0000      0.0000      0.0000      0.0000      0.0000      0.0000      0.0615
 82      0.0000      0.0086      0.0063      0.0000      0.0000      0.0000      0.0000      0.0000      0.0000
 83      0.0000      0.0345      0.0000      0.0000      0.0000      0.0000      0.0000      0.0000      0.0000
 84      0.0000      0.0198      0.0000      0.0000      0.0000      0.0000      0.0000      0.0000      0.0000
 85      0.0000      0.0208      0.0000      0.0000      0.0000      0.0047      0.0000      0.0000      0.0800
 86      0.0000      0.0497      0.0000      0.0000      0.0686      0.0000      0.0000      0.1568      0.0000
 87      0.0000      0.0406      0.0000      0.0000      0.1803      0.0810      0.2887      0.0000      0.0000
 88      0.0000      0.0119      0.0000      0.0000      0.0707      0.0208      0.0000      0.0000      0.0000
 89      0.0000      0.0167      0.0000      0.0000      0.0000      0.0000      0.0000      0.0000      0.1580
 90      0.0000      0.0084      0.0000      0.0000      0.0000      0.0000      0.0000      0.0000      0.0000
 91      0.0000      0.0291      0.0000      0.0000      0.0912      0.0281      0.0000      0.0000      0.0000
 92      0.0000      0.0348      0.0000      0.0000      0.0000      0.0000      0.0000      0.0000      0.0408
 93      0.0016      0.1034      0.0000      0.0096      0.0000      0.2501      0.0000      0.0632      0.0000
 94      0.0000      0.1375      0.0000      0.0000      0.3469      0.0000      0.0088      0.0000      0.0000
 95      0.0000      0.1080      0.0000      0.4045      0.0000      0.0000      0.0000      0.3502      0.0000
 96      0.0000      0.1190      0.0000      0.0183      0.0000      0.0000      0.0523      0.0000      0.3722
 97      0.0011      0.4506      0.0000      0.6659      0.1050      0.5604      0.3401      1.0634      0.7323
 98      4.9050      4.4220      4.4762      4.5894      4.7856      4.3021      4.5827      4.3777      4.8040
 99     12.5817     10.7614     11.4206     10.9662     11.3236     12.1967     10.9490     11.1601     11.0523
100      5.7968      5.0650      5.7612      5.1927      5.4222      5.4246      5.5580      5.1919      5.6174
101      0.0000      0.0021      0.0000      0.0000      0.0000      0.0000      0.0000      0.0000      0.0000
102      0.0000      0.0018      0.0000      0.0000      0.0128      0.0000      0.0000      0.0000      0.0000
103      0.0000      0.0188      0.0000      0.0263      0.0000      0.0000      0.0000      0.0000      0.0000
104      0.0000      0.0161      0.0000      0.0000      0.0000      0.0000      0.0000      0.0000      0.0804
105      0.0000      0.0056      0.0000      0.0059      0.0000      0.0000      0.0000      0.0000      0.0000
106      0.0000      0.0066      0.0000      0.0000      0.0000      0.0000      0.0000      0.0000      0.0000
107      0.0000      0.0083      0.0000      0.0000      0.0000      0.0000      0.0000      0.0000      0.0000
108      0.0000      0.0024      0.0000      0.0000      0.0000      0.0000      0.0000      0.0000      0.0000
109      0.0000      0.0056      0.0000      0.0000      0.0053      0.0000      0.0000      0.0000      0.0000
110      0.0000      0.0074      0.0000      0.0000      0.0000      0.0000      0.0000      0.0000      0.0737
111      0.0000      0.0121      0.0000      0.0000      0.0000      0.0000      0.0000      0.0000      0.0737
112      0.0000      0.0128      0.0051      0.0000      0.0000      0.0000      0.0000      0.0000      0.0000
113      0.0000      0.0099      0.0000      0.0000      0.0000      0.0000      0.0000      0.0000      0.0448
114      0.0000      0.0078      0.0000      0.0000      0.0000      0.0998      0.0000      0.0000      0.0000
115      0.0000      0.0160      0.0000      0.0427      0.0000      0.0000      0.0000      0.0349      0.0000
116      0.0000      0.0161      0.0000      0.0000      0.0162      0.0000      0.0000      0.0000      0.0000
117      0.0000      0.0116      0.0000      0.0000      0.0000      0.0000      0.0000      0.0000      0.1869
118      0.0000      0.0188      0.0000      0.0000      0.0000      0.0000      0.0599      0.0000      0.0000
119      0.0000      0.0276      0.0000      0.0000      0.0000      0.0517      0.0000      0.0000      0.0000
120      0.0000      0.0415      0.0329      0.0000      0.1245      0.0000      0.0000      0.0000      0.0000
121      0.0000      0.0420      0.0000      0.0000      0.0734      0.0000      0.2291      0.0224      0.0000
122      0.0000      0.0280      0.2044      0.0000      0.0000      0.0000      0.0000      0.0578      0.0070
123      0.0000      0.0227      0.0000      0.0000      0.0000      0.0000      0.0000      0.1724      0.0000
124      0.0000      0.0264      0.0000      0.0000      0.0000      0.0000      0.0000      0.0000      0.0000
125      0.0000      0.0239      0.0000      0.0000      0.0922      0.0000      0.0000      0.0000      0.0000
126      0.0000      0.0024      0.0000      0.0000      0.0000      0.0000      0.0000      0.0000      0.0000
127      0.0000      0.0049      0.0000      0.0000      0.0000      0.0000      0.0000      0.0000      0.0000
128      0.0000      0.0052      0.0000      0.0000      0.0000      0.0000      0.0000      0.0000      0.0000
129      0.0000      0.0043      0.0000      0.0000      0.0000      0.0082      0.0000      0.0000      0.0000
130      0.0000      0.0033      0.0000      0.0000      0.0000      0.0000      0.0000      0.0000      0.0000
131      0.0000      0.0024      0.0000      0.0000      0.0000      0.0000      0.0000      0.0000      0.0000
132      0.0000      0.0024      0.0000      0.0000      0.0000      0.0000      0.0000      0.0000      0.0000
133      0.0000      0.0035      0.0000      0.0000      0.0000      0.0000      0.0000      0.0000      0.0000
134      0.0000      0.0119      0.0036      0.0000      0.0083      0.0000      0.0000      0.0000      0.0060
135      0.0000      0.0151      0.0000      0.0000      0.0000      0.0064      0.0000      0.0000      0.0000
136      0.0000      0.0171      0.0000      0.0000      0.0000      0.0000      0.0000      0.0183      0.0000
137      0.0000      0.0153      0.0000      0.0000      0.0000      0.0000      0.0244      0.0000      0.0000
138      0.0000      0.0116      0.0000      0.0000      0.0000      0.0000      0.0000      0.0000      0.0000
139      0.0000      0.0138      0.0000      0.0000      0.0000      0.0000      0.0000      0.0000      0.0000
140      0.0000      0.0128      0.0000      0.0000      0.0000      0.0000      0.0000      0.0000      0.0000
141      0.0000      0.0150      0.0000      0.0000      0.0000      0.1329      0.0000      0.0000      0.0000
142      0.0000      0.0199      0.0000      0.0000      0.2519      0.0374      0.0000      0.0000      0.0395
143      0.0000      0.0572      0.0974      0.1263      0.0000      0.0000      0.4342      0.0000      0.0000
144      0.0000      0.1168      0.0466      0.0000      0.0684      0.0961      0.0233      0.0000      0.0068
145      0.3228      0.4454      0.4532      0.4918      0.3178      0.4224      0.6347      0.7079      0.4146
146      0.1718      0.3580      0.4252      0.3878      0.4687      0.2362      0.0000      0.4611      0.0607
147      0.0000      0.2015      0.0000      0.4760      0.1188      0.2158      0.0000      0.0000      0.1931
148      0.0000      0.2228      0.0000      0.0580      0.2741      0.0000      0.0000      0.0000      0.0000
149      0.0000      0.1639      0.1132      0.0000      0.0000      0.1640      0.0468      0.0000      0.1005
150      0.0000      0.4110      0.3688      0.0000      0.0863      0.0000      0.3859      0.3211      0.1852

# j      m_j: min, <> & last-chain-values for 1 ...  7 chains
  1  0.0000E+00  2.5044E-05  0.0000E+00  0.0000E+00  0.0000E+00  0.0000E+00  0.0000E+00  0.0000E+00  0.0000E+00
  2  1.3236E-02  7.9336E-03  9.9520E-03  9.1491E-03  8.9471E-03  9.5424E-03  9.4469E-03  9.7150E-03  9.4974E-03
  3  0.0000E+00  2.0054E-05  0.0000E+00  0.0000E+00  0.0000E+00  0.0000E+00  0.0000E+00  0.0000E+00  0.0000E+00
  4  0.0000E+00  2.0832E-05  0.0000E+00  0.0000E+00  0.0000E+00  0.0000E+00  0.0000E+00  0.0000E+00  0.0000E+00
  5  0.0000E+00  4.8672E-05  0.0000E+00  0.0000E+00  0.0000E+00  0.0000E+00  0.0000E+00  0.0000E+00  0.0000E+00
  6  0.0000E+00  3.4148E-05  0.0000E+00  0.0000E+00  0.0000E+00  0.0000E+00  0.0000E+00  0.0000E+00  0.0000E+00
  7  0.0000E+00  5.9336E-05  0.0000E+00  0.0000E+00  0.0000E+00  0.0000E+00  9.8603E-05  0.0000E+00  0.0000E+00
  8  0.0000E+00  2.9315E-04  0.0000E+00  5.4344E-04  0.0000E+00  0.0000E+00  0.0000E+00  0.0000E+00  0.0000E+00
  9  0.0000E+00  3.0049E-03  0.0000E+00  6.2417E-03  2.6684E-03  1.8425E-03  2.9621E-03  4.0844E-03  0.0000E+00
 10  2.8525E-02  1.1275E-02  1.5622E-02  1.6341E-02  1.4066E-02  9.3755E-03  1.5912E-02  1.4636E-02  1.0697E-02
 11  3.4591E-01  3.3138E-01  3.5180E-01  3.5906E-01  3.4686E-01  3.5544E-01  3.5639E-01  3.4307E-01  3.5916E-01
 12  0.0000E+00  6.4874E-04  0.0000E+00  0.0000E+00  1.3084E-03  0.0000E+00  0.0000E+00  0.0000E+00  0.0000E+00
 13  0.0000E+00  5.5801E-04  0.0000E+00  0.0000E+00  0.0000E+00  0.0000E+00  0.0000E+00  6.1076E-03  0.0000E+00
 14  0.0000E+00  4.3160E-04  0.0000E+00  0.0000E+00  1.6477E-04  0.0000E+00  0.0000E+00  1.7364E-04  0.0000E+00
 15  0.0000E+00  9.1392E-04  0.0000E+00  0.0000E+00  0.0000E+00  0.0000E+00  0.0000E+00  2.5009E-05  0.0000E+00
 16  0.0000E+00  1.7579E-03  0.0000E+00  1.0180E-03  0.0000E+00  0.0000E+00  0.0000E+00  0.0000E+00  0.0000E+00
 17  0.0000E+00  1.9768E-03  0.0000E+00  2.9294E-03  0.0000E+00  0.0000E+00  0.0000E+00  0.0000E+00  0.0000E+00
 18  0.0000E+00  8.8350E-03  0.0000E+00  0.0000E+00  0.0000E+00  0.0000E+00  2.5015E-03  0.0000E+00  0.0000E+00
 19  0.0000E+00  3.4644E-02  0.0000E+00  0.0000E+00  0.0000E+00  0.0000E+00  0.0000E+00  0.0000E+00  0.0000E+00
 20  0.0000E+00  8.1598E-02  6.2524E-03  0.0000E+00  7.5538E-02  0.0000E+00  0.0000E+00  6.0971E-02  0.0000E+00
 21  9.5996E-01  1.7519E-01  0.0000E+00  2.3488E-01  4.0690E-01  1.5640E-01  1.9891E-02  3.1315E-01  0.0000E+00
 22  1.8020E-01  2.3630E-01  0.0000E+00  8.7962E-02  2.5661E-01  5.4742E-01  2.2875E-01  4.5778E-01  4.4180E-01
 23  3.4142E-02  2.9308E-01  2.9440E-01  1.5937E-01  7.8821E-01  4.1172E-01  2.6337E-01  4.8661E-02  0.0000E+00
 24  0.0000E+00  4.3587E-01  0.0000E+00  0.0000E+00  5.7597E-01  2.2201E-01  6.5564E-01  1.6067E-01  3.8969E-01
 25  0.0000E+00  5.2919E-01  2.1732E-01  6.4113E-01  2.5046E-01  0.0000E+00  1.2825E-01  0.0000E+00  0.0000E+00
 26  0.0000E+00  1.8331E-05  0.0000E+00  0.0000E+00  0.0000E+00  0.0000E+00  0.0000E+00  0.0000E+00  6.0680E-05
 27  0.0000E+00  4.5571E-05  0.0000E+00  0.0000E+00  0.0000E+00  0.0000E+00  1.6620E-05  0.0000E+00  1.2811E-04
 28  0.0000E+00  1.8705E-05  0.0000E+00  0.0000E+00  0.0000E+00  0.0000E+00  0.0000E+00  0.0000E+00  0.0000E+00
 29  0.0000E+00  2.7087E-05  0.0000E+00  0.0000E+00  0.0000E+00  0.0000E+00  0.0000E+00  0.0000E+00  0.0000E+00
 30  0.0000E+00  2.0562E-05  0.0000E+00  0.0000E+00  0.0000E+00  0.0000E+00  0.0000E+00  0.0000E+00  0.0000E+00
 31  0.0000E+00  5.4480E-05  0.0000E+00  0.0000E+00  0.0000E+00  0.0000E+00  0.0000E+00  0.0000E+00  0.0000E+00
 32  0.0000E+00  1.4374E-04  0.0000E+00  5.5798E-04  0.0000E+00  0.0000E+00  0.0000E+00  0.0000E+00  0.0000E+00
 33  0.0000E+00  3.9607E-04  9.8613E-04  1.2465E-03  0.0000E+00  1.7945E-03  0.0000E+00  0.0000E+00  0.0000E+00
 34  0.0000E+00  3.0396E-03  0.0000E+00  3.8708E-03  3.9937E-03  8.5751E-04  0.0000E+00  0.0000E+00  9.8625E-04
 35  7.1298E-05  4.1103E-03  0.0000E+00  4.0850E-03  6.9617E-03  6.8145E-03  0.0000E+00  2.8535E-03  0.0000E+00
 36  0.0000E+00  1.1667E-03  0.0000E+00  0.0000E+00  0.0000E+00  4.1120E-04  0.0000E+00  4.1019E-04  0.0000E+00
 37  0.0000E+00  1.3594E-03  0.0000E+00  0.0000E+00  0.0000E+00  1.1200E-03  0.0000E+00  0.0000E+00  0.0000E+00
 38  0.0000E+00  5.5030E-04  0.0000E+00  1.9411E-04  0.0000E+00  0.0000E+00  0.0000E+00  0.0000E+00  0.0000E+00
 39  0.0000E+00  5.6799E-04  0.0000E+00  0.0000E+00  0.0000E+00  0.0000E+00  0.0000E+00  0.0000E+00  0.0000E+00
 40  0.0000E+00  7.8961E-04  0.0000E+00  0.0000E+00  0.0000E+00  0.0000E+00  0.0000E+00  0.0000E+00  0.0000E+00
 41  0.0000E+00  5.5776E-03  0.0000E+00  0.0000E+00  0.0000E+00  0.0000E+00  0.0000E+00  7.4884E-03  0.0000E+00
 42  0.0000E+00  6.9501E-03  0.0000E+00  0.0000E+00  0.0000E+00  0.0000E+00  0.0000E+00  2.5899E-02  1.0207E-01
 43  0.0000E+00  3.8004E-02  0.0000E+00  0.0000E+00  5.0422E-02  2.0364E-02  0.0000E+00  4.3028E-02  0.0000E+00
 44  1.9359E+01  2.0202E+01  2.0522E+01  2.1247E+01  2.0105E+01  2.0615E+01  2.0233E+01  2.0981E+01  2.1464E+01
 45  2.9956E+00  1.1782E+00  1.2058E+00  1.3812E+00  1.1771E+00  1.2735E+00  1.6735E+00  1.4393E+00  1.0840E+00
 46  4.7382E-02  2.3366E-01  8.3921E-01  5.8601E-01  0.0000E+00  1.9987E-01  4.0525E-01  1.0078E-01  4.2115E-01
 47  0.0000E+00  9.8753E-02  9.9667E-03  0.0000E+00  0.0000E+00  0.0000E+00  3.9883E-02  0.0000E+00  1.1301E-02
 48  0.0000E+00  2.0018E-01  1.8236E-01  0.0000E+00  0.0000E+00  0.0000E+00  0.0000E+00  0.0000E+00  0.0000E+00
 49  0.0000E+00  3.2963E-01  1.4797E-01  0.0000E+00  1.3641E-01  0.0000E+00  9.0404E-01  0.0000E+00  0.0000E+00
 50  1.9041E-02  5.6947E-01  6.5583E-01  1.2240E-02  1.3741E+00  1.2427E+00  4.9249E-01  0.0000E+00  0.0000E+00
 51  0.0000E+00  8.7103E-06  0.0000E+00  0.0000E+00  0.0000E+00  0.0000E+00  0.0000E+00  0.0000E+00  0.0000E+00
 52  1.6704E-06  4.6296E-04  0.0000E+00  0.0000E+00  3.0295E-04  5.8414E-04  5.0410E-04  5.9037E-04  4.5922E-04
 53  0.0000E+00  1.7456E-05  0.0000E+00  0.0000E+00  0.0000E+00  7.3831E-06  0.0000E+00  0.0000E+00  0.0000E+00
 54  8.1895E-05  1.0960E-03  1.3529E-03  6.9589E-04  1.1041E-03  1.3492E-03  8.6362E-04  1.6277E-03  1.7109E-03
 55  0.0000E+00  1.5425E-04  0.0000E+00  0.0000E+00  0.0000E+00  0.0000E+00  3.3866E-04  0.0000E+00  0.0000E+00
 56  0.0000E+00  1.3273E-04  0.0000E+00  0.0000E+00  0.0000E+00  0.0000E+00  0.0000E+00  0.0000E+00  0.0000E+00
 57  0.0000E+00  6.5628E-05  0.0000E+00  0.0000E+00  0.0000E+00  0.0000E+00  0.0000E+00  0.0000E+00  6.7153E-05
 58  0.0000E+00  1.9724E-04  0.0000E+00  6.7118E-05  1.3619E-03  0.0000E+00  0.0000E+00  0.0000E+00  0.0000E+00
 59  0.0000E+00  1.3411E-04  0.0000E+00  0.0000E+00  0.0000E+00  0.0000E+00  0.0000E+00  0.0000E+00  0.0000E+00
 60  0.0000E+00  2.3284E-04  0.0000E+00  0.0000E+00  0.0000E+00  0.0000E+00  0.0000E+00  0.0000E+00  0.0000E+00
 61  0.0000E+00  6.5397E-04  8.8161E-04  7.4446E-03  0.0000E+00  0.0000E+00  0.0000E+00  0.0000E+00  0.0000E+00
 62  0.0000E+00  1.2533E-03  0.0000E+00  3.1040E-03  5.0296E-04  0.0000E+00  5.5873E-03  0.0000E+00  0.0000E+00
 63  0.0000E+00  6.0473E-04  0.0000E+00  0.0000E+00  0.0000E+00  0.0000E+00  0.0000E+00  0.0000E+00  0.0000E+00
 64  0.0000E+00  2.3291E-03  0.0000E+00  0.0000E+00  0.0000E+00  0.0000E+00  0.0000E+00  0.0000E+00  0.0000E+00
 65  3.7264E-01  3.2351E-02  1.3695E-01  7.2675E-02  2.9654E-02  7.9500E-02  0.0000E+00  1.0331E-01  0.0000E+00
 66  0.0000E+00  2.2650E-02  9.0751E-04  7.2344E-03  0.0000E+00  2.0204E-02  7.5145E-02  0.0000E+00  0.0000E+00
 67  0.0000E+00  2.1207E-02  0.0000E+00  4.9103E-03  3.2750E-03  2.7417E-02  1.0880E-01  6.4702E-03  0.0000E+00
 68  0.0000E+00  3.1406E-02  6.6400E-02  0.0000E+00  0.0000E+00  2.8873E-03  6.1526E-02  0.0000E+00  0.0000E+00
 69  0.0000E+00  6.7145E-02  0.0000E+00  2.1214E-01  8.7994E-02  0.0000E+00  0.0000E+00  0.0000E+00  0.0000E+00
 70  0.0000E+00  9.0484E-02  1.2682E-01  3.0819E-01  0.0000E+00  0.0000E+00  0.0000E+00  9.7495E-02  0.0000E+00
 71  0.0000E+00  1.1297E-01  0.0000E+00  0.0000E+00  0.0000E+00  0.0000E+00  0.0000E+00  0.0000E+00  1.3623E-01
 72  0.0000E+00  1.2055E-01  0.0000E+00  0.0000E+00  0.0000E+00  1.9241E-01  0.0000E+00  0.0000E+00  1.9190E-01
 73  0.0000E+00  1.7045E-01  5.3874E-01  9.8245E-01  0.0000E+00  0.0000E+00  4.3139E-01  0.0000E+00  0.0000E+00
 74  0.0000E+00  1.5439E-01  0.0000E+00  0.0000E+00  5.7038E-01  0.0000E+00  0.0000E+00  4.4729E-01  7.5727E-01
 75  0.0000E+00  1.5159E-01  0.0000E+00  0.0000E+00  0.0000E+00  0.0000E+00  4.5598E-01  0.0000E+00  0.0000E+00
 76  0.0000E+00  1.2095E-05  0.0000E+00  0.0000E+00  0.0000E+00  0.0000E+00  0.0000E+00  0.0000E+00  0.0000E+00
 77  0.0000E+00  7.1067E-06  0.0000E+00  0.0000E+00  0.0000E+00  6.9919E-06  0.0000E+00  0.0000E+00  0.0000E+00
 78  0.0000E+00  1.0612E-05  0.0000E+00  0.0000E+00  0.0000E+00  0.0000E+00  0.0000E+00  0.0000E+00  0.0000E+00
 79  0.0000E+00  2.0243E-05  0.0000E+00  0.0000E+00  0.0000E+00  0.0000E+00  0.0000E+00  0.0000E+00  0.0000E+00
 80  0.0000E+00  3.9402E-05  0.0000E+00  2.2346E-05  0.0000E+00  1.0475E-05  0.0000E+00  0.0000E+00  0.0000E+00
 81  0.0000E+00  3.6005E-05  0.0000E+00  0.0000E+00  0.0000E+00  0.0000E+00  0.0000E+00  0.0000E+00  3.4626E-04
 82  0.0000E+00  6.2709E-05  4.7010E-05  0.0000E+00  0.0000E+00  0.0000E+00  0.0000E+00  0.0000E+00  0.0000E+00
 83  0.0000E+00  3.7022E-04  0.0000E+00  0.0000E+00  0.0000E+00  0.0000E+00  0.0000E+00  0.0000E+00  0.0000E+00
 84  0.0000E+00  2.9476E-04  0.0000E+00  0.0000E+00  0.0000E+00  0.0000E+00  0.0000E+00  0.0000E+00  0.0000E+00
 85  0.0000E+00  3.7575E-04  0.0000E+00  0.0000E+00  0.0000E+00  8.8356E-05  0.0000E+00  0.0000E+00  1.4995E-03
 86  0.0000E+00  1.2167E-03  0.0000E+00  0.0000E+00  1.7074E-03  0.0000E+00  0.0000E+00  3.9619E-03  0.0000E+00
 87  0.0000E+00  1.3226E-03  0.0000E+00  0.0000E+00  5.9745E-03  2.7256E-03  9.6679E-03  0.0000E+00  0.0000E+00
 88  0.0000E+00  5.9015E-04  0.0000E+00  0.0000E+00  3.5711E-03  1.0662E-03  0.0000E+00  0.0000E+00  0.0000E+00
 89  0.0000E+00  1.3796E-03  0.0000E+00  0.0000E+00  0.0000E+00  0.0000E+00  0.0000E+00  0.0000E+00  1.3566E-02
 90  0.0000E+00  1.2902E-03  0.0000E+00  0.0000E+00  0.0000E+00  0.0000E+00  0.0000E+00  0.0000E+00  0.0000E+00
 91  0.0000E+00  5.7266E-03  0.0000E+00  0.0000E+00  1.8253E-02  5.7136E-03  0.0000E+00  0.0000E+00  0.0000E+00
 92  0.0000E+00  9.1583E-03  0.0000E+00  0.0000E+00  0.0000E+00  0.0000E+00  0.0000E+00  0.0000E+00  1.1136E-02
 93  9.2079E-04  5.5198E-02  0.0000E+00  5.3961E-03  0.0000E+00  1.3784E-01  0.0000E+00  3.4823E-02  0.0000E+00
 94  0.0000E+00  1.3162E-01  0.0000E+00  0.0000E+00  3.3768E-01  0.0000E+00  8.6427E-03  0.0000E+00  0.0000E+00
 95  0.0000E+00  1.3929E-01  0.0000E+00  5.4740E-01  0.0000E+00  0.0000E+00  0.0000E+00  4.6623E-01  0.0000E+00
 96  0.0000E+00  1.8521E-01  0.0000E+00  2.9832E-02  0.0000E+00  0.0000E+00  8.3676E-02  0.0000E+00  6.0125E-01
 97  2.3733E-03  9.1388E-01  0.0000E+00  1.4165E+00  2.1644E-01  1.1731E+00  7.0876E-01  2.2259E+00  1.5413E+00
 98  1.3485E+01  1.1500E+01  1.1791E+01  1.2520E+01  1.2651E+01  1.1548E+01  1.2246E+01  1.1751E+01  1.2967E+01
 99  3.9429E+01  3.1904E+01  3.4293E+01  3.4101E+01  3.4123E+01  3.7321E+01  3.3352E+01  3.4148E+01  3.4006E+01
100  2.0915E+01  1.7288E+01  1.9917E+01  1.8591E+01  1.8812E+01  1.9110E+01  1.9492E+01  1.8290E+01  1.9899E+01
101  0.0000E+00  7.9110E-06  0.0000E+00  0.0000E+00  0.0000E+00  0.0000E+00  0.0000E+00  0.0000E+00  0.0000E+00
102  0.0000E+00  3.5827E-06  0.0000E+00  0.0000E+00  2.5386E-05  0.0000E+00  0.0000E+00  0.0000E+00  0.0000E+00
103  0.0000E+00  4.0711E-05  0.0000E+00  5.9681E-05  0.0000E+00  0.0000E+00  0.0000E+00  0.0000E+00  0.0000E+00
104  0.0000E+00  4.5775E-05  0.0000E+00  0.0000E+00  0.0000E+00  0.0000E+00  0.0000E+00  0.0000E+00  2.3730E-04
105  0.0000E+00  3.3344E-05  0.0000E+00  3.6896E-05  0.0000E+00  0.0000E+00  0.0000E+00  0.0000E+00  0.0000E+00
106  0.0000E+00  4.2931E-05  0.0000E+00  0.0000E+00  0.0000E+00  0.0000E+00  0.0000E+00  0.0000E+00  0.0000E+00
107  0.0000E+00  7.1814E-05  0.0000E+00  0.0000E+00  0.0000E+00  0.0000E+00  0.0000E+00  0.0000E+00  0.0000E+00
108  0.0000E+00  3.4988E-05  0.0000E+00  0.0000E+00  0.0000E+00  0.0000E+00  0.0000E+00  0.0000E+00  0.0000E+00
109  0.0000E+00  9.6188E-05  0.0000E+00  0.0000E+00  9.3100E-05  0.0000E+00  0.0000E+00  0.0000E+00  0.0000E+00
110  0.0000E+00  1.5350E-04  0.0000E+00  0.0000E+00  0.0000E+00  0.0000E+00  0.0000E+00  0.0000E+00  1.5808E-03
111  0.0000E+00  3.4829E-04  0.0000E+00  0.0000E+00  0.0000E+00  0.0000E+00  0.0000E+00  0.0000E+00  2.1981E-03
112  0.0000E+00  4.8487E-04  1.9735E-04  0.0000E+00  0.0000E+00  0.0000E+00  0.0000E+00  0.0000E+00  0.0000E+00
113  0.0000E+00  5.5973E-04  0.0000E+00  0.0000E+00  0.0000E+00  0.0000E+00  0.0000E+00  0.0000E+00  2.6245E-03
114  0.0000E+00  7.7730E-04  0.0000E+00  0.0000E+00  0.0000E+00  1.0240E-02  0.0000E+00  0.0000E+00  0.0000E+00
115  0.0000E+00  3.1819E-03  0.0000E+00  8.9011E-03  0.0000E+00  0.0000E+00  0.0000E+00  7.1541E-03  0.0000E+00
116  0.0000E+00  5.1534E-03  0.0000E+00  0.0000E+00  5.2699E-03  0.0000E+00  0.0000E+00  0.0000E+00  0.0000E+00
117  0.0000E+00  4.3630E-03  0.0000E+00  0.0000E+00  0.0000E+00  0.0000E+00  0.0000E+00  0.0000E+00  7.2785E-02
118  0.0000E+00  1.4285E-02  0.0000E+00  0.0000E+00  0.0000E+00  0.0000E+00  4.6827E-02  0.0000E+00  0.0000E+00
119  0.0000E+00  3.6265E-02  0.0000E+00  0.0000E+00  0.0000E+00  7.0160E-02  0.0000E+00  0.0000E+00  0.0000E+00
120  0.0000E+00  7.7695E-02  6.2370E-02  0.0000E+00  2.3710E-01  0.0000E+00  0.0000E+00  0.0000E+00  0.0000E+00
121  0.0000E+00  9.2691E-02  0.0000E+00  0.0000E+00  1.6458E-01  0.0000E+00  5.1891E-01  5.0878E-02  0.0000E+00
122  0.0000E+00  8.2662E-02  6.1071E-01  0.0000E+00  0.0000E+00  0.0000E+00  0.0000E+00  1.7593E-01  2.1462E-02
123  0.0000E+00  8.8515E-02  0.0000E+00  0.0000E+00  0.0000E+00  0.0000E+00  0.0000E+00  6.9234E-01  0.0000E+00
124  0.0000E+00  1.1810E-01  0.0000E+00  0.0000E+00  0.0000E+00  0.0000E+00  0.0000E+00  0.0000E+00  0.0000E+00
125  0.0000E+00  1.2787E-01  0.0000E+00  0.0000E+00  5.0117E-01  0.0000E+00  0.0000E+00  0.0000E+00  0.0000E+00
126  0.0000E+00  6.6868E-06  0.0000E+00  0.0000E+00  0.0000E+00  0.0000E+00  0.0000E+00  0.0000E+00  0.0000E+00
127  0.0000E+00  7.2418E-06  0.0000E+00  0.0000E+00  0.0000E+00  0.0000E+00  0.0000E+00  0.0000E+00  0.0000E+00
128  0.0000E+00  1.1367E-05  0.0000E+00  0.0000E+00  0.0000E+00  0.0000E+00  0.0000E+00  0.0000E+00  0.0000E+00
129  0.0000E+00  1.9585E-05  0.0000E+00  0.0000E+00  0.0000E+00  3.8123E-05  0.0000E+00  0.0000E+00  0.0000E+00
130  0.0000E+00  2.0316E-05  0.0000E+00  0.0000E+00  0.0000E+00  0.0000E+00  0.0000E+00  0.0000E+00  0.0000E+00
131  0.0000E+00  1.6910E-05  0.0000E+00  0.0000E+00  0.0000E+00  0.0000E+00  0.0000E+00  0.0000E+00  0.0000E+00
132  0.0000E+00  2.3600E-05  0.0000E+00  0.0000E+00  0.0000E+00  0.0000E+00  0.0000E+00  0.0000E+00  0.0000E+00
133  0.0000E+00  4.9615E-05  0.0000E+00  0.0000E+00  0.0000E+00  0.0000E+00  0.0000E+00  0.0000E+00  0.0000E+00
134  0.0000E+00  2.1189E-04  6.5075E-05  0.0000E+00  1.5018E-04  0.0000E+00  0.0000E+00  0.0000E+00  1.1094E-04
135  0.0000E+00  3.2434E-04  0.0000E+00  0.0000E+00  0.0000E+00  1.4179E-04  0.0000E+00  0.0000E+00  0.0000E+00
136  0.0000E+00  5.2814E-04  0.0000E+00  0.0000E+00  0.0000E+00  0.0000E+00  0.0000E+00  5.8350E-04  0.0000E+00
137  0.0000E+00  6.4408E-04  0.0000E+00  0.0000E+00  0.0000E+00  0.0000E+00  1.0561E-03  0.0000E+00  0.0000E+00
138  0.0000E+00  8.1624E-04  0.0000E+00  0.0000E+00  0.0000E+00  0.0000E+00  0.0000E+00  0.0000E+00  0.0000E+00
139  0.0000E+00  1.8213E-03  0.0000E+00  0.0000E+00  0.0000E+00  0.0000E+00  0.0000E+00  0.0000E+00  0.0000E+00
140  0.0000E+00  3.9096E-03  0.0000E+00  0.0000E+00  0.0000E+00  0.0000E+00  0.0000E+00  0.0000E+00  0.0000E+00
141  0.0000E+00  7.0137E-03  0.0000E+00  0.0000E+00  0.0000E+00  6.4331E-02  0.0000E+00  0.0000E+00  0.0000E+00
142  0.0000E+00  1.1124E-02  0.0000E+00  0.0000E+00  1.4291E-01  2.1546E-02  0.0000E+00  0.0000E+00  2.2857E-02
143  0.0000E+00  6.3469E-02  1.0943E-01  1.4703E-01  0.0000E+00  0.0000E+00  4.9505E-01  0.0000E+00  0.0000E+00
144  0.0000E+00  2.5467E-01  1.0282E-01  0.0000E+00  1.5164E-01  2.1629E-01  5.2088E-02  0.0000E+00  1.5322E-02
145  1.1073E+00  1.4453E+00  1.4896E+00  1.6738E+00  1.0484E+00  1.4147E+00  2.1163E+00  2.3708E+00  1.3964E+00
146  7.0386E-01  1.3875E+00  1.6691E+00  1.5765E+00  1.8462E+00  9.4460E-01  0.0000E+00  1.8441E+00  2.4424E-01
147  0.0000E+00  1.0492E+00  0.0000E+00  2.5996E+00  6.2862E-01  1.1595E+00  0.0000E+00  0.0000E+00  1.0433E+00
148  0.0000E+00  1.5711E+00  0.0000E+00  4.2900E-01  1.9648E+00  0.0000E+00  0.0000E+00  0.0000E+00  0.0000E+00
149  0.0000E+00  1.3536E+00  9.4744E-01  0.0000E+00  0.0000E+00  1.3985E+00  3.9682E-01  0.0000E+00  8.6157E-01
150  0.0000E+00  4.0440E+00  3.6758E+00  0.0000E+00  8.6342E-01  0.0000E+00  3.9012E+00  3.2612E+00  1.8914E+00

# AV, chi2 & Mass for <> & i_chain = 1 ...  7 solutions
AV       0.8166      0.7724      0.7842      0.7928      0.7886      0.7915      0.7914      0.7863      0.7943
chi2 1.2172E+00  1.2964E+00  1.2539E+00  1.2568E+00  1.2612E+00  1.2525E+00  1.2587E+00  1.2577E+00  1.2633E+00
Mass 3.5059E-10  3.4924E-10  3.5034E-10  3.4223E-10  3.5116E-10  3.4718E-10  3.4868E-10  3.4476E-10  3.4655E-10
  -6.68                                  [v0_min (km/s) before EX0s...]
  58.10                                  [vd_min (km/s) before EX0s...]


## Synthetic spectrum (Best Model) ##l_obs f_obs f_syn wei
 3070    [Nl_obs]
 3359.00    0.02616   0.41662   -1.000
 3360.00    0.21456   0.40040   -1.000
 3361.00    0.20597   0.40706   -1.000
 3362.00    0.22425   0.43056   -1.000
 3363.00    0.23515   0.45869   -1.000
 3364.00    0.25936   0.47699   -1.000
 3365.00    0.25957   0.47801   -1.000
 3366.00    0.25704   0.46794   -1.000
 3367.00    0.27021   0.45503   -1.000
 3368.00    0.24867   0.44268   -1.000
 3369.00    0.25567   0.43222   -1.000
 3370.00    0.25581   0.42149   -1.000
 3371.00    0.24639   0.41448   -1.000
 3372.00    0.24563   0.41773   -1.000
 3373.00    0.25990   0.43354   -1.000
 3374.00    0.27727   0.45726   -1.000
 3375.00    0.29155   0.48088   -1.000
 3376.00    0.31340   0.49338   -1.000
 3377.00    0.30943   0.48959   -1.000
 3378.00    0.30327   0.47423   -1.000
 3379.00    0.31913   0.45988   -1.000
 3380.00    0.31959   0.45592   -1.000
 3381.00    0.30042   0.46206   -1.000
 3382.00    0.30468   0.47254   -1.000
 3383.00    0.30853   0.48216   -1.000
 3384.00    0.30885   0.48952   -1.000
 3385.00    0.31109   0.49387   -1.000
 3386.00    0.33819   0.49153   -1.000
 3387.00    0.33640   0.48512   -1.000
 3388.00    0.34885   0.48273   -1.000
 3389.00    0.35001   0.48670   -1.000
 3390.00    0.35439   0.49082   -1.000
 3391.00    0.36749   0.48874   -1.000
 3392.00    0.35100   0.48013   -1.000
 3393.00    0.35933   0.47508   -1.000
 3394.00    0.36207   0.48089   -1.000
 3395.00    0.37195   0.49532   -1.000
 3396.00    0.38430   0.51179   -1.000
 3397.00    0.39506   0.52509   -1.000
 3398.00    0.41002   0.53411   -1.000
 3399.00    0.42502   0.53631   -1.000
 3400.00    0.43471   0.53112   -1.000
 3401.00    0.42709   0.52000   -1.000
 3402.00    0.43197   0.50540   -1.000
 3403.00    0.42120   0.49503   -1.000
 3404.00    0.40224   0.49032   -1.000
 3405.00    0.39405   0.48943   -1.000
 3406.00    0.40081   0.48692   -1.000
 3407.00    0.39842   0.48190   -1.000
 3408.00    0.39704   0.47851   -1.000
 3409.00    0.38638   0.48141   -1.000
 3410.00    0.39540   0.48790   -1.000
 3411.00    0.40409   0.48844   -1.000
 3412.00    0.41622   0.48206   -1.000
 3413.00    0.40926   0.47388   -1.000
 3414.00    0.40182   0.47194   -1.000
 3415.00    0.39409   0.47979   -1.000
 3416.00    0.39599   0.49288   -1.000
 3417.00    0.41328   0.50692   -1.000
 3418.00    0.42683   0.51954   -1.000
 3419.00    0.43662   0.52908   -1.000
 3420.00    0.44591   0.53279   -1.000
 3421.00    0.45543   0.52738   -1.000
 3422.00    0.43154   0.51391   -1.000
 3423.00    0.45089   0.50165   -1.000
 3424.00    0.45063   0.49786   -1.000
 3425.00    0.45395   0.50113   -1.000
 3426.00    0.46014   0.50734   -1.000
 3427.00    0.45968   0.51700   -1.000
 3428.00    0.47683   0.53144   -1.000
 3429.00    0.48111   0.54527   -1.000
 3430.00    0.48770   0.54745   -1.000
 3431.00    0.48895   0.53481   -1.000
 3432.00    0.46428   0.51855   -1.000
 3433.00    0.46436   0.51198   -1.000
 3434.00    0.47809   0.51897   -1.000
 3435.00    0.48767   0.52915   -1.000
 3436.00    0.49498   0.53025   -1.000
 3437.00    0.47747   0.52041   -1.000
 3438.00    0.45189   0.50392   -1.000
 3439.00    0.45175   0.48346  104.779
 3440.00    0.43878   0.46284  112.668
 3441.00    0.41681   0.44728  116.612
 3442.00    0.41618   0.44186  116.671
 3443.00    0.42484   0.44654  115.627
 3444.00    0.42782   0.45728  110.758
 3445.00    0.44618   0.47174  104.663
 3446.00    0.47031   0.49032   99.145
 3447.00    0.46811   0.51097   -1.000
 3448.00    0.47994   0.52894   -1.000
 3449.00    0.50097   0.53753   -1.000
 3450.00    0.50581   0.53053   -1.000
 3451.00    0.49148   0.51309   -1.000
 3452.00    0.47493   0.49888   -1.000
 3453.00    0.47721   0.49605   -1.000
 3454.00    0.47824   0.50232   -1.000
 3455.00    0.48729   0.50921   -1.000
 3456.00    0.50314   0.50969   -1.000
 3457.00    0.48699   0.50328   -1.000
 3458.00    0.48030   0.49330   -1.000
 3459.00    0.48843   0.48348   93.898
 3460.00    0.48371   0.47587   94.940
 3461.00    0.48716   0.47569  106.247
 3462.00    0.49173   0.48569   -1.000
 3463.00    0.49467   0.49841  761.213
 3464.00    0.50733   0.50372   -1.000
 3465.00    0.51336   0.50155   -1.000
 3466.00    0.50542   0.50150   -1.000
 3467.00    0.49639   0.50966   -1.000
 3468.00    0.50161   0.52354   -1.000
 3469.00    0.51598   0.53540   -1.000
 3470.00    0.53028   0.53894   -1.000
 3471.00    0.53163   0.53235  761.213
 3472.00    0.50493   0.51763   -1.000
 3473.00    0.50137   0.49778   -1.000
 3474.00    0.49261   0.47969   -1.000
 3475.00    0.48730   0.46959   94.956
 3476.00    0.47170   0.47179   97.830
 3477.00    0.46940   0.48521  107.954
 3478.00    0.49953   0.50177  761.213
 3479.00    0.51973   0.51545   -1.000
 3480.00    0.53524   0.52403   -1.000
 3481.00    0.53484   0.52502   -1.000
 3482.00    0.53162   0.51956   -1.000
 3483.00    0.53492   0.51329   -1.000
 3484.00    0.53557   0.51310   -1.000
 3485.00    0.52320   0.52283  761.213
 3486.00    0.53128   0.53508  761.213
 3487.00    0.54859   0.53836   -1.000
 3488.00    0.54348   0.52873   -1.000
 3489.00    0.51895   0.51114   -1.000
 3490.00    0.51010   0.49712   -1.000
 3491.00    0.50155   0.49523   -1.000
 3492.00    0.49787   0.50226  761.213
 3493.00    0.50136   0.50799   -1.000
 3494.00    0.50350   0.50682  761.213
 3495.00    0.50575   0.49943   -1.000
 3496.00    0.49487   0.49336   -1.000
 3497.00    0.50136   0.49681   -1.000
 3498.00    0.52469   0.50839   -1.000
 3499.00    0.53612   0.52096   -1.000
 3500.00    0.54776   0.52769   -1.000
 3501.00    0.55892   0.53118   -1.000
 3502.00    0.54327   0.53570   -1.000
 3503.00    0.54819   0.53819   -1.000
 3504.00    0.55335   0.53510   -1.000
 3505.00    0.54100   0.52727   -1.000
 3506.00    0.53104   0.52004   -1.000
 3507.00    0.53073   0.51694   -1.000
 3508.00    0.53254   0.51597   -1.000
 3509.00    0.54475   0.51436   -1.000
 3510.00    0.53218   0.51062   -1.000
 3511.00    0.50748   0.50456   -1.000
 3512.00    0.51419   0.49636   -1.000
 3513.00    0.51668   0.48920   -1.000
 3514.00    0.50415   0.49021   -1.000
 3515.00    0.50815   0.50420   -1.000
 3516.00    0.53272   0.52705   -1.000
 3517.00    0.55426   0.54574   -1.000
 3518.00    0.56040   0.54953   -1.000
 3519.00    0.55637   0.53783   -1.000
 3520.00    0.54806   0.52065   -1.000
 3521.00    0.52731   0.50600   -1.000
 3522.00    0.51629   0.49512   -1.000
 3523.00    0.50128   0.48482   -1.000
 3524.00    0.48281   0.47428   94.119
 3525.00    0.46936   0.46982   97.018
 3526.00    0.47402   0.47768  108.756
 3527.00    0.50033   0.49520   -1.000
 3528.00    0.53210   0.51610   -1.000
 3529.00    0.54341   0.53276   -1.000
 3530.00    0.55017   0.54106   -1.000
 3531.00    0.54539   0.54184  761.213
 3532.00    0.53713   0.53856  761.213
 3533.00    0.53671   0.53464  761.213
 3534.00    0.54405   0.53339   -1.000
 3535.00    0.54612   0.53654   -1.000
 3536.00    0.56028   0.54429   -1.000
 3537.00    0.55486   0.55463  752.794
 3538.00    0.55720   0.56396   -1.000
 3539.00    0.56704   0.56844  736.678
 3540.00    0.56086   0.56678   -1.000
 3541.00    0.55572   0.56264   -1.000
 3542.00    0.55620   0.56225   -1.000
 3543.00    0.55879   0.56758   -1.000
 3544.00    0.56678   0.57327   -1.000
 3545.00    0.56502   0.57427   -1.000
 3546.00    0.55961   0.57091   -1.000
 3547.00    0.56211   0.56665   -1.000
 3548.00    0.55841   0.56493   -1.000
 3549.00    0.56179   0.56654   -1.000
 3550.00    0.56346   0.56944   -1.000
 3551.00    0.54408   0.56900   -1.000
 3552.00    0.52883   0.56175   -1.000
 3553.00    0.52298   0.55096   -1.000
 3554.00    0.53638   0.54433   -1.000
 3555.00    0.54597   0.54579  761.213
 3556.00    0.53433   0.55176   -1.000
 3557.00    0.54491   0.55713   -1.000
 3558.00    0.54981   0.55867   -1.000
 3559.00    0.53797   0.55816   -1.000
 3560.00    0.54340   0.55972   -1.000
 3561.00    0.54623   0.56367   -1.000
 3562.00    0.54244   0.56401   -1.000
 3563.00    0.54721   0.55290   -1.000
 3564.00    0.53291   0.53086  423.781
 3565.00    0.50663   0.50841   95.140
 3566.00    0.48043   0.49682   98.401
 3567.00    0.49478   0.49602   97.291
 3568.00    0.49422   0.49604   97.247
 3569.00    0.48094   0.49079  100.424
 3570.00    0.48061   0.48309  101.587
 3571.00    0.48044   0.47955   98.163
 3572.00    0.48946   0.48301  106.610
 3573.00    0.49543   0.48972   -1.000
 3574.00    0.50636   0.49680   -1.000
 3575.00    0.51767   0.50385   -1.000
 3576.00    0.52272   0.50914   -1.000
 3577.00    0.52382   0.51008   -1.000
 3578.00    0.52410   0.50467   -1.000
 3579.00    0.51016   0.49203   98.779
 3580.00    0.48378   0.47690  106.394
 3581.00    0.46171   0.46569  111.536
 3582.00    0.45652   0.46263  112.169
 3583.00    0.46351   0.46439  112.934
 3584.00    0.46293   0.46165  115.934
 3585.00    0.44592   0.45161  119.496
 3586.00    0.43488   0.44154  120.100
 3587.00    0.45264   0.44116  113.896
 3588.00    0.45873   0.45421  107.895
 3589.00    0.47798   0.47686  102.053
 3590.00    0.48870   0.49988  106.314
 3591.00    0.51605   0.51529  761.213
 3592.00    0.53612   0.52132   -1.000
 3593.00    0.54033   0.52371   -1.000
 3594.00    0.54095   0.52996   -1.000
 3595.00    0.55961   0.54212   -1.000
 3596.00    0.56060   0.55520   -1.000
 3597.00    0.55821   0.56424   -1.000
 3598.00    0.57755   0.56952   -1.000
 3599.00    0.58946   0.57197   -1.000
 3600.00    0.58827   0.56818   -1.000
 3601.00    0.57794   0.55547   -1.000
 3602.00    0.56507   0.53894   -1.000
 3603.00    0.55090   0.52581   -1.000
 3604.00    0.54698   0.52076   -1.000
 3605.00    0.54350   0.52073   -1.000
 3606.00    0.53517   0.51926   -1.000
 3607.00    0.53019   0.51344   -1.000
 3608.00    0.51971   0.50608   -1.000
 3609.00    0.51342   0.50328   -1.000
 3610.00    0.51901   0.50744   -1.000
 3611.00    0.51361   0.51637  761.213
 3612.00    0.52426   0.52565  761.213
 3613.00    0.52719   0.53409   -1.000
 3614.00    0.54249   0.54430  761.213
 3615.00    0.54776   0.55325   -1.000
 3616.00    0.55697   0.55070   -1.000
 3617.00    0.54748   0.53425   -1.000
 3618.00    0.50531   0.51359   -1.000
 3619.00    0.48871   0.50490  105.523
 3620.00    0.51198   0.51512  761.213
 3621.00    0.54090   0.53588   -1.000
 3622.00    0.56309   0.55498   -1.000
 3623.00    0.58019   0.56751   -1.000
 3624.00    0.56938   0.57893   -1.000
 3625.00    0.57431   0.59526   -1.000
 3626.00    0.59975   0.61345   -1.000
 3627.00    0.59899   0.62378   -1.000
 3628.00    0.59253   0.61553   -1.000
 3629.00    0.57031   0.58752   -1.000
 3630.00    0.55648   0.55152   -1.000
 3631.00    0.52375   0.52701  761.213
 3632.00    0.51185   0.52352   -1.000
 3633.00    0.52113   0.53562   -1.000
 3634.00    0.52614   0.55002   -1.000
 3635.00    0.53743   0.55872   -1.000
 3636.00    0.54840   0.56480   -1.000
 3637.00    0.56274   0.57487   -1.000
 3638.00    0.56455   0.58841   -1.000
 3639.00    0.58172   0.59888   -1.000
 3640.00    0.57042   0.60098   -1.000
 3641.00    0.56996   0.59371   -1.000
 3642.00    0.57493   0.58041   -1.000
 3643.00    0.56310   0.56648   -1.000
 3644.00    0.54839   0.55503   -1.000
 3645.00    0.54191   0.54612   -1.000
 3646.00    0.53312   0.53878   -1.000
 3647.00    0.53845   0.53429  761.213
 3648.00    0.54299   0.53464   -1.000
 3649.00    0.54399   0.54038  761.213
 3650.00    0.54966   0.55168  759.274
 3651.00    0.56685   0.56703  723.000
 3652.00    0.58253   0.58323  694.426
 3653.00    0.59795   0.59638  678.541
 3654.00    0.60749   0.60663  670.173
 3655.00    0.59781   0.61570   -1.000
 3656.00    0.61433   0.62425   -1.000
 3657.00    0.61289   0.63092   -1.000
 3658.00    0.60131   0.63387   -1.000
 3659.00    0.59832   0.63323   -1.000
 3660.00    0.60936   0.62903   -1.000
 3661.00    0.61014   0.62133   -1.000
 3662.00    0.60598   0.61229   -1.000
 3663.00    0.59858   0.60617   -1.000
 3664.00    0.60254   0.60543   -1.000
 3665.00    0.59500   0.60773   -1.000
 3666.00    0.60035   0.60838   -1.000
 3667.00    0.60169   0.60431   -1.000
 3668.00    0.59226   0.59692   -1.000
 3669.00    0.58674   0.59207   -1.000
 3670.00    0.58694   0.59466   -1.000
 3671.00    0.58791   0.60366   -1.000
 3672.00    0.60015   0.61315   -1.000
 3673.00    0.61026   0.61792   -1.000
 3674.00    0.60617   0.61642   -1.000
 3675.00    0.61810   0.60842   -1.000
 3676.00    0.60831   0.59466   -1.000
 3677.00    0.59301   0.57883   -1.000
 3678.00    0.58093   0.56611   -1.000
 3679.00    0.57138   0.56121   -1.000
 3680.00    0.56827   0.56439  735.932
 3681.00    0.57997   0.57186   -1.000
 3682.00    0.59594   0.57895   -1.000
 3683.00    0.60198   0.58152   -1.000
 3684.00    0.58140   0.57662  713.026
 3685.00    0.57016   0.56487  742.660
 3686.00    0.56555   0.55380   -1.000
 3687.00    0.55549   0.55412  761.213
 3688.00    0.57055   0.56977  752.661
 3689.00    0.58681   0.59313   -1.000
 3690.00    0.60730   0.61158   -1.000
 3691.00    0.61616   0.61917   -1.000
 3692.00    0.61881   0.61889  650.078
 3693.00    0.61756   0.61697  667.240
 3694.00    0.61780   0.61662  674.536
 3695.00    0.60548   0.61559   -1.000
 3696.00    0.60339   0.61302   -1.000
 3697.00    0.60855   0.61547   -1.000
 3698.00    0.62843   0.62924  633.342
 3699.00    0.64516   0.64978   -1.000
 3700.00    0.65867   0.66366   -1.000
 3701.00    0.65187   0.65601   -1.000
 3702.00    0.62552   0.62361  660.510
 3703.00    0.59020   0.57901   -1.000
 3704.00    0.56080   0.54280   -1.000
 3705.00    0.53900   0.52814   -1.000
 3706.00    0.54278   0.53453   -1.000
 3707.00    0.56007   0.55088   -1.000
 3708.00    0.56627   0.56541  761.213
 3709.00    0.57410   0.57112  756.543
 3710.00    0.58533   0.57034   -1.000
 3711.00    0.59039   0.57200   -1.000
 3712.00    0.59977   0.58461   -1.000
 3713.00    0.62683   0.60957   -1.000
 3714.00    0.64884   0.63930   -1.000
 3715.00    0.66366   0.66247  608.276
 3716.00    0.67691   0.67097  626.292
 3717.00    0.67810   0.66061   -1.000
 3718.00    0.63376   0.62795   -1.000
 3719.00    0.58642   0.57551   -1.000
 3720.00    0.52800   0.51978   -1.000
 3721.00    0.51017   0.48659  108.052
 3722.00    0.51188   0.48992   -1.000
 3723.00    0.54221   0.52678   -1.000
 3724.00    0.59658   0.57994   -1.000
 3725.00    0.63611   0.62362   -1.000
 3726.00    0.64872   0.64495  684.805
 3727.00    0.65259   0.65265  705.440
 3728.00    0.64597   0.65750   -1.000
 3729.00    0.64274   0.65960   -1.000
 3730.00    0.64570   0.64900  709.947
 3731.00    0.62888   0.61400   -1.000
 3732.00    0.57926   0.55631   -1.000
 3733.00    0.50211   0.49576   94.764
 3734.00    0.45890   0.45255  105.249
 3735.00    0.45243   0.44174  107.815
 3736.00    0.46654   0.46727  101.632
 3737.00    0.51711   0.51884  105.966
 3738.00    0.57962   0.57961  761.213
 3739.00    0.62010   0.63585   -1.000
 3740.00    0.64753   0.67281   -1.000
 3741.00    0.66865   0.68398   -1.000
 3742.00    0.66965   0.67301  729.685
 3743.00    0.65007   0.65056  761.213
 3744.00    0.62028   0.62439  761.213
 3745.00    0.58789   0.59772   -1.000
 3746.00    0.56406   0.56799  420.054
 3747.00    0.53089   0.53197   95.497
 3748.00    0.49941   0.49442  101.031
 3749.00    0.46647   0.46892  115.862
 3750.00    0.47587   0.47211   -1.000
 3751.00    0.52836   0.50857   -1.000
 3752.00    0.57930   0.56590   -1.000
 3753.00    0.63786   0.62623   -1.000
 3754.00    0.68169   0.67372   -1.000
 3755.00    0.71015   0.69712   -1.000
 3756.00    0.70390   0.69362   -1.000
 3757.00    0.67130   0.67119  756.998
 3758.00    0.64604   0.64813  761.213
 3759.00    0.64034   0.63882  761.213
 3760.00    0.65250   0.64359   -1.000
 3761.00    0.67519   0.65513   -1.000
 3762.00    0.69038   0.66462   -1.000
 3763.00    0.69144   0.66747   -1.000
 3764.00    0.68691   0.66331   -1.000
 3765.00    0.66896   0.65182   -1.000
 3766.00    0.65177   0.63363   -1.000
 3767.00    0.62147   0.60930   -1.000
 3768.00    0.60556   0.57947   -1.000
 3769.00    0.57935   0.55021   -1.000
 3770.00    0.56172   0.53364   -1.000
 3771.00    0.57735   0.54223   -1.000
 3772.00    0.61375   0.57540   -1.000
 3773.00    0.64634   0.61788   -1.000
 3774.00    0.66955   0.65333   -1.000
 3775.00    0.69325   0.67782   -1.000
 3776.00    0.72192   0.69701   -1.000
 3777.00    0.73112   0.71789   -1.000
 3778.00    0.74589   0.74191   -1.000
 3779.00    0.76943   0.76542  610.539
 3780.00    0.78379   0.78432  597.846
 3781.00    0.79718   0.79515  594.062
 3782.00    0.79782   0.79829  591.004
 3783.00    0.79379   0.79524  593.252
 3784.00    0.79239   0.78491   -1.000
 3785.00    0.78085   0.76605   -1.000
 3786.00    0.76049   0.74251   -1.000
 3787.00    0.73356   0.72066   -1.000
 3788.00    0.72482   0.70665   -1.000
 3789.00    0.72267   0.70196   -1.000
 3790.00    0.70492   0.70167  718.486
 3791.00    0.69528   0.69762  713.786
 3792.00    0.68856   0.68354   -1.000
 3793.00    0.66519   0.65747   -1.000
 3794.00    0.62779   0.62141   -1.000
 3795.00    0.59279   0.57930   -1.000
 3796.00    0.55683   0.53584   -1.000
 3797.00    0.51600   0.49925   -1.000
 3798.00    0.49800   0.48607   -1.000
 3799.00    0.52169   0.50928   -1.000
 3800.00    0.57612   0.56332   -1.000
 3801.00    0.63669   0.62679   -1.000
 3802.00    0.68328   0.68115  673.716
 3803.00    0.71583   0.71704  660.633
 3804.00    0.73522   0.73531  659.025
 3805.00    0.74809   0.73958   -1.000
 3806.00    0.74219   0.73904  695.884
 3807.00    0.73481   0.74443   -1.000
 3808.00    0.75384   0.75965   -1.000
 3809.00    0.77374   0.77948   -1.000
 3810.00    0.78424   0.79283   -1.000
 3811.00    0.78590   0.78932  672.222
 3812.00    0.77910   0.76741   -1.000
 3813.00    0.74627   0.73764   -1.000
 3814.00    0.72598   0.71401   -1.000
 3815.00    0.72146   0.70677   -1.000
 3816.00    0.71678   0.71411  761.213
 3817.00    0.72358   0.72402  761.213
 3818.00    0.73813   0.72227   -1.000
 3819.00    0.72106   0.70634   -1.000
 3820.00    0.69108   0.69058  761.213
 3821.00    0.69017   0.68741  761.213
 3822.00    0.70156   0.69289   -1.000
 3823.00    0.71035   0.69047   -1.000
 3824.00    0.68178   0.67260   -1.000
 3825.00    0.65146   0.64961   98.199
 3826.00    0.63503   0.63254   99.866
 3827.00    0.62755   0.62293   98.837
 3828.00    0.61809   0.61646   97.218
 3829.00    0.60788   0.60848   96.011
 3830.00    0.59887   0.59326   97.707
 3831.00    0.56712   0.56615  102.712
 3832.00    0.53151   0.52757  110.370
 3833.00    0.49581   0.48393  112.832
 3834.00    0.46019   0.44985  110.143
 3835.00    0.45579   0.43644  105.918
 3836.00    0.47528   0.44400   -1.000
 3837.00    0.48920   0.46720  106.657
 3838.00    0.50563   0.49880  108.608
 3839.00    0.52574   0.53412  105.935
 3840.00    0.57184   0.57350  114.747
 3841.00    0.62350   0.61722   -1.000
 3842.00    0.66589   0.66040   -1.000
 3843.00    0.70104   0.69738   -1.000
 3844.00    0.72413   0.72303  758.956
 3845.00    0.73069   0.73933   -1.000
 3846.00    0.74229   0.75142   -1.000
 3847.00    0.75414   0.75950   -1.000
 3848.00    0.75590   0.76056   -1.000
 3849.00    0.75030   0.75676   -1.000
 3850.00    0.74587   0.75658   -1.000
 3851.00    0.75026   0.76550   -1.000
 3852.00    0.76325   0.77819   -1.000
 3853.00    0.77522   0.78479   -1.000
 3854.00    0.76906   0.78089   -1.000
 3855.00    0.75110   0.76988   -1.000
 3856.00    0.74282   0.75731   -1.000
 3857.00    0.72984   0.74543   -1.000
 3858.00    0.71821   0.73505   93.501
 3859.00    0.69733   0.73116   -1.000
 3860.00    0.70159   0.73941   -1.000
 3861.00    0.73428   0.75817   -1.000
 3862.00    0.76244   0.77719   -1.000
 3863.00    0.78026   0.78680   -1.000
 3864.00    0.80026   0.78688   -1.000
 3865.00    0.79978   0.78366   -1.000
 3866.00    0.78367   0.78286  761.213
 3867.00    0.78444   0.78463  761.213
 3868.00    0.77899   0.78446   -1.000
 3869.00    0.75936   0.77722   -1.000
 3870.00    0.73975   0.76206   -1.000
 3871.00    0.70851   0.74406   -1.000
 3872.00    0.70337   0.73141   -1.000
 3873.00    0.72757   0.73223  761.213
 3874.00    0.74932   0.74447   -1.000
 3875.00    0.76537   0.75450   -1.000
 3876.00    0.75729   0.74881   -1.000
 3877.00    0.72426   0.72988   -1.000
 3878.00    0.69503   0.71246   -1.000
 3879.00    0.69056   0.70533   -1.000
 3880.00    0.68606   0.70512   -1.000
 3881.00    0.67837   0.70269   -1.000
 3882.00    0.66204   0.69425   -1.000
 3883.00    0.66222   0.68075   -1.000
 3884.00    0.65876   0.65802  745.138
 3885.00    0.64065   0.62109   -1.000
 3886.00    0.60447   0.57312   -1.000
 3887.00    0.56621   0.52618   -1.000
 3888.00    0.53718   0.49792   -1.000
 3889.00    0.53556   0.50031   -1.000
 3890.00    0.57935   0.53425   -1.000
 3891.00    0.64501   0.58716   -1.000
 3892.00    0.68192   0.63750   -1.000
 3893.00    0.69880   0.67055   -1.000
 3894.00    0.71180   0.68970   -1.000
 3895.00    0.72337   0.70557   -1.000
 3896.00    0.76578   0.72316   -1.000
 3897.00    0.77138   0.73934   -1.000
 3898.00    0.76834   0.74935   -1.000
 3899.00    0.78872   0.75413   -1.000
 3900.00    0.78893   0.76024   -1.000
 3901.00    0.80096   0.76921   -1.000
 3902.00    0.82245   0.77549   -1.000
 3903.00    0.80332   0.77475   -1.000
 3904.00    0.79487   0.76868   -1.000
 3905.00    0.78761   0.76544   -1.000
 3906.00    0.78329   0.77329   -1.000
 3907.00    0.80547   0.79439   -1.000
 3908.00    0.82927   0.82171   -1.000
 3909.00    0.85160   0.84478   -1.000
 3910.00    0.88396   0.85819   -1.000
 3911.00    0.88658   0.86279   -1.000
 3912.00    0.88156   0.86043   -1.000
 3913.00    0.87648   0.85242   -1.000
 3914.00    0.85528   0.84232   -1.000
 3915.00    0.84698   0.83577   -1.000
 3916.00    0.84368   0.83288   -1.000
 3917.00    0.85130   0.82847   -1.000
 3918.00    0.83873   0.81906   -1.000
 3919.00    0.81426   0.80634   -1.000
 3920.00    0.80378   0.79571   -1.000
 3921.00    0.80406   0.79106   -1.000
 3922.00    0.79399   0.79272  697.093
 3923.00    0.79424   0.79642  686.664
 3924.00    0.79596   0.79575  696.600
 3925.00    0.78604   0.78506  736.714
 3926.00    0.75048   0.76099   -1.000
 3927.00    0.71042   0.72594   -1.000
 3928.00    0.65075   0.68368   -1.000
 3929.00    0.60204   0.63682   -1.000
 3930.00    0.54762   0.58288   -1.000
 3931.00    0.47763   0.51790   -1.000
 3932.00    0.40442   0.45141   -1.000
 3933.00    0.35931   0.40700   -1.000
 3934.00    0.36615   0.40621   -1.000
 3935.00    0.41654   0.45033   -1.000
 3936.00    0.48781   0.51983   -1.000
 3937.00    0.55554   0.59242   -1.000
 3938.00    0.61777   0.65662   -1.000
 3939.00    0.66411   0.70626   -1.000
 3940.00    0.70788   0.74026   -1.000
 3941.00    0.73559   0.75914   -1.000
 3942.00    0.74157   0.76611   -1.000
 3943.00    0.74934   0.76982   -1.000
 3944.00    0.75832   0.77780   -1.000
 3945.00    0.78990   0.79093  678.114
 3946.00    0.81847   0.80446   -1.000
 3947.00    0.82300   0.81315   -1.000
 3948.00    0.81563   0.81703  630.381
 3949.00    0.82129   0.81930  607.160
 3950.00    0.84045   0.82041   -1.000
 3951.00    0.84482   0.81933   -1.000
 3952.00    0.84315   0.81932   -1.000
 3953.00    0.85155   0.82335   -1.000
 3954.00    0.86419   0.82588   -1.000
 3955.00    0.85465   0.82111   -1.000
 3956.00    0.82092   0.81077   -1.000
 3957.00    0.80611   0.80147  612.841
 3958.00    0.81902   0.79550   -1.000
 3959.00    0.82222   0.78292   -1.000
 3960.00    0.78030   0.75476   -1.000
 3961.00    0.71923   0.71642  761.213
 3962.00    0.67928   0.67754  761.213
 3963.00    0.64034   0.64153  413.513
 3964.00    0.59554   0.59996   99.640
 3965.00    0.52741   0.54135  117.766
 3966.00    0.44061   0.46528   -1.000
 3967.00    0.35530   0.38514   -1.000
 3968.00    0.29619   0.32588   -1.000
 3969.00    0.28697   0.30767  171.526
 3970.00    0.33116   0.33584  141.102
 3971.00    0.40134   0.39906  116.268
 3972.00    0.47266   0.47722  114.483
 3973.00    0.55096   0.55274  761.213
 3974.00    0.62771   0.61886   -1.000
 3975.00    0.68676   0.67374   -1.000
 3976.00    0.73789   0.71959   -1.000
 3977.00    0.77112   0.75855   -1.000
 3978.00    0.80833   0.79160   -1.000
 3979.00    0.83973   0.81725   -1.000
 3980.00    0.85789   0.83162   -1.000
 3981.00    0.86948   0.83636   -1.000
 3982.00    0.87849   0.83815   -1.000
 3983.00    0.87961   0.84426   -1.000
 3984.00    0.88361   0.85707   -1.000
 3985.00    0.89832   0.87221   -1.000
 3986.00    0.90671   0.88554   -1.000
 3987.00    0.91393   0.89665   -1.000
 3988.00    0.92345   0.90513   -1.000
 3989.00    0.93662   0.91035   -1.000
 3990.00    0.93723   0.91544   -1.000
 3991.00    0.95094   0.92331   -1.000
 3992.00    0.96249   0.93268   -1.000
 3993.00    0.96308   0.93890   -1.000
 3994.00    0.94939   0.93667   -1.000
 3995.00    0.94315   0.92523   -1.000
 3996.00    0.93360   0.91131   -1.000
 3997.00    0.91525   0.90555   -1.000
 3998.00    0.91021   0.91253  496.800
 3999.00    0.94169   0.92756   -1.000
 4000.00    0.95731   0.94196   -1.000
 4001.00    0.97854   0.95059   -1.000
 4002.00    0.99462   0.95057   -1.000
 4003.00    0.99762   0.94005   -1.000
 4004.00    0.96602   0.92177   -1.000
 4005.00    0.92581   0.90747   -1.000
 4006.00    0.92579   0.90932   -1.000
 4007.00    0.95161   0.92676   -1.000
 4008.00    0.97355   0.94839   -1.000
 4009.00    0.98841   0.96333   -1.000
 4010.00    0.98855   0.97021   -1.000
 4011.00    0.99430   0.97205   -1.000
 4012.00    0.98963   0.97189   -1.000
 4013.00    0.99268   0.97292   -1.000
 4014.00    1.00844   0.97603   -1.000
 4015.00    1.00446   0.97960   -1.000
 4016.00    0.99438   0.98263   -1.000
 4017.00    0.99423   0.98623  453.039
 4018.00    0.99979   0.99175  449.906
 4019.00    1.00376   0.99747  443.964
 4020.00    1.00267   0.99980  446.068
 4021.00    0.98630   0.99650   -1.000
 4022.00    0.99395   0.98875  454.812
 4023.00    1.00343   0.97951   -1.000
 4024.00    0.99084   0.97327   -1.000
 4025.00    0.98701   0.97570  446.618
 4026.00    1.00094   0.98767   -1.000
 4027.00    1.01657   0.99976   -1.000
 4028.00    1.01654   0.99920   -1.000
 4029.00    1.01478   0.98212   -1.000
 4030.00    0.97418   0.95636   -1.000
 4031.00    0.94677   0.93532   -1.000
 4032.00    0.94176   0.92675   -1.000
 4033.00    0.94816   0.93135   -1.000
 4034.00    0.96977   0.94759   -1.000
 4035.00    0.98229   0.97272   -1.000
 4036.00    1.01405   1.00077   -1.000
 4037.00    1.03279   1.02321  418.086
 4038.00    1.04574   1.03229   -1.000
 4039.00    1.02943   1.02882  427.816
 4040.00    1.02236   1.02029  437.279
 4041.00    1.01902   1.01178  441.488
 4042.00    1.01293   0.99875   -1.000
 4043.00    0.99807   0.97221   -1.000
 4044.00    0.95635   0.93601   -1.000
 4045.00    0.90765   0.91053  547.810
 4046.00    0.91696   0.91416  518.651
 4047.00    0.95773   0.94477   -1.000
 4048.00    1.00513   0.98186   -1.000
 4049.00    1.03368   1.00786   -1.000
 4050.00    1.03280   1.01759   -1.000
 4051.00    1.02448   1.01520  434.186
 4052.00    1.01748   1.00561   -1.000
 4053.00    1.01755   0.99378   -1.000
 4054.00    1.00142   0.98425   -1.000
 4055.00    0.99939   0.97786   -1.000
 4056.00    1.00000   0.97352   -1.000
 4057.00    0.98992   0.97311   -1.000
 4058.00    0.99426   0.98073   -1.000
 4059.00    1.01521   0.99343   -1.000
 4060.00    1.02852   0.99829   -1.000
 4061.00    1.01790   0.98447   -1.000
 4062.00    0.98675   0.95611   -1.000
 4063.00    0.94245   0.93103   -1.000
 4064.00    0.94444   0.92136   -1.000
 4065.00    0.96536   0.92588   -1.000
 4066.00    0.98286   0.93799   -1.000
 4067.00    0.98835   0.95103   -1.000
 4068.00    1.00907   0.96000   -1.000
 4069.00    1.02139   0.95938   -1.000
 4070.00    1.00322   0.94664   -1.000
 4071.00    0.98975   0.93116   -1.000
 4072.00    0.97013   0.92736   -1.000
 4073.00    0.98061   0.93522   -1.000
 4074.00    1.00048   0.94008   -1.000
 4075.00    0.98176   0.92908   -1.000
 4076.00    0.94955   0.90645   -1.000
 4077.00    0.92496   0.89011   -1.000
 4078.00    0.92096   0.89429   -1.000
 4079.00    0.95252   0.91949   -1.000
 4080.00    0.98002   0.95021   -1.000
 4081.00    1.00488   0.96862   -1.000
 4082.00    0.99705   0.96819   -1.000
 4083.00    0.98618   0.95611   -1.000
 4084.00    0.96937   0.94537   -1.000
 4085.00    0.96080   0.94504   -1.000
 4086.00    0.98020   0.95616   -1.000
 4087.00    1.01216   0.97173   -1.000
 4088.00    1.03061   0.98284   -1.000
 4089.00    1.02736   0.98398   -1.000
 4090.00    1.01225   0.97625   -1.000
 4091.00    0.98937   0.96506   -1.000
 4092.00    0.97347   0.95269   -1.000
 4093.00    0.97609   0.93709   -1.000
 4094.00    0.95846   0.91646   -1.000
 4095.00    0.93697   0.89053   -1.000
 4096.00    0.91529   0.86177   -1.000
 4097.00    0.88838   0.83092   -1.000
 4098.00    0.85047   0.79266   -1.000
 4099.00    0.80233   0.74103   -1.000
 4100.00    0.72093   0.68247   -1.000
 4101.00    0.65880   0.64022   -1.000
 4102.00    0.66146   0.63753   -1.000
 4103.00    0.71616   0.67905   -1.000
 4104.00    0.79806   0.74413   -1.000
 4105.00    0.84575   0.80588   -1.000
 4106.00    0.88732   0.84926   -1.000
 4107.00    0.91570   0.87447   -1.000
 4108.00    0.91210   0.88727   -1.000
 4109.00    0.92234   0.89471   -1.000
 4110.00    0.93314   0.90288   -1.000
 4111.00    0.94095   0.91517   -1.000
 4112.00    0.95727   0.93181   -1.000
 4113.00    0.97108   0.95023   -1.000
 4114.00    0.98758   0.96708   -1.000
 4115.00    1.00371   0.97811   -1.000
 4116.00    1.00268   0.97953   -1.000
 4117.00    0.99413   0.97187   -1.000
 4118.00    0.98418   0.96105   -1.000
 4119.00    0.98171   0.95440   -1.000
 4120.00    0.99734   0.95525   -1.000
 4121.00    0.99122   0.96050   -1.000
 4122.00    0.99105   0.96664   -1.000
 4123.00    0.99365   0.97370   -1.000
 4124.00    1.00048   0.98136   -1.000
 4125.00    1.00735   0.98572   -1.000
 4126.00    1.00825   0.98292   -1.000
 4127.00    0.99578   0.97500   -1.000
 4128.00    0.98126   0.96775   -1.000
 4129.00    0.97602   0.96264   -1.000
 4130.00    0.96920   0.95542   -1.000
 4131.00    0.96826   0.94477   -1.000
 4132.00    0.95485   0.93726   -1.000
 4133.00    0.94686   0.94190  504.840
 4134.00    0.95203   0.95954   -1.000
 4135.00    0.98066   0.98260  462.663
 4136.00    1.02175   1.00379   -1.000
 4137.00    1.03317   1.02037   -1.000
 4138.00    1.03489   1.03205  435.929
 4139.00    1.05043   1.03604   -1.000
 4140.00    1.04604   1.02667   -1.000
 4141.00    1.02578   1.00242   -1.000
 4142.00    0.97979   0.97195   -1.000
 4143.00    0.95701   0.95175  531.560
 4144.00    0.94915   0.95337  508.646
 4145.00    0.97069   0.97308  479.421
 4146.00    1.00244   0.99537  463.867
 4147.00    1.00339   1.00668  461.512
 4148.00    0.99605   1.00666   -1.000
 4149.00    0.98703   1.00303   -1.000
 4150.00    0.97793   1.00134   -1.000
 4151.00    0.99308   1.00076   -1.000
 4152.00    0.99806   0.99751  482.612
 4153.00    0.98557   0.99113   -1.000
 4154.00    0.98355   0.98530  492.893
 4155.00    0.98375   0.98451  481.143
 4156.00    0.98219   0.99051   -1.000
 4157.00    1.05057   1.00144   -1.000
 4158.00    1.12665   1.01397   -1.000
 4159.00    1.01076   1.02447   -1.000
 4160.00    0.92932   1.03139   -1.000
 4161.00    0.99506   1.03549   -1.000
 4162.00    1.04052   1.03869  445.701
 4163.00    1.02733   1.04151   -1.000
 4164.00    1.02729   1.04218   -1.000
 4165.00    1.02772   1.03857   -1.000
 4166.00    1.00932   1.03119   -1.000
 4167.00    0.99476   1.02500   -1.000
 4168.00    0.99818   1.02255   -1.000
 4169.00    1.00662   1.01881   -1.000
 4170.00    0.99512   1.00526   -1.000
 4171.00    0.97019   0.98050   -1.000
 4172.00    0.93307   0.95674   -1.000
 4173.00    0.92843   0.94795   -1.000
 4174.00    0.94279   0.95679   -1.000
 4175.00    0.95202   0.97299   -1.000
 4176.00    0.95734   0.98339   -1.000
 4177.00    0.96244   0.98617   -1.000
 4178.00    0.96196   0.98808   -1.000
 4179.00    0.98047   0.99382   -1.000
 4180.00    0.99229   1.00068   -1.000
 4181.00    0.98519   1.00348   -1.000
 4182.00    0.98289   1.00487   -1.000
 4183.00    0.98967   1.01007   -1.000
 4184.00    1.00569   1.01555   -1.000
 4185.00    1.00441   1.01434   -1.000
 4186.00    0.98538   1.00559   -1.000
 4187.00    0.96279   0.99718   -1.000
 4188.00    0.96720   0.99695   -1.000
 4189.00    0.98890   1.00270   -1.000
 4190.00    0.99408   1.00876   -1.000
 4191.00    0.99837   1.01424   -1.000
 4192.00    1.00705   1.02002   -1.000
 4193.00    1.01371   1.02361   -1.000
 4194.00    1.01191   1.01876   -1.000
 4195.00    1.00227   1.00278  491.354
 4196.00    0.97484   0.98211   -1.000
 4197.00    0.94836   0.96474   -1.000
 4198.00    0.94561   0.95430   -1.000
 4199.00    0.93944   0.95084   -1.000
 4200.00    0.94885   0.95280  499.728
 4201.00    0.95783   0.95706  498.340
 4202.00    0.96919   0.96327  494.294
 4203.00    0.97239   0.97434  486.976
 4204.00    0.97272   0.98927   -1.000
 4205.00    0.98461   1.00388   -1.000
 4206.00    0.99823   1.01654   -1.000
 4207.00    1.00985   1.02626   -1.000
 4208.00    1.01293   1.03060   -1.000
 4209.00    1.01293   1.03054   -1.000
 4210.00    1.01145   1.03080   -1.000
 4211.00    1.01239   1.03389   -1.000
 4212.00    1.00988   1.03536   -1.000
 4213.00    1.00891   1.02665   -1.000
 4214.00    0.99653   1.00863   -1.000
 4215.00    0.96363   0.99357   -1.000
 4216.00    0.96311   0.99316   -1.000
 4217.00    0.99461   1.00949   -1.000
 4218.00    1.02734   1.03177  431.150
 4219.00    1.03841   1.04856   -1.000
 4220.00    1.04447   1.05503   -1.000
 4221.00    1.04221   1.04955   -1.000
 4222.00    1.02500   1.02978   -1.000
 4223.00    0.98798   0.99417   -1.000
 4224.00    0.96701   0.94707   -1.000
 4225.00    0.90030   0.90332  596.045
 4226.00    0.85171   0.88264   -1.000
 4227.00    0.85902   0.89934   -1.000
 4228.00    0.91601   0.94741   -1.000
 4229.00    0.97916   1.00142   -1.000
 4230.00    1.01638   1.03415   -1.000
 4231.00    1.02431   1.03839   -1.000
 4232.00    1.01593   1.02504   -1.000
 4233.00    1.00069   1.00720   -1.000
 4234.00    1.00666   0.99405   -1.000
 4235.00    0.99021   0.98919  472.464
 4236.00    0.97619   0.99006   -1.000
 4237.00    0.96805   0.99505   -1.000
 4238.00    0.98065   1.00475   -1.000
 4239.00    0.99341   1.01738   -1.000
 4240.00    1.00539   1.03061   -1.000
 4241.00    1.01254   1.04222   -1.000
 4242.00    1.02434   1.05079   -1.000
 4243.00    1.02716   1.05634   -1.000
 4244.00    1.03234   1.05748   -1.000
 4245.00    1.03520   1.04953   -1.000
 4246.00    1.00991   1.03056   -1.000
 4247.00    0.98648   1.00766   -1.000
 4248.00    0.97252   0.99038   -1.000
 4249.00    0.96854   0.98359   -1.000
 4250.00    0.95884   0.98716   -1.000
 4251.00    0.97369   0.99765   -1.000
 4252.00    0.99957   1.00670   -1.000
 4253.00    0.99987   1.00901   -1.000
 4254.00    0.98581   1.00909   -1.000
 4255.00    0.98878   1.01429   -1.000
 4256.00    1.01231   1.02354   -1.000
 4257.00    1.02719   1.02472  444.099
 4258.00    1.00578   1.01056  463.365
 4259.00    0.98454   0.99098   -1.000
 4260.00    0.96163   0.98313   -1.000
 4261.00    0.96796   0.99617   -1.000
 4262.00    0.99610   1.02413   -1.000
 4263.00    1.02177   1.05236   -1.000
 4264.00    1.04260   1.06874   -1.000
 4265.00    1.04358   1.07081   -1.000
 4266.00    1.04011   1.06327   -1.000
 4267.00    1.03055   1.04875   -1.000
 4268.00    1.01320   1.02687   -1.000
 4269.00    0.98972   0.99814   -1.000
 4270.00    0.96222   0.96680  504.965
 4271.00    0.92515   0.94243   -1.000
 4272.00    0.91342   0.93319   -1.000
 4273.00    0.92511   0.94043   -1.000
 4274.00    0.93208   0.95974   -1.000
 4275.00    0.95284   0.98658   -1.000
 4276.00    0.98523   1.01658   -1.000
 4277.00    1.01741   1.04028   -1.000
 4278.00    1.02007   1.04727   -1.000
 4279.00    1.00497   1.03831   -1.000
 4280.00    0.98187   1.02435   -1.000
 4281.00    0.98197   1.01687   -1.000
 4282.00    0.99348   1.01690   -1.000
 4283.00    0.98929   1.01741   -1.000
 4284.00    0.98596   1.01393   -1.000
 4285.00    0.97251   1.00571   -1.000
 4286.00    0.95565   0.99312   -1.000
 4287.00    0.94164   0.97566   -1.000
 4288.00    0.91772   0.95363   -1.000
 4289.00    0.89218   0.93419   -1.000
 4290.00    0.89535   0.92962   -1.000
 4291.00    0.91544   0.94314   -1.000
 4292.00    0.94523   0.96318   -1.000
 4293.00    0.96572   0.97382   -1.000
 4294.00    0.96669   0.97120  481.079
 4295.00    0.96082   0.96202  489.693
 4296.00    0.94499   0.94793  503.203
 4297.00    0.91610   0.92524   -1.000
 4298.00    0.87127   0.89540   -1.000
 4299.00    0.83404   0.86637   -1.000
 4300.00    0.82311   0.84776   -1.000
 4301.00    0.82684   0.84335   -1.000
 4302.00    0.83144   0.84980   -1.000
 4303.00    0.84204   0.86112   -1.000
 4304.00    0.85916   0.87099   -1.000
 4305.00    0.86753   0.87195  582.338
 4306.00    0.84883   0.86137   -1.000
 4307.00    0.82559   0.84638   -1.000
 4308.00    0.81257   0.83905   -1.000
 4309.00    0.81911   0.84670   -1.000
 4310.00    0.83468   0.86621   -1.000
 4311.00    0.86293   0.88914   -1.000
 4312.00    0.88497   0.90979   -1.000
 4313.00    0.89852   0.93231   -1.000
 4314.00    0.92928   0.96460   -1.000
 4315.00    0.97979   1.00753   -1.000
 4316.00    1.03406   1.05154   -1.000
 4317.00    1.07155   1.08108   -1.000
 4318.00    1.07222   1.08962   -1.000
 4319.00    1.05439   1.08211   -1.000
 4320.00    1.04457   1.06538   -1.000
 4321.00    1.02222   1.04148   -1.000
 4322.00    0.99395   1.00921   -1.000
 4323.00    0.95832   0.97009   -1.000
 4324.00    0.91256   0.93507   -1.000
 4325.00    0.89084   0.92218   -1.000
 4326.00    0.90929   0.94150   -1.000
 4327.00    0.95902   0.98159   -1.000
 4328.00    1.00777   1.01868   -1.000
 4329.00    1.02435   1.03611   -1.000
 4330.00    1.01245   1.03658   -1.000
 4331.00    1.00019   1.03238   -1.000
 4332.00    1.00375   1.02984   -1.000
 4333.00    1.00757   1.02549   -1.000
 4334.00    1.00065   1.01135   -1.000
 4335.00    0.98344   0.97985  408.592
 4336.00    0.93817   0.92666   -1.000
 4337.00    0.86886   0.85464   -1.000
 4338.00    0.79468   0.77817   -1.000
 4339.00    0.72697   0.72051   -1.000
 4340.00    0.68439   0.70068   -1.000
 4341.00    0.70397   0.72653   -1.000
 4342.00    0.77696   0.78764   -1.000
 4343.00    0.85626   0.85820  444.802
 4344.00    0.90452   0.91636   -1.000
 4345.00    0.93679   0.95832   -1.000
 4346.00    0.96212   0.98986   -1.000
 4347.00    0.97925   1.01493   -1.000
 4348.00    0.99744   1.02940   -1.000
 4349.00    1.01205   1.02506   -1.000
 4350.00    0.99406   1.00264  434.441
 4351.00    0.94912   0.97813   -1.000
 4352.00    0.93963   0.97105   -1.000
 4353.00    0.96590   0.98851   -1.000
 4354.00    1.00033   1.01915   -1.000
 4355.00    1.01815   1.04643   -1.000
 4356.00    1.02903   1.06212   -1.000
 4357.00    1.03392   1.06635   -1.000
 4358.00    1.04785   1.06401   -1.000
 4359.00    1.04124   1.06377   -1.000
 4360.00    1.04128   1.07179   -1.000
 4361.00    1.05441   1.08565   -1.000
 4362.00    1.06420   1.09957   -1.000
 4363.00    1.06874   1.11000   -1.000
 4364.00    1.07914   1.11468   -1.000
 4365.00    1.08089   1.11056   -1.000
 4366.00    1.06016   1.09662   -1.000
 4367.00    1.04140   1.07850   -1.000
 4368.00    1.03430   1.06556   -1.000
 4369.00    1.03658   1.06045   -1.000
 4370.00    1.04503   1.05842   -1.000
 4371.00    1.05328   1.05312  413.337
 4372.00    1.03970   1.04019  419.833
 4373.00    1.01712   1.02048  437.785
 4374.00    0.98326   1.00318   -1.000
 4375.00    0.98948   1.00196   -1.000
 4376.00    1.01794   1.02081  428.027
 4377.00    1.04602   1.04868  408.677
 4378.00    1.05794   1.06846  403.821
 4379.00    1.06062   1.07048  407.552
 4380.00    1.06330   1.05298   -1.000
 4381.00    1.04018   1.01613   -1.000
 4382.00    0.98036   0.96742   -1.000
 4383.00    0.93383   0.92778   -1.000
 4384.00    0.90650   0.91809   -1.000
 4385.00    0.93824   0.94128  480.949
 4386.00    0.98984   0.97935   -1.000
 4387.00    1.01355   1.00897  430.247
 4388.00    1.02947   1.02218   -1.000
 4389.00    1.03204   1.02518   -1.000
 4390.00    1.03712   1.02712   -1.000
 4391.00    1.03771   1.03229   -1.000
 4392.00    1.04708   1.03732   -1.000
 4393.00    1.04986   1.03638   -1.000
 4394.00    1.03484   1.03169  431.697
 4395.00    1.02575   1.03429  426.208
 4396.00    1.05109   1.04795  406.871
 4397.00    1.07561   1.06089   -1.000
 4398.00    1.06908   1.06056   -1.000
 4399.00    1.04947   1.04855  421.734
 4400.00    1.01848   1.03783   -1.000
 4401.00    1.02729   1.03485  424.510
 4402.00    1.04711   1.03230   -1.000
 4403.00    1.03718   1.02233   -1.000
 4404.00    1.01475   1.00904   -1.000
 4405.00    1.00123   1.00434  459.969
 4406.00    1.01167   1.01244  444.941
 4407.00    1.01927   1.02615  439.448
 4408.00    1.01742   1.04081   -1.000
 4409.00    1.02536   1.05965   -1.000
 4410.00    1.05793   1.08273   -1.000
 4411.00    1.08732   1.10009   -1.000
 4412.00    1.09961   1.10025  385.020
 4413.00    1.08737   1.08147   -1.000
 4414.00    1.06238   1.05316   -1.000
 4415.00    1.03377   1.03122  432.344
 4416.00    1.02715   1.02926  426.619
 4417.00    1.03861   1.04719  410.481
 4418.00    1.05970   1.07397   -1.000
 4419.00    1.08572   1.09599  385.687
 4420.00    1.09680   1.10419  390.067
 4421.00    1.08645   1.09891   -1.000
 4422.00    1.07088   1.09022   -1.000
 4423.00    1.06386   1.08675   -1.000
 4424.00    1.05394   1.08762   -1.000
 4425.00    1.05610   1.08853   -1.000
 4426.00    1.05922   1.08887   -1.000
 4427.00    1.04908   1.09052   -1.000
 4428.00    1.04709   1.09324   -1.000
 4429.00    1.05516   1.09513   -1.000
 4430.00    1.05559   1.09601   -1.000
 4431.00    1.06043   1.09623   -1.000
 4432.00    1.07375   1.09214   -1.000
 4433.00    1.06234   1.07999   -1.000
 4434.00    1.03945   1.06512   -1.000
 4435.00    1.02545   1.06114   -1.000
 4436.00    1.03901   1.07751   -1.000
 4437.00    1.07989   1.10761   -1.000
 4438.00    1.10603   1.13281   -1.000
 4439.00    1.11685   1.13837   -1.000
 4440.00    1.10425   1.12215   -1.000
 4441.00    1.07169   1.09496   -1.000
 4442.00    1.04512   1.07280   -1.000
 4443.00    1.03067   1.06860   -1.000
 4444.00    1.04733   1.08413   -1.000
 4445.00    1.08090   1.10928   -1.000
 4446.00    1.09464   1.12949   -1.000
 4447.00    1.10156   1.13801   -1.000
 4448.00    1.10889   1.13863   -1.000
 4449.00    1.10556   1.13639   -1.000
 4450.00    1.09953   1.13312   -1.000
 4451.00    1.09746   1.12871   -1.000
 4452.00    1.09817   1.12027   -1.000
 4453.00    1.08446   1.10404   -1.000
 4454.00    1.05625   1.08294   -1.000
 4455.00    1.03638   1.06837   -1.000
 4456.00    1.04225   1.06752   -1.000
 4457.00    1.05830   1.07490   -1.000
 4458.00    1.06795   1.08058  420.565
 4459.00    1.05889   1.08086   -1.000
 4460.00    1.05460   1.07895   -1.000
 4461.00    1.05738   1.08057   -1.000
 4462.00    1.07103   1.08957   -1.000
 4463.00    1.08813   1.10334   -1.000
 4464.00    1.09177   1.11470   -1.000
 4465.00    1.09702   1.11826   -1.000
 4466.00    1.10082   1.11346   -1.000
 4467.00    1.09011   1.10359   -1.000
 4468.00    1.07670   1.09460   -1.000
 4469.00    1.07314   1.09317   -1.000
 4470.00    1.06463   1.10338   -1.000
 4471.00    1.08408   1.12323   -1.000
 4472.00    1.11685   1.14528   37.564
 4473.00    1.14655   1.16277   36.682
 4474.00    1.15057   1.17299   36.476
 4475.00    1.15277   1.17840   36.498
 4476.00    1.15279   1.18255   36.171
 4477.00    1.16011   1.18269   36.060
 4478.00    1.15275   1.17087   36.588
 4479.00    1.14502   1.14442   38.066
 4480.00    1.11229   1.11430   39.709
 4481.00    1.08765   1.09824   40.516
 4482.00    1.08769   1.10637   39.746
 4483.00    1.10030   1.13421   38.026
 4484.00    1.12913   1.16617   36.711
 4485.00    1.15426   1.18707   36.105
 4486.00    1.15864   1.18981   36.338
 4487.00    1.15142   1.17598   37.311
 4488.00    1.13028   1.15476   38.688
 4489.00    1.11136   1.13984   39.313
 4490.00    1.11639   1.13992   38.700
 4491.00    1.13162   1.15101   37.700
 4492.00    1.13778   1.15946   37.325
 4493.00    1.14580   1.15609   38.055
 4494.00    1.13277   1.14600   39.203
 4495.00    1.10597   1.14076   39.803
 4496.00    1.10465   1.14596   39.128
 4497.00    1.12691   1.15761   37.768
 4498.00    1.14869   1.16688   36.838
 4499.00    1.14928   1.16755   36.643
 4500.00    1.13351   1.16213   37.084
 4501.00    1.11769   1.16095   37.063
 4502.00    1.13841   1.17117   35.981
 4503.00    1.16699   1.18976   34.830
 4504.00    1.18842   1.20669   34.397
 4505.00    1.19249   1.21354   34.759
 4506.00    1.18291   1.20977   35.439
 4507.00    1.17789   1.20152   35.707
 4508.00    1.17086   1.19636   35.665
 4509.00    1.17601   1.19725   35.378
 4510.00    1.18673   1.20037   35.228
 4511.00    1.19050   1.19943   35.629
 4512.00    1.17568   1.19244   36.349
 4513.00    1.16347   1.18267   36.920
 4514.00    1.15958   1.17415   37.053
 4515.00    1.15011   1.16901   36.874
 4516.00    1.14639   1.16664   36.940
 4517.00    1.14549   1.16501   37.380
 4518.00    1.14321   1.16407   37.432
 4519.00    1.14574   1.16564   36.729
 4520.00    1.15816   1.16888   36.144
 4521.00    1.16116   1.16913   36.430
 4522.00    1.15073   1.16318   37.319
 4523.00    1.13291   1.15376   37.992
 4524.00    1.12069   1.14512   38.346
 4525.00    1.12140   1.13622   39.102
 4526.00    1.10729   1.12364   40.320
 4527.00    1.09376   1.10803   41.339
 4528.00    1.07877   1.09519   41.657
 4529.00    1.08189   1.09159   41.235
 4530.00    1.09329   1.09753   40.481
 4531.00    1.10408   1.10581   39.835
 4532.00    1.10345   1.10666   39.893
 4533.00    1.08773   1.09770   41.133
 4534.00    1.07437   1.08863   42.205
 4535.00    1.07244   1.09325   41.205
 4536.00    1.09999   1.11610   38.745
 4537.00    1.14191   1.14727   36.676
 4538.00    1.17198   1.17110   35.985
 4539.00    1.17248   1.17900   36.495
 4540.00    1.16401   1.17491   37.247
 4541.00    1.16226   1.16893   37.115
 4542.00    1.15928   1.16699   36.856
 4543.00    1.15612   1.16742   38.802
 4544.00    1.14549   1.16559   -2.000
 4545.00    1.13638   1.16084   -2.000
 4546.00    0.82689   1.15508   -2.000
 4547.00    0.04425   1.14647   -1.000
 4548.00   -0.01675   1.13276    0.000
 4549.00    0.26630   1.11975   -1.000
 4550.00    0.75369   1.11775   -1.000
 4551.00    0.34153   1.12746   -1.000
 4552.00    1.02415   1.13627   -1.000
 4553.00    1.13519   1.13449   39.234
 4554.00    1.10098   1.12744   39.414
 4555.00    1.10305   1.12758   38.618
 4556.00    1.12275   1.14130   37.137
 4557.00    1.15045   1.16336   35.782
 4558.00    1.17995   1.18304   35.340
 4559.00    1.17945   1.19530   35.541
 4560.00    1.18158   1.20105   35.512
 4561.00    1.18046   1.19986   35.669
 4562.00    1.16992   1.19000   36.556
 4563.00    1.15307   1.17473   37.423
 4564.00    1.13886   1.16325   37.862
 4565.00    1.14091   1.16328   37.294
 4566.00    1.15899   1.17444   36.312
 4567.00    1.18375   1.18920   35.454
 4568.00    1.19601   1.19810   35.258
 4569.00    1.18411   1.19556   35.772
 4570.00    1.16658   1.18320   36.716
 4571.00    1.14481   1.16934   37.468
 4572.00    1.13701   1.16489   36.977
 4573.00    1.16154   1.17401   35.920
 4574.00    1.18198   1.18820   35.531
 4575.00    1.18105   1.19621   35.603
 4576.00    1.17720   1.19554   35.782
 4577.00    1.18063   1.18912   36.062
 4578.00    1.17086   1.17805   36.783
 4579.00    1.14502   1.16303   37.855
 4580.00    1.13354   1.14821   38.462
 4581.00    1.13927   1.13864   38.233
 4582.00    1.13786   1.13517   37.717
 4583.00    1.13399   1.13539   37.520
 4584.00    1.14034   1.13827   37.673
 4585.00    1.14487   1.14414   37.783
 4586.00    1.15409   1.15330   37.137
 4587.00    1.16567   1.16514   36.171
 4588.00    1.17241   1.17629   35.537
 4589.00    1.17663   1.18243   35.619
 4590.00    1.16926   1.18206   36.196
 4591.00    1.16033   1.17656   36.872
 4592.00    1.15629   1.16934   37.410
 4593.00    1.15480   1.16501   37.352
 4594.00    1.15833   1.16541   37.021
 4595.00    1.16322   1.16867   36.765
 4596.00    1.16706   1.17313   36.681
 4597.00    1.17176   1.17728   36.603
 4598.00    1.18010   1.17894   36.591
 4599.00    1.18251   1.17739   36.936
 4600.00    1.16774   1.17395   37.228
 4601.00    1.16205   1.17097   37.232
 4602.00    1.15640   1.17031   36.808
 4603.00    1.16774   1.17194   36.477
 4604.00    1.17387   1.17479   36.540
 4605.00    1.18382   1.17885   36.412
 4606.00    1.18802   1.18571   35.941
 4607.00    1.19582   1.19627   35.203
 4608.00    1.20773   1.20808   34.506
 4609.00    1.21510   1.21653   34.214
 4610.00    1.20774   1.21787   34.451
 4611.00    1.20715   1.21265   34.927
 4612.00    1.19684   1.20571   35.281
 4613.00    1.19367   1.20171   35.430
 4614.00    1.19600   1.20194   35.210
 4615.00    1.19694   1.20397   34.920
 4616.00    1.19550   1.20455   34.854
 4617.00    1.19420   1.20298   35.112
 4618.00    1.19043   1.20056   35.322
 4619.00    1.18357   1.19975   35.219
 4620.00    1.20181   1.20300   34.827
 4621.00    1.20455   1.20980   34.357
 4622.00    1.21910   1.21597   34.391
 4623.00    1.21715   1.21787   34.479
 4624.00    1.20893   1.21577   34.590
 4625.00    1.19811   1.21253   34.881
 4626.00    1.20135   1.21016   34.935
 4627.00    1.20149   1.20864   34.955
 4628.00    1.20045   1.20723   35.168
 4629.00    1.19226   1.20672   35.190
 4630.00    1.19144   1.20882   34.959
 4631.00    1.19800   1.21233   34.642
 4632.00    1.19789   1.21320   34.888
 4633.00    1.18949   1.20960   35.396
 4634.00    1.19366   1.20406   35.704
 4635.00    1.19226   1.19988   35.707
 4636.00    1.19432   1.19691   36.048
 4637.00    1.17729   1.19376   36.478
 4638.00    1.17294   1.19138   36.574
 4639.00    1.18182   1.19248   36.410
 4640.00    1.19531   1.19894   35.713
 4641.00    1.20941   1.20873   34.892
 4642.00    1.21684   1.21641   34.543
 4643.00    1.22143   1.21708   34.804
 4644.00    1.20099   1.20923   35.539
 4645.00    1.18627   1.19485   36.558
 4646.00    1.17307   1.17870   37.418
 4647.00    1.16839   1.16859   37.384
 4648.00    1.17970   1.17023   36.642
 4649.00    1.18148   1.18189   35.838
 4650.00    1.19504   1.19680   35.441
 4651.00    1.19934   1.20803   35.399
 4652.00    1.18806   1.21134   35.411
 4653.00    1.19415   1.20643   35.931
 4654.00    1.19059   1.19708   36.715
 4655.00    1.17497   1.18995   36.981
 4656.00    1.17368   1.19086   36.469
 4657.00    1.18801   1.20219   35.220
 4658.00    1.21156   1.22127   33.958
 4659.00    1.23048   1.23971   33.353
 4660.00    1.23632   1.24818   33.435
 4661.00    1.22754   1.24397   33.947
 4662.00    1.21257   1.23188   34.776
 4663.00    1.20645   1.21799   35.344
 4664.00    1.20699   1.20379   35.483
 4665.00    1.20289   1.18635   36.259
 4666.00    1.18173   1.16512   37.869
 4667.00    1.15520   1.14688   39.169
 4668.00    1.14907   1.14180   38.899
 4669.00    1.14989   1.15311   37.562
 4670.00    1.17802   1.17318   36.068
 4671.00    1.20053   1.19149   35.257
 4672.00    1.21028   1.20234   35.128
 4673.00    1.20712   1.20724   35.155
 4674.00    1.21137   1.21175   35.038
 4675.00    1.20958   1.21815   34.546
 4676.00    1.22497   1.22261   34.146
 4677.00    1.22391   1.21950   34.456
 4678.00    1.21539   1.20848   35.226
 4679.00    1.19219   1.19485   35.898
 4680.00    1.17901   1.18392   36.442
 4681.00    1.18378   1.17933   36.635
 4682.00    1.18587   1.18244   36.050
 4683.00    1.19695   1.19069   35.194
 4684.00    1.21749   1.19902   34.860
 4685.00    1.22730   1.20381   34.990
 4686.00    1.22538   1.20481   35.031
 4687.00    1.21591   1.20396   35.206
 4688.00    1.21757   1.20310   35.197
 4689.00    1.21520   1.20250   35.246
 4690.00    1.21023   1.20140   35.482
 4691.00    1.20816   1.20035   35.456
 4692.00    1.21810   1.20173   34.989
 4693.00    1.23088   1.20662   34.415
 4694.00    1.24683   1.21298   33.692
 4695.00    1.24224   1.21761   33.387
 4696.00    1.24278   1.21708   33.725
 4697.00    1.23499   1.20894   34.753
 4698.00    1.21555   1.19557   35.691
 4699.00    1.20632   1.18303   35.944
 4700.00    1.20309   1.17426   35.718
 4701.00    1.19881   1.16729   36.083
 4702.00    1.18800   1.16143   36.662
 4703.00    1.18577   1.16011   36.665
 4704.00    1.19492   1.16539   35.951
 4705.00    1.19725   1.17299   35.614
 4706.00    1.19408   1.17574   36.207
 4707.00    1.18290   1.17167   36.879
 4708.00    1.17911   1.16632   37.114
 4709.00    1.18190   1.16721   36.724
 4710.00    1.19334   1.17625   35.609
 4711.00    1.22110   1.18800   34.751
 4712.00    1.22876   1.19470   34.560
 4713.00    1.21595   1.19338   34.985
 4714.00    1.21166   1.18948   35.547
 4715.00    1.21516   1.19136   35.382
 4716.00    1.21746   1.20158   34.647
 4717.00    1.22898   1.21564   34.064
 4718.00    1.23916   1.22760   33.894
 4719.00    1.24031   1.23490   33.778
 4720.00    1.23760   1.23742   33.735
 4721.00    1.22745   1.23609   34.037
 4722.00    1.22607   1.23360   34.195
 4723.00    1.22477   1.23362   33.940
 4724.00    1.22057   1.23592   33.639
 4725.00    1.23221   1.23481   33.850
 4726.00    1.22996   1.22529   34.799
 4727.00    1.21281   1.20843   36.057
 4728.00    1.19540   1.19119   36.662
 4729.00    1.18413   1.18098   36.434
 4730.00    1.19036   1.17944   36.066
 4731.00    1.19990   1.18418   35.759
 4732.00    1.20615   1.19290   35.341
 4733.00    1.20835   1.20244   35.061
 4734.00    1.21119   1.20860   34.867
 4735.00    1.21718   1.20936   34.776
 4736.00    1.21181   1.20698   35.122
 4737.00    1.20657   1.20611   35.056
 4738.00    1.22132   1.20907   34.660
 4739.00    1.22736   1.21356   34.735
 4740.00    1.21593   1.21627   34.919
 4741.00    1.20990   1.21764   34.896
 4742.00    1.21801   1.22021   34.580
 4743.00    1.22747   1.22428   34.279
 4744.00    1.23427   1.22849   34.365
 4745.00    1.23712   1.23274   34.340
 4746.00    1.24063   1.23780   34.051
 4747.00    1.23111   1.24392   33.751
 4748.00    1.23345   1.24990   33.717
 4749.00    1.23424   1.25406   33.769
 4750.00    1.23715   1.25611   33.830
 4751.00    1.24737   1.25578   34.115
 4752.00    1.23603   1.25192   34.492
 4753.00    1.22841   1.24491   34.766
 4754.00    1.22125   1.23756   34.947
 4755.00    1.21315   1.23288   34.905
 4756.00    1.21259   1.23256   35.075
 4757.00    1.21733   1.23617   35.302
 4758.00    1.21823   1.24148   35.268
 4759.00    1.22316   1.24556   34.999
 4760.00    1.21332   1.24488   35.058
 4761.00    1.19965   1.23671   35.699
 4762.00    1.19090   1.22263   36.535
 4763.00    1.18878   1.20851   36.906
 4764.00    1.18764   1.19977   36.916
 4765.00    1.18489   1.19783   36.799
 4766.00    1.19645   1.20217   36.484
 4767.00    1.20740   1.21252   35.906
 4768.00    1.21472   1.22766   35.131
 4769.00    1.22268   1.24317   34.760
 4770.00    1.23223   1.25256   34.889
 4771.00    1.22674   1.25329   35.199
 4772.00    1.21369   1.25041   35.379
 4773.00    1.22327   1.25161   34.868
 4774.00    1.23817   1.25911   34.196
 4775.00    1.24223   1.26798   34.037
 4776.00    1.24301   1.27311   34.089
 4777.00    1.24271   1.27400   34.216
 4778.00    1.23585   1.27133   34.475
 4779.00    1.22195   1.26568   34.839
 4780.00    1.21565   1.25963   35.013
 4781.00    1.21295   1.25578   35.111
 4782.00    1.21743   1.25342   35.308
 4783.00    1.21938   1.25041   35.544
 4784.00    1.21451   1.24661   35.538
 4785.00    1.21413   1.24221   35.709
 4786.00    1.21841   1.23689   36.050
 4787.00    1.20396   1.23233   36.205
 4788.00    1.20271   1.23088   36.130
 4789.00    1.20505   1.23246   35.937
 4790.00    1.21072   1.23680   35.685
 4791.00    1.21499   1.24514   35.265
 4792.00    1.22636   1.25780   34.636
 4793.00    1.24450   1.27294   33.886
 4794.00    1.25657   1.28694   33.397
 4795.00    1.26671   1.29497   33.381
 4796.00    1.26589   1.29386   33.802
 4797.00    1.24354   1.28404   34.494
 4798.00    1.24351   1.26991   35.095
 4799.00    1.22588   1.25930   35.366
 4800.00    1.23344   1.25870   34.945
 4801.00    1.24293   1.26760   34.255
 4802.00    1.24948   1.27871   33.873
 4803.00    1.24800   1.28273   34.023
 4804.00    1.24344   1.27618   34.496
 4805.00    1.23073   1.26509   34.913
 4806.00    1.22379   1.25720   35.164
 4807.00    1.23309   1.25525   35.125
 4808.00    1.23607   1.25788   35.020
 4809.00    1.23263   1.26250   34.829
 4810.00    1.24190   1.26701   34.517
 4811.00    1.24116   1.27042   34.287
 4812.00    1.23601   1.27307   34.141
 4813.00    1.24240   1.27605   34.105
 4814.00    1.24381   1.28005   34.011
 4815.00    1.25002   1.28495   33.870
 4816.00    1.25517   1.29057   33.652
 4817.00    1.25713   1.29621   33.457
 4818.00    1.26795   1.30015   33.348
 4819.00    1.26999   1.30119   33.344
 4820.00    1.25992   1.29881   33.399
 4821.00    1.25234   1.29112   33.816
 4822.00    1.24412   1.27695   34.697
 4823.00    1.23059   1.26039   35.211
 4824.00    1.22926   1.24970   35.006
 4825.00    1.23276   1.25007   34.375
 4826.00    1.24511   1.25807   33.971
 4827.00    1.24292   1.26511   34.193
 4828.00    1.23777   1.26613   34.575
 4829.00    1.23670   1.26249   34.739
 4830.00    1.23591   1.25739   34.780
 4831.00    1.22768   1.25236   35.072
 4832.00    1.22964   1.24906   35.002
 4833.00    1.23387   1.24981   34.429
 4834.00    1.24977   1.25448   34.038
 4835.00    1.25250   1.25965   33.961
 4836.00    1.23605   1.26192   34.045
 4837.00    1.24309   1.26062   34.268
 4838.00    1.23632   1.25620   34.779
 4839.00    1.22579   1.24932   35.300
 4840.00    1.21231   1.24275   35.274
 4841.00    1.22008   1.23934   35.177
 4842.00    1.22089   1.23877   34.979
 4843.00    1.22642   1.23963   34.697
 4844.00    1.23434   1.24242   34.309
 4845.00    1.23916   1.24717   33.827
 4846.00    1.23319   1.24998   33.826
 4847.00    1.22174   1.24602   34.522
 4848.00    1.21933   1.23668   34.933
 4849.00    1.21686   1.22918   34.815
 4850.00    1.21799   1.22722   34.380
 4851.00    1.21802   1.22709   34.369
 4852.00    1.21068   1.22273   34.595
 4853.00    1.19023   1.20948   35.028
 4854.00    1.16325   1.18650   36.104
 4855.00    1.13978   1.15953   36.922
 4856.00    1.12762   1.13655   36.736
 4857.00    1.12667   1.11596   36.599
 4858.00    1.09608   1.08277   38.040
 4859.00    1.00986   1.02124   41.641
 4860.00    0.90866   0.93844   46.115
 4861.00    0.83888   0.87242   47.229
 4862.00    0.85951   0.86263   43.887
 4863.00    0.95388   0.91343   40.185
 4864.00    1.03541   0.99137   38.039
 4865.00    1.08732   1.06085   36.829
 4866.00    1.12337   1.11022   36.152
 4867.00    1.15145   1.14318   35.871
 4868.00    1.16529   1.16335   35.809
 4869.00    1.16349   1.16986   36.266
 4870.00    1.15652   1.16246   37.299
 4871.00    1.13738   1.14881   37.980
 4872.00    1.13535   1.14334   37.463
 4873.00    1.15424   1.15473   36.441
 4874.00    1.17158   1.17659   35.890
 4875.00    1.18275   1.19609   35.640
 4876.00    1.18712   1.20790   35.462
 4877.00    1.18402   1.21599   35.272
 4878.00    1.18617   1.22613   34.767
 4879.00    1.20441   1.23879   34.526
 4880.00    1.21248   1.24874   34.909
 4881.00    1.20146   1.25053   35.431
 4882.00    1.20295   1.24487   35.566
 4883.00    1.20311   1.23757   35.490
 4884.00    1.19587   1.23151   35.760
 4885.00    1.18870   1.22600   36.263
 4886.00    1.19728   1.22174   36.371
 4887.00    1.20265   1.21980   36.188
 4888.00    1.19248   1.21731   36.251
 4889.00    1.19786   1.20955   36.861
 4890.00    1.17735   1.19741   37.496
 4891.00    1.17360   1.19146   36.969
 4892.00    1.19517   1.20419   35.395
 4893.00    1.22982   1.23543   33.849
 4894.00    1.26663   1.27160   32.938
 4895.00    1.27455   1.29934   32.416
 4896.00    1.29316   1.31372   32.317
 4897.00    1.28191   1.31637   32.509
 4898.00    1.27072   1.31070   33.252
 4899.00    1.25573   1.30011   33.968
 4900.00    1.24913   1.28911   34.228
 4901.00    1.25232   1.28144   34.081
 4902.00    1.25320   1.27668   34.206
 4903.00    1.24084   1.27367   34.496
 4904.00    1.24079   1.27559   34.025
 4905.00    1.25640   1.28524   33.366
 4906.00    1.26845   1.29663   33.226
 4907.00    1.26880   1.29915   33.643
 4908.00    1.25551   1.28929   34.506
 4909.00    1.24138   1.27213   35.413
 4910.00    1.22900   1.25611   35.674
 4911.00    1.23424   1.24904   35.141
 4912.00    1.24274   1.25372   34.526
 4913.00    1.25056   1.26634   34.062
 4914.00    1.25851   1.28032   33.645
 4915.00    1.26823   1.28976   33.435
 4916.00    1.27108   1.28804   33.791
 4917.00    1.24464   1.26897   35.132
 4918.00    1.21195   1.23358   37.047
 4919.00    1.17822   1.19387   38.566
 4920.00    1.16202   1.16680   38.647
 4921.00    1.17679   1.16304   37.309
 4922.00    1.20440   1.17763   36.096
 4923.00    1.21403   1.19570   35.676
 4924.00    1.21111   1.20968   35.579
 4925.00    1.22274   1.22444   35.022
 4926.00    1.24453   1.24473   34.142
 4927.00    1.26063   1.26700   33.595
 4928.00    1.27546   1.28577   33.303
 4929.00    1.28124   1.29914   33.082
 4930.00    1.28597   1.30557   32.979
 4931.00    1.28430   1.30174   33.426
 4932.00    1.25975   1.28612   34.414
 4933.00    1.22887   1.26411   35.468
 4934.00    1.22522   1.24758   35.385
 4935.00    1.23880   1.24344   34.838
 4936.00    1.24134   1.24411   35.023
 4937.00    1.22333   1.23796   36.082
 4938.00    1.20731   1.22585   36.836
 4939.00    1.20646   1.22078   36.299
 4940.00    1.22329   1.23262   35.045
 4941.00    1.25517   1.25810   34.011
 4942.00    1.27249   1.28482   33.454
 4943.00    1.28236   1.30203   33.218
 4944.00    1.28299   1.30736   33.291
 4945.00    1.27621   1.30496   33.506
 4946.00    1.26712   1.30161   33.503
 4947.00    1.26743   1.30272   33.172
 4948.00    1.28025   1.30885   32.829
 4949.00    1.28593   1.31599   32.731
 4950.00    1.28987   1.31977   32.648
 4951.00    1.28937   1.31915   32.838
 4952.00    1.28450   1.31549   33.095
 4953.00    1.28525   1.31001   33.489
 4954.00    1.27444   1.30035   33.995
 4955.00    1.25928   1.28013   35.072
 4956.00    1.23015   1.24678   36.848
 4957.00    1.18917   1.21297   37.908
 4958.00    1.18945   1.20184   36.809
 4959.00    1.22749   1.22251   34.816
 4960.00    1.25617   1.25980   33.810
 4961.00    1.27419   1.29170   33.651
 4962.00    1.28042   1.30729   33.840
 4963.00    1.27317   1.30805   34.138
 4964.00    1.26598   1.29913   34.606
 4965.00    1.25710   1.28527   35.301
 4966.00    1.25283   1.27228   35.669
 4967.00    1.24942   1.26507   35.644
 4968.00    1.24513   1.26370   35.507
 4969.00    1.24239   1.26639   35.218
 4970.00    1.24880   1.27305   34.837
 4971.00    1.25477   1.28306   34.455
 4972.00    1.27100   1.29400   34.058
 4973.00    1.27547   1.30305   33.772
 4974.00    1.27954   1.30780   33.708
 4975.00    1.27649   1.30732   33.976
 4976.00    1.26955   1.30185   34.357
 4977.00    1.27156   1.29227   34.845
 4978.00    1.26409   1.28128   35.392
 4979.00    1.24809   1.27070   35.837
 4980.00    1.22539   1.25744   36.469
 4981.00    1.20762   1.23751   37.691
 4982.00    1.19007   1.21321   38.690
 4983.00    1.17796   1.19458   38.521
 4984.00    1.19071   1.19181   37.709
 4985.00    1.21231   1.20607   36.613
 4986.00    1.23118   1.23052   35.494
 4987.00    1.24878   1.25579   34.788
 4988.00    1.25624   1.27247   34.930
 4989.00    1.25078   1.27522   35.432
 4990.00    1.23993   1.26808   35.728
 4991.00    1.24150   1.26066   35.672
 4992.00    1.24249   1.25930   35.375
 4993.00    1.24308   1.26349   35.255
 4994.00    1.24922   1.26994   35.211
 4995.00    1.25560   1.27701   35.026
 4996.00    1.26460   1.28251   34.923
 4997.00    1.26617   1.28187   35.193
 4998.00    1.25740   1.27135   35.717
 4999.00    1.23175   1.25239   36.397
 5000.00    1.22221   1.23382   36.767
 5001.00    1.23145   1.22515   36.711
 5002.00    1.23747   1.22597   36.372
 5003.00    1.23077   1.22798   36.275
 5004.00    1.22515   1.22360   36.891
 5005.00    1.21264   1.21225   37.712
 5006.00    1.20215   1.20251   37.688
 5007.00    1.21754   1.20540   36.692
 5008.00    1.24302   1.22196   35.702
 5009.00    1.25696   1.24030   35.495
 5010.00    1.25306   1.24683   36.093
 5011.00    1.23478   1.23691   37.247
 5012.00    1.20837   1.21659   38.560
 5013.00    1.19162   1.19714   39.243
 5014.00    1.18339   1.18794   38.896
 5015.00    1.19966   1.19059   38.025
 5016.00    1.21385   1.19764   37.348
 5017.00    1.21968   1.20055   37.238
 5018.00    1.21931   1.19960   37.169
 5019.00    1.22215   1.20282   36.756
 5020.00    1.22985   1.21324   36.545
 5021.00    1.23853   1.22473   36.704
 5022.00    1.24158   1.23286   36.729
 5023.00    1.24458   1.24023   36.477
 5024.00    1.24767   1.24954   36.112
 5025.00    1.24749   1.25775   35.950
 5026.00    1.25090   1.26024   36.134
 5027.00    1.24497   1.25811   36.212
 5028.00    1.24852   1.25752   35.800
 5029.00    1.26472   1.26220   35.146
 5030.00    1.27511   1.27099   34.636
 5031.00    1.28001   1.28164   34.101
 5032.00    1.28529   1.29171   33.796
 5033.00    1.28222   1.29634   34.052
 5034.00    1.26462   1.29043   35.226
 5035.00    1.24658   1.27498   36.487
 5036.00    1.22988   1.25823   36.980
 5037.00    1.22422   1.24642   37.158
 5038.00    1.22014   1.23504   37.811
 5039.00    1.19540   1.21582   39.343
 5040.00    1.16964   1.19056   40.654
 5041.00    1.15741   1.17445   40.240
 5042.00    1.18843   1.18266   38.132
 5043.00    1.22873   1.21423   35.911
 5044.00    1.25915   1.25396   34.603
 5045.00    1.28629   1.28636   33.777
 5046.00    1.30575   1.30311   32.891
 5047.00    1.23017   1.30192   23.136
 5048.00    0.52585   1.28580   -1.000
 5049.00   -0.00284   1.26349    0.000
 5050.00    0.05879   1.24538   -1.000
 5051.00    0.53106   1.23800   -1.000
 5052.00    1.14402   1.24364   35.471
 5053.00    1.28063   1.26053   34.619
 5054.00    1.29730   1.28158   34.053
 5055.00    1.30806   1.29814   33.778
 5056.00    1.30496   1.30705   33.707
 5057.00    1.29936   1.31104   33.775
 5058.00    1.30072   1.31393   33.823
 5059.00    1.30273   1.31772   33.766
 5060.00    1.30666   1.32247   33.576
 5061.00    1.30802   1.32570   33.684
 5062.00    1.30773   1.32237   34.251
 5063.00    1.29022   1.30868   35.312
 5064.00    1.26100   1.28757   36.422
 5065.00    1.24938   1.26879   36.649
 5066.00    1.25371   1.26016   36.155
 5067.00    1.26246   1.26042   35.686
 5068.00    1.26169   1.26410   35.575
 5069.00    1.26765   1.26857   35.391
 5070.00    1.27927   1.27271   35.254
 5071.00    1.27912   1.27400   35.556
 5072.00    1.26401   1.27152   35.699
 5073.00    1.27203   1.26854   35.266
 5074.00    1.28234   1.26843   35.039
 5075.00    1.27784   1.27072   35.003
 5076.00    1.28163   1.27166   35.046
 5077.00    1.27566   1.26593   35.564
 5078.00    1.25084   1.24991   36.924
 5079.00    1.21580   1.22795   38.455
 5080.00    1.20295   1.21266   38.610
 5081.00    1.21977   1.21241   37.752
 5082.00    1.22917   1.22281   37.003
 5083.00    1.23880   1.23622   36.476
 5084.00    1.25642   1.25063   35.791
 5085.00    1.28064   1.26559   35.249
 5086.00    1.29254   1.27788   35.048
 5087.00    1.29056   1.28505   34.982
 5088.00    1.29053   1.28879   34.786
 5089.00    1.29599   1.29254   34.542
 5090.00    1.29772   1.29770   34.356
 5091.00    1.29892   1.30388   34.136
 5092.00    1.30873   1.31065   33.751
 5093.00    1.31111   1.31639   33.567
 5094.00    1.30975   1.31723   33.971
 5095.00    1.32579   1.30931   34.701
 5096.00    1.31194   1.29221   35.470
 5097.00    1.27189   1.27027   36.313
 5098.00    1.25417   1.25096   36.947
 5099.00    1.24255   1.24258   36.840
 5100.00    1.25260   1.24956   35.867
 5101.00    1.27709   1.26698   34.960
 5102.00    1.29213   1.28355   34.777
 5103.00    1.29825   1.29120   35.049
 5104.00    1.28900   1.28955   35.518
 5105.00    1.27974   1.28152   35.964
 5106.00    1.26668   1.26930   36.406
 5107.00    1.25440   1.25618   36.765
 5108.00    1.24458   1.24691   36.655
 5109.00    1.24763   1.24452   36.408
 5110.00    1.25039   1.24980   36.094
 5111.00    1.25905   1.26213   35.580
 5112.00    1.27379   1.27826   35.147
 5113.00    1.29154   1.29291   34.740
 5114.00    1.30279   1.30299   34.456
 5115.00    1.29987   1.30963   34.241
 5116.00    1.31376   1.31549   33.886
 5117.00    1.31643   1.32102   33.680
 5118.00    1.31965   1.32365   33.860
 5119.00    1.31339   1.32045   34.330
 5120.00    1.30205   1.31073   34.860
 5121.00    1.29090   1.29575   35.499
 5122.00    1.26751   1.27749   36.459
 5123.00    1.25191   1.25942   37.404
 5124.00    1.24256   1.24670   37.515
 5125.00    1.23781   1.24225   37.188
 5126.00    1.25399   1.24332   37.005
 5127.00    1.25783   1.24488   36.835
 5128.00    1.24983   1.24531   36.882
 5129.00    1.24690   1.24701   36.757
 5130.00    1.25726   1.25281   36.230
 5131.00    1.27162   1.26236   35.669
 5132.00    1.28181   1.27254   35.382
 5133.00    1.28917   1.28114   35.048
 5134.00    1.28989   1.28759   34.782
 5135.00    1.29551   1.29038   34.839
 5136.00    1.29283   1.28613   35.540
 5137.00    1.27287   1.27335   36.359
 5138.00    1.25154   1.25716   36.824
 5139.00    1.23937   1.24634   36.778
 5140.00    1.24361   1.24430   36.549
 5141.00    1.24520   1.24649   36.909
 5142.00    1.23610   1.24804   37.366
 5143.00    1.23966   1.25026   37.032
 5144.00    1.25417   1.25569   36.488
 5145.00    1.26470   1.26084   36.473
 5146.00    1.26432   1.26122   36.786
 5147.00    1.26359   1.25895   36.758
 5148.00    1.26762   1.25847   36.331
 5149.00    1.26340   1.25915   36.265
 5150.00    1.25656   1.25671   36.784
 5151.00    1.24404   1.25013   37.384
 5152.00    1.24036   1.24392   37.525
 5153.00    1.25134   1.24283   37.212
 5154.00    1.26261   1.24860   36.431
 5155.00    1.27771   1.26123   35.495
 5156.00    1.30035   1.27861   34.639
 5157.00    1.31403   1.29577   34.078
 5158.00    1.31888   1.30785   33.891
 5159.00    1.32409   1.31306   33.919
 5160.00    1.31721   1.31191   34.054
 5161.00    1.31013   1.30557   34.290
 5162.00    1.30989   1.29514   34.714
 5163.00    1.29906   1.27933   35.410
 5164.00    1.27593   1.25175   37.093
 5165.00    1.23291   1.20543   40.394
 5166.00    1.16335   1.14422   44.391
 5167.00    1.09594   1.08982   46.529
 5168.00    1.08390   1.06755   45.061
 5169.00    1.12516   1.07998   42.786
 5170.00    1.16237   1.10058   -1.000
 5171.00    1.13912   1.10073   45.886
 5172.00    1.08708   1.08512   48.006
 5173.00    1.09420   1.08631   45.114
 5174.00    1.16551   1.12447   40.339
 5175.00    1.23449   1.18537   37.422
 5176.00    1.27986   1.23934   36.283
 5177.00    1.30739   1.27098   35.975
 5178.00    1.30992   1.28294   36.000
 5179.00    1.30393   1.28079   36.551
 5180.00    1.28700   1.26263   38.132
 5181.00    1.24484   1.22173   41.274
 5182.00    1.16811   1.16174   45.891
 5183.00    1.08800   1.10634   48.231
 5184.00    1.08610   1.08772   45.051
 5185.00    1.15777   1.11864   40.122
 5186.00    1.23735   1.17660   -1.000
 5187.00    1.28394   1.22690   36.242
 5188.00    1.28798   1.25401   35.991
 5189.00    1.27946   1.26219   35.954
 5190.00    1.27475   1.25751   36.515
 5191.00    1.24961   1.24268   37.687
 5192.00    1.22341   1.22546   38.456
 5193.00    1.21707   1.21765   38.026
 5194.00    1.23323   1.22216   37.373
 5195.00    1.25636   1.23241   36.827
 5196.00    1.27458   1.24360   36.248
 5197.00    1.27777   1.25593   35.530
 5198.00    1.28935   1.26994   34.995
 5199.00    1.31025   1.28352   34.773
 5200.00    1.31300   1.29261   34.813
 5201.00    1.30529   1.29335   35.179
 5202.00    1.28882   1.28359   35.869
 5203.00    1.27245   1.26344   36.760
 5204.00    1.24867   1.23684   37.931
 5205.00    1.22661   1.21174   38.893
 5206.00    1.22605   1.19544   38.995
 5207.00    1.22287   1.18916   39.214
 5208.00    1.21892   1.18990   39.290
 5209.00    1.23381   1.19832   38.530
 5210.00    1.25720   1.21872   37.177
 5211.00    1.28841   1.24893   35.675
 5212.00    1.31698   1.27841   34.414
 5213.00    1.32966   1.29582   33.950
 5214.00    1.32418   1.29594   34.467
 5215.00    1.30105   1.28343   35.227
 5216.00    1.28218   1.27078   35.489
 5217.00    1.28569   1.26986   35.062
 5218.00    1.31079   1.28270   34.326
 5219.00    1.33371   1.30186   33.869
 5220.00    1.33824   1.31823   33.647
 5221.00    1.34465   1.32606   33.631
 5222.00    1.34587   1.32244   34.213
 5223.00    1.32813   1.30562   35.365
 5224.00    1.29222   1.27525   36.887
 5225.00    1.24875   1.23626   38.491
 5226.00    1.21684   1.20251   39.133
 5227.00    1.21366   1.19148   37.921
 5228.00    1.25468   1.20986   35.859
 5229.00    1.30287   1.24582   -1.000
 5230.00    1.32677   1.27724   34.129
 5231.00    1.33150   1.28840   34.251
 5232.00    1.31555   1.27978   34.971
 5233.00    1.30210   1.26478   35.447
 5234.00    1.28777   1.25937   35.181
 5235.00    1.30398   1.27013   34.328
 5236.00    1.32999   1.29150   33.596
 5237.00    1.34483   1.31281   33.311
 5238.00    1.34842   1.32658   33.326
 5239.00    1.33869   1.33219   33.405
 5240.00    1.34679   1.33310   33.308
 5241.00    1.34772   1.33233   33.154
 5242.00    1.33913   1.33180   33.195
 5243.00    1.34537   1.33264   33.122
 5244.00    1.34709   1.33343   33.214
 5245.00    1.33878   1.32938   33.998
 5246.00    1.31628   1.31718   35.033
 5247.00    1.29487   1.30090   35.685
 5248.00    1.29680   1.28790   35.730
 5249.00    1.29511   1.28047   35.830
 5250.00    1.28612   1.27732   35.989
 5251.00    1.29179   1.27876   35.727
 5252.00    1.30816   1.28422   35.243
 5253.00    1.31155   1.28959   34.975
 5254.00    1.30248   1.29250   34.947
 5255.00    1.31552   1.29696   34.563
 5256.00    1.32655   1.30903   33.697
 5257.00    1.35016   1.32725   32.905
 5258.00    1.36495   1.34190   32.770
 5259.00    1.36204   1.34374   33.228
 5260.00    1.34201   1.32921   34.274
 5261.00    1.30751   1.30033   35.795
 5262.00    1.26422   1.26390   37.420
 5263.00    1.23511   1.22823   38.583
 5264.00    1.22139   1.20060   39.209
 5265.00    1.21643   1.18625   39.115
 5266.00    1.22379   1.18515   38.386
 5267.00    1.24143   1.18827   -1.000
 5268.00    1.24484   1.18253   -1.000
 5269.00    1.20923   1.16797   40.226
 5270.00    1.19504   1.16255   39.058
 5271.00    1.24425   1.18195   -1.000
 5272.00    1.29070   1.21868   -1.000
 5273.00    1.29858   1.24965   35.256
 5274.00    1.29834   1.26337   35.272
 5275.00    1.30198   1.26883   35.059
 5276.00    1.31631   1.28042   34.241
 5277.00    1.33972   1.30193   33.150
 5278.00    1.36525   1.32364   32.730
 5279.00    1.37353   1.33276   33.094
 5280.00    1.36142   1.32511   33.940
 5281.00    1.33790   1.30693   34.774
 5282.00    1.31195   1.28826   35.300
 5283.00    1.29999   1.27860   35.262
 5284.00    1.31208   1.28475   34.422
 5285.00    1.34945   1.30655   33.342
 5286.00    1.34730   1.33401   32.455
 5287.00    1.31583   1.35471   32.341
 5288.00    1.37628   1.36491   32.499
 5289.00    1.38244   1.36892   32.444
 5290.00    1.38645   1.37069   32.268
 5291.00    1.38447   1.37031   32.260
 5292.00    1.38291   1.36715   32.489
 5293.00    1.38244   1.36174   32.829
 5294.00    1.37740   1.35296   33.364
 5295.00    1.35820   1.33711   34.376
 5296.00    1.31455   1.31360   35.643
 5297.00    1.29183   1.28978   36.330
 5298.00    1.28937   1.27723   35.888
 5299.00    1.30766   1.28092   34.989
 5300.00    1.32896   1.29412   34.443
 5301.00    1.33665   1.30769   34.205
 5302.00    1.33693   1.32021   33.664
 5303.00    1.35660   1.33486   32.787
 5304.00    1.38050   1.35073   32.309
 5305.00    1.38040   1.36159   32.337
 5306.00    1.37878   1.36365   32.669
 5307.00    1.37523   1.36069   32.847
 5308.00    1.37508   1.35974   32.575
 5309.00    1.39009   1.36383   32.254
 5310.00    1.40162   1.36969   32.105
 5311.00    1.39841   1.37238   32.182
 5312.00    1.38686   1.37029   32.363
 5313.00    1.37863   1.36422   32.520
 5314.00    1.37458   1.35467   32.780
 5315.00    1.36891   1.34260   33.104
 5316.00    1.35787   1.33173   33.337
 5317.00    1.35211   1.32755   33.276
 5318.00    1.35691   1.33194   33.036
 5319.00    1.36687   1.34010   32.957
 5320.00    1.36934   1.34507   33.117
 5321.00    1.36153   1.34276   33.389
 5322.00    1.35641   1.33251   33.832
 5323.00    1.34197   1.31724   34.380
 5324.00    1.33436   1.30222   34.611
 5325.00    1.33328   1.28803   34.774
 5326.00    1.31631   1.26738   36.051
 5327.00    1.26973   1.23744   38.232
 5328.00    1.23819   1.21225   38.795
 5329.00    1.25628   1.21366   36.957
 5330.00    1.29946   1.24523   -1.000
 5331.00    1.34181   1.28603   -1.000
 5332.00    1.36026   1.31523   33.706
 5333.00    1.36402   1.33001   33.368
 5334.00    1.36962   1.33780   33.026
 5335.00    1.37351   1.34281   32.973
 5336.00    1.36848   1.34407   33.207
 5337.00    1.35834   1.33975   33.452
 5338.00    1.35188   1.32890   33.927
 5339.00    1.33964   1.31261   34.765
 5340.00    1.31961   1.29742   35.169
 5341.00    1.32284   1.29356   34.682
 5342.00    1.34534   1.30427   33.771
 5343.00    1.36336   1.32064   33.313
 5344.00    1.37870   1.33122   33.393
 5345.00    1.37220   1.33227   33.623
 5346.00    1.37061   1.32718   33.828
 5347.00    1.35954   1.32043   34.020
 5348.00    1.34757   1.31492   34.290
 5349.00    1.34908   1.31405   34.227
 5350.00    1.35591   1.32107   33.602
 5351.00    1.37577   1.33427   32.882
 5352.00    1.38674   1.34806   32.560
 5353.00    1.38144   1.35895   32.442
 5354.00    1.38917   1.36786   32.141
 5355.00    1.40579   1.37669   31.756
 5356.00    1.40998   1.38435   31.585
 5357.00    1.40687   1.38854   31.634
 5358.00    1.40805   1.38881   31.697
 5359.00    1.41422   1.38538   31.871
 5360.00    1.40222   1.37794   32.296
 5361.00    1.38146   1.36700   32.835
 5362.00    1.36577   1.35466   33.259
 5363.00    1.35641   1.34334   33.468
 5364.00    1.35147   1.33450   33.662
 5365.00    1.34789   1.32882   33.801
 5366.00    1.35734   1.32609   33.697
 5367.00    1.36108   1.32361   33.776
 5368.00    1.34688   1.31580   34.247
 5369.00    1.32911   1.29893   35.176
 5370.00    1.30133   1.27773   36.057
 5371.00    1.29970   1.26585   35.791
 5372.00    1.32061   1.27549   34.316
 5373.00    1.35084   1.30430   32.874
 5374.00    1.38404   1.33727   32.237
 5375.00    1.40522   1.36034   32.102
 5376.00    1.41815   1.36989   32.202
 5377.00    1.41880   1.37094   32.217
 5378.00    1.40760   1.36892   32.311
 5379.00    1.39734   1.36521   32.535
 5380.00    1.38590   1.35898   32.867
 5381.00    1.37355   1.35073   33.156
 5382.00    1.36707   1.34350   33.267
 5383.00    1.37147   1.34090   33.204
 5384.00    1.38042   1.34435   32.995
 5385.00    1.39424   1.35178   32.688
 5386.00    1.39856   1.35860   32.690
 5387.00    1.39937   1.36036   32.888
 5388.00    1.38935   1.35541   33.257
 5389.00    1.37428   1.34541   33.752
 5390.00    1.37068   1.33417   34.071
 5391.00    1.36991   1.32483   34.179
 5392.00    1.36649   1.31835   34.205
 5393.00    1.35829   1.31412   34.349
 5394.00    1.34625   1.30966   34.657
 5395.00    1.34053   1.30109   35.182
 5396.00    1.32812   1.28838   35.768
 5397.00    1.31686   1.27981   35.503
 5398.00    1.33879   1.28423   -1.000
 5399.00    1.37017   1.30035   -1.000
 5400.00    1.37568   1.31839   -1.000
 5401.00    1.36636   1.32904   33.598
 5402.00    1.36449   1.32712   34.038
 5403.00    1.34524   1.31100   35.150
 5404.00    1.31581   1.28512   36.168
 5405.00    1.29847   1.26232   36.464
 5406.00    1.30476   1.25599   -1.000
 5407.00    1.33061   1.26611   -1.000
 5408.00    1.34984   1.27998   -1.000
 5409.00    1.33749   1.28752   -1.000
 5410.00    1.33593   1.29194   34.968
 5411.00    1.35217   1.30240   -1.000
 5412.00    1.37517   1.31883   -1.000
 5413.00    1.38592   1.33261   -1.000
 5414.00    1.38281   1.33924   33.133
 5415.00    1.38081   1.34293   33.089
 5416.00    1.38228   1.34902   32.829
 5417.00    1.39192   1.35630   32.698
 5418.00    1.38855   1.35965   32.900
 5419.00    1.38409   1.35761   33.213
 5420.00    1.38603   1.35325   33.328
 5421.00    1.38134   1.34924   33.169
 5422.00    1.38064   1.34484   33.166
 5423.00    1.37804   1.33879   33.644
 5424.00    1.36922   1.33473   33.791
 5425.00    1.37462   1.33847   33.335
 5426.00    1.38582   1.34817   32.900
 5427.00    1.38165   1.35224   33.229
 5428.00    1.35751   1.34121   34.243
 5429.00    1.33605   1.32128   35.128
 5430.00    1.34099   1.30811   34.955
 5431.00    1.35318   1.30764   34.412
 5432.00    1.36027   1.31108   -1.000
 5433.00    1.35303   1.30801   35.068
 5434.00    1.33814   1.30019   35.347
 5435.00    1.33715   1.29887   35.050
 5436.00    1.35207   1.31117   34.251
 5437.00    1.37058   1.33398   33.338
 5438.00    1.39510   1.35830   32.709
 5439.00    1.41317   1.37677   32.309
 5440.00    1.41562   1.38725   32.099
 5441.00    1.41769   1.39126   32.072
 5442.00    1.41593   1.38999   32.147
 5443.00    1.40843   1.38143   32.625
 5444.00    1.38365   1.36223   33.640
 5445.00    1.34843   1.33365   35.012
 5446.00    1.32914   1.30653   35.835
 5447.00    1.33005   1.29557   35.265
 5448.00    1.34902   1.30646   34.100
 5449.00    1.38408   1.33082   -1.000
 5450.00    1.40555   1.35358   -1.000
 5451.00    1.41152   1.36442   33.186
 5452.00    1.40458   1.36117   33.596
 5453.00    1.38198   1.34561   34.461
 5454.00    1.35580   1.32253   35.416
 5455.00    1.33262   1.30328   35.882
 5456.00    1.34354   1.30130   35.100
 5457.00    1.36883   1.32004   -1.000
 5458.00    1.40179   1.34694   -1.000
 5459.00    1.40694   1.36512   33.142
 5460.00    1.39861   1.36726   33.626
 5461.00    1.39635   1.35680   34.239
 5462.00    1.38334   1.34228   34.626
 5463.00    1.37692   1.33285   34.658
 5464.00    1.37691   1.33347   34.184
 5465.00    1.38691   1.34155   33.844
 5466.00    1.39714   1.35095   33.655
 5467.00    1.40627   1.35806   33.310
 5468.00    1.40718   1.36218   33.291
 5469.00    1.40977   1.36311   33.648
 5470.00    1.40037   1.36061   33.949
 5471.00    1.38737   1.35536   34.062
 5472.00    1.38847   1.34867   34.281
 5473.00    1.38536   1.34054   34.676
 5474.00    1.37290   1.32884   35.235
 5475.00    1.35534   1.31268   35.967
 5476.00    1.33332   1.29709   36.314
 5477.00    1.33372   1.29264   35.736
 5478.00    1.35718   1.30385   -1.000
 5479.00    1.37968   1.32107   -1.000
 5480.00    1.39169   1.33091   -1.000
 5481.00    1.38180   1.33101   -1.000
 5482.00    1.37078   1.33040   34.726
 5483.00    1.38003   1.33744   34.053
 5484.00    1.39750   1.35048   33.438
 5485.00    1.40173   1.36070   33.315
 5486.00    1.38643   1.36156   33.723
 5487.00    1.37619   1.35495   34.155
 5488.00    1.37552   1.34804   34.286
 5489.00    1.38008   1.34633   34.224
 5490.00    1.38250   1.35001   33.960
 5491.00    1.39774   1.35555   33.740
 5492.00    1.40137   1.35925   33.670
 5493.00    1.39441   1.35998   33.748
 5494.00    1.39891   1.35878   33.750
 5495.00    1.39876   1.35614   33.799
 5496.00    1.38865   1.35160   34.067
 5497.00    1.38041   1.34746   34.211
 5498.00    1.37975   1.34769   33.944
 5499.00    1.39220   1.35079   33.688
 5500.00    1.39278   1.35026   34.077
 5501.00    1.37691   1.34360   34.539
 5502.00    1.37761   1.33627   34.477
 5503.00    1.38738   1.33407   -1.000
 5504.00    1.38914   1.33452   -1.000
 5505.00    1.38472   1.33153   -1.000
 5506.00    1.36926   1.32572   34.947
 5507.00    1.36793   1.32403   34.516
 5508.00    1.38139   1.33034   -1.000
 5509.00    1.39980   1.33913   -1.000
 5510.00    1.39437   1.34141   -1.000
 5511.00    1.38418   1.33451   -1.000
 5512.00    1.37636   1.32366   -1.000
 5513.00    1.36237   1.31670   -1.000
 5514.00    1.36544   1.31804   -1.000
 5515.00    1.38620   1.32684   -1.000
 5516.00    1.40570   1.33956   -1.000
 5517.00    1.42546   1.35306   -1.000
 5518.00    1.43017   1.36504   -1.000
 5519.00    1.43167   1.37332   -1.000
 5520.00    1.43410   1.37647   -1.000
 5521.00    1.43088   1.37585   -1.000
 5522.00    1.43244   1.37438   -1.000
 5523.00    1.42663   1.37276   -1.000
 5524.00    1.41639   1.36819   -1.000
 5525.00    1.40338   1.35669   -1.000
 5526.00    1.38409   1.33795   -1.000
 5527.00    1.36494   1.31811   -1.000
 5528.00    1.35317   1.30758   -1.000
 5529.00    1.36609   1.31288   -1.000
 5530.00    1.38689   1.33011   -1.000
 5531.00    1.39760   1.34764   -1.000
 5532.00    1.40238   1.35598   -1.000
 5533.00    1.40729   1.35435   -1.000
 5534.00    1.40205   1.34848   -1.000
 5535.00    1.39531   1.34490   -1.000
 5536.00    1.39816   1.34653   -1.000
 5537.00    1.40677   1.35212   -1.000
 5538.00    1.41726   1.35923   -1.000
 5539.00    1.42990   1.36663   -1.000
 5540.00    1.42911   1.37317   -1.000
 5541.00    1.42684   1.37618   -1.000
 5542.00    1.42028   1.37381   -1.000
 5543.00    1.40855   1.36805   33.661
 5544.00    1.40791   1.36332   -1.000
 5545.00    1.40962   1.36229   -1.000
 5546.00    1.41920   1.36500   -1.000
 5547.00    1.42891   1.37082   -1.000
 5548.00    1.43993   1.37887   -1.000
 5549.00    1.44683   1.38659   -1.000
 5550.00    1.43794   1.39086   -1.000
 5551.00    1.43352   1.39032   32.891
 5552.00    1.43137   1.38586   -1.000
 5553.00    1.42737   1.37962   -1.000
 5554.00    1.41935   1.37461   -1.000
 5555.00    1.42268   1.37288   -1.000
 5556.00    1.42319   1.37406   -1.000
 5557.00    1.42670   1.37598   -1.000
 5558.00    1.42445   1.37726   -1.000
 5559.00    1.42116   1.37803   33.363
 5560.00    1.42925   1.37786   -1.000
 5561.00    1.42529   1.37507   -1.000
 5562.00    1.41744   1.36954   -1.000
 5563.00    1.40787   1.36369   -1.000
 5564.00    1.39720   1.35988   34.295
 5565.00    1.40172   1.35793   -1.000
 5566.00    1.40726   1.35630   -1.000
 5567.00    1.40190   1.35437   -1.000
 5568.00    1.39939   1.35261   -1.000
 5569.00    1.39944   1.35178   -1.000
 5570.00    1.39830   1.35143   -1.000
 5571.00    1.40355   1.35001   -1.000
 5572.00    1.40090   1.34777   -1.000
 5573.00    1.38872   1.34750   34.167
 5574.00    1.38377   1.35146   33.801
 5575.00    1.36435   1.35846   33.477
 5576.00    1.32983   1.36516   32.952
 5577.00    1.36802   1.36999   32.645
 5578.00    1.47396   1.37380   -1.000
 5579.00    1.54433   1.37693   -1.000
 5580.00    1.53278   1.37821   -1.000
 5581.00    1.39455   1.37699   34.132
 5582.00    1.40810   1.37422   33.830
 5583.00    1.41687   1.37070   -1.000
 5584.00    1.41782   1.36394   -1.000
 5585.00    1.39555   1.34978   -1.000
 5586.00    1.36743   1.32857   35.899
 5587.00    1.33889   1.30740   36.575
 5588.00    1.32920   1.29538   36.644
 5589.00    1.34300   1.29683   -1.000
 5590.00    1.37067   1.30898   -1.000
 5591.00    1.38008   1.32381   -1.000
 5592.00    1.38718   1.33398   -1.000
 5593.00    1.38680   1.33830   -1.000
 5594.00    1.38691   1.34185   -1.000
 5595.00    1.39342   1.34909   -1.000
 5596.00    1.40569   1.35669   -1.000
 5597.00    1.40476   1.35767   -1.000
 5598.00    1.39220   1.35086   -1.000
 5599.00    1.37993   1.34067   35.492
 5600.00    1.37224   1.33050   -1.000
 5601.00    1.37153   1.32246   -1.000
 5602.00    1.36804   1.32078   -1.000
 5603.00    1.37899   1.33018   -1.000
 5604.00    1.39738   1.35034   -1.000
 5605.00    1.41901   1.37392   -1.000
 5606.00    1.43826   1.39233   -1.000
 5607.00    1.44361   1.40208   33.015
 5608.00    1.43849   1.40528   33.078
 5609.00    1.43548   1.40599   33.124
 5610.00    1.44552   1.40700   33.065
 5611.00    1.45197   1.40731   -1.000
 5612.00    1.44505   1.40180   33.315
 5613.00    1.42385   1.38529   34.161
 5614.00    1.39677   1.35943   35.310
 5615.00    1.37623   1.33631   -1.000
 5616.00    1.37129   1.32907   -1.000
 5617.00    1.39428   1.33923   -1.000
 5618.00    1.41803   1.35608   -1.000
 5619.00    1.42201   1.36918   -1.000
 5620.00    1.42765   1.37653   -1.000
 5621.00    1.43636   1.37991   -1.000
 5622.00    1.42718   1.37806   -1.000
 5623.00    1.40932   1.36958   34.832
 5624.00    1.39778   1.35846   -1.000
 5625.00    1.39948   1.35288   -1.000
 5626.00    1.40985   1.35747   -1.000
 5627.00    1.42261   1.36892   -1.000
 5628.00    1.43028   1.38123   -1.000
 5629.00    1.44210   1.39118   -1.000
 5630.00    1.44580   1.39771   -1.000
 5631.00    1.45424   1.39995   -1.000
 5632.00    1.44720   1.39775   -1.000
 5633.00    1.44617   1.39256   -1.000
 5634.00    1.43860   1.38639   -1.000
 5635.00    1.43234   1.38010   -1.000
 5636.00    1.43705   1.37391   -1.000
 5637.00    1.42554   1.36903   -1.000
 5638.00    1.42042   1.36670   -1.000
 5639.00    1.42768   1.36602   -1.000
 5640.00    1.42096   1.36496   -1.000
 5641.00    1.41671   1.36340   -1.000
 5642.00    1.41691   1.36350   -1.000
 5643.00    1.41949   1.36658   -1.000
 5644.00    1.43398   1.37130   -1.000
 5645.00    1.43275   1.37563   -1.000
 5646.00    1.42915   1.37875   -1.000
 5647.00    1.43193   1.38033   -1.000
 5648.00    1.43713   1.38000   -1.000
 5649.00    1.44311   1.37851   -1.000
 5650.00    1.44150   1.37804   -1.000
 5651.00    1.43950   1.37983   -1.000
 5652.00    1.43768   1.38212   -1.000
 5653.00    1.43409   1.38185   -1.000
 5654.00    1.43399   1.37766   -1.000
 5655.00    1.41759   1.36938   -1.000
 5656.00    1.40666   1.35608   -1.000
 5657.00    1.38214   1.33906   -1.000
 5658.00    1.35703   1.32512   36.350
 5659.00    1.37115   1.32208   -1.000
 5660.00    1.39409   1.33001   -1.000
 5661.00    1.40258   1.34062   -1.000
 5662.00    1.40240   1.34845   -1.000
 5663.00    1.40758   1.35622   -1.000
 5664.00    1.42237   1.36592   -1.000
 5665.00    1.43177   1.37323   -1.000
 5666.00    1.42993   1.37363   -1.000
 5667.00    1.42196   1.36864   -1.000
 5668.00    1.41196   1.36411   -1.000
 5669.00    1.41180   1.36420   -1.000
 5670.00    1.41635   1.36902   -1.000
 5671.00    1.43502   1.37678   -1.000
 5672.00    1.44153   1.38548   -1.000
 5673.00    1.44201   1.39276   -1.000
 5674.00    1.44153   1.39695   -1.000
 5675.00    1.44128   1.39846   -1.000
 5676.00    1.43723   1.39881   33.159
 5677.00    1.44594   1.39836   -1.000
 5678.00    1.44982   1.39615   -1.000
 5679.00    1.43546   1.39154   -1.000
 5680.00    1.42608   1.38475   -1.000
 5681.00    1.43265   1.37606   -1.000
 5682.00    1.42688   1.36651   -1.000
 5683.00    1.41745   1.35940   -1.000
 5684.00    1.41563   1.35753   -1.000
 5685.00    1.40942   1.35929   -1.000
 5686.00    1.40902   1.36056   -1.000
 5687.00    1.40065   1.35992   -1.000
 5688.00    1.40210   1.35995   -1.000
 5689.00    1.41341   1.36381   -1.000
 5690.00    1.43641   1.37165   -1.000
 5691.00    1.44568   1.38081   -1.000
 5692.00    1.44533   1.38825   -1.000
 5693.00    1.44628   1.39240   -1.000
 5694.00    1.44894   1.39356   -1.000
 5695.00    1.45162   1.39294   -1.000
 5696.00    1.44421   1.39097   -1.000
 5697.00    1.43433   1.38701   -1.000
 5698.00    1.42535   1.38074   -1.000
 5699.00    1.41144   1.37322   34.521
 5700.00    1.40742   1.36607   -1.000
 5701.00    1.40890   1.36118   -1.000
 5702.00    1.40436   1.36057   -1.000
 5703.00    1.40662   1.36392   -1.000
 5704.00    1.41470   1.36703   -1.000
 5705.00    1.41287   1.36523   -1.000
 5706.00    1.39974   1.35722   -1.000
 5707.00    1.38320   1.34532   -1.000
 5708.00    1.36845   1.33320   36.262
 5709.00    1.36482   1.32428   -1.000
 5710.00    1.36197   1.32150   -1.000
 5711.00    1.36693   1.32680   -1.000
 5712.00    1.39275   1.33988   -1.000
 5713.00    1.41836   1.35725   -1.000
 5714.00    1.43184   1.37317   -1.000
 5715.00    1.43662   1.38392   -1.000
 5716.00    1.44381   1.39014   -1.000
 5717.00    1.44491   1.39421   -1.000
 5718.00    1.44498   1.39785   -1.000
 5719.00    1.44974   1.40199   -1.000
 5720.00    1.45491   1.40668   -1.000
 5721.00    1.44587   1.41110   32.836
 5722.00    1.45634   1.41449   -1.000
 5723.00    1.45374   1.41629   32.780
 5724.00    1.44469   1.41530   32.919
 5725.00    1.44342   1.41043   33.236
 5726.00    1.44316   1.40300   -1.000
 5727.00    1.44148   1.39705   -1.000
 5728.00    1.43777   1.39553   -1.000
 5729.00    1.43595   1.39724   33.358
 5730.00    1.43844   1.39875   -1.000
 5731.00    1.44015   1.39900   -1.000
 5732.00    1.45102   1.40024   -1.000
 5733.00    1.45970   1.40460   -1.000
 5734.00    1.46488   1.41037   -1.000
 5735.00    1.45863   1.41370   -1.000
 5736.00    1.45268   1.41331   33.052
 5737.00    1.45420   1.41108   -1.000
 5738.00    1.45619   1.40919   -1.000
 5739.00    1.45132   1.40840   -1.000
 5740.00    1.44733   1.40808   -1.000
 5741.00    1.44306   1.40738   33.336
 5742.00    1.43821   1.40674   33.250
 5743.00    1.43988   1.40773   33.175
 5744.00    1.44516   1.41060   32.920
 5745.00    1.45503   1.41278   -1.000
 5746.00    1.45149   1.41142   -1.000
 5747.00    1.44277   1.40727   33.388
 5748.00    1.43953   1.40459   33.412
 5749.00    1.44670   1.40575   -1.000
 5750.00    1.45532   1.40741   -1.000
 5751.00    1.45515   1.40379   -1.000
 5752.00    1.43543   1.39350   -1.000
 5753.00    1.42219   1.38265   -1.000
 5754.00    1.42700   1.37967   -1.000
 5755.00    1.43381   1.38757   -1.000
 5756.00    1.44932   1.40154   -1.000
 5757.00    1.46220   1.41368   -1.000
 5758.00    1.45983   1.41838   -1.000
 5759.00    1.44897   1.41451   33.310
 5760.00    1.43900   1.40470   33.756
 5761.00    1.43240   1.39370   -1.000
 5762.00    1.42929   1.38706   -1.000
 5763.00    1.43683   1.38926   -1.000
 5764.00    1.44596   1.40008   -1.000
 5765.00    1.45596   1.41334   -1.000
 5766.00    1.46777   1.42255   -1.000
 5767.00    1.46980   1.42608   -1.000
 5768.00    1.46290   1.42577   32.668
 5769.00    1.46235   1.42347   32.760
 5770.00    1.46569   1.42038   -1.000
 5771.00    1.45921   1.41720   -1.000
 5772.00    1.44482   1.41399   33.264
 5773.00    1.43062   1.41054   33.322
 5774.00    1.43574   1.40729   33.334
 5775.00    1.43938   1.40564   33.228
 5776.00    1.44123   1.40598   33.084
 5777.00    1.43072   1.40584   33.102
 5778.00    1.40785   1.40135   33.308
 5779.00    1.38518   1.39085   33.900
 5780.00    1.37433   1.37680   34.618
 5781.00    1.37687   1.36431   34.906
 5782.00    1.38815   1.35749   34.776
 5783.00    1.40243   1.35640   -1.000
 5784.00    1.42048   1.35846   -1.000
 5785.00    1.41712   1.36275   -1.000
 5786.00    1.42385   1.37040   -1.000
 5787.00    1.44691   1.38057   -1.000
 5788.00    1.44506   1.38959   -1.000
 5789.00    1.44525   1.39448   -1.000
 5790.00    1.44504   1.39555   -1.000
 5791.00    1.44192   1.39612   -1.000
 5792.00    1.44562   1.39975   -1.000
 5793.00    1.44609   1.40697   -1.000
 5794.00    1.44731   1.41469   32.747
 5795.00    1.44129   1.41874   32.795
 5796.00    1.43311   1.41731   33.017
 5797.00    1.43582   1.41326   33.139
 5798.00    1.44368   1.41207   32.878
 5799.00    1.46110   1.41652   -1.000
 5800.00    1.47155   1.42422   -1.000
 5801.00    1.47064   1.43023   -1.000
 5802.00    1.46998   1.43082   32.412
 5803.00    1.47101   1.42580   -1.000
 5804.00    1.46297   1.41871   -1.000
 5805.00    1.45071   1.41407   32.982
 5806.00    1.44893   1.41394   32.873
 5807.00    1.44838   1.41711   32.753
 5808.00    1.45387   1.42119   32.681
 5809.00    1.46125   1.42477   32.682
 5810.00    1.46672   1.42766   -1.000
 5811.00    1.46735   1.42959   32.498
 5812.00    1.46938   1.42959   -1.000
 5813.00    1.47898   1.42668   -1.000
 5814.00    1.47235   1.42119   -1.000
 5815.00    1.46517   1.41556   -1.000
 5816.00    1.46895   1.41365   -1.000
 5817.00    1.47682   1.41764   -1.000
 5818.00    1.48214   1.42556   -1.000
 5819.00    1.48021   1.43300   -1.000
 5820.00    1.48358   1.43704   -1.000
 5821.00    1.48565   1.43766   -1.000
 5822.00    1.48152   1.43653   -1.000
 5823.00    1.48699   1.43527   -1.000
 5824.00    1.48958   1.43476   -1.000
 5825.00    1.48957   1.43520   -1.000
 5826.00    1.49301   1.43638   -1.000
 5827.00    1.48966   1.43805   -1.000
 5828.00    1.49393   1.44010   -1.000
 5829.00    1.48858   1.44191   -1.000
 5830.00    1.48239   1.44251   -1.000
 5831.00    1.48811   1.44159   -1.000
 5832.00    1.48649   1.43949   -1.000
 5833.00    1.48892   1.43655   -1.000
 5834.00    1.48765   1.43353   -1.000
 5835.00    1.48073   1.43180   -1.000
 5836.00    1.48292   1.43194   -1.000
 5837.00    1.49445   1.43321   -1.000
 5838.00    1.48621   1.43521   -1.000
 5839.00    1.48187   1.43827   -1.000
 5840.00    1.48308   1.44189   -1.000
 5841.00    1.47658   1.44448   31.849
 5842.00    1.48395   1.44467   31.898
 5843.00    1.48826   1.44220   -1.000
 5844.00    1.48064   1.43762   -1.000
 5845.00    1.47812   1.43181   -1.000
 5846.00    1.47855   1.42606   -1.000
 5847.00    1.47795   1.42196   -1.000
 5848.00    1.48100   1.42039   -1.000
 5849.00    1.47457   1.42022   -1.000
 5850.00    1.46792   1.41845   -1.000
 5851.00    1.46070   1.41272   -1.000
 5852.00    1.45599   1.40413   -1.000
 5853.00    1.45083   1.39658   -1.000
 5854.00    1.44734   1.39215   -1.000
 5855.00    1.44884   1.38816   -1.000
 5856.00    1.44346   1.38112   -1.000
 5857.00    1.43416   1.37305   -1.000
 5858.00    1.44152   1.37027   -1.000
 5859.00    1.45434   1.37596   -1.000
 5860.00    1.46175   1.38673   -1.000
 5861.00    1.46814   1.39689   -1.000
 5862.00    1.46491   1.40374   -1.000
 5863.00    1.46523   1.40756   -1.000
 5864.00    1.47275   1.40871   -1.000
 5865.00    1.46423   1.40705   -1.000
 5866.00    1.45509   1.40410   -1.000
 5867.00    1.46090   1.40351   -1.000
 5868.00    1.47535   1.40754   -1.000
 5869.00    1.48055   1.41434   -1.000
 5870.00    1.47877   1.42005   -1.000
 5871.00    1.48492   1.42234   -1.000
 5872.00    1.48052   1.42151   -1.000
 5873.00    1.48019   1.41918   -1.000
 5874.00    1.47454   1.41659   -1.000
 5875.00    1.47454   1.41422   -1.000
 5876.00    1.47458   1.41171   -1.000
 5877.00    1.47084   1.40808   -1.000
 5878.00    1.46971   1.40277   -1.000
 5879.00    1.46967   1.39676   -1.000
 5880.00    1.46165   1.39200   -1.000
 5881.00    1.45363   1.38938   -1.000
 5882.00    1.45308   1.38773   -1.000
 5883.00    1.45484   1.38535   -1.000
 5884.00    1.44420   1.38188   -1.000
 5885.00    1.43551   1.37602   -1.000
 5886.00    1.39989   1.36112   34.390
 5887.00    1.31126   1.32780   35.956
 5888.00    1.18129   1.27610   38.421
 5889.00    1.09081   1.22447   -1.000
 5890.00    1.10405   1.19907   40.540
 5891.00    1.20573   1.20970   39.141
 5892.00    1.29931   1.23956   -1.000
 5893.00    1.29481   1.26007   37.363
 5894.00    1.21728   1.25639   38.069
 5895.00    1.14909   1.23921   38.927
 5896.00    1.17603   1.23296   38.398
 5897.00    1.28175   1.25136   37.135
 5898.00    1.36909   1.28600   -1.000
 5899.00    1.41120   1.32029   -1.000
 5900.00    1.43221   1.34603   -1.000
 5901.00    1.44098   1.36358   -1.000
 5902.00    1.45432   1.37502   -1.000
 5903.00    1.46205   1.38178   -1.000
 5904.00    1.46459   1.38525   -1.000
 5905.00    1.45931   1.38713   -1.000
 5906.00    1.46229   1.38911   -1.000
 5907.00    1.46570   1.39200   -1.000
 5908.00    1.46693   1.39533   -1.000
 5909.00    1.46322   1.39810   -1.000
 5910.00    1.45780   1.39940   -1.000
 5911.00    1.45879   1.39798   -1.000
 5912.00    1.45373   1.39253   -1.000
 5913.00    1.44147   1.38353   -1.000
 5914.00    1.43404   1.37447   -1.000
 5915.00    1.43077   1.36972   -1.000
 5916.00    1.42770   1.37091   -1.000
 5917.00    1.42599   1.37641   -1.000
 5918.00    1.43315   1.38337   -1.000
 5919.00    1.44412   1.38926   -1.000
 5920.00    1.45144   1.39271   -1.000
 5921.00    1.44791   1.39383   -1.000
 5922.00    1.43685   1.39405   -1.000
 5923.00    1.44533   1.39520   -1.000
 5924.00    1.45614   1.39812   -1.000
 5925.00    1.45900   1.40179   -1.000
 5926.00    1.46716   1.40410   -1.000
 5927.00    1.46377   1.40310   -1.000
 5928.00    1.46191   1.39847   -1.000
 5929.00    1.45983   1.39287   -1.000
 5930.00    1.45433   1.39052   -1.000
 5931.00    1.45614   1.39268   -1.000
 5932.00    1.45097   1.39591   -1.000
 5933.00    1.45475   1.39635   -1.000
 5934.00    1.46064   1.39435   -1.000
 5935.00    1.45524   1.39369   -1.000
 5936.00    1.45899   1.39672   -1.000
 5937.00    1.46182   1.40152   -1.000
 5938.00    1.45696   1.40401   -1.000
 5939.00    1.45183   1.40199   -1.000
 5940.00    1.44299   1.39653   -1.000
 5941.00    1.44107   1.39086   -1.000
 5942.00    1.44141   1.38823   -1.000
 5943.00    1.44505   1.38992   -1.000
 5944.00    1.45211   1.39431   -1.000
 5945.00    1.44932   1.39806   -1.000
 5946.00    1.45110   1.39831   -1.000
 5947.00    1.44976   1.39471   -1.000
 5948.00    1.44675   1.39032   -1.000
 5949.00    1.45004   1.38882   -1.000
 5950.00    1.45599   1.39036   -1.000
 5951.00    1.44542   1.39192   -1.000
 5952.00    1.44053   1.39199   -1.000
 5953.00    1.44563   1.39169   -1.000
 5954.00    1.44568   1.39176   -1.000
 5955.00    1.43966   1.39113   -1.000
 5956.00    1.44595   1.38944   -1.000
 5957.00    1.44190   1.38880   -1.000
 5958.00    1.44649   1.39177   -1.000
 5959.00    1.45331   1.39821   -1.000
 5960.00    1.47261   1.40551   -1.000
 5961.00    1.47888   1.41109   -1.000
 5962.00    1.47758   1.41362   -1.000
 5963.00    1.46955   1.41298   -1.000
 5964.00    1.46559   1.40998   -1.000
 5965.00    1.45858   1.40637   -1.000
 5966.00    1.46052   1.40442   -1.000
 5967.00    1.46418   1.40532   -1.000
 5968.00    1.46059   1.40819   -1.000
 5969.00    1.46088   1.41154   -1.000
 5970.00    1.46701   1.41456   -1.000
 5971.00    1.46995   1.41661   -1.000
 5972.00    1.47104   1.41678   -1.000
 5973.00    1.47153   1.41435   -1.000
 5974.00    1.46369   1.40893   -1.000
 5975.00    1.45108   1.40123   -1.000
 5976.00    1.43799   1.39393   -1.000
 5977.00    1.43170   1.39039   -1.000
 5978.00    1.44276   1.39209   -1.000
 5979.00    1.45688   1.39753   -1.000
 5980.00    1.45767   1.40287   -1.000
 5981.00    1.45556   1.40401   -1.000
 5982.00    1.45356   1.39936   -1.000
 5983.00    1.44543   1.39138   -1.000
 5984.00    1.44145   1.38522   -1.000
 5985.00    1.43945   1.38475   -1.000
 5986.00    1.44232   1.38954   -1.000
 5987.00    1.44804   1.39613   -1.000
 5988.00    1.44580   1.40149   -1.000
 5989.00    1.44802   1.40434   -1.000
 5990.00    1.45032   1.40500   -1.000
 5991.00    1.45589   1.40549   -1.000
 5992.00    1.46400   1.40826   -1.000
 5993.00    1.46608   1.41308   -1.000
 5994.00    1.47122   1.41665   -1.000
 5995.00    1.47266   1.41599   -1.000
 5996.00    1.46794   1.41145   -1.000
 5997.00    1.45394   1.40631   -1.000
 5998.00    1.44700   1.40386   -1.000
 5999.00    1.45229   1.40452   -1.000
 6000.00    1.45475   1.40585   -1.000
 6001.00    1.45193   1.40536   -1.000
 6002.00    1.45614   1.40301   -1.000
 6003.00    1.45711   1.40083   -1.000
 6004.00    1.44769   1.39983   -1.000
 6005.00    1.44564   1.39793   -1.000
 6006.00    1.43785   1.39289   -1.000
 6007.00    1.43355   1.38669   -1.000
 6008.00    1.42802   1.38461   -1.000
 6009.00    1.43117   1.38931   -1.000
 6010.00    1.43728   1.39697   -1.000
 6011.00    1.44637   1.40132   -1.000
 6012.00    1.45040   1.40063   -1.000
 6013.00    1.45320   1.39823   -1.000
 6014.00    1.44843   1.39734   -1.000
 6015.00    1.44879   1.39772   -1.000
 6016.00    1.45153   1.39756   -1.000
 6017.00    1.45569   1.39631   -1.000
 6018.00    1.44727   1.39408   -1.000
 6019.00    1.43706   1.39081   -1.000
 6020.00    1.43849   1.38764   -1.000
 6021.00    1.44206   1.38659   -1.000
 6022.00    1.44014   1.38844   -1.000
 6023.00    1.43334   1.39253   -1.000
 6024.00    1.44413   1.39799   -1.000
 6025.00    1.45224   1.40387   -1.000
 6026.00    1.45423   1.40910   -1.000
 6027.00    1.45678   1.41345   -1.000
 6028.00    1.46128   1.41739   -1.000
 6029.00    1.46625   1.42075   -1.000
 6030.00    1.46392   1.42317   -1.000
 6031.00    1.46422   1.42507   -1.000
 6032.00    1.46932   1.42693   -1.000
 6033.00    1.47583   1.42866   -1.000
 6034.00    1.47028   1.43014   -1.000
 6035.00    1.46866   1.43125   -1.000
 6036.00    1.46968   1.43135   -1.000
 6037.00    1.47594   1.42981   -1.000
 6038.00    1.47349   1.42681   -1.000
 6039.00    1.46629   1.42321   -1.000
 6040.00    1.46257   1.41986   -1.000
 6041.00    1.45457   1.41690   -1.000
 6042.00    1.45429   1.41475   -1.000
 6043.00    1.46257   1.41576   -1.000
 6044.00    1.46819   1.42126   -1.000
 6045.00    1.46942   1.42835   -1.000
 6046.00    1.47790   1.43335   -1.000
 6047.00    1.47732   1.43570   -1.000
 6048.00    1.46744   1.43646   33.090
 6049.00    1.46857   1.43624   -1.000
 6050.00    1.46895   1.43521   -1.000
 6051.00    1.46835   1.43329   -1.000
 6052.00    1.47319   1.43026   -1.000
 6053.00    1.47104   1.42621   -1.000
 6054.00    1.46575   1.42168   -1.000
 6055.00    1.46113   1.41772   -1.000
 6056.00    1.46051   1.41570   -1.000
 6057.00    1.46139   1.41634   -1.000
 6058.00    1.46086   1.41903   -1.000
 6059.00    1.46553   1.42212   -1.000
 6060.00    1.46389   1.42355   -1.000
 6061.00    1.46309   1.42137   -1.000
 6062.00    1.43699   1.41473   34.285
 6063.00    1.24445   1.40509   -1.000
 6064.00    1.20942   1.39667   -1.000
 6065.00    1.40664   1.39463   28.292
 6066.00    0.96817   1.40130   -1.000
 6067.00    0.46090   1.41370   -1.000
 6068.00    0.85214   1.42582   -1.000
 6069.00    1.45159   1.43379   33.341
 6070.00    1.45440   1.43768   32.467
 6071.00    1.39623   1.43893   32.382
 6072.00    0.89605   1.43846   -1.000
 6073.00    0.59932   1.43737   -1.000
 6074.00    1.48203   1.43637   -1.000
 6075.00    1.47715   1.43406   -1.000
 6076.00    1.46228   1.42899   -1.000
 6077.00    1.45912   1.42241   -1.000
 6078.00    1.46143   1.41687   -1.000
 6079.00    1.46140   1.41356   -1.000
 6080.00    1.44149   1.41144   -1.000
 6081.00    1.43768   1.40925   34.233
 6082.00    1.44170   1.40729   -1.000
 6083.00    1.44141   1.40660   -1.000
 6084.00    1.44684   1.40737   -1.000
 6085.00    1.44613   1.40916   -1.000
 6086.00    1.44597   1.41157   -1.000
 6087.00    1.45054   1.41373   -1.000
 6088.00    1.45681   1.41403   -1.000
 6089.00    1.44729   1.41165   -1.000
 6090.00    1.43842   1.40802   -1.000
 6091.00    1.44082   1.40586   -1.000
 6092.00    1.44462   1.40687   -1.000
 6093.00    1.44760   1.41087   -1.000
 6094.00    1.45220   1.41631   -1.000
 6095.00    1.44912   1.42120   33.661
 6096.00    1.46059   1.42454   -1.000
 6097.00    1.45736   1.42661   -1.000
 6098.00    1.44664   1.42705   33.792
 6099.00    1.44905   1.42313   33.894
 6100.00    1.43814   1.41178   34.455
 6101.00    1.41899   1.39444   35.274
 6102.00    1.40524   1.37928   -1.000
 6103.00    1.40846   1.37545   -1.000
 6104.00    1.42627   1.38420   -1.000
 6105.00    1.44245   1.39841   -1.000
 6106.00    1.44205   1.41024   -1.000
 6107.00    1.43991   1.41741   34.198
 6108.00    1.44146   1.42174   34.248
 6109.00    1.44561   1.42457   34.209
 6110.00    1.44754   1.42574   34.110
 6111.00    1.44895   1.42569   33.988
 6112.00    1.45108   1.42598   33.954
 6113.00    1.44469   1.42720   33.776
 6114.00    1.44011   1.42814   33.763
 6115.00    1.44525   1.42776   33.939
 6116.00    1.45065   1.42635   34.127
 6117.00    1.44230   1.42356   34.183
 6118.00    1.43917   1.41698   34.449
 6119.00    1.43182   1.40484   34.973
 6120.00    1.41524   1.38921   35.385
 6121.00    1.40177   1.37586   -1.000
 6122.00    1.40072   1.37176   -1.000
 6123.00    1.40792   1.37924   -1.000
 6124.00    1.42067   1.39243   34.549
 6125.00    1.43031   1.40301   34.637
 6126.00    1.43046   1.40764   34.795
 6127.00    1.42704   1.40829   34.712
 6128.00    1.42828   1.40899   34.584
 6129.00    1.43507   1.41292   34.266
 6130.00    1.43411   1.41995   34.005
 6131.00    1.44140   1.42660   33.997
 6132.00    1.44884   1.42837   34.139
 6133.00    1.43356   1.42119   34.604
 6134.00    1.41180   1.40277   35.499
 6135.00    1.38851   1.37649   36.536
 6136.00    1.36902   1.35349   37.227
 6137.00    1.36282   1.34582   36.978
 6138.00    1.37085   1.35515   35.920
 6139.00    1.39160   1.37091   35.061
 6140.00    1.40762   1.38170   34.854
 6141.00    1.40703   1.38655   34.955
 6142.00    1.40779   1.39211   34.900
 6143.00    1.41944   1.40158   34.486
 6144.00    1.42532   1.41151   34.163
 6145.00    1.43366   1.41714   34.205
 6146.00    1.44174   1.41697   34.396
 6147.00    1.42866   1.41268   34.627
 6148.00    1.41797   1.40707   34.869
 6149.00    1.41851   1.40286   35.015
 6150.00    1.41619   1.40178   34.962
 6151.00    1.42520   1.40367   34.792
 6152.00    1.43325   1.40631   34.588
 6153.00    1.42809   1.40682   34.656
 6154.00    1.43894   1.40427   -1.000
 6155.00    1.43450   1.40038   -1.000
 6156.00    1.42472   1.39699   -1.000
 6157.00    1.41936   1.39345   35.340
 6158.00    1.41239   1.38635   35.816
 6159.00    1.39498   1.37138   36.635
 6160.00    1.37037   1.34798   37.781
 6161.00    1.34462   1.32362   38.679
 6162.00    1.33579   1.31025   -1.000
 6163.00    1.34208   1.31395   -1.000
 6164.00    1.36042   1.32986   -1.000
 6165.00    1.36906   1.34746   36.553
 6166.00    1.37656   1.35836   36.498
 6167.00    1.36831   1.35968   36.715
 6168.00    1.35720   1.35398   37.209
 6169.00    1.34684   1.34823   37.398
 6170.00    1.35168   1.34958   36.934
 6171.00    1.37103   1.35917   36.227
 6172.00    1.38163   1.37152   35.890
 6173.00    1.38766   1.38107   35.981
 6174.00    1.39961   1.38665   35.969
 6175.00    1.40205   1.38969   35.873
 6176.00    1.39525   1.39172   35.802
 6177.00    1.39994   1.39393   35.680
 6178.00    1.41076   1.39657   35.506
 6179.00    1.40270   1.39918   35.389
 6180.00    1.40251   1.40180   35.263
 6181.00    1.40700   1.40479   35.112
 6182.00    1.41038   1.40743   35.074
 6183.00    1.41161   1.40828   35.176
 6184.00    1.41169   1.40645   35.345
 6185.00    1.40405   1.40186   35.674
 6186.00    1.40012   1.39524   36.070
 6187.00    1.39753   1.38761   36.430
 6188.00    1.38539   1.37872   36.752
 6189.00    1.37745   1.36778   37.064
 6190.00    1.36988   1.35705   37.517
 6191.00    1.35576   1.35260   37.547
 6192.00    1.36362   1.35872   36.918
 6193.00    1.38449   1.37295   36.032
 6194.00    1.39549   1.38822   35.586
 6195.00    1.39962   1.39889   35.447
 6196.00    1.40047   1.40307   35.482
 6197.00    1.39666   1.40096   35.795
 6198.00    1.39429   1.39459   36.198
 6199.00    1.38739   1.38867   36.388
 6200.00    1.37679   1.38812   36.228
 6201.00    1.37511   1.39379   35.801
 6202.00    1.38914   1.40219   35.438
 6203.00    1.40087   1.40927   35.410
 6204.00    1.40531   1.41340   35.401
 6205.00    1.41489   1.41546   35.347
 6206.00    1.41565   1.41681   35.392
 6207.00    1.41557   1.41762   35.509
 6208.00    1.41433   1.41696   35.526
 6209.00    1.40481   1.41388   35.752
 6210.00    1.39761   1.40775   36.086
 6211.00    1.39447   1.39808   36.377
 6212.00    1.39089   1.38556   36.797
 6213.00    1.37699   1.37325   37.334
 6214.00    1.36892   1.36522   37.608
 6215.00    1.37143   1.36326   37.520
 6216.00    1.37618   1.36533   37.041
 6217.00    1.38612   1.36734   37.034
 6218.00    1.38849   1.36680   37.256
 6219.00    1.37500   1.36502   37.020
 6220.00    1.37486   1.36547   36.870
 6221.00    1.38422   1.36961   37.796
 6222.00    1.39101   1.37540   39.860
 6223.00    1.36190   1.38011   37.847
 6224.00    1.21581   1.38302   -1.000
 6225.00    1.30682   1.38446   36.674
 6226.00    1.41848   1.38349   -1.000
 6227.00    1.38869   1.37770   37.037
 6228.00    1.37949   1.36575   37.605
 6229.00    1.36525   1.35037   38.202
 6230.00    1.35240   1.33855   38.499
 6231.00    1.35107   1.33677   38.156
 6232.00    1.36004   1.34605   37.526
 6233.00    1.37806   1.36161   36.826
 6234.00    1.39586   1.37640   36.354
 6235.00    1.40295   1.38483   36.342
 6236.00    1.39426   1.38500   36.661
 6237.00    1.38113   1.37884   37.042
 6238.00    1.37355   1.37028   37.422
 6239.00    1.36859   1.36285   37.761
 6240.00    1.37046   1.35807   37.842
 6241.00    1.36604   1.35473   37.889
 6242.00    1.35719   1.35055   38.198
 6243.00    1.35219   1.34516   38.368
 6244.00    1.34937   1.34075   38.254
 6245.00    1.35824   1.34033   37.953
 6246.00    1.37405   1.34585   -1.000
 6247.00    1.38030   1.35640   37.069
 6248.00    1.38396   1.36744   36.786
 6249.00    1.39279   1.37311   36.885
 6250.00    1.38172   1.36997   37.355
 6251.00    1.36109   1.35946   38.024
 6252.00    1.35446   1.34717   38.405
 6253.00    1.34632   1.33852   38.608
 6254.00    1.34395   1.33472   38.668
 6255.00    1.34241   1.33327   38.736
 6256.00    1.33709   1.33186   39.132
 6257.00    1.33539   1.33131   39.338
 6258.00    1.33980   1.33451   39.001
 6259.00    1.34957   1.34303   38.375
 6260.00    1.36697   1.35523   37.819
 6261.00    1.38194   1.36765   37.292
 6262.00    1.38395   1.37706   36.807
 6263.00    1.37876   1.38161   36.791
 6264.00    1.38223   1.38196   37.119
 6265.00    1.38645   1.38127   37.245
 6266.00    1.37212   1.38212   37.008
 6267.00    1.37095   1.38374   36.836
 6268.00    1.37559   1.38374   37.026
 6269.00    1.37300   1.38208   37.152
 6270.00    1.38045   1.38091   37.057
 6271.00    1.38369   1.38136   36.935
 6272.00    1.38041   1.38188   36.901
 6273.00    1.37870   1.37968   37.062
 6274.00    1.37288   1.37314   37.356
 6275.00    1.35383   1.36277   37.735
 6276.00    1.32985   1.35055   38.465
 6277.00    1.31088   1.33876   39.406
 6278.00    1.30141   1.32949   39.962
 6279.00    1.29073   1.32464   40.063
 6280.00    1.28572   1.32586   39.747
 6281.00    1.29461   1.33356   39.060
 6282.00    1.29859   1.34595   38.404
 6283.00    1.29996   1.35966   37.853
 6284.00    1.31206   1.37175   37.447
 6285.00    1.33396   1.38107   37.143
 6286.00    1.35556   1.38784   36.819
 6287.00    1.36511   1.39184   36.619
 6288.00    1.37749   1.39200   36.634
 6289.00    1.37803   1.38817   36.886
 6290.00    1.37726   1.38228   37.199
 6291.00    1.37197   1.37707   37.418
 6292.00    1.36858   1.37396   37.461
 6293.00    1.37196   1.37213   37.508
 6294.00    1.36894   1.36936   37.636
 6295.00    1.36160   1.36429   37.940
 6296.00    1.34543   1.35814   38.133
 6297.00    1.33529   1.35356   38.142
 6298.00    1.33160   1.35162   38.048
 6299.00    1.33017   1.35059   37.876
 6300.00    1.32621   1.34884   37.834
 6301.00    1.32658   1.34799   38.236
 6302.00    1.33765   1.35132   38.482
 6303.00    1.35993   1.35944   38.007
 6304.00    1.37892   1.36957   37.420
 6305.00    1.37986   1.37881   37.014
 6306.00    1.38381   1.38610   36.704
 6307.00    1.38831   1.39123   36.437
 6308.00    1.39304   1.39359   36.463
 6309.00    1.37908   1.39291   36.665
 6310.00    1.38426   1.39001   36.894
 6311.00    1.38617   1.38608   37.026
 6312.00    1.38470   1.38160   37.151
 6313.00    1.37618   1.37633   37.252
 6314.00    1.37100   1.37049   37.577
 6315.00    1.36332   1.36518   37.644
 6316.00    1.35261   1.36124   37.603
 6317.00    1.35180   1.35928   37.591
 6318.00    1.36504   1.36083   37.603
 6319.00    1.37265   1.36689   37.362
 6320.00    1.37549   1.37561   36.904
 6321.00    1.37972   1.38409   36.611
 6322.00    1.38209   1.39150   36.495
 6323.00    1.39192   1.39823   36.352
 6324.00    1.39954   1.40370   36.169
 6325.00    1.39764   1.40671   36.089
 6326.00    1.39813   1.40721   36.035
 6327.00    1.40199   1.40649   35.892
 6328.00    1.40440   1.40576   35.948
 6329.00    1.39352   1.40560   35.969
 6330.00    1.39595   1.40640   35.954
 6331.00    1.40344   1.40762   35.826
 6332.00    1.41104   1.40671   35.816
 6333.00    1.39917   1.40072   35.926
 6334.00    1.38218   1.38999   36.205
 6335.00    1.37417   1.37949   36.932
 6336.00    1.38111   1.37514   36.831
 6337.00    1.37722   1.37870   36.477
 6338.00    1.38580   1.38718   36.094
 6339.00    1.39519   1.39624   35.751
 6340.00    1.39451   1.40261   35.597
 6341.00    1.40214   1.40459   35.472
 6342.00    1.39653   1.40248   35.594
 6343.00    1.38969   1.39869   35.874
 6344.00    1.39370   1.39639   35.858
 6345.00    1.40078   1.39733   35.723
 6346.00    1.39841   1.40125   35.507
 6347.00    1.39986   1.40712   35.282
 6348.00    1.40457   1.41374   35.196
 6349.00    1.41004   1.41952   35.193
 6350.00    1.40952   1.42276   35.135
 6351.00    1.40753   1.42234   35.210
 6352.00    1.40125   1.41827   35.374
 6353.00    1.39367   1.41193   35.599
 6354.00    1.38771   1.40563   36.008
 6355.00    1.38655   1.40089   36.231
 6356.00    1.37948   1.39701   36.244
 6357.00    1.38151   1.39237   36.440
 6358.00    1.37870   1.38689   36.818
 6359.00    1.36716   1.38203   36.870
 6360.00    1.37467   1.37861   36.705
 6361.00    1.38159   1.37656   36.614
 6362.00    1.37408   1.37637   36.563
 6363.00    1.36377   1.37911   36.397
 6364.00    1.37711   1.38483   36.149
 6365.00    1.39316   1.39221   35.930
 6366.00    1.39456   1.39949   35.731
 6367.00    1.39665   1.40514   35.497
 6368.00    1.40170   1.40813   35.297
 6369.00    1.40177   1.40882   35.248
 6370.00    1.39749   1.40915   35.245
 6371.00    1.39968   1.41100   35.107
 6372.00    1.40016   1.41463   35.027
 6373.00    1.39635   1.41851   35.123
 6374.00    1.39319   1.42067   35.155
 6375.00    1.38946   1.42030   35.251
 6376.00    1.38457   1.41787   35.398
 6377.00    1.38916   1.41435   35.598
 6378.00    1.38566   1.41073   35.820
 6379.00    1.38369   1.40779   35.917
 6380.00    1.38057   1.40608   35.944
 6381.00    1.37270   1.40581   35.999
 6382.00    1.36498   1.40672   35.959
 6383.00    1.37068   1.40818   35.923
 6384.00    1.37120   1.40994   36.093
 6385.00    1.36380   1.41218   36.137
 6386.00    1.36069   1.41475   36.134
 6387.00    1.35479   1.41675   36.258
 6388.00    1.35474   1.41709   36.421
 6389.00    1.35373   1.41472   36.735
 6390.00    1.34566   1.40845   37.055
 6391.00    1.33050   1.39843   37.527
 6392.00    1.31732   1.38821   38.048
 6393.00    1.30499   1.38377   38.236
 6394.00    1.29959   1.38830   37.968
 6395.00    1.31128   1.39816   37.494
 6396.00    1.31096   1.40538   37.548
 6397.00    1.31428   1.40408   37.887
 6398.00    1.29960   1.39503   38.564
 6399.00    1.27335   1.38554   39.323
 6400.00    1.25841   1.38412   39.387
 6401.00    1.26286   1.39323   38.871
 6402.00    1.28015   1.40738   38.344
 6403.00    1.28094   1.41859   38.263
 6404.00    1.27752   1.42230   -1.000
 6405.00    1.26853   1.41847   -1.000
 6406.00    1.25804   1.41014   -1.000
 6407.00    1.24616   1.40179   -1.000
 6408.00    1.24480   1.39712   -1.000
 6409.00    1.23940   1.39664   -1.000
 6410.00    1.22198   1.39798   -1.000
 6411.00    1.20602   1.39935   -1.000
 6412.00    1.19308   1.40118   -1.000
 6413.00    1.19373   1.40398   -1.000
 6414.00    1.19634   1.40708   -1.000
 6415.00    1.19321   1.40956   -1.000
 6416.00    1.19272   1.41051   -1.000
 6417.00    1.18259   1.40850   -1.000
 6418.00    1.16414   1.40265   -1.000
 6419.00    1.14681   1.39500   -1.000
 6420.00    1.12669   1.39042   -1.000
 6421.00    1.11745   1.39305   -1.000
 6422.00    1.10924   1.40241   -1.000
 6423.00    1.11140   1.41390   -1.000
 6424.00    1.12183   1.42322   -1.000
 6425.00    1.11745   1.42899   -1.000
 6426.00    1.09733   1.43110   -1.000
 6427.00    1.08211   1.42843   -1.000
 6428.00    1.07773   1.41989   -1.000
