###################################################################
## OUTPUT of StarlightChains_v04.for    [Cid@UFSC - 01/Apr/2007] ##
###################################################################

## Some input info
NGC6652_b_1.cxt                          [arq_obs]
Base.BC03.S                              [arq_base]
NGC6652_b_1.msk                          [arq_masks]
StCv04.C99.config                        [arq_config]
  150                                    [N_base]
    0                                    [N_YAV_components = # of components with extra extinction!]
    0                                    [i_FitPowerLaw (1/0 = Yes/No)]
-9.99                                    [alpha_PowerLaw]
CCM                                      [red_law_option]
 1.458241                                [q_norm = A(l_norm)/A(V)]

## (Re)Sampling Parameters
 3359.00                                 [l_ini (A)]
 6428.00                                 [l_fin (A)]
    1.00                                 [dl    (A)]     (OBS: dl_cushion =    50.00 A)

## Normalization info
 4020.00                                 [l_norm (A) - for base]
 4010.00                                 [llow_norm (A) - window for f_obs]
 4060.00                                 [lupp_norm (A) - window for f_obs]
1.611308E-14                             [fobs_norm (in input units)]

## S/N
 4730.00                                 [llow_SN (A) - window for S/N]
 4780.00                                 [lupp_SN (A) - window for S/N]
  60.034                                 [S/N in S/N window]
  49.598                                 [S/N in norm. window]
  73.857                                 [S/N_err in S/N window]
  61.019                                 [S/N_err in norm. window]
  1.0000                                 [fscale_chi2]

## etc...
  2147483591                             [idum_orig]
  3064                                   [NOl_eff]
  2026                                   [Nl_eff]
  1038    NSIGMA                         [Ntot_cliped & clip_method]
  2403450                                [Nglobal_steps]
   7                                     [N_chains]
  15                                     [NEX0s_base = N_base in EX0s-fits]
 0   0   1      173   2.0   7.713E+02    [Clip-Bug, RC-Crash & Burn-In warning-flags, n_censored_weights, wei_nsig_threshold & wei_limit]
    95     94.952     94.939      0.012  [idt_all, wdt_TotTime, wdt_UsrTime & wdt_SysTime (sec)]

## Synthesis Results - Best model ##

 2.21484E+00                             [chi2/Nl_eff]
     1.82523                             [adev (%)]

   101.36187                             [sum-of-x (%)]
 1.61045E-14                             [Flux_tot (units of input spectrum!)]
 5.03860E-10                             [Mini_tot (???)]
 2.55677E-10                             [Mcor_tot (???)]

  31.89                                  [v0_min  (km/s)]
  48.11                                  [vd_min  (km/s)]
-0.0105                                  [AV_min  (mag)]
 0.0000                                  [YAV_min (mag)]

# j     x_j(%)      Mini_j(%)     Mcor_j(%)     age_j(yr)     Z_j      (L/M)_j    YAV?  Mstars   component_j        a/Fe...       SSP_chi2r SSP_adev(%)   SSP_AV   SSP_x(%)
  1      0.0000     0.0000E+00    0.0000E+00    1.000000E+06  0.00010  8.160E-03    0   1.0000   age020_m22            0.0000     2.9018E+02    16.1875   4.0000    67.9875
  2      1.1609     7.6919E-04    1.5158E-03    3.160000E+06  0.00010  4.759E-02    0   1.0000   age045_m22            0.0000     6.1555E+01     8.7521   2.0701    91.3034
  3      0.0000     0.0000E+00    0.0000E+00    5.010000E+06  0.00010  1.932E-02    0   0.9582   age055_m22            0.0000     2.2146E+02    16.5645   2.6127    71.0860
  4      0.0000     0.0000E+00    0.0000E+00    6.610000E+06  0.00010  9.973E-03    0   0.9297   age061_m22            0.0000     2.7740E+02    15.8890   4.0000    70.0615
  5      0.0000     0.0000E+00    0.0000E+00    8.710000E+06  0.00010  7.690E-03    0   0.9030   age067_m22            0.0000     2.6280E+02    15.4891   4.0000    70.6327
  6      0.0000     0.0000E+00    0.0000E+00    1.000000E+07  0.00010  6.375E-03    0   0.8902   age070_m22            0.0000     2.5521E+02    15.2111   4.0000    71.0961
  7      0.0000     0.0000E+00    0.0000E+00    1.445000E+07  0.00010  4.874E-03    0   0.8589   age078_m22            0.0000     1.7580E+02    14.2401   4.0000    73.3349
  8      0.0000     0.0000E+00    0.0000E+00    2.512000E+07  0.00010  4.103E-03    0   0.8174   age090_m22            0.0000     9.7435E+01    11.3057   3.5314    82.5089
  9      0.0000     0.0000E+00    0.0000E+00    4.000000E+07  0.00010  3.654E-03    0   0.7830   age104_m22            0.0000     6.2881E+01     8.8179   3.0930    91.8401
 10      0.0000     0.0000E+00    0.0000E+00    5.500000E+07  0.00010  3.093E-03    0   0.7597   age110_m22            0.0000     5.8538E+01     7.9850   2.9439    95.0665
 11      0.0000     0.0000E+00    0.0000E+00    1.015200E+08  0.00010  2.431E-03    0   0.7138   age116_m22            0.0000     6.6302E+01     7.6586   2.5264   100.6072
 12      0.0000     0.0000E+00    0.0000E+00    1.609000E+08  0.00010  1.319E-03    0   0.6775   age120_m22            0.0000     5.9581E+01     7.3361   2.0673   102.3702
 13      0.0000     0.0000E+00    0.0000E+00    2.861200E+08  0.00010  1.075E-03    0   0.6412   age125_m22            0.0000     1.4609E+02     9.7896   1.9129   114.2847
 14      0.0000     0.0000E+00    0.0000E+00    5.088000E+08  0.00010  7.183E-04    0   0.6083   age130_m22            0.0000     1.8567E+02    11.1174   1.6147   118.6864
 15      0.0000     0.0000E+00    0.0000E+00    9.047900E+08  0.00010  4.524E-04    0   0.5785   age135_m22            0.0000     1.9136E+02    11.3042   1.4041   120.5099
 16      0.0000     0.0000E+00    0.0000E+00    1.278050E+09  0.00010  3.018E-04    0   0.5588   age138_m22            0.0000     8.3786E+01     7.7430   1.0281   112.4582
 17      0.0000     0.0000E+00    0.0000E+00    1.434000E+09  0.00010  2.691E-04    0   0.5532   age139_m22            0.0000     6.8135E+01     7.1212   0.9016   110.6948
 18      0.0000     0.0000E+00    0.0000E+00    2.500000E+09  0.00010  1.582E-04    0   0.5296   age150_m22            0.0000     6.0478E+01     6.9049   0.8135   110.4797
 19      0.0000     0.0000E+00    0.0000E+00    4.250000E+09  0.00010  1.007E-04    0   0.5110   age158_m22            0.0000     3.6142E+01     5.7506   0.7354   105.8375
 20      0.0000     0.0000E+00    0.0000E+00    6.250000E+09  0.00010  6.869E-05    0   0.4985   age166_m22            0.0000     2.5859E+01     5.1856   0.7528   100.1894
 21      0.0000     0.0000E+00    0.0000E+00    7.500000E+09  0.00010  5.873E-05    0   0.4931   age171_m22            0.0000     2.6854E+01     5.4023   0.7549    99.1117
 22      0.0000     0.0000E+00    0.0000E+00    1.000000E+10  0.00010  4.481E-05    0   0.4854   age181_m22            0.0000     2.6089E+01     5.3497   0.7176    98.7177
 23      0.0000     0.0000E+00    0.0000E+00    1.300000E+10  0.00010  3.489E-05    0   0.4791   age193_m22            0.0000     2.4745E+01     5.2308   0.6654    97.9953
 24      0.0001     5.7225E-05    5.3748E-05    1.500000E+10  0.00010  3.035E-05    0   0.4766   age201_m22            0.0000     2.4189E+01     5.2014   0.6303    97.6468
 25      0.0000     0.0000E+00    0.0000E+00    1.800000E+10  0.00010  2.510E-05    0   0.4735   age213_m22            0.0000     2.3608E+01     5.1905   0.5733    96.5910
 26      0.0000     0.0000E+00    0.0000E+00    1.000000E+06  0.00040  8.458E-03    0   1.0000   age020_m32            0.0000     2.9186E+02    16.2387   4.0000    68.6367
 27      0.0000     0.0000E+00    0.0000E+00    3.160000E+06  0.00040  3.973E-02    0   1.0000   age045_m32            0.0000     1.0888E+02    11.8632   3.4450    81.8300
 28      0.0000     0.0000E+00    0.0000E+00    5.010000E+06  0.00040  1.935E-02    0   0.9532   age055_m32            0.0000     1.9271E+02    15.5680   3.7894    72.6101
 29      0.0000     0.0000E+00    0.0000E+00    6.610000E+06  0.00040  1.204E-02    0   0.9243   age061_m32            0.0000     2.1472E+02    15.0153   4.0000    71.5136
 30      0.0000     0.0000E+00    0.0000E+00    8.710000E+06  0.00040  9.433E-03    0   0.9001   age067_m32            0.0000     1.9389E+02    14.7084   4.0000    72.4749
 31      0.0000     0.0000E+00    0.0000E+00    1.000000E+07  0.00040  8.053E-03    0   0.8877   age070_m32            0.0000     1.8522E+02    14.8069   4.0000    72.6982
 32      0.0000     0.0000E+00    0.0000E+00    1.445000E+07  0.00040  7.027E-03    0   0.8578   age078_m32            0.0000     1.2756E+02    12.8877   3.4345    79.6199
 33      0.0000     0.0000E+00    0.0000E+00    2.512000E+07  0.00040  4.707E-03    0   0.8166   age090_m32            0.0000     8.7248E+01    10.8391   3.0613    85.9037
 34      0.0000     0.0000E+00    0.0000E+00    4.000000E+07  0.00040  3.714E-03    0   0.7827   age104_m32            0.0000     6.2603E+01     8.9308   2.7598    92.5972
 35      0.0000     0.0000E+00    0.0000E+00    5.500000E+07  0.00040  2.982E-03    0   0.7593   age110_m32            0.0000     5.8874E+01     8.2822   2.6593    95.2036
 36      0.0000     0.0000E+00    0.0000E+00    1.015200E+08  0.00040  2.188E-03    0   0.7143   age116_m32            0.0000     8.1676E+01     7.8696   2.2359   105.3960
 37      0.0000     0.0000E+00    0.0000E+00    1.609000E+08  0.00040  1.690E-03    0   0.6856   age120_m32            0.0000     1.2314E+02     8.9933   1.9298   111.8858
 38      0.0000     0.0000E+00    0.0000E+00    2.861200E+08  0.00040  1.152E-03    0   0.6509   age125_m32            0.0000     1.5679E+02    10.0961   1.6399   116.4166
 39      0.0000     0.0000E+00    0.0000E+00    5.088000E+08  0.00040  7.331E-04    0   0.6182   age130_m32            0.0000     1.7396E+02    10.7422   1.4429   118.4942
 40      0.0000     0.0000E+00    0.0000E+00    9.047900E+08  0.00040  3.960E-04    0   0.5890   age135_m32            0.0000     8.5642E+01     7.8139   1.1108   112.1207
 41      0.0000     0.0000E+00    0.0000E+00    1.278050E+09  0.00040  2.854E-04    0   0.5687   age138_m32            0.0000     6.9947E+01     7.1763   0.8522   112.5884
 42      0.0000     0.0000E+00    0.0000E+00    1.434000E+09  0.00040  2.531E-04    0   0.5632   age139_m32            0.0000     6.8127E+01     7.1268   0.7924   112.4602
 43     33.3434     7.0659E+00    7.4999E+00    2.500000E+09  0.00040  1.488E-04    0   0.5386   age150_m32            0.0000     4.6707E+01     6.1341   0.5736   108.9997
 44      7.6390     2.6523E+00    2.7174E+00    4.250000E+09  0.00040  9.082E-05    0   0.5199   age158_m32            0.0000     2.1544E+01     4.6703   0.5917   101.0759
 45      0.0000     0.0000E+00    0.0000E+00    6.250000E+09  0.00040  6.362E-05    0   0.5076   age166_m32            0.0000     2.6619E+01     5.4595   0.6431    94.2427
 46      0.0000     0.0000E+00    0.0000E+00    7.500000E+09  0.00040  5.289E-05    0   0.5027   age171_m32            0.0000     2.8315E+01     5.5933   0.6221    92.4979
 47      2.9050     2.3062E+00    2.2488E+00    1.000000E+10  0.00040  3.972E-05    0   0.4948   age181_m32            0.0000     2.8444E+01     5.5161   0.5689    90.9482
 48      0.0000     0.0000E+00    0.0000E+00    1.300000E+10  0.00040  3.283E-05    0   0.4870   age193_m32            0.0000     1.9875E+01     4.6519   0.4764    95.3223
 49      0.0000     0.0000E+00    0.0000E+00    1.500000E+10  0.00040  2.925E-05    0   0.4854   age201_m32            0.0000     1.7719E+01     4.3814   0.4279    97.9793
 50      0.0004     5.2979E-04    5.0313E-04    1.800000E+10  0.00040  2.469E-05    0   0.4819   age213_m32            0.0000     1.7012E+01     4.2852   0.3737    98.9736
 51      0.0000     0.0000E+00    0.0000E+00    1.000000E+06  0.00400  1.114E-02    0   1.0000   age020_m42            0.0000     2.6363E+02    15.4363   4.0000    68.7590
 52      0.0000     0.0000E+00    0.0000E+00    3.160000E+06  0.00400  4.073E-02    0   0.9999   age045_m42            0.0000     8.1455E+01    10.1973   3.0912    85.9817
 53      0.0000     0.0000E+00    0.0000E+00    5.010000E+06  0.00400  2.534E-02    0   0.9488   age055_m42            0.0000     1.4372E+02    13.4437   3.6127    76.4609
 54      0.0000     0.0000E+00    0.0000E+00    6.610000E+06  0.00400  2.583E-02    0   0.9220   age061_m42            0.0000     6.7823E+01     9.4512   2.8589    88.6039
 55      0.0000     0.0000E+00    0.0000E+00    8.710000E+06  0.00400  1.706E-02    0   0.8983   age067_m42            0.0000     9.7204E+01    11.5139   2.7612    84.0072
 56      0.0000     0.0000E+00    0.0000E+00    1.000000E+07  0.00400  1.271E-02    0   0.8862   age070_m42            0.0000     1.2622E+02    13.1069   2.7923    80.9295
 57      0.0000     0.0000E+00    0.0000E+00    1.445000E+07  0.00400  7.666E-03    0   0.8571   age078_m42            0.0000     1.5593E+02    14.1641   3.2461    76.4609
 58      0.0000     0.0000E+00    0.0000E+00    2.512000E+07  0.00400  5.070E-03    0   0.8174   age090_m42            0.0000     1.1544E+02    12.4650   2.6534    82.6300
 59      0.0000     0.0000E+00    0.0000E+00    4.000000E+07  0.00400  3.505E-03    0   0.7851   age104_m42            0.0000     8.6444E+01    10.6124   2.3022    86.6121
 60      0.0000     0.0000E+00    0.0000E+00    5.500000E+07  0.00400  3.059E-03    0   0.7629   age110_m42            0.0000     4.8660E+01     7.3156   2.1989    97.0312
 61      0.0000     0.0000E+00    0.0000E+00    1.015200E+08  0.00400  2.268E-03    0   0.7207   age116_m42            0.0000     9.9956E+01     8.0612   1.8691   111.4651
 62      0.0000     0.0000E+00    0.0000E+00    1.609000E+08  0.00400  1.720E-03    0   0.6930   age120_m42            0.0000     1.1083E+02     8.3576   1.6927   114.5568
 63      0.0000     0.0000E+00    0.0000E+00    2.861200E+08  0.00400  1.079E-03    0   0.6613   age125_m42            0.0000     1.0182E+02     8.3144   1.3525   114.5068
 64      0.0000     0.0000E+00    0.0000E+00    5.088000E+08  0.00400  6.261E-04    0   0.6313   age130_m42            0.0000     1.2692E+02     9.1482   1.1072   119.6094
 65      0.0000     0.0000E+00    0.0000E+00    9.047900E+08  0.00400  3.535E-04    0   0.6024   age135_m42            0.0000     6.5568E+01     6.8441   0.7969   116.1049
 66      0.0000     0.0000E+00    0.0000E+00    1.278050E+09  0.00400  2.677E-04    0   0.5837   age138_m42            0.0000     1.2685E+01     3.5860   0.2322   108.3194
 67      0.0000     0.0000E+00    0.0000E+00    1.434000E+09  0.00400  1.910E-04    0   0.5716   age139_m42            0.0000     2.0963E+01     4.2426   0.3667   110.5982
 68      4.1568     1.3350E+00    1.4373E+00    2.500000E+09  0.00400  9.818E-05    0   0.5463   age150_m42            0.0000     3.3229E+00     1.8803   0.2213   100.9156
 69      0.0000     0.0000E+00    0.0000E+00    4.250000E+09  0.00400  5.491E-05    0   0.5269   age158_m42            0.0000     7.9897E+00     2.6600   0.1509    96.1590
 70      0.0000     0.0000E+00    0.0000E+00    6.250000E+09  0.00400  3.857E-05    0   0.5151   age166_m42            0.0000     1.1372E+01     3.0322   0.0401    94.3310
 71      0.0000     0.0000E+00    0.0000E+00    7.500000E+09  0.00400  3.243E-05    0   0.5110   age171_m42            0.0000     1.3513E+01     3.2431  -0.0339    93.6484
 72      5.8169     7.5670E+00    7.4978E+00    1.000000E+10  0.00400  2.424E-05    0   0.5028   age181_m42            0.0000     1.7951E+01     3.6393  -0.1057    92.7847
 73      0.0000     0.0000E+00    0.0000E+00    1.300000E+10  0.00400  1.883E-05    0   0.4927   age193_m42            0.0000     2.3651E+01     4.0730  -0.1360    92.1378
 74      0.0000     0.0000E+00    0.0000E+00    1.500000E+10  0.00400  1.685E-05    0   0.4919   age201_m42            0.0000     2.2771E+01     4.0371  -0.1316    92.1449
 75      0.0000     0.0000E+00    0.0000E+00    1.800000E+10  0.00400  1.452E-05    0   0.4874   age213_m42            0.0000     2.1349E+01     3.9700  -0.1181    92.4085
 76      0.0000     0.0000E+00    0.0000E+00    1.000000E+06  0.00800  1.286E-02    0   1.0000   age020_m52            0.0000     2.3764E+02    14.6104   4.0000    70.4384
 77      0.0000     0.0000E+00    0.0000E+00    3.160000E+06  0.00800  3.147E-02    0   0.9966   age045_m52            0.0000     2.1412E+02    14.6563   4.0000    71.2866
 78      0.0000     0.0000E+00    0.0000E+00    5.010000E+06  0.00800  2.664E-02    0   0.9443   age055_m52            0.0000     1.6368E+02    14.1289   3.7679    74.5410
 79      0.0000     0.0000E+00    0.0000E+00    6.610000E+06  0.00800  2.151E-02    0   0.9177   age061_m52            0.0000     1.1809E+02    12.1436   2.4109    81.6570
 80      0.0000     0.0000E+00    0.0000E+00    8.710000E+06  0.00800  1.628E-02    0   0.8948   age067_m52            0.0000     1.1243E+02    12.1247   2.7561    82.9903
 81      0.0000     0.0000E+00    0.0000E+00    1.000000E+07  0.00800  1.215E-02    0   0.8827   age070_m52            0.0000     1.3043E+02    12.9809   3.1237    80.4651
 82      0.0000     0.0000E+00    0.0000E+00    1.445000E+07  0.00800  8.739E-03    0   0.8552   age078_m52            0.0000     1.1148E+02    12.0593   3.1273    82.9727
 83      0.0000     0.0000E+00    0.0000E+00    2.512000E+07  0.00800  5.676E-03    0   0.8162   age090_m52            0.0000     7.8316E+01    10.2309   2.6237    90.9473
 84      0.0000     0.0000E+00    0.0000E+00    4.000000E+07  0.00800  3.939E-03    0   0.7841   age104_m52            0.0000     6.3087E+01     8.6040   2.3962    95.8035
 85      0.0000     0.0000E+00    0.0000E+00    5.500000E+07  0.00800  3.155E-03    0   0.7627   age110_m52            0.0000     5.8842E+01     7.6154   2.3076    99.8388
 86      0.0000     0.0000E+00    0.0000E+00    1.015200E+08  0.00800  2.206E-03    0   0.7226   age116_m52            0.0000     7.3809E+01     7.2810   1.9979   108.5966
 87      0.0000     0.0000E+00    0.0000E+00    1.609000E+08  0.00800  1.596E-03    0   0.6963   age120_m52            0.0000     8.4371E+01     7.6179   1.7390   112.0754
 88      0.0000     0.0000E+00    0.0000E+00    2.861200E+08  0.00800  1.002E-03    0   0.6665   age125_m52            0.0000     1.3102E+02     9.4936   1.3342   119.2899
 89      0.0000     0.0000E+00    0.0000E+00    5.088000E+08  0.00800  5.759E-04    0   0.6377   age130_m52            0.0000     1.4088E+02    10.1990   0.9468   125.0023
 90      0.0000     0.0000E+00    0.0000E+00    9.047900E+08  0.00800  2.972E-04    0   0.6086   age135_m52            0.0000     5.6357E+01     6.9660   0.5468   118.0702
 91      0.0000     0.0000E+00    0.0000E+00    1.278050E+09  0.00800  2.242E-04    0   0.5907   age138_m52            0.0000     1.1047E+01     3.4614   0.0665   110.9236
 92      0.0000     0.0000E+00    0.0000E+00    1.434000E+09  0.00800  1.645E-04    0   0.5787   age139_m52            0.0000     8.3261E+00     3.0492   0.2308   109.7141
 93      0.0000     0.0000E+00    0.0000E+00    2.500000E+09  0.00800  7.723E-05    0   0.5519   age150_m52            0.0000     5.7907E+00     2.3536  -0.0320   102.9376
 94      0.0000     0.0000E+00    0.0000E+00    4.250000E+09  0.00800  4.151E-05    0   0.5320   age158_m52            0.0000     8.0279E+00     2.6703  -0.0749    99.4214
 95      0.0000     0.0000E+00    0.0000E+00    6.250000E+09  0.00800  3.010E-05    0   0.5197   age166_m52            0.0000     1.4689E+01     3.4101  -0.2525    97.4962
 96      0.0005     6.5006E-04    6.5834E-04    7.500000E+09  0.00800  2.467E-05    0   0.5139   age171_m52            0.0000     1.6647E+01     3.5845  -0.2930    97.0823
 97     23.4090     3.9643E+01    3.9484E+01    1.000000E+10  0.00800  1.862E-05    0   0.5054   age181_m52            0.0000     2.2784E+01     4.1111  -0.4260    96.8398
 98     16.2770     3.5817E+01    3.5208E+01    1.300000E+10  0.00800  1.433E-05    0   0.4988   age193_m52            0.0000     3.3307E+01     4.7510  -0.5207    97.3999
 99      0.6045     1.5322E+00    1.4905E+00    1.500000E+10  0.00800  1.244E-05    0   0.4936   age201_m52            0.0000     3.8354E+01     5.0004  -0.5494    97.8066
100      0.0221     6.5203E-02    6.2808E-02    1.800000E+10  0.00800  1.070E-05    0   0.4888   age213_m52            0.0000     4.1248E+01     5.1907  -0.5874    97.7607
101      0.0000     0.0000E+00    0.0000E+00    1.000000E+06  0.02000  1.989E-02    0   1.0000   age020_m62            0.0000     2.5571E+02    15.2807   4.0000    69.0922
102      0.0000     0.0000E+00    0.0000E+00    3.160000E+06  0.02000  3.772E-02    0   0.9858   age045_m62            0.0000     2.1569E+02    15.4041   4.0000    70.3220
103      0.0000     0.0000E+00    0.0000E+00    5.010000E+06  0.02000  3.227E-02    0   0.9342   age055_m62            0.0000     1.0665E+02    11.7734   3.4021    81.3736
104      0.0000     0.0000E+00    0.0000E+00    6.610000E+06  0.02000  2.387E-02    0   0.9090   age061_m62            0.0000     1.4600E+02    13.8457   3.2077    78.7129
105      0.0000     0.0000E+00    0.0000E+00    8.710000E+06  0.02000  1.102E-02    0   0.8861   age067_m62            0.0000     2.9575E+02    19.6450   2.9690    69.7141
106      0.0000     0.0000E+00    0.0000E+00    1.000000E+07  0.02000  1.011E-02    0   0.8751   age070_m62            0.0000     2.2950E+02    17.2635   2.9416    73.5151
107      0.0000     0.0000E+00    0.0000E+00    1.445000E+07  0.02000  7.331E-03    0   0.8472   age078_m62            0.0000     1.8201E+02    15.2863   2.9202    76.2222
108      0.0000     0.0000E+00    0.0000E+00    2.512000E+07  0.02000  4.206E-03    0   0.8099   age090_m62            0.0000     1.9149E+02    15.5249   2.8580    75.0578
109      0.0000     0.0000E+00    0.0000E+00    4.000000E+07  0.02000  3.373E-03    0   0.7799   age104_m62            0.0000     7.7109E+01    10.0630   2.4738    89.6370
110      0.0000     0.0000E+00    0.0000E+00    5.500000E+07  0.02000  2.747E-03    0   0.7595   age110_m62            0.0000     5.6289E+01     8.0779   2.2980    97.0771
111      0.0000     0.0000E+00    0.0000E+00    1.015200E+08  0.02000  1.878E-03    0   0.7221   age116_m62            0.0000     8.0002E+01     7.8135   1.9741   109.0015
112      0.0000     0.0000E+00    0.0000E+00    1.609000E+08  0.02000  1.378E-03    0   0.6978   age120_m62            0.0000     1.1814E+02     8.8406   1.7192   115.6918
113      0.0000     0.0000E+00    0.0000E+00    2.861200E+08  0.02000  8.869E-04    0   0.6700   age125_m62            0.0000     1.9964E+02    11.4245   1.2040   125.9700
114      0.0000     0.0000E+00    0.0000E+00    5.088000E+08  0.02000  4.834E-04    0   0.6430   age130_m62            0.0000     1.6187E+02    10.9031   0.7842   127.8057
115      0.0000     0.0000E+00    0.0000E+00    9.047900E+08  0.02000  2.312E-04    0   0.6152   age135_m62            0.0000     5.2599E+01     6.4528   0.3424   120.1815
116      0.0000     0.0000E+00    0.0000E+00    1.278050E+09  0.02000  1.387E-04    0   0.5927   age138_m62            0.0000     9.3705E+00     3.0866   0.1030   109.7568
117      0.0000     0.0000E+00    0.0000E+00    1.434000E+09  0.02000  1.168E-04    0   0.5865   age139_m62            0.0000     6.1407E+00     2.5919   0.1072   106.9722
118      0.0000     0.0000E+00    0.0000E+00    2.500000E+09  0.02000  5.505E-05    0   0.5610   age150_m62            0.0000     8.6119E+00     3.0159  -0.2144   101.9471
119      0.0000     0.0000E+00    0.0000E+00    4.250000E+09  0.02000  3.070E-05    0   0.5407   age158_m62            0.0000     2.2078E+01     4.4336  -0.5135   101.9960
120      0.0000     0.0000E+00    0.0000E+00    6.250000E+09  0.02000  2.104E-05    0   0.5277   age166_m62            0.0000     3.3934E+01     5.2239  -0.6494   102.5195
121      0.0000     0.0000E+00    0.0000E+00    7.500000E+09  0.02000  1.770E-05    0   0.5223   age171_m62            0.0000     3.9901E+01     5.6589  -0.7438   103.1049
122      0.0000     0.0000E+00    0.0000E+00    1.000000E+10  0.02000  1.297E-05    0   0.5121   age181_m62            0.0000     5.4482E+01     6.5679  -0.9117   103.9220
123      0.0000     0.0000E+00    0.0000E+00    1.300000E+10  0.02000  9.691E-06    0   0.5047   age193_m62            0.0000     6.5844E+01     7.1635  -0.9995   104.4061
124      0.0000     0.0000E+00    0.0000E+00    1.500000E+10  0.02000  8.360E-06    0   0.4999   age201_m62            0.0000     7.7396E+01     7.4801  -1.0000   103.7446
125      0.0000     0.0000E+00    0.0000E+00    1.800000E+10  0.02000  6.911E-06    0   0.4946   age213_m62            0.0000     9.6931E+01     8.3795  -1.0000   103.0769
126      0.0000     0.0000E+00    0.0000E+00    1.000000E+06  0.05000  2.651E-02    0   0.9998   age020_m72            0.0000     2.4533E+02    14.8272   4.0000    70.0314
127      0.0000     0.0000E+00    0.0000E+00    3.160000E+06  0.05000  4.817E-02    0   0.9577   age045_m72            0.0000     1.6680E+02    14.1884   3.8823    74.1949
128      0.0000     0.0000E+00    0.0000E+00    5.010000E+06  0.05000  3.101E-02    0   0.9147   age055_m72            0.0000     1.5722E+02    13.9167   3.5122    76.8588
129      0.0000     0.0000E+00    0.0000E+00    6.610000E+06  0.05000  1.472E-02    0   0.8877   age061_m72            0.0000     2.5321E+02    17.7576   3.1705    71.7023
130      0.0000     0.0000E+00    0.0000E+00    8.710000E+06  0.05000  1.050E-02    0   0.8638   age067_m72            0.0000     1.9852E+02    15.5939   3.5254    73.7381
131      0.0000     0.0000E+00    0.0000E+00    1.000000E+07  0.05000  8.954E-03    0   0.8524   age070_m72            0.0000     1.6119E+02    13.8420   3.7716    75.1492
132      0.0000     0.0000E+00    0.0000E+00    1.445000E+07  0.05000  6.392E-03    0   0.8262   age078_m72            0.0000     1.4369E+02    13.0491   3.6978    76.7711
133      0.0000     0.0000E+00    0.0000E+00    2.512000E+07  0.05000  4.207E-03    0   0.7902   age090_m72            0.0000     9.5820E+01    10.8374   3.2355    83.5159
134      0.0000     0.0000E+00    0.0000E+00    4.000000E+07  0.05000  3.198E-03    0   0.7618   age104_m72            0.0000     5.2107E+01     7.0437   2.4679   100.1142
135      0.0000     0.0000E+00    0.0000E+00    5.500000E+07  0.05000  2.593E-03    0   0.7432   age110_m72            0.0000     6.3512E+01     7.2883   2.3067   104.4510
136      0.0000     0.0000E+00    0.0000E+00    1.015200E+08  0.05000  1.716E-03    0   0.7092   age116_m72            0.0000     9.6859E+01     8.2546   2.0103   111.0628
137      0.0000     0.0000E+00    0.0000E+00    1.609000E+08  0.05000  1.218E-03    0   0.6876   age120_m72            0.0000     1.4476E+02     9.5429   1.6334   118.2811
138      0.0000     0.0000E+00    0.0000E+00    2.861200E+08  0.05000  7.047E-04    0   0.6618   age125_m72            0.0000     1.9821E+02    11.6777   0.9751   127.0726
139      0.0000     0.0000E+00    0.0000E+00    5.088000E+08  0.05000  3.590E-04    0   0.6356   age130_m72            0.0000     1.3799E+02    10.2463   0.4384   128.1148
140      0.0000     0.0000E+00    0.0000E+00    9.047900E+08  0.05000  1.484E-04    0   0.6088   age135_m72            0.0000     1.7587E+01     4.0946  -0.0489   111.0857
141      6.0240     2.0133E+00    2.3504E+00    1.278050E+09  0.05000  9.435E-05    0   0.5924   age138_m72            0.0000     1.4730E+01     4.0179  -0.3930   105.6980
142      0.0024     9.7064E-04    1.1184E-03    1.434000E+09  0.05000  7.827E-05    0   0.5847   age139_m72            0.0000     1.4392E+01     3.8533  -0.3588   104.2888
143      0.0000     0.0000E+00    0.0000E+00    2.500000E+09  0.05000  3.759E-05    0   0.5583   age150_m72            0.0000     3.2610E+01     5.1564  -0.6532   102.2876
144      0.0000     0.0000E+00    0.0000E+00    4.250000E+09  0.05000  1.842E-05    0   0.5374   age158_m72            0.0000     5.1968E+01     6.5065  -0.9799   101.9310
145      0.0000     0.0000E+00    0.0000E+00    6.250000E+09  0.05000  1.207E-05    0   0.5242   age166_m72            0.0000     9.2610E+01     8.8416  -1.0000    98.6361
146      0.0000     0.0000E+00    0.0000E+00    7.500000E+09  0.05000  9.993E-06    0   0.5183   age171_m72            0.0000     1.0486E+02     9.5584  -1.0000    97.8824
147      0.0000     0.0000E+00    0.0000E+00    1.000000E+10  0.05000  7.291E-06    0   0.5081   age181_m72            0.0000     1.6013E+02    11.9737  -1.0000    95.8911
148      0.0000     0.0000E+00    0.0000E+00    1.300000E+10  0.05000  5.316E-06    0   0.5018   age193_m72            0.0000     2.7790E+02    15.5775  -1.0000    92.4269
149      0.0000     0.0000E+00    0.0000E+00    1.500000E+10  0.05000  4.497E-06    0   0.4972   age201_m72            0.0000     3.4200E+02    17.0236  -1.0000    91.2235
150      0.0000     0.0000E+00    0.0000E+00    1.800000E+10  0.05000  3.739E-06    0   0.4924   age213_m72            0.0000     4.3854E+02    18.8991  -1.0000    89.0984


## Synthesis Results - Average & Chains ##

# j      x_j: min, <> & last-chain-values for 1 ...  7 chains
  1      0.0000      0.0008      0.0000      0.0000      0.0000      0.0000      0.0000      0.0000      0.0000
  2      1.1609      0.0507      0.2473      0.0441      0.0000      0.1548      0.0000      0.1776      0.4768
  3      0.0000      0.0020      0.0000      0.0000      0.0010      0.0000      0.0000      0.0000      0.0000
  4      0.0000      0.0004      0.0000      0.0000      0.0000      0.0000      0.0000      0.0000      0.0000
  5      0.0000      0.0004      0.0000      0.0000      0.0000      0.0000      0.0000      0.0000      0.0000
  6      0.0000      0.0004      0.0000      0.0000      0.0000      0.0000      0.0000      0.0000      0.0000
  7      0.0000      0.0006      0.0000      0.0000      0.0000      0.0000      0.0000      0.0000      0.0000
  8      0.0000      0.0011      0.0000      0.0000      0.0000      0.0000      0.0000      0.0000      0.0000
  9      0.0000      0.0085      0.0000      0.0000      0.0000      0.0000      0.0699      0.0000      0.0000
 10      0.0000      0.0092      0.0000      0.0000      0.0000      0.0000      0.0000      0.0000      0.0000
 11      0.0000      0.0121      0.0000      0.0000      0.0000      0.0000      0.0000      0.0000      0.0122
 12      0.0000      0.0090      0.0000      0.0000      0.0000      0.0000      0.0000      0.0000      0.0000
 13      0.0000      0.0111      0.0000      0.0000      0.0000      0.0000      0.0000      0.0000      0.0000
 14      0.0000      0.0231      0.0000      0.0000      0.0000      0.0000      0.0000      0.0000      0.0000
 15      0.0000      0.0200      0.0000      0.0000      0.0019      0.0000      0.0000      0.0000      0.0000
 16      0.0000      0.0491      0.0000      0.0000      0.0000      0.0000      0.2090      0.0000      0.0000
 17      0.0000      0.0516      0.0000      0.0000      0.0000      0.0000      0.0000      0.2948      0.0000
 18      0.0000      0.0528      0.0000      0.0216      0.0000      0.0332      0.0000      0.0000      0.0000
 19      0.0000      0.0653      0.0000      0.0886      0.2463      0.1465      0.0000      0.0000      0.0000
 20      0.0000      0.1114      0.0000      0.2014      0.0874      0.0000      0.0000      0.0000      0.0000
 21      0.0000      0.1334      0.4586      0.1703      0.0000      0.1604      0.0000      0.0000      0.1438
 22      0.0000      0.1845      0.0000      0.2424      0.0000      0.0000      1.0581      0.1099      0.1531
 23      0.0000      0.1813      0.1514      0.6929      0.0000      0.0000      0.0093      0.2175      0.0000
 24      0.0001      0.1825      0.5212      0.0175      1.2343      0.1257      0.0000      0.2492      0.6357
 25      0.0000      0.1474      0.1347      0.0000      0.0000      0.2181      0.1250      0.0000      0.1180
 26      0.0000      0.0008      0.0000      0.0000      0.0000      0.0000      0.0000      0.0000      0.0000
 27      0.0000      0.0016      0.0000      0.0000      0.0000      0.0000      0.0000      0.0000      0.0000
 28      0.0000      0.0014      0.0000      0.0000      0.0000      0.0000      0.0000      0.0000      0.0000
 29      0.0000      0.0005      0.0000      0.0000      0.0000      0.0000      0.0000      0.0000      0.0000
 30      0.0000      0.0005      0.0000      0.0000      0.0000      0.0000      0.0000      0.0000      0.0000
 31      0.0000      0.0006      0.0000      0.0000      0.0000      0.0000      0.0000      0.0000      0.0000
 32      0.0000      0.0017      0.0000      0.0000      0.0000      0.0000      0.0000      0.0000      0.0000
 33      0.0000      0.0042      0.0000      0.0000      0.0000      0.0000      0.0866      0.0000      0.0000
 34      0.0000      0.0076      0.0000      0.0000      0.0000      0.0449      0.0000      0.0000      0.0000
 35      0.0000      0.0065      0.0000      0.0000      0.0826      0.0000      0.0000      0.0000      0.0000
 36      0.0000      0.0194      0.0000      0.1480      0.0000      0.0000      0.0000      0.0000      0.0000
 37      0.0000      0.0303      0.0000      0.0000      0.0000      0.1614      0.0000      0.0724      0.0000
 38      0.0000      0.0202      0.0000      0.0000      0.0000      0.0000      0.0000      0.0000      0.0000
 39      0.0000      0.0368      0.0000      0.2267      0.0000      0.0000      0.0030      0.0000      0.0000
 40      0.0000      0.0672      0.0000      0.0000      0.0000      0.0835      0.0000      0.0000      0.0000
 41      0.0000      0.0549      0.0649      0.0000      0.1832      0.0088      0.0000      0.0853      0.0280
 42      0.0000      0.0715      0.0000      0.0000      0.0000      0.1826      0.4603      0.3056      0.0000
 43     33.3434     32.4991     33.5688     32.2457     33.1241     33.1088     31.7233     32.6229     32.9892
 44      7.6390      9.5883     10.2474      9.8724      8.4021      9.5970      9.8177      9.5044      9.7250
 45      0.0000      0.2302      0.0709      0.0000      0.5916      0.0000      0.0000      0.8488      0.0000
 46      0.0000      0.3133      0.4491      0.6626      0.2870      0.5646      0.2603      0.4302      0.2814
 47      2.9050      0.4893      0.5201      0.4572      1.3217      0.4692      0.9140      0.4076      0.4895
 48      0.0000      0.2286      0.0000      0.7142      0.0000      0.0101      0.8131      0.0000      0.0000
 49      0.0000      0.2433      0.0000      0.2966      0.1149      0.1809      0.0254      0.1302      0.0000
 50      0.0004      0.1818      0.0000      0.1926      0.0000      0.0000      0.0000      0.3807      0.3356
 51      0.0000      0.0003      0.0000      0.0000      0.0000      0.0000      0.0000      0.0000      0.0000
 52      0.0000      0.0046      0.0000      0.0000      0.0000      0.0000      0.0000      0.0000      0.0350
 53      0.0000      0.0015      0.0000      0.0000      0.0000      0.0000      0.0000      0.0711      0.0000
 54      0.0000      0.0112      0.0000      0.0000      0.0000      0.0000      0.0000      0.0000      0.0352
 55      0.0000      0.0095      0.0000      0.0000      0.0000      0.0000      0.0000      0.0000      0.0049
 56      0.0000      0.0030      0.0000      0.0000      0.0000      0.0000      0.0000      0.0000      0.0000
 57      0.0000      0.0022      0.0000      0.0000      0.0000      0.0000      0.0000      0.0000      0.0000
 58      0.0000      0.0024      0.0000      0.0000      0.0000      0.0000      0.0000      0.0000      0.0000
 59      0.0000      0.0044      0.0000      0.0000      0.0000      0.0000      0.0000      0.0000      0.0000
 60      0.0000      0.0073      0.0000      0.0000      0.0000      0.0000      0.0000      0.0000      0.0000
 61      0.0000      0.0244      0.0000      0.0000      0.0000      0.0000      0.0000      0.0000      0.0000
 62      0.0000      0.0548      0.0000      0.0000      0.0641      0.0000      0.0000      0.0000      0.1712
 63      0.0000      0.0251      0.0000      0.0236      0.0000      0.0000      0.0000      0.0000      0.0000
 64      0.0000      0.0208      0.0000      0.0000      0.0000      0.0000      0.0000      0.0000      0.0000
 65      0.0000      0.0278      0.0000      0.0000      0.0000      0.0000      0.0000      0.0000      0.0000
 66      0.0000      0.0527      0.0000      0.0000      0.0000      0.0000      0.0000      0.0000      0.0000
 67      0.0000      0.0862      0.2098      0.0000      0.0000      0.0000      0.0000      0.0000      0.0000
 68      4.1568      0.4862      0.2603      0.5636      0.4000      1.5943      1.3833      0.1676      1.3248
 69      0.0000      0.2706      0.0000      0.1453      0.1102      0.6479      0.5739      0.2845      0.0000
 70      0.0000      0.3930      0.3794      0.0095      0.4507      0.0000      0.0000      0.1046      0.0534
 71      0.0000      0.3433      0.0000      0.6592      0.8311      0.0301      0.3564      0.0000      0.0000
 72      5.8169     11.6661     11.8833     10.9487     10.9765     11.1321     10.9508     11.8010     11.8203
 73      0.0000      0.0771      0.1276      0.0000      0.0837      0.0000      0.0000      0.0000      0.0723
 74      0.0000      0.0705      0.1896      0.2355      0.0000      0.0000      0.0000      0.0000      0.0000
 75      0.0000      0.0673      0.0000      0.0000      0.0000      0.0000      0.0000      0.0527      0.0000
 76      0.0000      0.0006      0.0000      0.0000      0.0000      0.0000      0.0000      0.0000      0.0000
 77      0.0000      0.0010      0.0000      0.0000      0.0000      0.0000      0.0000      0.0000      0.0000
 78      0.0000      0.0012      0.0000      0.0000      0.0000      0.0024      0.0000      0.0000      0.0000
 79      0.0000      0.0033      0.0000      0.0000      0.0000      0.0000      0.0000      0.0000      0.0000
 80      0.0000      0.0023      0.0000      0.0000      0.0000      0.0000      0.0000      0.0000      0.0000
 81      0.0000      0.0012      0.0000      0.0000      0.0000      0.0000      0.0000      0.0000      0.0000
 82      0.0000      0.0029      0.0000      0.0000      0.0000      0.0000      0.0000      0.0000      0.0000
 83      0.0000      0.0045      0.0000      0.0000      0.0000      0.0000      0.0000      0.0287      0.0056
 84      0.0000      0.0054      0.0000      0.0000      0.0000      0.0000      0.0000      0.0000      0.0000
 85      0.0000      0.0102      0.0000      0.0000      0.0000      0.0000      0.0000      0.0000      0.0000
 86      0.0000      0.0145      0.0000      0.0000      0.0074      0.0000      0.0000      0.0000      0.0000
 87      0.0000      0.0191      0.0000      0.0000      0.0000      0.0000      0.0077      0.0000      0.0000
 88      0.0000      0.0194      0.0000      0.0000      0.0000      0.0000      0.0000      0.0000      0.0000
 89      0.0000      0.0247      0.0000      0.0000      0.0000      0.0000      0.1350      0.0000      0.0000
 90      0.0000      0.0431      0.0000      0.0000      0.0000      0.1745      0.0000      0.0000      0.0000
 91      0.0000      0.0467      0.0000      0.0000      0.0000      0.0428      0.0000      0.0000      0.0000
 92      0.0000      0.0369      0.0000      0.0261      0.0535      0.0000      0.0000      0.0000      0.0000
 93      0.0000      0.1533      0.0000      0.0000      0.0000      0.0000      0.0000      0.0000      0.0645
 94      0.0000      0.2831      0.4475      0.2334      0.0000      0.3568      0.0283      0.3242      0.0000
 95      0.0000      0.4211      0.0000      0.4664      0.2625      0.3707      0.0000      0.3757      0.0000
 96      0.0005      0.6270      0.1334      0.8455      1.5461      1.2075      0.2148      0.9083      0.5436
 97     23.4090     17.9266     18.8124     18.0008     17.5169     18.9523     18.1687     18.9228     18.1333
 98     16.2770     12.8857     13.2641     13.1472     13.4178     12.6947     13.2302     13.3794     13.6560
 99      0.6045      3.4551      2.8841      3.5035      3.4954      3.2832      3.4962      2.3194      3.3907
100      0.0221      0.9465      1.0351      0.4001      0.9253      1.0716      1.7481      0.5990      0.9898
101      0.0000      0.0004      0.0000      0.0000      0.0000      0.0000      0.0000      0.0000      0.0000
102      0.0000      0.0004      0.0000      0.0000      0.0000      0.0000      0.0000      0.0000      0.0000
103      0.0000      0.0029      0.0000      0.0000      0.0000      0.0000      0.0000      0.0000      0.0000
104      0.0000      0.0023      0.0000      0.0000      0.0000      0.0000      0.0000      0.0000      0.0000
105      0.0000      0.0007      0.0000      0.0000      0.0000      0.0000      0.0000      0.0000      0.0000
106      0.0000      0.0013      0.0000      0.0000      0.0000      0.0000      0.0000      0.0000      0.0000
107      0.0000      0.0015      0.0000      0.0000      0.0000      0.0000      0.0000      0.0000      0.0000
108      0.0000      0.0012      0.0000      0.0000      0.0000      0.0000      0.0000      0.0000      0.0000
109      0.0000      0.0031      0.0000      0.0000      0.0000      0.0000      0.0000      0.0000      0.0000
110      0.0000      0.0029      0.0000      0.0000      0.0000      0.0000      0.0000      0.0000      0.0000
111      0.0000      0.0070      0.0000      0.0000      0.0987      0.0022      0.0000      0.0000      0.0128
112      0.0000      0.0103      0.0000      0.0000      0.0974      0.0000      0.0000      0.0000      0.0000
113      0.0000      0.0117      0.0000      0.0000      0.0000      0.0000      0.0011      0.0000      0.0000
114      0.0000      0.0270      0.0365      0.0177      0.1607      0.0000      0.0000      0.0000      0.0000
115      0.0000      0.0682      0.0000      0.0216      0.0000      0.0000      0.0000      0.0000      0.0000
116      0.0000      0.1061      0.0000      0.0211      0.0000      0.0000      0.0000      0.0000      0.0000
117      0.0000      0.1058      0.0000      0.0000      0.0154      0.0000      0.0000      0.0538      0.0000
118      0.0000      0.1249      0.0000      0.0909      0.0513      0.1989      0.0000      0.0000      0.0000
119      0.0000      0.2244      0.7573      0.0824      0.0000      0.0033      0.0000      0.0803      0.0000
120      0.0000      0.1220      0.0000      0.0060      0.0761      0.0000      0.0000      0.0491      0.1729
121      0.0000      0.1101      0.0000      0.0070      0.0000      0.0537      0.0000      0.0999      0.0000
122      0.0000      0.0700      0.0252      0.0000      0.0000      0.0414      0.0000      0.0000      0.0000
123      0.0000      0.0642      0.1362      0.0270      0.0000      0.0000      0.0000      0.0000      0.0792
124      0.0000      0.0521      0.0000      0.0000      0.0000      0.0000      0.0000      0.0000      0.0000
125      0.0000      0.0347      0.0000      0.0000      0.0000      0.0000      0.0000      0.0603      0.0000
126      0.0000      0.0006      0.0000      0.0000      0.0000      0.0000      0.0000      0.0000      0.0000
127      0.0000      0.0010      0.0000      0.0000      0.0000      0.0000      0.0000      0.0000      0.0000
128      0.0000      0.0012      0.0000      0.0000      0.0182      0.0000      0.0000      0.0000      0.0000
129      0.0000      0.0009      0.0000      0.0000      0.0000      0.0000      0.0000      0.0000      0.0000
130      0.0000      0.0009      0.0000      0.0000      0.0000      0.0000      0.0000      0.0000      0.0000
131      0.0000      0.0009      0.0000      0.0000      0.0000      0.0000      0.0000      0.0000      0.0000
132      0.0000      0.0006      0.0000      0.0000      0.0000      0.0000      0.0000      0.0000      0.0000
133      0.0000      0.0015      0.0000      0.0000      0.0000      0.0115      0.0000      0.0000      0.0000
134      0.0000      0.0042      0.0000      0.0000      0.0000      0.0000      0.0000      0.0000      0.0000
135      0.0000      0.0063      0.0000      0.0000      0.0000      0.0000      0.0000      0.0136      0.0000
136      0.0000      0.0084      0.0000      0.0000      0.0000      0.0000      0.0000      0.0000      0.0000
137      0.0000      0.0128      0.0000      0.0000      0.0000      0.0000      0.0000      0.0000      0.0000
138      0.0000      0.0227      0.0000      0.0000      0.0000      0.0000      0.0006      0.0000      0.0000
139      0.0000      0.0910      0.0000      0.0000      0.2354      0.0000      0.0000      0.0000      0.1664
140      0.0000      0.2084      0.0000      0.0000      0.0000      0.0000      0.4424      0.0358      0.0000
141      6.0240      2.1494      3.1304      3.4711      3.7969      2.1226      3.6507      4.4572      3.3195
142      0.0024      1.1631      1.1106      1.3484      0.6620      1.7697      1.3113      1.2370      1.8228
143      0.0000      0.1403      0.0000      0.4759      0.0020      0.1076      0.0000      0.0000      0.0000
144      0.0000      0.0308      0.0000      0.0842      0.0049      0.1572      0.0000      0.0000      0.0000
145      0.0000      0.0496      0.0000      0.0593      0.1231      0.0000      0.0000      0.0000      0.0078
146      0.0000      0.0344      0.0000      0.0000      0.0000      0.0448      0.0000      0.0000      0.0000
147      0.0000      0.0557      0.0000      0.0230      0.0901      0.0000      0.0000      0.0000      0.0000
148      0.0000      0.0225      0.0000      0.0000      0.0000      0.0000      0.0000      0.0000      0.0000
149      0.0000      0.0298      0.0000      0.0000      0.0000      0.0000      0.0000      0.0000      0.0087
150      0.0000      0.0377      0.0000      0.0000      0.0000      0.0000      0.0000      0.0000      0.0000

# j      m_j: min, <> & last-chain-values for 1 ...  7 chains
  1  0.0000E+00  5.6147E-06  0.0000E+00  0.0000E+00  0.0000E+00  0.0000E+00  0.0000E+00  0.0000E+00  0.0000E+00
  2  1.5158E-03  6.3352E-05  3.1255E-04  5.6058E-05  0.0000E+00  1.9629E-04  0.0000E+00  2.2830E-04  6.0196E-04
  3  0.0000E+00  5.9130E-06  0.0000E+00  0.0000E+00  3.0980E-06  0.0000E+00  0.0000E+00  0.0000E+00  0.0000E+00
  4  0.0000E+00  2.0800E-06  0.0000E+00  0.0000E+00  0.0000E+00  0.0000E+00  0.0000E+00  0.0000E+00  0.0000E+00
  5  0.0000E+00  2.4829E-06  0.0000E+00  0.0000E+00  0.0000E+00  0.0000E+00  0.0000E+00  0.0000E+00  0.0000E+00
  6  0.0000E+00  3.6338E-06  0.0000E+00  0.0000E+00  0.0000E+00  0.0000E+00  0.0000E+00  0.0000E+00  0.0000E+00
  7  0.0000E+00  6.4788E-06  0.0000E+00  0.0000E+00  0.0000E+00  0.0000E+00  0.0000E+00  0.0000E+00  0.0000E+00
  8  0.0000E+00  1.2715E-05  0.0000E+00  0.0000E+00  0.0000E+00  0.0000E+00  0.0000E+00  0.0000E+00  0.0000E+00
  9  0.0000E+00  1.0829E-04  0.0000E+00  0.0000E+00  0.0000E+00  0.0000E+00  8.9703E-04  0.0000E+00  0.0000E+00
 10  0.0000E+00  1.3375E-04  0.0000E+00  0.0000E+00  0.0000E+00  0.0000E+00  0.0000E+00  0.0000E+00  0.0000E+00
 11  0.0000E+00  2.1054E-04  0.0000E+00  0.0000E+00  0.0000E+00  0.0000E+00  0.0000E+00  0.0000E+00  2.1529E-04
 12  0.0000E+00  2.7440E-04  0.0000E+00  0.0000E+00  0.0000E+00  0.0000E+00  0.0000E+00  0.0000E+00  0.0000E+00
 13  0.0000E+00  3.9242E-04  0.0000E+00  0.0000E+00  0.0000E+00  0.0000E+00  0.0000E+00  0.0000E+00  0.0000E+00
 14  0.0000E+00  1.1606E-03  0.0000E+00  0.0000E+00  0.0000E+00  0.0000E+00  0.0000E+00  0.0000E+00  0.0000E+00
 15  0.0000E+00  1.5183E-03  0.0000E+00  0.0000E+00  1.4321E-04  0.0000E+00  0.0000E+00  0.0000E+00  0.0000E+00
 16  0.0000E+00  5.4062E-03  0.0000E+00  0.0000E+00  0.0000E+00  0.0000E+00  2.3161E-02  0.0000E+00  0.0000E+00
 17  0.0000E+00  6.3094E-03  0.0000E+00  0.0000E+00  0.0000E+00  0.0000E+00  0.0000E+00  3.7064E-02  0.0000E+00
 18  0.0000E+00  1.0505E-02  0.0000E+00  4.3702E-03  0.0000E+00  6.7103E-03  0.0000E+00  0.0000E+00  0.0000E+00
 19  0.0000E+00  1.9708E-02  0.0000E+00  2.7225E-02  7.4750E-02  4.4869E-02  0.0000E+00  0.0000E+00  0.0000E+00
 20  0.0000E+00  4.8045E-02  0.0000E+00  8.8507E-02  3.7950E-02  0.0000E+00  0.0000E+00  0.0000E+00  0.0000E+00
 21  0.0000E+00  6.6580E-02  2.3159E-01  8.6582E-02  0.0000E+00  8.1285E-02  0.0000E+00  0.0000E+00  7.2549E-02
 22  0.0000E+00  1.1881E-01  0.0000E+00  1.5897E-01  0.0000E+00  0.0000E+00  6.8615E-01  7.2814E-02  9.9661E-02
 23  0.0000E+00  1.4799E-01  1.2505E-01  5.7603E-01  0.0000E+00  0.0000E+00  7.6126E-03  1.8266E-01  0.0000E+00
 24  5.3748E-05  1.7036E-01  4.9225E-01  1.6656E-02  1.1593E+00  1.1910E-01  0.0000E+00  2.3930E-01  5.9975E-01
 25  0.0000E+00  1.6534E-01  1.5277E-01  0.0000E+00  0.0000E+00  2.4835E-01  1.4115E-01  0.0000E+00  1.3377E-01
 26  0.0000E+00  5.5711E-06  0.0000E+00  0.0000E+00  0.0000E+00  0.0000E+00  0.0000E+00  0.0000E+00  0.0000E+00
 27  0.0000E+00  2.3671E-06  0.0000E+00  0.0000E+00  0.0000E+00  0.0000E+00  0.0000E+00  0.0000E+00  0.0000E+00
 28  0.0000E+00  4.1009E-06  0.0000E+00  0.0000E+00  0.0000E+00  0.0000E+00  0.0000E+00  0.0000E+00  0.0000E+00
 29  0.0000E+00  2.2457E-06  0.0000E+00  0.0000E+00  0.0000E+00  0.0000E+00  0.0000E+00  0.0000E+00  0.0000E+00
 30  0.0000E+00  3.0765E-06  0.0000E+00  0.0000E+00  0.0000E+00  0.0000E+00  0.0000E+00  0.0000E+00  0.0000E+00
 31  0.0000E+00  3.8955E-06  0.0000E+00  0.0000E+00  0.0000E+00  0.0000E+00  0.0000E+00  0.0000E+00  0.0000E+00
 32  0.0000E+00  1.2681E-05  0.0000E+00  0.0000E+00  0.0000E+00  0.0000E+00  0.0000E+00  0.0000E+00  0.0000E+00
 33  0.0000E+00  4.3167E-05  0.0000E+00  0.0000E+00  0.0000E+00  0.0000E+00  8.9908E-04  0.0000E+00  0.0000E+00
 34  0.0000E+00  9.5568E-05  0.0000E+00  0.0000E+00  0.0000E+00  5.7139E-04  0.0000E+00  0.0000E+00  0.0000E+00
 35  0.0000E+00  9.8161E-05  0.0000E+00  0.0000E+00  1.2576E-03  0.0000E+00  0.0000E+00  0.0000E+00  0.0000E+00
 36  0.0000E+00  3.7636E-04  0.0000E+00  2.9249E-03  0.0000E+00  0.0000E+00  0.0000E+00  0.0000E+00  0.0000E+00
 37  0.0000E+00  7.2976E-04  0.0000E+00  0.0000E+00  0.0000E+00  3.9514E-03  0.0000E+00  1.7962E-03  0.0000E+00
 38  0.0000E+00  6.7696E-04  0.0000E+00  0.0000E+00  0.0000E+00  0.0000E+00  0.0000E+00  0.0000E+00  0.0000E+00
 39  0.0000E+00  1.8425E-03  0.0000E+00  1.1572E-02  0.0000E+00  0.0000E+00  1.5365E-04  0.0000E+00  0.0000E+00
 40  0.0000E+00  5.9436E-03  0.0000E+00  0.0000E+00  0.0000E+00  7.4917E-03  0.0000E+00  0.0000E+00  0.0000E+00
 41  0.0000E+00  6.5084E-03  7.7732E-03  0.0000E+00  2.1829E-02  1.0526E-03  0.0000E+00  1.0394E-02  3.3541E-03
 42  0.0000E+00  9.4543E-03  0.0000E+00  0.0000E+00  0.0000E+00  2.4519E-02  6.1311E-02  4.1590E-02  0.0000E+00
 43  7.4999E+00  6.9928E+00  7.3075E+00  7.0662E+00  7.1709E+00  7.2324E+00  6.8738E+00  7.2219E+00  7.1744E+00
 44  2.7174E+00  3.2628E+00  3.5280E+00  3.4215E+00  2.8767E+00  3.3155E+00  3.3643E+00  3.3276E+00  3.3448E+00
 45  0.0000E+00  1.0917E-01  3.4007E-02  0.0000E+00  2.8232E-01  0.0000E+00  0.0000E+00  4.1418E-01  0.0000E+00
 46  0.0000E+00  1.7700E-01  2.5670E-01  3.8128E-01  1.6314E-01  3.2384E-01  1.4808E-01  2.5007E-01  1.6067E-01
 47  2.2488E+00  3.6231E-01  3.8963E-01  3.4484E-01  9.8478E-01  3.5273E-01  6.8159E-01  3.1052E-01  3.6637E-01
 48  0.0000E+00  2.0162E-01  0.0000E+00  6.4137E-01  0.0000E+00  8.9981E-03  7.2201E-01  0.0000E+00  0.0000E+00
 49  0.0000E+00  2.4002E-01  0.0000E+00  2.9802E-01  1.1404E-01  1.8113E-01  2.5263E-02  1.3218E-01  0.0000E+00
 50  5.0313E-04  2.1093E-01  0.0000E+00  2.2755E-01  0.0000E+00  0.0000E+00  0.0000E+00  4.5444E-01  3.9354E-01
 51  0.0000E+00  1.3565E-06  0.0000E+00  0.0000E+00  0.0000E+00  0.0000E+00  0.0000E+00  0.0000E+00  0.0000E+00
 52  0.0000E+00  6.7460E-06  0.0000E+00  0.0000E+00  0.0000E+00  0.0000E+00  0.0000E+00  0.0000E+00  5.1686E-05
 53  0.0000E+00  3.4113E-06  0.0000E+00  0.0000E+00  0.0000E+00  0.0000E+00  0.0000E+00  1.6288E-04  0.0000E+00
 54  0.0000E+00  2.3817E-05  0.0000E+00  0.0000E+00  0.0000E+00  0.0000E+00  0.0000E+00  0.0000E+00  7.5489E-05
 55  0.0000E+00  2.9778E-05  0.0000E+00  0.0000E+00  0.0000E+00  0.0000E+00  0.0000E+00  0.0000E+00  1.5558E-05
 56  0.0000E+00  1.2586E-05  0.0000E+00  0.0000E+00  0.0000E+00  0.0000E+00  0.0000E+00  0.0000E+00  0.0000E+00
 57  0.0000E+00  1.4698E-05  0.0000E+00  0.0000E+00  0.0000E+00  0.0000E+00  0.0000E+00  0.0000E+00  0.0000E+00
 58  0.0000E+00  2.3047E-05  0.0000E+00  0.0000E+00  0.0000E+00  0.0000E+00  0.0000E+00  0.0000E+00  0.0000E+00
 59  0.0000E+00  5.8768E-05  0.0000E+00  0.0000E+00  0.0000E+00  0.0000E+00  0.0000E+00  0.0000E+00  0.0000E+00
 60  0.0000E+00  1.0858E-04  0.0000E+00  0.0000E+00  0.0000E+00  0.0000E+00  0.0000E+00  0.0000E+00  0.0000E+00
 61  0.0000E+00  4.6058E-04  0.0000E+00  0.0000E+00  0.0000E+00  0.0000E+00  0.0000E+00  0.0000E+00  0.0000E+00
 62  0.0000E+00  1.3122E-03  0.0000E+00  0.0000E+00  1.5458E-03  0.0000E+00  0.0000E+00  0.0000E+00  4.1450E-03
 63  0.0000E+00  9.1618E-04  0.0000E+00  8.7536E-04  0.0000E+00  0.0000E+00  0.0000E+00  0.0000E+00  0.0000E+00
 64  0.0000E+00  1.2495E-03  0.0000E+00  0.0000E+00  0.0000E+00  0.0000E+00  0.0000E+00  0.0000E+00  0.0000E+00
 65  0.0000E+00  2.8177E-03  0.0000E+00  0.0000E+00  0.0000E+00  0.0000E+00  0.0000E+00  0.0000E+00  0.0000E+00
 66  0.0000E+00  6.8327E-03  0.0000E+00  0.0000E+00  0.0000E+00  0.0000E+00  0.0000E+00  0.0000E+00  0.0000E+00
 67  0.0000E+00  1.5334E-02  3.7764E-02  0.0000E+00  0.0000E+00  0.0000E+00  0.0000E+00  0.0000E+00  0.0000E+00
 68  1.4373E+00  1.6082E-01  8.7104E-02  1.8985E-01  1.3313E-01  5.3536E-01  4.6078E-01  5.7032E-02  4.4289E-01
 69  0.0000E+00  1.5433E-01  0.0000E+00  8.4415E-02  6.3257E-02  3.7521E-01  3.2967E-01  1.6697E-01  0.0000E+00
 70  0.0000E+00  3.1201E-01  3.0475E-01  7.6447E-03  3.6001E-01  0.0000E+00  0.0000E+00  8.5456E-02  4.2822E-02
 71  0.0000E+00  3.2159E-01  0.0000E+00  6.2888E-01  7.8322E-01  2.8631E-02  3.3616E-01  0.0000E+00  0.0000E+00
 72  7.4978E+00  1.4385E+01  1.4824E+01  1.3749E+01  1.3617E+01  1.3935E+01  1.3598E+01  1.4971E+01  1.4731E+01
 73  0.0000E+00  1.1998E-01  2.0082E-01  0.0000E+00  1.3105E-01  0.0000E+00  0.0000E+00  0.0000E+00  1.1373E-01
 74  0.0000E+00  1.2229E-01  3.3291E-01  4.1629E-01  0.0000E+00  0.0000E+00  0.0000E+00  0.0000E+00  0.0000E+00
 75  0.0000E+00  1.3433E-01  0.0000E+00  0.0000E+00  0.0000E+00  0.0000E+00  0.0000E+00  1.0828E-01  0.0000E+00
 76  0.0000E+00  2.8625E-06  0.0000E+00  0.0000E+00  0.0000E+00  0.0000E+00  0.0000E+00  0.0000E+00  0.0000E+00
 77  0.0000E+00  1.8757E-06  0.0000E+00  0.0000E+00  0.0000E+00  0.0000E+00  0.0000E+00  0.0000E+00  0.0000E+00
 78  0.0000E+00  2.4756E-06  0.0000E+00  0.0000E+00  0.0000E+00  5.0746E-06  0.0000E+00  0.0000E+00  0.0000E+00
 79  0.0000E+00  8.4464E-06  0.0000E+00  0.0000E+00  0.0000E+00  0.0000E+00  0.0000E+00  0.0000E+00  0.0000E+00
 80  0.0000E+00  7.5684E-06  0.0000E+00  0.0000E+00  0.0000E+00  0.0000E+00  0.0000E+00  0.0000E+00  0.0000E+00
 81  0.0000E+00  5.3472E-06  0.0000E+00  0.0000E+00  0.0000E+00  0.0000E+00  0.0000E+00  0.0000E+00  0.0000E+00
 82  0.0000E+00  1.6754E-05  0.0000E+00  0.0000E+00  0.0000E+00  0.0000E+00  0.0000E+00  0.0000E+00  0.0000E+00
 83  0.0000E+00  3.8735E-05  0.0000E+00  0.0000E+00  0.0000E+00  0.0000E+00  0.0000E+00  2.5247E-04  4.8248E-05
 84  0.0000E+00  6.4202E-05  0.0000E+00  0.0000E+00  0.0000E+00  0.0000E+00  0.0000E+00  0.0000E+00  0.0000E+00
 85  0.0000E+00  1.4662E-04  0.0000E+00  0.0000E+00  0.0000E+00  0.0000E+00  0.0000E+00  0.0000E+00  0.0000E+00
 86  0.0000E+00  2.8293E-04  0.0000E+00  0.0000E+00  1.4456E-04  0.0000E+00  0.0000E+00  0.0000E+00  0.0000E+00
 87  0.0000E+00  4.9426E-04  0.0000E+00  0.0000E+00  0.0000E+00  0.0000E+00  2.0125E-04  0.0000E+00  0.0000E+00
 88  0.0000E+00  7.6548E-04  0.0000E+00  0.0000E+00  0.0000E+00  0.0000E+00  0.0000E+00  0.0000E+00  0.0000E+00
 89  0.0000E+00  1.6234E-03  0.0000E+00  0.0000E+00  0.0000E+00  0.0000E+00  8.9465E-03  0.0000E+00  0.0000E+00
 90  0.0000E+00  5.2514E-03  0.0000E+00  0.0000E+00  0.0000E+00  2.1566E-02  0.0000E+00  0.0000E+00  0.0000E+00
 91  0.0000E+00  7.3164E-03  0.0000E+00  0.0000E+00  0.0000E+00  6.8022E-03  0.0000E+00  0.0000E+00  0.0000E+00
 92  0.0000E+00  7.7148E-03  0.0000E+00  5.5632E-03  1.1252E-02  0.0000E+00  0.0000E+00  0.0000E+00  0.0000E+00
 93  0.0000E+00  6.5133E-02  0.0000E+00  0.0000E+00  0.0000E+00  0.0000E+00  0.0000E+00  0.0000E+00  2.7715E-02
 94  0.0000E+00  2.1567E-01  3.4493E-01  1.8112E-01  0.0000E+00  2.7596E-01  2.1742E-02  2.5411E-01  0.0000E+00
 95  0.0000E+00  4.3221E-01  0.0000E+00  4.8752E-01  2.7104E-01  3.8623E-01  0.0000E+00  3.9673E-01  0.0000E+00
 96  6.5834E-04  7.7642E-01  1.6714E-01  1.0663E+00  1.9263E+00  1.5180E+00  2.6787E-01  1.1572E+00  6.8034E-01
 97  3.9484E+01  2.8925E+01  3.0709E+01  2.9580E+01  2.8437E+01  3.1045E+01  2.9521E+01  3.1413E+01  2.9572E+01
 98  3.5208E+01  2.6663E+01  2.7767E+01  2.7706E+01  2.7934E+01  2.6667E+01  2.7568E+01  2.8483E+01  2.8560E+01
 99  1.4905E+00  8.1494E+00  6.8824E+00  8.4160E+00  8.2952E+00  7.8619E+00  8.3044E+00  5.6284E+00  8.0833E+00
100  6.2808E-02  2.5704E+00  2.8439E+00  1.1066E+00  2.5280E+00  2.9542E+00  4.7803E+00  1.6735E+00  2.7169E+00
101  0.0000E+00  1.1669E-06  0.0000E+00  0.0000E+00  0.0000E+00  0.0000E+00  0.0000E+00  0.0000E+00  0.0000E+00
102  0.0000E+00  6.9131E-07  0.0000E+00  0.0000E+00  0.0000E+00  0.0000E+00  0.0000E+00  0.0000E+00  0.0000E+00
103  0.0000E+00  5.0646E-06  0.0000E+00  0.0000E+00  0.0000E+00  0.0000E+00  0.0000E+00  0.0000E+00  0.0000E+00
104  0.0000E+00  5.2371E-06  0.0000E+00  0.0000E+00  0.0000E+00  0.0000E+00  0.0000E+00  0.0000E+00  0.0000E+00
105  0.0000E+00  3.4737E-06  0.0000E+00  0.0000E+00  0.0000E+00  0.0000E+00  0.0000E+00  0.0000E+00  0.0000E+00
106  0.0000E+00  6.8044E-06  0.0000E+00  0.0000E+00  0.0000E+00  0.0000E+00  0.0000E+00  0.0000E+00  0.0000E+00
107  0.0000E+00  1.0132E-05  0.0000E+00  0.0000E+00  0.0000E+00  0.0000E+00  0.0000E+00  0.0000E+00  0.0000E+00
108  0.0000E+00  1.3780E-05  0.0000E+00  0.0000E+00  0.0000E+00  0.0000E+00  0.0000E+00  0.0000E+00  0.0000E+00
109  0.0000E+00  4.2377E-05  0.0000E+00  0.0000E+00  0.0000E+00  0.0000E+00  0.0000E+00  0.0000E+00  0.0000E+00
110  0.0000E+00  4.6916E-05  0.0000E+00  0.0000E+00  0.0000E+00  0.0000E+00  0.0000E+00  0.0000E+00  0.0000E+00
111  0.0000E+00  1.6098E-04  0.0000E+00  0.0000E+00  2.2709E-03  5.1923E-05  0.0000E+00  0.0000E+00  2.9537E-04
112  0.0000E+00  3.1148E-04  0.0000E+00  0.0000E+00  2.9504E-03  0.0000E+00  0.0000E+00  0.0000E+00  0.0000E+00
113  0.0000E+00  5.2454E-04  0.0000E+00  0.0000E+00  0.0000E+00  0.0000E+00  5.0869E-05  0.0000E+00  0.0000E+00
114  0.0000E+00  2.1364E-03  2.9214E-03  1.4225E-03  1.2784E-02  0.0000E+00  0.0000E+00  0.0000E+00  0.0000E+00
115  0.0000E+00  1.0792E-02  0.0000E+00  3.4727E-03  0.0000E+00  0.0000E+00  0.0000E+00  0.0000E+00  0.0000E+00
116  0.0000E+00  2.6946E-02  0.0000E+00  5.4510E-03  0.0000E+00  0.0000E+00  0.0000E+00  0.0000E+00  0.0000E+00
117  0.0000E+00  3.1583E-02  0.0000E+00  0.0000E+00  4.6224E-03  0.0000E+00  0.0000E+00  1.6520E-02  0.0000E+00
118  0.0000E+00  7.5668E-02  0.0000E+00  5.6080E-02  3.1241E-02  1.2233E-01  0.0000E+00  0.0000E+00  0.0000E+00
119  0.0000E+00  2.3491E-01  8.0210E-01  8.7819E-02  0.0000E+00  3.5092E-03  0.0000E+00  8.6484E-02  0.0000E+00
120  0.0000E+00  1.8184E-01  0.0000E+00  9.1094E-03  1.1421E-01  0.0000E+00  0.0000E+00  7.5373E-02  2.6059E-01
121  0.0000E+00  1.9320E-01  0.0000E+00  1.2511E-02  0.0000E+00  9.5656E-02  0.0000E+00  1.8038E-01  0.0000E+00
122  0.0000E+00  1.6430E-01  5.9780E-02  0.0000E+00  0.0000E+00  9.8539E-02  0.0000E+00  0.0000E+00  0.0000E+00
123  0.0000E+00  1.9860E-01  4.2660E-01  8.5211E-02  0.0000E+00  0.0000E+00  0.0000E+00  0.0000E+00  2.4791E-01
124  0.0000E+00  1.8502E-01  0.0000E+00  0.0000E+00  0.0000E+00  0.0000E+00  0.0000E+00  0.0000E+00  0.0000E+00
125  0.0000E+00  1.4782E-01  0.0000E+00  0.0000E+00  0.0000E+00  0.0000E+00  0.0000E+00  2.6389E-01  0.0000E+00
126  0.0000E+00  1.2558E-06  0.0000E+00  0.0000E+00  0.0000E+00  0.0000E+00  0.0000E+00  0.0000E+00  0.0000E+00
127  0.0000E+00  1.2362E-06  0.0000E+00  0.0000E+00  0.0000E+00  0.0000E+00  0.0000E+00  0.0000E+00  0.0000E+00
128  0.0000E+00  2.1124E-06  0.0000E+00  0.0000E+00  3.2099E-05  0.0000E+00  0.0000E+00  0.0000E+00  0.0000E+00
129  0.0000E+00  3.0613E-06  0.0000E+00  0.0000E+00  0.0000E+00  0.0000E+00  0.0000E+00  0.0000E+00  0.0000E+00
130  0.0000E+00  4.6362E-06  0.0000E+00  0.0000E+00  0.0000E+00  0.0000E+00  0.0000E+00  0.0000E+00  0.0000E+00
131  0.0000E+00  4.9987E-06  0.0000E+00  0.0000E+00  0.0000E+00  0.0000E+00  0.0000E+00  0.0000E+00  0.0000E+00
132  0.0000E+00  4.8954E-06  0.0000E+00  0.0000E+00  0.0000E+00  0.0000E+00  0.0000E+00  0.0000E+00  0.0000E+00
133  0.0000E+00  1.6578E-05  0.0000E+00  0.0000E+00  0.0000E+00  1.3016E-04  0.0000E+00  0.0000E+00  0.0000E+00
134  0.0000E+00  5.9284E-05  0.0000E+00  0.0000E+00  0.0000E+00  0.0000E+00  0.0000E+00  0.0000E+00  0.0000E+00
135  0.0000E+00  1.0741E-04  0.0000E+00  0.0000E+00  0.0000E+00  0.0000E+00  0.0000E+00  2.3837E-04  0.0000E+00
136  0.0000E+00  2.0741E-04  0.0000E+00  0.0000E+00  0.0000E+00  0.0000E+00  0.0000E+00  0.0000E+00  0.0000E+00
137  0.0000E+00  4.2943E-04  0.0000E+00  0.0000E+00  0.0000E+00  0.0000E+00  0.0000E+00  0.0000E+00  0.0000E+00
138  0.0000E+00  1.2653E-03  0.0000E+00  0.0000E+00  0.0000E+00  0.0000E+00  3.1834E-05  0.0000E+00  0.0000E+00
139  0.0000E+00  9.5746E-03  0.0000E+00  0.0000E+00  2.4928E-02  0.0000E+00  0.0000E+00  0.0000E+00  1.7705E-02
140  0.0000E+00  5.0821E-02  0.0000E+00  0.0000E+00  0.0000E+00  0.0000E+00  1.0863E-01  8.9764E-03  0.0000E+00
141  2.3504E+00  8.0224E-01  1.1821E+00  1.3194E+00  1.4258E+00  8.0430E-01  1.3722E+00  1.7116E+00  1.2523E+00
142  1.1184E-03  5.1650E-01  4.9897E-01  6.0983E-01  2.9579E-01  7.9782E-01  5.8639E-01  5.6516E-01  8.1816E-01
143  0.0000E+00  1.2385E-01  0.0000E+00  4.2788E-01  1.8184E-03  9.6420E-02  0.0000E+00  0.0000E+00  0.0000E+00
144  0.0000E+00  5.3395E-02  0.0000E+00  1.4879E-01  8.5929E-03  2.7686E-01  0.0000E+00  0.0000E+00  0.0000E+00
145  0.0000E+00  1.2812E-01  0.0000E+00  1.5590E-01  3.1970E-01  0.0000E+00  0.0000E+00  0.0000E+00  2.0241E-02
146  0.0000E+00  1.0600E-01  0.0000E+00  0.0000E+00  0.0000E+00  1.4028E-01  0.0000E+00  0.0000E+00  0.0000E+00
147  0.0000E+00  2.3061E-01  0.0000E+00  9.7209E-02  3.7568E-01  0.0000E+00  0.0000E+00  0.0000E+00  0.0000E+00
148  0.0000E+00  1.2600E-01  0.0000E+00  0.0000E+00  0.0000E+00  0.0000E+00  0.0000E+00  0.0000E+00  0.0000E+00
149  0.0000E+00  1.9603E-01  0.0000E+00  0.0000E+00  0.0000E+00  0.0000E+00  0.0000E+00  0.0000E+00  5.7754E-02
150  0.0000E+00  2.9529E-01  0.0000E+00  0.0000E+00  0.0000E+00  0.0000E+00  0.0000E+00  0.0000E+00  0.0000E+00

# AV, chi2 & Mass for <> & i_chain = 1 ...  7 solutions
AV      -0.0105     -0.0092     -0.0097     -0.0105     -0.0098     -0.0116     -0.0102     -0.0098     -0.0096
chi2 2.2148E+00  2.2484E+00  2.2349E+00  2.2363E+00  2.2387E+00  2.2374E+00  2.2363E+00  2.2348E+00  2.2318E+00
Mass 2.5568E-10  2.6774E-10  2.6447E-10  2.6242E-10  2.6589E-10  2.6287E-10  2.6552E-10  2.6002E-10  2.6474E-10
  31.57                                  [v0_min (km/s) before EX0s...]
  48.16                                  [vd_min (km/s) before EX0s...]


## Synthetic spectrum (Best Model) ##l_obs f_obs f_syn wei
 3070    [Nl_obs]
 3359.00    0.00000   0.39862   -2.000
 3360.00    0.00000   0.35781   -2.000
 3361.00    0.08722   0.34757   -1.000
 3362.00    0.19619   0.37022   -1.000
 3363.00    0.22105   0.41228   -1.000
 3364.00    0.24578   0.45172   -1.000
 3365.00    0.25644   0.46818   -1.000
 3366.00    0.25275   0.45994   -1.000
 3367.00    0.24760   0.43936   -1.000
 3368.00    0.24040   0.41764   -1.000
 3369.00    0.22535   0.40138   -1.000
 3370.00    0.21673   0.38760   -1.000
 3371.00    0.22179   0.37550   -1.000
 3372.00    0.22320   0.37235   -1.000
 3373.00    0.23372   0.38621   -1.000
 3374.00    0.25270   0.41517   -1.000
 3375.00    0.27115   0.45101   -1.000
 3376.00    0.28642   0.48057   -1.000
 3377.00    0.29945   0.49061   -1.000
 3378.00    0.30573   0.47595   -1.000
 3379.00    0.29365   0.44903   -1.000
 3380.00    0.28472   0.42914   -1.000
 3381.00    0.28157   0.42599   -1.000
 3382.00    0.29422   0.43738   -1.000
 3383.00    0.30451   0.45340   -1.000
 3384.00    0.29897   0.46642   -1.000
 3385.00    0.31210   0.47718   -1.000
 3386.00    0.32402   0.48196   -1.000
 3387.00    0.32089   0.47854   -1.000
 3388.00    0.32680   0.47539   -1.000
 3389.00    0.34781   0.47799   -1.000
 3390.00    0.37344   0.48123   -1.000
 3391.00    0.38156   0.47760   -1.000
 3392.00    0.36737   0.46303   -1.000
 3393.00    0.35382   0.44870   -1.000
 3394.00    0.35185   0.44901   -1.000
 3395.00    0.36308   0.46603   -1.000
 3396.00    0.38432   0.49197   -1.000
 3397.00    0.40383   0.51675   -1.000
 3398.00    0.42166   0.53688   -1.000
 3399.00    0.43544   0.54807   -1.000
 3400.00    0.43864   0.54643   -1.000
 3401.00    0.44029   0.53503   -1.000
 3402.00    0.43850   0.51632   -1.000
 3403.00    0.42498   0.49873   -1.000
 3404.00    0.41407   0.48810   -1.000
 3405.00    0.40950   0.48326   -1.000
 3406.00    0.39804   0.47890   -1.000
 3407.00    0.39026   0.47167   -1.000
 3408.00    0.38861   0.46504   -1.000
 3409.00    0.39119   0.46433   -1.000
 3410.00    0.40438   0.47245   -1.000
 3411.00    0.41234   0.47942   -1.000
 3412.00    0.40851   0.47435   -1.000
 3413.00    0.39924   0.45917   -1.000
 3414.00    0.38735   0.44531   -1.000
 3415.00    0.38328   0.44522   -1.000
 3416.00    0.38613   0.45783   -1.000
 3417.00    0.40112   0.47759   -1.000
 3418.00    0.42711   0.50033   -1.000
 3419.00    0.44273   0.52143   -1.000
 3420.00    0.45409   0.53559   -1.000
 3421.00    0.45805   0.53570   -1.000
 3422.00    0.44452   0.52043   -1.000
 3423.00    0.43363   0.50173   -1.000
 3424.00    0.43468   0.49266   -1.000
 3425.00    0.44126   0.49467   -1.000
 3426.00    0.44704   0.50012   -1.000
 3427.00    0.45630   0.50709   -1.000
 3428.00    0.45915   0.52152   -1.000
 3429.00    0.46529   0.54332   -1.000
 3430.00    0.48206   0.55773   -1.000
 3431.00    0.49023   0.54939   -1.000
 3432.00    0.47847   0.52523   -1.000
 3433.00    0.46434   0.50519   -1.000
 3434.00    0.46714   0.50486   -1.000
 3435.00    0.47451   0.51907   -1.000
 3436.00    0.47557   0.52737   -1.000
 3437.00    0.46832   0.51969   -1.000
 3438.00    0.44328   0.49918   -1.000
 3439.00    0.41536   0.46915   -1.000
 3440.00    0.39991   0.43528   -1.000
 3441.00    0.38827   0.40644  186.920
 3442.00    0.37912   0.39183  198.688
 3443.00    0.37810   0.39418  203.267
 3444.00    0.38339   0.40846   -1.000
 3445.00    0.40134   0.42856   -1.000
 3446.00    0.42868   0.45299   -1.000
 3447.00    0.44813   0.48108   -1.000
 3448.00    0.45579   0.50801   -1.000
 3449.00    0.47077   0.52904   -1.000
 3450.00    0.49025   0.53556   -1.000
 3451.00    0.49939   0.52226   -1.000
 3452.00    0.48636   0.50131   -1.000
 3453.00    0.46915   0.49022   -1.000
 3454.00    0.47397   0.49371   -1.000
 3455.00    0.48848   0.50362   -1.000
 3456.00    0.49892   0.50740   -1.000
 3457.00    0.49751   0.49951  771.297
 3458.00    0.48605   0.48321   -1.000
 3459.00    0.46934   0.46647  771.297
 3460.00    0.45578   0.45314  336.287
 3461.00    0.44276   0.44768  164.282
 3462.00    0.44707   0.45763  165.084
 3463.00    0.47022   0.47941  265.450
 3464.00    0.49319   0.49661  771.297
 3465.00    0.50987   0.49766   -1.000
 3466.00    0.50931   0.49157   -1.000
 3467.00    0.50116   0.49381   -1.000
 3468.00    0.50963   0.50898  771.297
 3469.00    0.53016   0.52900   -1.000
 3470.00    0.54114   0.54120  771.297
 3471.00    0.53948   0.53814  771.297
 3472.00    0.52945   0.52133   -1.000
 3473.00    0.51281   0.49458   -1.000
 3474.00    0.49401   0.46468   -1.000
 3475.00    0.47276   0.44069   -1.000
 3476.00    0.44748   0.43199   -1.000
 3477.00    0.44739   0.44462  167.260
 3478.00    0.47310   0.47085  169.320
 3479.00    0.49694   0.49699  266.156
 3480.00    0.50825   0.51515   -1.000
 3481.00    0.51903   0.52130  771.297
 3482.00    0.52375   0.51572   -1.000
 3483.00    0.52024   0.50503   -1.000
 3484.00    0.50907   0.49788   -1.000
 3485.00    0.50788   0.50411  771.297
 3486.00    0.52850   0.52302   -1.000
 3487.00    0.54425   0.53705   -1.000
 3488.00    0.54792   0.53161   -1.000
 3489.00    0.53876   0.50840   -1.000
 3490.00    0.50915   0.48223   -1.000
 3491.00    0.48702   0.46890   -1.000
 3492.00    0.47908   0.47201   -1.000
 3493.00    0.48295   0.48209  771.297
 3494.00    0.49452   0.48790   -1.000
 3495.00    0.50032   0.48333   -1.000
 3496.00    0.49056   0.47146   -1.000
 3497.00    0.48423   0.46834   -1.000
 3498.00    0.49980   0.48355   -1.000
 3499.00    0.53057   0.50949   -1.000
 3500.00    0.56142   0.52974   -1.000
 3501.00    0.58026   0.53823   -1.000
 3502.00    0.58245   0.54371   -1.000
 3503.00    0.57849   0.54923   -1.000
 3504.00    0.57158   0.54915   -1.000
 3505.00    0.55815   0.54062   -1.000
 3506.00    0.55147   0.52837   -1.000
 3507.00    0.55641   0.52101   -1.000
 3508.00    0.55900   0.51938   -1.000
 3509.00    0.56164   0.51648   -1.000
 3510.00    0.56111   0.50905   -1.000
 3511.00    0.54481   0.49917   -1.000
 3512.00    0.52892   0.48782   -1.000
 3513.00    0.52497   0.47514   -1.000
 3514.00    0.51882   0.46782   -1.000
 3515.00    0.51859   0.47747   -1.000
 3516.00    0.53985   0.50741   -1.000
 3517.00    0.56949   0.54236   -1.000
 3518.00    0.58322   0.56161   -1.000
 3519.00    0.57570   0.55487   -1.000
 3520.00    0.54850   0.53084   -1.000
 3521.00    0.53181   0.50517   -1.000
 3522.00    0.51663   0.48507   -1.000
 3523.00    0.49503   0.46735   -1.000
 3524.00    0.47571   0.44812   -1.000
 3525.00    0.45449   0.43292   -1.000
 3526.00    0.44988   0.43525  165.566
 3527.00    0.47220   0.45823  168.730
 3528.00    0.49958   0.49249  259.619
 3529.00    0.53223   0.52375   -1.000
 3530.00    0.55874   0.54097   -1.000
 3531.00    0.56346   0.54233   -1.000
 3532.00    0.55442   0.53628   -1.000
 3533.00    0.55346   0.53408   -1.000
 3534.00    0.56351   0.53890   -1.000
 3535.00    0.56126   0.54608   -1.000
 3536.00    0.56746   0.55248   -1.000
 3537.00    0.57331   0.56017   -1.000
 3538.00    0.57091   0.57193  771.297
 3539.00    0.57817   0.58333  771.297
 3540.00    0.58304   0.58551  771.297
 3541.00    0.57854   0.57829  771.297
 3542.00    0.57427   0.57155   -1.000
 3543.00    0.56814   0.57408   -1.000
 3544.00    0.57000   0.58306   -1.000
 3545.00    0.57511   0.58857   -1.000
 3546.00    0.56429   0.58593   -1.000
 3547.00    0.55175   0.57855   -1.000
 3548.00    0.54826   0.57331   -1.000
 3549.00    0.55449   0.57375   -1.000
 3550.00    0.55456   0.57726   -1.000
 3551.00    0.55838   0.57764   -1.000
 3552.00    0.55729   0.56915   -1.000
 3553.00    0.53636   0.55398   -1.000
 3554.00    0.52271   0.54189   -1.000
 3555.00    0.52234   0.54087   -1.000
 3556.00    0.53323   0.54787   -1.000
 3557.00    0.53636   0.55459   -1.000
 3558.00    0.53549   0.55551   -1.000
 3559.00    0.52638   0.55282   -1.000
 3560.00    0.52595   0.55353   -1.000
 3561.00    0.53840   0.56109   -1.000
 3562.00    0.54559   0.57079   -1.000
 3563.00    0.55097   0.56737   -1.000
 3564.00    0.53419   0.53970  771.297
 3565.00    0.48816   0.49859   -1.000
 3566.00    0.46165   0.46900  370.246
 3567.00    0.45751   0.46253  167.435
 3568.00    0.45554   0.46563  170.940
 3569.00    0.45336   0.46085  169.295
 3570.00    0.44724   0.44977  170.874
 3571.00    0.45079   0.44492  175.764
 3572.00    0.46802   0.45252  175.589
 3573.00    0.48587   0.46601   -1.000
 3574.00    0.49760   0.47696   -1.000
 3575.00    0.50297   0.48503   -1.000
 3576.00    0.50468   0.49277   -1.000
 3577.00    0.50781   0.49667   -1.000
 3578.00    0.50017   0.49164   -1.000
 3579.00    0.47911   0.47359   -1.000
 3580.00    0.45104   0.44711  389.234
 3581.00    0.42531   0.42353  175.300
 3582.00    0.41313   0.41344  187.749
 3583.00    0.42021   0.41825  194.622
 3584.00    0.41598   0.42167  195.642
 3585.00    0.39622   0.41220   -1.000
 3586.00    0.38736   0.39736  203.584
 3587.00    0.39348   0.39177  208.902
 3588.00    0.41282   0.40414  206.619
 3589.00    0.43637   0.43250  195.852
 3590.00    0.46525   0.46764  185.781
 3591.00    0.50255   0.49874  173.800
 3592.00    0.53024   0.51682   -1.000
 3593.00    0.53721   0.52179   -1.000
 3594.00    0.54524   0.52499   -1.000
 3595.00    0.55246   0.53765   -1.000
 3596.00    0.56566   0.55841   -1.000
 3597.00    0.58492   0.57647   -1.000
 3598.00    0.59781   0.58736   -1.000
 3599.00    0.60191   0.59444   -1.000
 3600.00    0.59471   0.59586  771.297
 3601.00    0.58348   0.58272  771.297
 3602.00    0.56583   0.55637   -1.000
 3603.00    0.54186   0.52808   -1.000
 3604.00    0.52721   0.50970   -1.000
 3605.00    0.52526   0.50538   -1.000
 3606.00    0.52678   0.50688   -1.000
 3607.00    0.52568   0.50311   -1.000
 3608.00    0.51524   0.49043   -1.000
 3609.00    0.49363   0.47828   -1.000
 3610.00    0.49557   0.47835   -1.000
 3611.00    0.51352   0.49192   -1.000
 3612.00    0.52164   0.50886   -1.000
 3613.00    0.52880   0.52202   -1.000
 3614.00    0.53804   0.53535  771.297
 3615.00    0.54518   0.55187   -1.000
 3616.00    0.55197   0.55741   -1.000
 3617.00    0.54007   0.53736   -1.000
 3618.00    0.50040   0.49892  771.297
 3619.00    0.47294   0.47048  771.297
 3620.00    0.48179   0.47471  387.741
 3621.00    0.51296   0.50605  237.159
 3622.00    0.54118   0.54208  771.297
 3623.00    0.56666   0.56631  771.297
 3624.00    0.58775   0.58177   -1.000
 3625.00    0.60550   0.60251   -1.000
 3626.00    0.62143   0.62998   -1.000
 3627.00    0.62749   0.65308   -1.000
 3628.00    0.62941   0.65589   -1.000
 3629.00    0.60475   0.62795   -1.000
 3630.00    0.55443   0.57489   -1.000
 3631.00    0.50669   0.52325   -1.000
 3632.00    0.48469   0.49873   -1.000
 3633.00    0.49121   0.50474   -1.000
 3634.00    0.50461   0.52603   -1.000
 3635.00    0.51845   0.54561   -1.000
 3636.00    0.53747   0.55866   -1.000
 3637.00    0.56385   0.57211   -1.000
 3638.00    0.58599   0.59213  771.297
 3639.00    0.60238   0.61408   -1.000
 3640.00    0.61467   0.62729   -1.000
 3641.00    0.60585   0.62463   -1.000
 3642.00    0.58293   0.60717   -1.000
 3643.00    0.56576   0.58356   -1.000
 3644.00    0.55019   0.56266   -1.000
 3645.00    0.53269   0.54691   -1.000
 3646.00    0.52384   0.53401   -1.000
 3647.00    0.51596   0.52329   -1.000
 3648.00    0.52014   0.51943  771.297
 3649.00    0.53193   0.52489   -1.000
 3650.00    0.55002   0.54029   -1.000
 3651.00    0.57032   0.56403   -1.000
 3652.00    0.59074   0.59147  771.297
 3653.00    0.60880   0.61467  302.323
 3654.00    0.62096   0.62959  120.386
 3655.00    0.62366   0.63954  117.896
 3656.00    0.63255   0.64938  116.699
 3657.00    0.63654   0.66114  115.990
 3658.00    0.64700   0.67060  114.682
 3659.00    0.64700   0.67482  113.229
 3660.00    0.65283   0.67381  111.983
 3661.00    0.65130   0.66630  112.088
 3662.00    0.64322   0.65272  112.501
 3663.00    0.62749   0.63890  113.756
 3664.00    0.61751   0.63183  115.223
 3665.00    0.61847   0.63253  116.844
 3666.00    0.62426   0.63511  116.928
 3667.00    0.62363   0.63219  115.978
 3668.00    0.62109   0.62121  116.871
 3669.00    0.61202   0.60890  118.984
 3670.00    0.60438   0.60685  120.822
 3671.00    0.61029   0.61910  122.573
 3672.00    0.63067   0.63692  120.409
 3673.00    0.64243   0.64908  116.540
 3674.00    0.64607   0.65209  114.877
 3675.00    0.63869   0.64610  114.625
 3676.00    0.62900   0.63025  114.700
 3677.00    0.60957   0.60783  116.052
 3678.00    0.59327   0.58535  119.716
 3679.00    0.59001   0.56967  123.413
 3680.00    0.59244   0.56587   -1.000
 3681.00    0.59842   0.57320   -1.000
 3682.00    0.60163   0.58650  127.562
 3683.00    0.60365   0.59750  124.057
 3684.00    0.60335   0.59702  121.273
 3685.00    0.59335   0.58145  121.512
 3686.00    0.57167   0.55793  125.198
 3687.00    0.55489   0.54242  130.389
 3688.00    0.56309   0.54851  134.773
 3689.00    0.58710   0.57635  135.068
 3690.00    0.61448   0.61233  129.409
 3691.00    0.64340   0.64028  120.761
 3692.00    0.64281   0.64917  114.207
 3693.00    0.63321   0.64229  112.214
 3694.00    0.63293   0.63298  113.861
 3695.00    0.63055   0.62812  116.550
 3696.00    0.63511   0.62770  117.431
 3697.00    0.64395   0.63159  116.709
 3698.00    0.65087   0.64648  115.534
 3699.00    0.67093   0.67047  113.321
 3700.00    0.69434   0.69099  109.838
 3701.00    0.69813   0.69319  107.495
 3702.00    0.66782   0.66621  107.193
 3703.00    0.62270   0.61522  110.209
 3704.00    0.56882   0.55946  116.987
 3705.00    0.53664   0.52039  128.272
 3706.00    0.53520   0.50791   -1.000
 3707.00    0.54254   0.51618   -1.000
 3708.00    0.56255   0.53067   -1.000
 3709.00    0.57533   0.54380   -1.000
 3710.00    0.58599   0.55686   -1.000
 3711.00    0.59718   0.57341   -1.000
 3712.00    0.62810   0.59790   -1.000
 3713.00    0.66501   0.62984   -1.000
 3714.00    0.69508   0.66254   -1.000
 3715.00    0.71035   0.68376   -1.000
 3716.00    0.71219   0.68682  105.812
 3717.00    0.69776   0.67133   -1.000
 3718.00    0.65482   0.63402  109.973
 3719.00    0.58114   0.57387  116.621
 3720.00    0.51802   0.50497  129.636
 3721.00    0.48064   0.45526   -1.000
 3722.00    0.47912   0.44797   43.819
 3723.00    0.52065   0.48232   22.809
 3724.00    0.58330   0.54199   -1.000
 3725.00    0.63358   0.59716   -1.000
 3726.00    0.65392   0.62389   -1.000
 3727.00    0.63936   0.62643  118.088
 3728.00    0.62930   0.62416  119.989
 3729.00    0.63720   0.62667  123.082
 3730.00    0.64225   0.62610  123.100
 3731.00    0.61971   0.60677  122.028
 3732.00    0.57329   0.55821  124.642
 3733.00    0.51625   0.49244  132.692
 3734.00    0.46032   0.43226   42.728
 3735.00    0.42492   0.39660   16.820
 3736.00    0.42228   0.39865   18.448
 3737.00    0.45720   0.43744   18.622
 3738.00    0.51816   0.49874   17.413
 3739.00    0.58093   0.56630   22.119
 3740.00    0.63143   0.62095  138.994
 3741.00    0.65385   0.64741  126.902
 3742.00    0.64719   0.64164  121.614
 3743.00    0.61994   0.61406  122.625
 3744.00    0.58574   0.57887  128.411
 3745.00    0.55227   0.54698  136.494
 3746.00    0.52253   0.52049  144.566
 3747.00    0.49625   0.49146  152.556
 3748.00    0.46252   0.45667   44.764
 3749.00    0.43269   0.42971   16.806
 3750.00    0.44242   0.42849   17.633
 3751.00    0.50280   0.46342   24.032
 3752.00    0.57487   0.52409   -1.000
 3753.00    0.63368   0.59210   -1.000
 3754.00    0.68353   0.65091   -1.000
 3755.00    0.71710   0.68495   -1.000
 3756.00    0.70472   0.68333  109.766
 3757.00    0.66619   0.64962  110.056
 3758.00    0.60994   0.60569  118.718
 3759.00    0.57300   0.57947  134.039
 3760.00    0.58645   0.58078  144.574
 3761.00    0.61854   0.59753  141.111
 3762.00    0.64245   0.61249   -1.000
 3763.00    0.65209   0.61824   -1.000
 3764.00    0.65119   0.61860   -1.000
 3765.00    0.64953   0.61386   -1.000
 3766.00    0.64814   0.60241   -1.000
 3767.00    0.62105   0.58751   -1.000
 3768.00    0.60362   0.57166   -1.000
 3769.00    0.59908   0.55713   -1.000
 3770.00    0.59188   0.54501   -1.000
 3771.00    0.59173   0.54665   -1.000
 3772.00    0.61317   0.57079   -1.000
 3773.00    0.66193   0.60716   -1.000
 3774.00    0.68497   0.63901   -1.000
 3775.00    0.68644   0.65911   -1.000
 3776.00    0.70871   0.67115   -1.000
 3777.00    0.72341   0.68404   -1.000
 3778.00    0.73253   0.70311   -1.000
 3779.00    0.74036   0.72637  111.650
 3780.00    0.76046   0.75007  109.419
 3781.00    0.78268   0.76804  106.026
 3782.00    0.78853   0.77748  104.077
 3783.00    0.78976   0.78031  103.423
 3784.00    0.78987   0.77340  102.991
 3785.00    0.76527   0.75019  103.714
 3786.00    0.72380   0.71518  107.022
 3787.00    0.69186   0.67947  113.450
 3788.00    0.66546   0.65268  121.280
 3789.00    0.65827   0.64096  126.222
 3790.00    0.66430   0.64195  127.811
 3791.00    0.66251   0.64603  127.054
 3792.00    0.65602   0.64198  125.018
 3793.00    0.63983   0.62466  124.647
 3794.00    0.60652   0.59675  127.395
 3795.00    0.58573   0.56497  132.159
 3796.00    0.55710   0.53234   -1.000
 3797.00    0.51838   0.49743  141.504
 3798.00    0.49698   0.47126   -1.000
 3799.00    0.51302   0.47463   -1.000
 3800.00    0.57142   0.51421   -1.000
 3801.00    0.63016   0.57580   -1.000
 3802.00    0.67510   0.63736   -1.000
 3803.00    0.71176   0.68198   -1.000
 3804.00    0.73344   0.70661   -1.000
 3805.00    0.72904   0.71044  115.032
 3806.00    0.70788   0.69949  115.071
 3807.00    0.69551   0.69181  117.595
 3808.00    0.70255   0.69999  121.552
 3809.00    0.73217   0.72258  122.334
 3810.00    0.74219   0.74516  118.592
 3811.00    0.74571   0.75167  114.843
 3812.00    0.72965   0.73425  114.569
 3813.00    0.69283   0.69942  117.927
 3814.00    0.65220   0.66169  124.661
 3815.00    0.62596   0.63662  132.375
 3816.00    0.62859   0.63354  139.811
 3817.00    0.64260   0.64545  143.736
 3818.00    0.65645   0.65340  140.247
 3819.00    0.64172   0.63977  136.891
 3820.00    0.60788   0.61391  141.246
 3821.00    0.59591   0.60074  150.717
 3822.00    0.60986   0.60592  155.418
 3823.00    0.61968   0.61212  150.662
 3824.00    0.59227   0.59878  145.987
 3825.00    0.54896   0.56946   -1.000
 3826.00    0.53275   0.54328   50.471
 3827.00    0.52713   0.52983   17.154
 3828.00    0.52666   0.52610   17.382
 3829.00    0.52297   0.52653   17.188
 3830.00    0.51601   0.52339   16.906
 3831.00    0.50194   0.50712   16.756
 3832.00    0.46344   0.47800   17.116
 3833.00    0.43281   0.44106   18.059
 3834.00    0.42018   0.41144   19.296
 3835.00    0.41934   0.39996   19.612
 3836.00    0.43012   0.40404   19.097
 3837.00    0.43807   0.41639   18.409
 3838.00    0.42980   0.43117   18.217
 3839.00    0.43748   0.44795   18.636
 3840.00    0.47407   0.47373   18.883
 3841.00    0.51650   0.51498   18.330
 3842.00    0.57150   0.56552   22.597
 3843.00    0.61858   0.61440  154.776
 3844.00    0.65121   0.64973  141.238
 3845.00    0.66737   0.66903  133.999
 3846.00    0.66852   0.68156  132.251
 3847.00    0.66995   0.69308   -1.000
 3848.00    0.67398   0.69850   -1.000
 3849.00    0.66612   0.69445   -1.000
 3850.00    0.64871   0.68902   -1.000
 3851.00    0.65317   0.69319   -1.000
 3852.00    0.67347   0.70788   -1.000
 3853.00    0.68577   0.72126   -1.000
 3854.00    0.67241   0.72195   -1.000
 3855.00    0.66076   0.71066   -1.000
 3856.00    0.64602   0.69518   -1.000
 3857.00    0.63139   0.67798   -1.000
 3858.00    0.61474   0.65733   -1.000
 3859.00    0.57743   0.63934   -1.000
 3860.00    0.56279   0.63803   16.396
 3861.00    0.59528   0.66006   17.087
 3862.00    0.65634   0.69592   21.390
 3863.00    0.70745   0.72544   -1.000
 3864.00    0.71983   0.73474  133.377
 3865.00    0.70649   0.72952   -1.000
 3866.00    0.69424   0.72304   -1.000
 3867.00    0.69410   0.72056   -1.000
 3868.00    0.68996   0.71843   -1.000
 3869.00    0.66497   0.71032   -1.000
 3870.00    0.62938   0.69106   -1.000
 3871.00    0.60141   0.66563   -1.000
 3872.00    0.58864   0.64483   -1.000
 3873.00    0.60999   0.64101   20.800
 3874.00    0.65162   0.65866  154.729
 3875.00    0.68154   0.68328  140.217
 3876.00    0.68560   0.69095  129.391
 3877.00    0.65578   0.67191  126.753
 3878.00    0.61229   0.64500   -1.000
 3879.00    0.60296   0.63055   -1.000
 3880.00    0.61247   0.62921  150.849
 3881.00    0.60473   0.63213   -1.000
 3882.00    0.58571   0.63094   -1.000
 3883.00    0.59176   0.62688   -1.000
 3884.00    0.62250   0.61842  147.809
 3885.00    0.62168   0.59600   -1.000
 3886.00    0.59039   0.55793   -1.000
 3887.00    0.54384   0.51532   -1.000
 3888.00    0.53012   0.48578   -1.000
 3889.00    0.53855   0.48250   -1.000
 3890.00    0.57764   0.50847   -1.000
 3891.00    0.63477   0.55795   -1.000
 3892.00    0.67682   0.61041   -1.000
 3893.00    0.69849   0.64338   -1.000
 3894.00    0.69564   0.65559   -1.000
 3895.00    0.70263   0.66200   -1.000
 3896.00    0.71120   0.67566   -1.000
 3897.00    0.72931   0.69303   -1.000
 3898.00    0.74693   0.70514   -1.000
 3899.00    0.74231   0.71045   -1.000
 3900.00    0.74308   0.71458  108.316
 3901.00    0.75207   0.72288   -1.000
 3902.00    0.75147   0.73018  107.639
 3903.00    0.74062   0.72979  107.124
 3904.00    0.73582   0.71993  109.005
 3905.00    0.71688   0.70785  113.339
 3906.00    0.70830   0.70728  116.192
 3907.00    0.72745   0.72529  118.712
 3908.00    0.77136   0.75756  116.196
 3909.00    0.80232   0.79016  109.004
 3910.00    0.81583   0.81196  102.720
 3911.00    0.83128   0.82358  100.715
 3912.00    0.84415   0.82858   99.826
 3913.00    0.83164   0.82659   98.952
 3914.00    0.81981   0.81758   98.768
 3915.00    0.81345   0.80664  100.175
 3916.00    0.79744   0.79879  102.344
 3917.00    0.78837   0.79196  104.518
 3918.00    0.77881   0.78058  105.834
 3919.00    0.75229   0.76202  107.621
 3920.00    0.72784   0.74095  111.170
 3921.00    0.71718   0.72619  116.234
 3922.00    0.72118   0.72389  121.126
 3923.00    0.72926   0.73131  122.744
 3924.00    0.73022   0.73643  121.295
 3925.00    0.71693   0.72909  119.724
 3926.00    0.68053   0.70375   -1.000
 3927.00    0.62242   0.66163   -1.000
 3928.00    0.56297   0.60947   -1.000
 3929.00    0.47421   0.55379   -1.000
 3930.00    0.39106   0.49724   18.645
 3931.00    0.33665   0.43541   21.854
 3932.00    0.27656   0.36860   25.619
 3933.00    0.22848   0.31277   30.261
 3934.00    0.21854   0.28884   34.923
 3935.00    0.24224   0.31013   37.082
 3936.00    0.29917   0.36812   34.681
 3937.00    0.37518   0.44268   29.715
 3938.00    0.46779   0.51900   24.517
 3939.00    0.54252   0.58428   20.245
 3940.00    0.59645   0.63258   21.683
 3941.00    0.63661   0.66336   -1.000
 3942.00    0.65034   0.67668   -1.000
 3943.00    0.65397   0.68175   -1.000
 3944.00    0.66772   0.69186   -1.000
 3945.00    0.69451   0.71175   -1.000
 3946.00    0.73867   0.73553  128.665
 3947.00    0.76244   0.75235  117.717
 3948.00    0.75442   0.76040  112.127
 3949.00    0.75900   0.76739  111.086
 3950.00    0.78905   0.77674  109.584
 3951.00    0.80185   0.78199  105.582
 3952.00    0.78656   0.78032  102.946
 3953.00    0.77612   0.78076  103.709
 3954.00    0.79424   0.78538  104.561
 3955.00    0.81290   0.78524  102.481
 3956.00    0.79088   0.77632  100.643
 3957.00    0.76931   0.76437  102.335
 3958.00    0.77399   0.75777  105.737
 3959.00    0.78058   0.75072   -1.000
 3960.00    0.74600   0.72379  105.581
 3961.00    0.66957   0.67509  109.792
 3962.00    0.60488   0.62204  122.242
 3963.00    0.56128   0.57772  137.681
 3964.00    0.52270   0.53941   -1.000
 3965.00    0.46633   0.49091   59.985
 3966.00    0.38706   0.42270   17.502
 3967.00    0.30507   0.34370   20.732
 3968.00    0.25144   0.27797   25.567
 3969.00    0.23643   0.24754   30.720
 3970.00    0.27032   0.26161   32.759
 3971.00    0.33694   0.31428   29.577
 3972.00    0.41440   0.38764   24.331
 3973.00    0.49082   0.46450   20.071
 3974.00    0.56495   0.53647   20.985
 3975.00    0.63141   0.59875   -1.000
 3976.00    0.68642   0.65257   -1.000
 3977.00    0.73721   0.70082   -1.000
 3978.00    0.77742   0.74458   -1.000
 3979.00    0.82595   0.78325   -1.000
 3980.00    0.86412   0.80922   -1.000
 3981.00    0.85916   0.81907   -1.000
 3982.00    0.84354   0.81818   92.264
 3983.00    0.84144   0.81688   93.167
 3984.00    0.85608   0.82518   94.526
 3985.00    0.88103   0.84196   -1.000
 3986.00    0.88722   0.85995   91.574
 3987.00    0.89444   0.87675   89.833
 3988.00    0.90237   0.89092   88.336
 3989.00    0.91270   0.89915   86.793
 3990.00    0.92553   0.90367   86.198
 3991.00    0.94903   0.91089   -1.000
 3992.00    0.96220   0.92239   -1.000
 3993.00    0.96309   0.93353   83.486
 3994.00    0.96271   0.93587   82.018
 3995.00    0.94663   0.92479   83.267
 3996.00    0.91427   0.90587   85.295
 3997.00    0.90676   0.89274   87.197
 3998.00    0.91113   0.89615   88.688
 3999.00    0.93239   0.91514   88.889
 4000.00    0.96955   0.93918   86.413
 4001.00    0.99012   0.95891   82.577
 4002.00    0.98697   0.96873   80.080
 4003.00    0.99040   0.96285   78.861
 4004.00    0.96017   0.93777   78.223
 4005.00    0.90832   0.90443   80.503
 4006.00    0.89119   0.88787   85.894
 4007.00    0.91807   0.90106   89.367
 4008.00    0.96804   0.93321   87.687
 4009.00    0.99039   0.96292   82.788
 4010.00    1.00000   0.97947   79.951
 4011.00    1.00795   0.98536   78.985
 4012.00    0.99779   0.98539   78.242
 4013.00    0.98948   0.98543   78.144
 4014.00    1.00088   0.98864   78.705
 4015.00    1.00465   0.99244   78.947
 4016.00    1.00415   0.99335   78.232
 4017.00    0.99182   0.99265   77.417
 4018.00    0.99166   0.99559   78.188
 4019.00    1.00561   1.00302   78.929
 4020.00    1.02117   1.00980   78.361
 4021.00    1.01918   1.01087   77.365
 4022.00    1.00257   1.00593   77.755
 4023.00    0.99096   0.99831   78.809
 4024.00    0.98962   0.99157   79.262
 4025.00    0.99689   0.99177   79.801
 4026.00    1.01468   1.00446   79.967
 4027.00    1.04059   1.02507   77.755
 4028.00    1.04307   1.03556   75.160
 4029.00    1.01925   1.01943   74.046
 4030.00    0.97940   0.98006   75.175
 4031.00    0.93224   0.93762   78.699
 4032.00    0.91268   0.91069   83.843
 4033.00    0.92211   0.90536   86.891
 4034.00    0.93774   0.91954   87.499
 4035.00    0.96598   0.94997   86.025
 4036.00    1.00070   0.99043   82.905
 4037.00    1.04537   1.03006   78.759
 4038.00    1.06761   1.05425   75.065
 4039.00    1.05204   1.05542   72.846
 4040.00    1.03578   1.04206   72.932
 4041.00    1.02917   1.02876   74.573
 4042.00    1.02043   1.01818   76.206
 4043.00    0.99740   0.99360   76.933
 4044.00    0.94606   0.94291   77.825
 4045.00    0.88782   0.88825   82.293
 4046.00    0.87248   0.86845   90.256
 4047.00    0.91783   0.89836   95.397
 4048.00    0.99024   0.95517   -1.000
 4049.00    1.03114   1.00556   81.888
 4050.00    1.03230   1.03201   77.427
 4051.00    1.03219   1.03625   75.491
 4052.00    1.03035   1.02699   74.876
 4053.00    1.00255   1.00979   75.676
 4054.00    0.98591   0.99176   77.794
 4055.00    0.98062   0.97771   79.681
 4056.00    0.97350   0.96635   80.800
 4057.00    0.96849   0.95780   81.412
 4058.00    0.96918   0.95917   82.008
 4059.00    0.98203   0.97578   82.587
 4060.00    1.00346   0.99700   81.229
 4061.00    1.01898   0.99948   78.429
 4062.00    0.98557   0.96907   77.358
 4063.00    0.92070   0.92423   79.419
 4064.00    0.89280   0.89761   85.370
 4065.00    0.92040   0.89823   90.155
 4066.00    0.95039   0.91470   -1.000
 4067.00    0.96243   0.93602   83.962
 4068.00    0.97609   0.95638   81.940
 4069.00    1.01343   0.96835   -1.000
 4070.00    1.00935   0.96120   -1.000
 4071.00    0.95965   0.93736   76.951
 4072.00    0.94369   0.92057   80.200
 4073.00    0.96530   0.92647   -1.000
 4074.00    0.98467   0.94086   -1.000
 4075.00    0.96921   0.93738   79.436
 4076.00    0.91983   0.90790   79.701
 4077.00    0.86219   0.87464   84.133
 4078.00    0.85390   0.86464   90.784
 4079.00    0.89908   0.88853   92.514
 4080.00    0.95811   0.93388   88.775
 4081.00    0.99898   0.97210   82.570
 4082.00    1.00246   0.98366   77.353
 4083.00    0.97943   0.97044   75.616
 4084.00    0.96054   0.95077   77.193
 4085.00    0.95635   0.94306   79.685
 4086.00    0.97347   0.95506   80.506
 4087.00    1.00139   0.98031   79.008
 4088.00    1.03136   1.00412   76.230
 4089.00    1.04788   1.01501   73.354
 4090.00    1.03170   1.00932   71.390
 4091.00    1.01940   0.99387   71.956
 4092.00    1.00505   0.97892   73.469
 4093.00    0.98684   0.96556   74.762
 4094.00    0.98678   0.94888   -1.000
 4095.00    0.94854   0.92468   75.708
 4096.00    0.92246   0.89468   77.435
 4097.00    0.89849   0.86604   80.949
 4098.00    0.87689   0.83885   -1.000
 4099.00    0.85722   0.80125   -1.000
 4100.00    0.79938   0.74555   -1.000
 4101.00    0.73345   0.69054   -1.000
 4102.00    0.69799   0.66509   -1.000
 4103.00    0.74246   0.68600   -1.000
 4104.00    0.83047   0.74522   -1.000
 4105.00    0.89104   0.81254   -1.000
 4106.00    0.93602   0.86364   -1.000
 4107.00    0.94698   0.89365   -1.000
 4108.00    0.95057   0.90594   -1.000
 4109.00    0.93823   0.90765   79.413
 4110.00    0.91888   0.90833   80.315
 4111.00    0.93161   0.91404   81.869
 4112.00    0.95368   0.92802   82.769
 4113.00    0.97460   0.94827   81.553
 4114.00    0.99576   0.96985   79.737
 4115.00    1.00654   0.98698   78.400
 4116.00    1.02078   0.99359   77.258
 4117.00    1.01493   0.98710   76.665
 4118.00    0.99039   0.97203   77.242
 4119.00    0.96755   0.95842   79.063
 4120.00    0.96765   0.95476   81.560
 4121.00    0.97644   0.96054   82.198
 4122.00    0.97195   0.96855   81.128
 4123.00    0.98427   0.97630   80.412
 4124.00    0.99432   0.98522   80.403
 4125.00    1.00135   0.99310   79.433
 4126.00    1.00809   0.99432   78.145
 4127.00    0.99850   0.98726   78.083
 4128.00    0.97284   0.97781   79.263
 4129.00    0.96743   0.97183   80.873
 4130.00    0.96771   0.96469   81.474
 4131.00    0.94771   0.94938   81.952
 4132.00    0.92689   0.93033   83.199
 4133.00    0.92058   0.92092   85.890
 4134.00    0.93228   0.93178   88.305
 4135.00    0.96013   0.95971   88.059
 4136.00    1.00334   0.99188   84.859
 4137.00    1.02418   1.01881   80.699
 4138.00    1.03436   1.03794   78.281
 4139.00    1.04181   1.04876   77.063
 4140.00    1.03435   1.04585   75.968
 4141.00    1.01818   1.02138   75.917
 4142.00    0.98159   0.97795   77.821
 4143.00    0.92363   0.93638   82.311
 4144.00    0.91111   0.92235   89.105
 4145.00    0.94972   0.94169   92.756
 4146.00    0.99204   0.97685   88.837
 4147.00    1.01833   1.00287   83.651
 4148.00    1.01821   1.00881   80.856
 4149.00    0.99431   1.00243   80.357
 4150.00    0.97845   0.99602   82.057
 4151.00    0.98279   0.99412   84.246
 4152.00    0.98131   0.99211   85.058
 4153.00    0.97092   0.98480   84.397
 4154.00    0.95227   0.97433   84.061
 4155.00    0.94569   0.96797   84.961
 4156.00    0.95799   0.97080   85.980
 4157.00    0.96061   0.98256   83.865
 4158.00    0.98322   0.99968   83.406
 4159.00    1.12408   1.01766   -1.000
 4160.00    1.11024   1.03235   -1.000
 4161.00    1.00432   1.04232   -1.000
 4162.00    0.98802   1.04883   -1.000
 4163.00    1.02606   1.05344   78.307
 4164.00    1.04335   1.05428   77.639
 4165.00    1.02253   1.04818   78.238
 4166.00    1.00256   1.03491   79.551
 4167.00    0.99713   1.02144   80.799
 4168.00    0.99542   1.01646   82.589
 4169.00    1.00745   1.01771   83.630
 4170.00    1.00553   1.01206   82.840
 4171.00    0.96443   0.98759   81.606
 4172.00    0.91574   0.95120   -1.000
 4173.00    0.89111   0.92631   -1.000
 4174.00    0.90569   0.92728   92.950
 4175.00    0.93461   0.94753   92.647
 4176.00    0.94447   0.96723   89.182
 4177.00    0.94156   0.97645   -1.000
 4178.00    0.94114   0.98183   -1.000
 4179.00    0.95389   0.98927   -1.000
 4180.00    0.96914   0.99710   86.304
 4181.00    0.96813   0.99891   84.963
 4182.00    0.96916   0.99529   84.254
 4183.00    0.97202   0.99828   84.255
 4184.00    0.98482   1.00996   83.230
 4185.00    0.99622   1.01693   81.544
 4186.00    0.97713   1.00933   80.263
 4187.00    0.95157   0.99301   -1.000
 4188.00    0.95221   0.98437   83.498
 4189.00    0.96767   0.98889   85.568
 4190.00    0.97962   0.99802   84.574
 4191.00    0.99149   1.00692   82.741
 4192.00    0.99446   1.01690   82.234
 4193.00    1.00852   1.02606   81.045
 4194.00    1.01322   1.02632   79.321
 4195.00    0.98255   1.00904   78.609
 4196.00    0.95176   0.97935   81.216
 4197.00    0.92761   0.95218   85.454
 4198.00    0.91591   0.93653   88.090
 4199.00    0.92507   0.93118   89.463
 4200.00    0.94016   0.93188   89.493
 4201.00    0.95023   0.93623   88.421
 4202.00    0.94788   0.94151   87.087
 4203.00    0.95301   0.95058   86.871
 4204.00    0.95579   0.96756   86.220
 4205.00    0.96295   0.98814   84.891
 4206.00    0.99120   1.00717   84.220
 4207.00    1.01103   1.02415   82.488
 4208.00    1.01589   1.03567   80.443
 4209.00    1.01876   1.03810   79.000
 4210.00    1.01805   1.03556   78.720
 4211.00    1.01668   1.03531   79.036
 4212.00    1.01901   1.03871   78.811
 4213.00    1.01294   1.03456   78.324
 4214.00    0.99145   1.01390   79.006
 4215.00    0.95078   0.98881   -1.000
 4216.00    0.92921   0.97783   -1.000
 4217.00    0.96072   0.99197   87.318
 4218.00    1.01401   1.02343   83.903
 4219.00    1.05039   1.05304   78.585
 4220.00    1.05678   1.07029   75.276
 4221.00    1.06343   1.07171   73.339
 4222.00    1.05274   1.05388   72.719
 4223.00    0.99829   1.01391   73.625
 4224.00    0.94197   0.95287   76.945
 4225.00    0.88036   0.88263   82.640
 4226.00    0.80909   0.82902   91.171
 4227.00    0.78987   0.82138   -1.000
 4228.00    0.86318   0.86947  110.204
 4229.00    0.96722   0.94839  102.002
 4230.00    1.02291   1.01473   88.245
 4231.00    1.02863   1.04155   79.689
 4232.00    1.02269   1.03640   75.966
 4233.00    1.01109   1.01788   75.688
 4234.00    1.00024   0.99684   77.524
 4235.00    0.98535   0.98090   79.485
 4236.00    0.96083   0.97252   80.289
 4237.00    0.95696   0.97058   82.208
 4238.00    0.95996   0.97774   83.520
 4239.00    0.97058   0.99327   82.701
 4240.00    0.99583   1.01176   80.755
 4241.00    1.01495   1.02914   79.617
 4242.00    1.02145   1.04363   78.091
 4243.00    1.02469   1.05494   77.114
 4244.00    1.02548   1.06365   76.738
 4245.00    1.03156   1.06561   75.345
 4246.00    1.02781   1.05068   73.906
 4247.00    0.97921   1.01959   74.975
 4248.00    0.93754   0.98663   -1.000
 4249.00    0.93152   0.96545   81.444
 4250.00    0.93856   0.96218   83.383
 4251.00    0.96186   0.97494   84.021
 4252.00    1.00007   0.99221   83.721
 4253.00    1.00787   0.99899   81.195
 4254.00    0.97782   0.99419   79.093
 4255.00    0.96780   0.99190   79.791
 4256.00    0.98122   1.00391   81.854
 4257.00    1.01457   1.01936   80.485
 4258.00    1.01270   1.01379   77.388
 4259.00    0.96925   0.98439   77.104
 4260.00    0.93153   0.95627   80.341
 4261.00    0.92202   0.95672   84.734
 4262.00    0.95912   0.98931   86.483
 4263.00    1.01035   1.03448   82.839
 4264.00    1.03932   1.06908   77.638
 4265.00    1.06234   1.08108   74.136
 4266.00    1.04968   1.07500   72.582
 4267.00    1.03442   1.05937   72.560
 4268.00    1.00375   1.03455   73.894
 4269.00    0.97217   0.99938   76.411
 4270.00    0.93529   0.95607   78.757
 4271.00    0.89807   0.91423   81.951
 4272.00    0.86777   0.88885   87.490
 4273.00    0.88062   0.88792   92.620
 4274.00    0.90455   0.90737   93.184
 4275.00    0.92631   0.93860   90.932
 4276.00    0.95816   0.97829   88.528
 4277.00    0.99698   1.01933   84.364
 4278.00    1.01859   1.04303   78.876
 4279.00    1.00328   1.03861   75.481
 4280.00    0.97493   1.01655   75.788
 4281.00    0.95613   0.99871   -1.000
 4282.00    0.95193   0.99766   -1.000
 4283.00    0.97252   1.00290   81.928
 4284.00    0.98235   1.00047   80.721
 4285.00    0.95559   0.98899   80.104
 4286.00    0.92648   0.97348   -1.000
 4287.00    0.91468   0.95683   -1.000
 4288.00    0.89990   0.93465   85.810
 4289.00    0.87309   0.90588   87.085
 4290.00    0.85846   0.88578   90.613
 4291.00    0.86241   0.89125   95.010
 4292.00    0.91405   0.91896   94.718
 4293.00    0.94548   0.94708   89.639
 4294.00    0.93998   0.95615   84.052
 4295.00    0.93123   0.94718   82.760
 4296.00    0.90660   0.92948   83.673
 4297.00    0.87351   0.90124   85.114
 4298.00    0.81322   0.86020   -1.000
 4299.00    0.75950   0.81615   -1.000
 4300.00    0.72957   0.78401   -1.000
 4301.00    0.73678   0.77225   -1.000
 4302.00    0.74275   0.77768   -1.000
 4303.00    0.75871   0.79042   -1.000
 4304.00    0.77404   0.80232  103.108
 4305.00    0.78229   0.80685  101.553
 4306.00    0.77567   0.79743  100.412
 4307.00    0.75512   0.77616  101.056
 4308.00    0.72304   0.75581   -1.000
 4309.00    0.69849   0.75184   -1.000
 4310.00    0.71372   0.76987   -1.000
 4311.00    0.74412   0.80240   -1.000
 4312.00    0.78974   0.83876   -1.000
 4313.00    0.82673   0.87594   -1.000
 4314.00    0.87953   0.92230   -1.000
 4315.00    0.94080   0.98156   -1.000
 4316.00    1.02295   1.04571   83.357
 4317.00    1.08237   1.09782   75.974
 4318.00    1.09862   1.12171   70.422
 4319.00    1.08455   1.11856   68.178
 4320.00    1.06592   1.10017   68.338
 4321.00    1.05057   1.07154   69.488
 4322.00    1.01509   1.02927   71.121
 4323.00    0.94434   0.97246   73.625
 4324.00    0.88363   0.91159   77.387
 4325.00    0.83341   0.87141   -1.000
 4326.00    0.84738   0.87696   90.763
 4327.00    0.91657   0.92750   93.837
 4328.00    0.99854   0.99309   87.152
 4329.00    1.04374   1.03944   77.807
 4330.00    1.03245   1.05474   72.499
 4331.00    1.03802   1.05274   71.372
 4332.00    1.05030   1.05107   71.751
 4333.00    1.05397   1.05446   71.280
 4334.00    1.02942   1.05488   69.990
 4335.00    1.03964   1.04011   69.325
 4336.00    1.01106   0.99984   69.246
 4337.00    0.93989   0.93154   70.607
 4338.00    0.85763   0.84595   75.449
 4339.00    0.77644   0.76932   82.964
 4340.00    0.71724   0.72796   90.631
 4341.00    0.74167   0.73466   97.944
 4342.00    0.84578   0.78659   -1.000
 4343.00    0.92140   0.85946   -1.000
 4344.00    0.93478   0.92427   82.664
 4345.00    0.98230   0.96995   77.822
 4346.00    1.01693   1.00121   75.510
 4347.00    1.02101   1.02671   73.488
 4348.00    1.03303   1.04791   72.300
 4349.00    1.04005   1.05416   71.558
 4350.00    1.02107   1.03323   70.378
 4351.00    0.95778   0.99196   70.741
 4352.00    0.90492   0.95861   -1.000
 4353.00    0.93082   0.95864   80.619
 4354.00    0.98380   0.99061   81.346
 4355.00    1.00278   1.03009   77.744
 4356.00    1.02407   1.05754   74.220
 4357.00    1.04928   1.06910   72.019
 4358.00    1.05193   1.06744   70.590
 4359.00    1.02833   1.06126   70.744
 4360.00    1.03011   1.06449   72.385
 4361.00    1.06535   1.08136   73.186
 4362.00    1.09105   1.10282   71.614
 4363.00    1.08539   1.12000   69.393
 4364.00    1.08716   1.13072   68.726
 4365.00    1.10587   1.13284   68.467
 4366.00    1.09253   1.12098   67.668
 4367.00    1.05736   1.09658   67.687
 4368.00    1.03251   1.07356   69.946
 4369.00    1.02510   1.06252   72.516
 4370.00    1.03400   1.06005   73.175
 4371.00    1.04688   1.05687   72.359
 4372.00    1.03868   1.04505   71.939
 4373.00    1.01822   1.02195   71.910
 4374.00    0.99043   0.99395   72.705
 4375.00    0.96551   0.97867   75.851
 4376.00    0.98026   0.99063   78.833
 4377.00    1.03062   1.02460   78.646
 4378.00    1.06274   1.05838   75.181
 4379.00    1.06469   1.07238   71.378
 4380.00    1.07031   1.06139   70.285
 4381.00    1.05658   1.02475   70.817
 4382.00    0.99275   0.96272   72.154
 4383.00    0.89824   0.89435   75.755
 4384.00    0.84896   0.85673   84.547
 4385.00    0.87455   0.87168   94.124
 4386.00    0.94329   0.92543   94.425
 4387.00    1.00851   0.97843   85.153
 4388.00    1.02352   1.00403   77.125
 4389.00    1.01907   1.00712   74.937
 4390.00    1.00667   1.00535   75.142
 4391.00    1.01119   1.01005   76.013
 4392.00    1.03336   1.02030   76.207
 4393.00    1.03809   1.02763   74.612
 4394.00    1.02024   1.02662   72.917
 4395.00    1.00654   1.02620   73.565
 4396.00    1.02880   1.03997   75.288
 4397.00    1.07177   1.06252   74.867
 4398.00    1.08318   1.07320   71.220
 4399.00    1.04893   1.06157   69.239
 4400.00    1.01466   1.04054   70.419
 4401.00    1.02349   1.02935   73.150
 4402.00    1.05210   1.02648   75.284
 4403.00    1.04911   1.01621   74.193
 4404.00    1.00773   0.99211   72.824
 4405.00    0.98220   0.96980   75.667
 4406.00    0.99588   0.96969   80.245
 4407.00    1.01447   0.98799   80.627
 4408.00    1.01412   1.00888   77.706
 4409.00    1.01183   1.03231   76.683
 4410.00    1.06207   1.06523   76.023
 4411.00    1.10363   1.10079   72.964
 4412.00    1.12011   1.11901   69.815
 4413.00    1.12330   1.10720   67.487
 4414.00    1.08842   1.07253   66.783
 4415.00    1.03226   1.03444   68.761
 4416.00    1.00850   1.01805   72.887
 4417.00    1.04306   1.03411   75.415
 4418.00    1.07767   1.06926   74.798
 4419.00    1.10715   1.10300   72.050
 4420.00    1.13124   1.12021   69.029
 4421.00    1.10924   1.11590   67.136
 4422.00    1.08194   1.09934   67.666
 4423.00    1.07145   1.08742   69.549
 4424.00    1.08402   1.08623   70.766
 4425.00    1.07982   1.08962   70.272
 4426.00    1.06521   1.09137   69.934
 4427.00    1.07227   1.09279   70.235
 4428.00    1.08222   1.09545   70.566
 4429.00    1.08749   1.09664   70.031
 4430.00    1.06965   1.09559   69.759
 4431.00    1.07094   1.09541   70.524
 4432.00    1.08417   1.09533   70.732
 4433.00    1.07145   1.08538   69.838
 4434.00    1.03669   1.06264   69.306
 4435.00    1.02095   1.04289   71.778
 4436.00    1.02778   1.04799   75.375
 4437.00    1.07496   1.08293   76.059
 4438.00    1.13164   1.12677   72.828
 4439.00    1.15026   1.15241   68.255
 4440.00    1.13800   1.14600   65.453
 4441.00    1.10603   1.11439   65.396
 4442.00    1.07038   1.07894   67.595
 4443.00    1.03861   1.06183   70.913
 4444.00    1.04409   1.07282   73.893
 4445.00    1.08662   1.10362   74.008
 4446.00    1.11345   1.13534   71.092
 4447.00    1.12156   1.15197   68.045
 4448.00    1.11872   1.15443   66.828
 4449.00    1.11498   1.15263   66.917
 4450.00    1.10365   1.14979   67.046
 4451.00    1.11316   1.14404   67.825
 4452.00    1.12530   1.13363   68.490
 4453.00    1.10177   1.11424   67.915
 4454.00    1.05697   1.08376   68.423
 4455.00    1.03128   1.05331   71.056
 4456.00    1.03417   1.03979   74.378
 4457.00    1.05401   1.04424   75.837
 4458.00    1.05870   1.05306   74.438
 4459.00    1.05011   1.05561   73.110
 4460.00    1.05510   1.05254   73.214
 4461.00    1.05061   1.05119   73.606
 4462.00    1.05381   1.05920   74.398
 4463.00    1.07767   1.07889   75.056
 4464.00    1.10226   1.10211   73.486
 4465.00    1.11285   1.11690   70.529
 4466.00    1.11256   1.11874   68.912
 4467.00    1.11050   1.11138   68.869
 4468.00    1.08812   1.10071   68.920
 4469.00    1.06791   1.09370   69.736
 4470.00    1.06815   1.09806   71.112
 4471.00    1.10153   1.11767   71.505
 4472.00    1.14759   1.14647   70.456
 4473.00    1.16321   1.17250   68.192
 4474.00    1.17858   1.18888   65.824
 4475.00    1.18184   1.19675   64.051
 4476.00    1.17495   1.20283   63.548
 4477.00    1.19157   1.20852   63.689
 4478.00    1.19162   1.20356   63.107
 4479.00    1.16790   1.17797   62.744
 4480.00    1.12181   1.13755   63.341
 4481.00    1.08193   1.10401   65.757
 4482.00    1.07817   1.09672   68.773
 4483.00    1.09375   1.11967   70.683
 4484.00    1.13453   1.16018   69.815
 4485.00    1.17460   1.19626   66.794
 4486.00    1.18441   1.21223   64.280
 4487.00    1.17268   1.20404   62.932
 4488.00    1.14564   1.17821   63.065
 4489.00    1.11400   1.15023   64.545
 4490.00    1.10692   1.13775   67.067
 4491.00    1.12172   1.14670   68.585
 4492.00    1.15355   1.16353   67.784
 4493.00    1.15459   1.16724   65.935
 4494.00    1.13842   1.15231   64.903
 4495.00    1.11518   1.13483   65.925
 4496.00    1.11177   1.13234   67.986
 4497.00    1.13160   1.14702   69.438
 4498.00    1.15403   1.16761   68.635
 4499.00    1.17401   1.18093   66.225
 4500.00    1.17240   1.18170   64.366
 4501.00    1.15676   1.17777   63.739
 4502.00    1.15637   1.18363   64.524
 4503.00    1.19279   1.20331   64.868
 4504.00    1.21062   1.22774   63.152
 4505.00    1.22377   1.24413   60.959
 4506.00    1.22519   1.24587   59.903
 4507.00    1.21442   1.23707   60.334
 4508.00    1.19629   1.22784   61.593
 4509.00    1.19555   1.22490   62.188
 4510.00    1.21745   1.22662   62.228
 4511.00    1.21204   1.22626   61.741
 4512.00    1.19794   1.21775   61.311
 4513.00    1.18079   1.20280   61.846
 4514.00    1.16495   1.18906   63.087
 4515.00    1.16657   1.18106   64.215
 4516.00    1.17213   1.17837   64.605
 4517.00    1.16170   1.17693   64.275
 4518.00    1.15049   1.17468   64.231
 4519.00    1.15330   1.17613   65.028
 4520.00    1.15987   1.18400   65.405
 4521.00    1.17956   1.19154   64.279
 4522.00    1.16541   1.18973   63.003
 4523.00    1.14228   1.17738   63.207
 4524.00    1.13827   1.16104   64.725
 4525.00    1.13656   1.14462   66.039
 4526.00    1.11206   1.12504   66.599
 4527.00    1.08695   1.10048   67.721
 4528.00    1.06495   1.07629   69.810
 4529.00    1.06031   1.06354   71.783
 4530.00    1.07462   1.06756   72.641
 4531.00    1.09228   1.08248   72.106
 4532.00    1.10118   1.09544   70.830
 4533.00    1.09092   1.09420   69.535
 4534.00    1.07061   1.08073   69.195
 4535.00    1.05655   1.07189   71.147
 4536.00    1.07971   1.08660   73.577
 4537.00    1.13593   1.12460   72.619
 4538.00    1.18833   1.16412   68.470
 4539.00    1.18943   1.18495   64.419
 4540.00    1.16346   1.18440   62.682
 4541.00    1.15866   1.17593   63.286
 4542.00    1.16506   1.17209   64.823
 4543.00    1.16190   1.17328   64.765
 4544.00    1.14856   1.17215   64.289
 4545.00    1.13735   1.16460   64.047
 4546.00    1.13367   1.15522   91.659
 4547.00    1.19372   1.14727   -2.000
 4548.00    0.61891   1.13616   -2.000
 4549.00   -0.00749   1.12167   -2.000
 4550.00   -0.06087   1.11352    0.000
 4551.00    0.53450   1.11923   -1.000
 4552.00    0.63859   1.13139   -1.000
 4553.00    0.41247   1.13470   -1.000
 4554.00    1.10881   1.12752   67.142
 4555.00    1.09238   1.12238   68.186
 4556.00    1.11202   1.13129   68.823
 4557.00    1.15122   1.15579   67.808
 4558.00    1.18626   1.18394   65.340
 4559.00    1.19374   1.20342   62.706
 4560.00    1.19904   1.21293   61.583
 4561.00    1.20784   1.21463   61.907
 4562.00    1.20027   1.20748   61.878
 4563.00    1.17952   1.19050   61.901
 4564.00    1.14788   1.16915   63.322
 4565.00    1.14509   1.15608   64.908
 4566.00    1.15319   1.16035   66.028
 4567.00    1.17663   1.17922   65.335
 4568.00    1.19924   1.19948   63.686
 4569.00    1.19107   1.20709   61.998
 4570.00    1.17492   1.19802   61.356
 4571.00    1.14243   1.17978   62.008
 4572.00    1.13656   1.16637   63.571
 4573.00    1.15982   1.16918   65.250
 4574.00    1.19078   1.18550   64.827
 4575.00    1.20220   1.20061   62.889
 4576.00    1.19585   1.20534   61.964
 4577.00    1.18366   1.20085   61.980
 4578.00    1.18009   1.18895   62.263
 4579.00    1.16623   1.16976   62.624
 4580.00    1.14027   1.14728   63.680
 4581.00    1.12305   1.13017   65.576
 4582.00    1.12430   1.12467   66.952
 4583.00    1.14024   1.12825   66.808
 4584.00    1.13884   1.13310   65.878
 4585.00    1.13856   1.13559   65.377
 4586.00    1.15052   1.13926   65.554
 4587.00    1.16485   1.15059   65.964
 4588.00    1.18607   1.16985   65.092
 4589.00    1.19053   1.18703   63.400
 4590.00    1.17927   1.19276   62.039
 4591.00    1.16460   1.18601   61.908
 4592.00    1.14893   1.17156   62.788
 4593.00    1.14792   1.15780   63.958
 4594.00    1.15195   1.15159   65.084
 4595.00    1.16037   1.15155   65.183
 4596.00    1.16676   1.15371   64.645
 4597.00    1.17033   1.15798   64.133
 4598.00    1.17402   1.16280   63.950
 4599.00    1.16793   1.16467   63.816
 4600.00    1.16040   1.16248   63.672
 4601.00    1.15129   1.15852   64.208
 4602.00    1.15348   1.15673   64.788
 4603.00    1.15815   1.15830   64.986
 4604.00    1.16502   1.16076   64.328
 4605.00    1.18002   1.16358   63.602
 4606.00    1.18261   1.16997   63.675
 4607.00    1.18044   1.18295   63.581
 4608.00    1.20138   1.20107   62.911
 4609.00    1.22494   1.21801   61.685
 4610.00    1.22757   1.22632   60.364
 4611.00    1.21449   1.22264   59.629
 4612.00    1.20044   1.21181   59.856
 4613.00    1.19110   1.20190   60.663
 4614.00    1.19038   1.19834   61.347
 4615.00    1.20581   1.20199   61.756
 4616.00    1.20523   1.20730   61.481
 4617.00    1.19827   1.20899   60.940
 4618.00    1.19363   1.20697   60.681
 4619.00    1.18165   1.20434   61.060
 4620.00    1.19490   1.20545   61.515
 4621.00    1.21346   1.21173   61.481
 4622.00    1.21893   1.21906   60.915
 4623.00    1.21380   1.22170   59.959
 4624.00    1.21108   1.21868   59.895
 4625.00    1.21356   1.21386   60.043
 4626.00    1.21274   1.21002   60.163
 4627.00    1.21794   1.20806   60.697
 4628.00    1.21870   1.20770   60.867
 4629.00    1.20592   1.20814   60.842
 4630.00    1.19675   1.20975   61.215
 4631.00    1.20982   1.21250   61.361
 4632.00    1.22184   1.21362   61.075
 4633.00    1.19510   1.20990   60.384
 4634.00    1.16768   1.20237   60.602
 4635.00    1.19691   1.19484   61.464
 4636.00    1.19711   1.18829   62.158
 4637.00    1.19055   1.18065   62.140
 4638.00    1.18191   1.17278   62.611
 4639.00    1.17671   1.16827   63.429
 4640.00    1.19261   1.17072   63.723
 4641.00    1.21651   1.18127   63.650
 4642.00    1.22156   1.19480   62.620
 4643.00    1.22286   1.20251   61.104
 4644.00    1.21851   1.19805   60.226
 4645.00    1.19516   1.18160   60.413
 4646.00    1.17260   1.15790   61.497
 4647.00    1.15850   1.13674   63.206
 4648.00    1.16845   1.13020   64.964
 4649.00    1.18811   1.14124   -1.000
 4650.00    1.20262   1.16271   64.249
 4651.00    1.20462   1.18379   62.757
 4652.00    1.20128   1.19507   61.859
 4653.00    1.20237   1.19343   61.710
 4654.00    1.17897   1.18179   61.587
 4655.00    1.16560   1.16800   62.268
 4656.00    1.16036   1.16255   63.679
 4657.00    1.17323   1.17203   64.463
 4658.00    1.19977   1.19570   63.988
 4659.00    1.23151   1.22432   62.031
 4660.00    1.24786   1.24354   59.666
 4661.00    1.24241   1.24426   58.264
 4662.00    1.22014   1.22999   58.129
 4663.00    1.20443   1.21052   58.809
 4664.00    1.19885   1.19201   60.215
 4665.00    1.18653   1.17181   61.428
 4666.00    1.15450   1.14464   61.640
 4667.00    1.12039   1.11465   62.590
 4668.00    1.10229   1.09580   65.182
 4669.00    1.12688   1.10119   67.917
 4670.00    1.16544   1.12729   -1.000
 4671.00    1.19009   1.15665   66.212
 4672.00    1.20065   1.17603   63.469
 4673.00    1.20285   1.18364   61.685
 4674.00    1.20837   1.18672   61.234
 4675.00    1.21363   1.19294   61.260
 4676.00    1.22467   1.20201   61.206
 4677.00    1.22289   1.20526   60.459
 4678.00    1.20572   1.19583   59.550
 4679.00    1.19627   1.17751   59.763
 4680.00    1.18477   1.15871   61.000
 4681.00    1.17242   1.14669   62.224
 4682.00    1.17526   1.14592   63.266
 4683.00    1.19545   1.15565   -1.000
 4684.00    1.20884   1.16964   -1.000
 4685.00    1.21265   1.18004   61.664
 4686.00    1.21527   1.18348   60.795
 4687.00    1.21064   1.18168   60.932
 4688.00    1.20458   1.17805   60.976
 4689.00    1.20424   1.17491   61.299
 4690.00    1.20187   1.17239   61.331
 4691.00    1.19774   1.16973   61.335
 4692.00    1.19566   1.16883   61.744
 4693.00    1.21053   1.17365   61.901
 4694.00    1.23327   1.18385   -1.000
 4695.00    1.24443   1.19419   -1.000
 4696.00    1.23611   1.19899   59.012
 4697.00    1.22756   1.19338   58.212
 4698.00    1.20592   1.17682   58.420
 4699.00    1.17723   1.15676   60.001
 4700.00    1.17573   1.14213   61.823
 4701.00    1.18891   1.13287   -1.000
 4702.00    1.17158   1.12461   -1.000
 4703.00    1.14374   1.11955   62.605
 4704.00    1.15747   1.12280   63.672
 4705.00    1.17425   1.13311   -1.000
 4706.00    1.18267   1.14143   -1.000
 4707.00    1.16506   1.14008   62.019
 4708.00    1.15556   1.13168   62.733
 4709.00    1.14534   1.12644   63.976
 4710.00    1.15877   1.13236   64.656
 4711.00    1.19399   1.14753   -1.000
 4712.00    1.21320   1.16236   -1.000
 4713.00    1.20886   1.16675   -1.000
 4714.00    1.19671   1.16049   60.187
 4715.00    1.18701   1.15608   60.667
 4716.00    1.19936   1.16340   61.776
 4717.00    1.22389   1.18059   -1.000
 4718.00    1.22646   1.19945   60.759
 4719.00    1.24195   1.21353   59.577
 4720.00    1.24740   1.22070   59.139
 4721.00    1.23358   1.22087   58.921
 4722.00    1.23246   1.21604   58.720
 4723.00    1.23698   1.21200   59.156
 4724.00    1.23096   1.21391   59.590
 4725.00    1.23175   1.21688   59.312
 4726.00    1.23644   1.21010   58.689
 4727.00    1.21160   1.18884   58.709
 4728.00    1.17861   1.15996   60.015
 4729.00    1.17830   1.13827   62.235
 4730.00    1.17811   1.13265   -1.000
 4731.00    1.17641   1.13950   63.652
 4732.00    1.18657   1.15165   63.028
 4733.00    1.20253   1.16491   62.516
 4734.00    1.21236   1.17575   61.787
 4735.00    1.21034   1.18027   61.229
 4736.00    1.20526   1.17828   60.865
 4737.00    1.20053   1.17501   60.527
 4738.00    1.21013   1.17647   61.079
 4739.00    1.21709   1.18307   61.224
 4740.00    1.21702   1.18870   60.512
 4741.00    1.21213   1.18933   60.449
 4742.00    1.21298   1.18912   60.776
 4743.00    1.22470   1.19199   60.886
 4744.00    1.22803   1.19598   60.453
 4745.00    1.22712   1.20038   59.805
 4746.00    1.23030   1.20727   59.844
 4747.00    1.23041   1.21576   59.911
 4748.00    1.22935   1.22359   59.514
 4749.00    1.23194   1.22934   58.923
 4750.00    1.22927   1.23254   58.748
 4751.00    1.22706   1.23312   58.819
 4752.00    1.22061   1.22933   58.865
 4753.00    1.21922   1.22036   59.252
 4754.00    1.21313   1.20901   59.903
 4755.00    1.20283   1.19959   60.427
 4756.00    1.19619   1.19557   60.850
 4757.00    1.19487   1.19816   60.799
 4758.00    1.20051   1.20495   60.995
 4759.00    1.21399   1.21265   61.428
 4760.00    1.21662   1.21752   61.540
 4761.00    1.20273   1.21387   61.089
 4762.00    1.18212   1.19946   60.929
 4763.00    1.17089   1.17932   61.764
 4764.00    1.16367   1.16189   63.258
 4765.00    1.15891   1.15186   64.167
 4766.00    1.16865   1.14896   64.341
 4767.00    1.19218   1.15432   64.227
 4768.00    1.20683   1.17000   63.810
 4769.00    1.21975   1.19273   62.973
 4770.00    1.22587   1.21245   61.600
 4771.00    1.22486   1.21997   60.677
 4772.00    1.21329   1.21726   60.673
 4773.00    1.20427   1.21528   61.148
 4774.00    1.22411   1.22213   61.691
 4775.00    1.23117   1.23486   61.126
 4776.00    1.23681   1.24424   59.875
 4777.00    1.23881   1.24761   59.355
 4778.00    1.23833   1.24770   59.355
 4779.00    1.23330   1.24448   59.519
 4780.00    1.21611   1.23744   59.883
 4781.00    1.22121   1.22921   60.526
 4782.00    1.21374   1.22196   60.926
 4783.00    1.20265   1.21510   61.101
 4784.00    1.21002   1.20865   61.380
 4785.00    1.20573   1.20361   61.854
 4786.00    1.19575   1.19810   61.896
 4787.00    1.17970   1.19069   62.070
 4788.00    1.18151   1.18566   62.641
 4789.00    1.19267   1.18573   63.039
 4790.00    1.19483   1.18923   63.028
 4791.00    1.20742   1.19648   62.745
 4792.00    1.21424   1.20918   62.366
 4793.00    1.22781   1.22732   61.748
 4794.00    1.24292   1.24821   60.778
 4795.00    1.25313   1.26522   59.464
 4796.00    1.25073   1.27114   58.401
 4797.00    1.24093   1.26361   58.086
 4798.00    1.22326   1.24541   58.573
 4799.00    1.21031   1.22447   59.687
 4800.00    1.20553   1.21244   60.823
 4801.00    1.21113   1.21608   61.602
 4802.00    1.23064   1.23172   61.228
 4803.00    1.23261   1.24755   60.067
 4804.00    1.22952   1.25113   59.151
 4805.00    1.21274   1.24102   59.115
 4806.00    1.20648   1.22655   59.819
 4807.00    1.21245   1.21630   60.598
 4808.00    1.22040   1.21251   61.179
 4809.00    1.21443   1.21442   61.241
 4810.00    1.21323   1.22060   61.100
 4811.00    1.22103   1.22787   60.841
 4812.00    1.22430   1.23318   60.326
 4813.00    1.22702   1.23607   59.875
 4814.00    1.22912   1.23830   59.553
 4815.00    1.24039   1.24217   59.460
 4816.00    1.24830   1.24894   59.330
 4817.00    1.24718   1.25786   59.125
 4818.00    1.24734   1.26611   58.774
 4819.00    1.24611   1.27046   58.407
 4820.00    1.24876   1.27045   58.152
 4821.00    1.23933   1.26573   58.102
 4822.00    1.22480   1.25252   58.103
 4823.00    1.20139   1.23126   58.541
 4824.00    1.19154   1.21160   59.944
 4825.00    1.20015   1.20455   61.165
 4826.00    1.21417   1.21198   61.234
 4827.00    1.23000   1.22356   60.279
 4828.00    1.22621   1.22788   59.317
 4829.00    1.21331   1.22357   59.391
 4830.00    1.21592   1.21584   60.039
 4831.00    1.20815   1.20783   60.468
 4832.00    1.19973   1.20048   60.508
 4833.00    1.21258   1.19767   60.978
 4834.00    1.22581   1.20261   61.158
 4835.00    1.22639   1.21247   60.335
 4836.00    1.22828   1.22014   59.498
 4837.00    1.22753   1.22115   59.193
 4838.00    1.21568   1.21612   59.247
 4839.00    1.19388   1.20624   59.505
 4840.00    1.18282   1.19432   60.239
 4841.00    1.18563   1.18598   61.287
 4842.00    1.18731   1.18339   61.493
 4843.00    1.19303   1.18396   61.378
 4844.00    1.19383   1.18719   61.096
 4845.00    1.20288   1.19530   60.661
 4846.00    1.21371   1.20562   60.077
 4847.00    1.20747   1.20924   59.184
 4848.00    1.18150   1.20108   58.776
 4849.00    1.18071   1.18896   59.734
 4850.00    1.19120   1.18445   60.696
 4851.00    1.19334   1.18745   60.835
 4852.00    1.19293   1.18946   60.107
 4853.00    1.18891   1.18340   59.843
 4854.00    1.16213   1.16517   60.114
 4855.00    1.12658   1.13677   60.603
 4856.00    1.10975   1.10957   62.201
 4857.00    1.11179   1.09288   64.000
 4858.00    1.09599   1.07903   64.183
 4859.00    1.03104   1.04509   63.594
 4860.00    0.92193   0.97507   64.921
 4861.00    0.83330   0.89117   -1.000
 4862.00    0.83690   0.84231   77.769
 4863.00    0.92857   0.86068   -1.000
 4864.00    1.01104   0.93079   -1.000
 4865.00    1.07048   1.00630   -1.000
 4866.00    1.10864   1.06088   -1.000
 4867.00    1.13088   1.09588   64.884
 4868.00    1.14140   1.11773   63.367
 4869.00    1.13859   1.12746   62.664
 4870.00    1.12885   1.12159   62.349
 4871.00    1.10429   1.10093   62.750
 4872.00    1.08432   1.07971   64.314
 4873.00    1.10616   1.07809   65.949
 4874.00    1.14159   1.10020   -1.000
 4875.00    1.15560   1.12869   64.099
 4876.00    1.15460   1.14814   62.847
 4877.00    1.15561   1.15869   62.260
 4878.00    1.16451   1.16885   61.900
 4879.00    1.18554   1.18326   61.671
 4880.00    1.19678   1.19690   60.895
 4881.00    1.18675   1.20168   60.196
 4882.00    1.17055   1.19552   60.517
 4883.00    1.16780   1.18529   61.447
 4884.00    1.17121   1.17709   61.940
 4885.00    1.16456   1.16791   61.830
 4886.00    1.15652   1.15624   62.057
 4887.00    1.15350   1.14822   62.908
 4888.00    1.15258   1.14622   63.371
 4889.00    1.14772   1.14289   63.152
 4890.00    1.13106   1.13085   63.012
 4891.00    1.11754   1.11510   63.754
 4892.00    1.13362   1.11456   65.095
 4893.00    1.18013   1.14275   -1.000
 4894.00    1.22546   1.19024   -1.000
 4895.00    1.24592   1.23549   59.926
 4896.00    1.25626   1.26417   57.962
 4897.00    1.25240   1.27427   56.763
 4898.00    1.24357   1.27055   56.341
 4899.00    1.23088   1.25837   56.393
 4900.00    1.21413   1.24303   57.404
 4901.00    1.21008   1.23094   58.757
 4902.00    1.21174   1.22370   59.557
 4903.00    1.21097   1.21730   59.444
 4904.00    1.20325   1.21263   59.445
 4905.00    1.21388   1.21758   60.057
 4906.00    1.23062   1.23331   59.686
 4907.00    1.24467   1.24572   58.513
 4908.00    1.22743   1.24116   57.891
 4909.00    1.19223   1.22078   58.235
 4910.00    1.16988   1.19510   59.478
 4911.00    1.16922   1.17714   61.156
 4912.00    1.18121   1.17561   62.143
 4913.00    1.20658   1.18905   61.640
 4914.00    1.22529   1.20859   60.567
 4915.00    1.23129   1.22592   59.681
 4916.00    1.23657   1.23425   58.897
 4917.00    1.22454   1.22456   58.325
 4918.00    1.17908   1.19054   58.440
 4919.00    1.12901   1.13948   60.122
 4920.00    1.09402   1.09231   63.191
 4921.00    1.10504   1.07168   66.327
 4922.00    1.13870   1.08386   -1.000
 4923.00    1.15840   1.11206   -1.000
 4924.00    1.16617   1.13538   63.614
 4925.00    1.18122   1.14996   62.380
 4926.00    1.20198   1.16659   62.149
 4927.00    1.21687   1.19041   61.518
 4928.00    1.23244   1.21462   60.070
 4929.00    1.23849   1.23358   58.883
 4930.00    1.23866   1.24652   58.228
 4931.00    1.24736   1.25018   57.802
 4932.00    1.23382   1.23991   57.443
 4933.00    1.19313   1.21606   57.813
 4934.00    1.16611   1.18953   59.180
 4935.00    1.17670   1.17609   61.233
 4936.00    1.19399   1.17649   61.847
 4937.00    1.18220   1.17369   60.986
 4938.00    1.15382   1.15678   60.703
 4939.00    1.14403   1.13777   62.099
 4940.00    1.17115   1.13822   63.863
 4941.00    1.20829   1.16412   -1.000
 4942.00    1.23391   1.20180   61.965
 4943.00    1.24111   1.23202   59.934
 4944.00    1.24077   1.24560   58.648
 4945.00    1.23336   1.24519   57.998
 4946.00    1.22855   1.23850   57.916
 4947.00    1.23417   1.23509   58.253
 4948.00    1.24576   1.24019   58.448
 4949.00    1.25219   1.25094   58.063
 4950.00    1.25198   1.25996   57.404
 4951.00    1.25850   1.26275   57.115
 4952.00    1.25423   1.25987   56.894
 4953.00    1.24532   1.25378   57.069
 4954.00    1.23263   1.24585   57.445
 4955.00    1.22840   1.23121   58.051
 4956.00    1.19824   1.20001   58.765
 4957.00    1.14732   1.15293   60.145
 4958.00    1.13239   1.11545   62.913
 4959.00    1.16953   1.11800   -1.000
 4960.00    1.22411   1.15839   -1.000
 4961.00    1.25014   1.20631   -1.000
 4962.00    1.24787   1.23630   59.501
 4963.00    1.24734   1.24392   58.686
 4964.00    1.23740   1.23672   58.804
 4965.00    1.21934   1.22068   59.234
 4966.00    1.20469   1.20137   59.885
 4967.00    1.20082   1.18724   61.029
 4968.00    1.20423   1.18209   61.949
 4969.00    1.20877   1.18258   62.145
 4970.00    1.21049   1.18719   62.003
 4971.00    1.21577   1.19671   61.608
 4972.00    1.22481   1.20991   60.993
 4973.00    1.22967   1.22401   60.338
 4974.00    1.23852   1.23504   59.633
 4975.00    1.23998   1.23960   59.034
 4976.00    1.23652   1.23690   58.719
 4977.00    1.23099   1.22688   58.975
 4978.00    1.21585   1.21136   59.552
 4979.00    1.20427   1.19580   60.321
 4980.00    1.19328   1.18204   61.268
 4981.00    1.17377   1.16461   62.085
 4982.00    1.14202   1.13824   62.934
 4983.00    1.11509   1.10769   64.721
 4984.00    1.11389   1.08920   66.846
 4985.00    1.13408   1.09436   -1.000
 4986.00    1.17304   1.11949   -1.000
 4987.00    1.20412   1.15290   -1.000
 4988.00    1.21869   1.18212   -1.000
 4989.00    1.21443   1.19624   61.003
 4990.00    1.19825   1.19302   60.673
 4991.00    1.19204   1.18262   61.373
 4992.00    1.19722   1.17688   62.082
 4993.00    1.20086   1.17928   62.259
 4994.00    1.20197   1.18506   61.841
 4995.00    1.20893   1.19074   61.503
 4996.00    1.21685   1.19711   61.419
 4997.00    1.21560   1.20166   61.175
 4998.00    1.21204   1.19792   60.865
 4999.00    1.18443   1.18233   61.066
 5000.00    1.17067   1.15887   61.778
 5001.00    1.16280   1.13979   62.926
 5002.00    1.17132   1.13357   -1.000
 5003.00    1.17866   1.13553   -1.000
 5004.00    1.17653   1.13520   -1.000
 5005.00    1.15703   1.12511   63.153
 5006.00    1.12839   1.10857   63.722
 5007.00    1.13571   1.10016   65.182
 5008.00    1.16301   1.11253   -1.000
 5009.00    1.19279   1.13928   -1.000
 5010.00    1.20041   1.15980   -1.000
 5011.00    1.18286   1.15908   61.870
 5012.00    1.15343   1.13759   62.309
 5013.00    1.12398   1.10848   63.922
 5014.00    1.11476   1.08701   66.211
 5015.00    1.13252   1.08224   -1.000
 5016.00    1.14698   1.09148   -1.000
 5017.00    1.14773   1.10280   -1.000
 5018.00    1.14165   1.10757   65.510
 5019.00    1.15131   1.10929   -1.000
 5020.00    1.16983   1.11642   -1.000
 5021.00    1.17539   1.12690   -1.000
 5022.00    1.17397   1.13329   -1.000
 5023.00    1.17729   1.13703   -1.000
 5024.00    1.18914   1.14499   -1.000
 5025.00    1.19608   1.15689   -1.000
 5026.00    1.18903   1.16432   63.193
 5027.00    1.18473   1.16249   62.702
 5028.00    1.18810   1.15773   62.814
 5029.00    1.19620   1.15991   -1.000
 5030.00    1.20912   1.17102   -1.000
 5031.00    1.21890   1.18672   61.742
 5032.00    1.22956   1.20285   60.781
 5033.00    1.23939   1.21540   59.827
 5034.00    1.23248   1.21706   59.061
 5035.00    1.19703   1.20192   58.953
 5036.00    1.16278   1.17595   60.365
 5037.00    1.15911   1.15459   62.665
 5038.00    1.15794   1.14283   64.104
 5039.00    1.14590   1.12788   64.541
 5040.00    1.10699   1.09893   65.177
 5041.00    1.07360   1.06611   67.267
 5042.00    1.09575   1.05551   -1.000
 5043.00    1.14819   1.08124   -1.000
 5044.00    1.19315   1.13053   -1.000
 5045.00    1.22040   1.17962   -1.000
 5046.00    1.23435   1.21215   61.248
 5047.00    1.22518   1.22210   59.648
 5048.00    1.22517   1.20983   57.642
 5049.00    1.15322   1.18274   58.305
 5050.00    0.46001   1.15497   -1.000
 5051.00    0.04195   1.13903   -1.000
 5052.00    0.00687   1.13901   -1.000
 5053.00    0.39174   1.15310   -1.000
 5054.00    0.97579   1.17651   -1.000
 5055.00    1.23334   1.20056   60.988
 5056.00    1.24682   1.21666   59.758
 5057.00    1.24541   1.22367   59.052
 5058.00    1.24682   1.22606   58.765
 5059.00    1.24355   1.22836   58.795
 5060.00    1.24352   1.23304   58.907
 5061.00    1.23828   1.23945   58.921
 5062.00    1.23811   1.24222   58.621
 5063.00    1.23535   1.23316   58.530
 5064.00    1.20787   1.20895   59.114
 5065.00    1.17982   1.17837   60.589
 5066.00    1.17801   1.15796   62.654
 5067.00    1.19671   1.15431   -1.000
 5068.00    1.20351   1.15951   -1.000
 5069.00    1.20315   1.16587   -1.000
 5070.00    1.21412   1.17232   -1.000
 5071.00    1.21493   1.17708   -1.000
 5072.00    1.20436   1.17614   61.458
 5073.00    1.19915   1.17078   61.700
 5074.00    1.20589   1.16786   -1.000
 5075.00    1.21374   1.17027   -1.000
 5076.00    1.21365   1.17435   -1.000
 5077.00    1.21014   1.17427   -1.000
 5078.00    1.18923   1.16327   60.968
 5079.00    1.14831   1.13746   61.380
 5080.00    1.12460   1.10655   63.089
 5081.00    1.13933   1.09120   -1.000
 5082.00    1.15535   1.09836   -1.000
 5083.00    1.16536   1.11556   -1.000
 5084.00    1.18756   1.13298   -1.000
 5085.00    1.20655   1.15052   -1.000
 5086.00    1.21956   1.16762   -1.000
 5087.00    1.21811   1.18026   -1.000
 5088.00    1.21904   1.18668   61.212
 5089.00    1.21790   1.19018   61.035
 5090.00    1.22351   1.19472   60.795
 5091.00    1.22918   1.20113   60.390
 5092.00    1.23588   1.20904   60.025
 5093.00    1.24674   1.21772   59.710
 5094.00    1.25937   1.22370   -1.000
 5095.00    1.24535   1.22097   58.548
 5096.00    1.22044   1.20530   58.778
 5097.00    1.21017   1.17880   59.821
 5098.00    1.18097   1.14950   61.112
 5099.00    1.15540   1.12789   62.549
 5100.00    1.17558   1.12487   -1.000
 5101.00    1.20186   1.14270   -1.000
 5102.00    1.21692   1.16865   -1.000
 5103.00    1.22783   1.18570   -1.000
 5104.00    1.22111   1.18779   60.679
 5105.00    1.20547   1.18041   60.793
 5106.00    1.19641   1.16868   61.477
 5107.00    1.18402   1.15389   62.272
 5108.00    1.17328   1.13932   63.041
 5109.00    1.17720   1.13009   -1.000
 5110.00    1.18347   1.12953   -1.000
 5111.00    1.19700   1.13875   -1.000
 5112.00    1.21698   1.15623   -1.000
 5113.00    1.22706   1.17590   -1.000
 5114.00    1.22936   1.19083   -1.000
 5115.00    1.22755   1.20036   60.876
 5116.00    1.22778   1.20801   60.270
 5117.00    1.23914   1.21601   59.886
 5118.00    1.25619   1.22289   -1.000
 5119.00    1.25591   1.22413   58.808
 5120.00    1.23674   1.21628   58.785
 5121.00    1.22471   1.20023   59.387
 5122.00    1.20759   1.17896   60.257
 5123.00    1.17838   1.15509   61.229
 5124.00    1.15769   1.13334   62.636
 5125.00    1.16036   1.12058   -1.000
 5126.00    1.16819   1.11894   -1.000
 5127.00    1.17587   1.12283   -1.000
 5128.00    1.17643   1.12564   -1.000
 5129.00    1.17664   1.12688   -1.000
 5130.00    1.17665   1.13019   -1.000
 5131.00    1.18491   1.13840   -1.000
 5132.00    1.19646   1.15053   -1.000
 5133.00    1.20218   1.16257   -1.000
 5134.00    1.21068   1.17225   -1.000
 5135.00    1.21927   1.17915   -1.000
 5136.00    1.21661   1.18055   -1.000
 5137.00    1.19831   1.17137   60.541
 5138.00    1.16994   1.15184   61.256
 5139.00    1.14955   1.13237   62.652
 5140.00    1.14895   1.12357   63.821
 5141.00    1.16124   1.12465   -1.000
 5142.00    1.15839   1.12650   63.793
 5143.00    1.15188   1.12544   63.936
 5144.00    1.16341   1.12790   -1.000
 5145.00    1.17960   1.13573   -1.000
 5146.00    1.18042   1.13971   -1.000
 5147.00    1.17251   1.13552   -1.000
 5148.00    1.17869   1.13109   -1.000
 5149.00    1.18930   1.13287   -1.000
 5150.00    1.18416   1.13657   -1.000
 5151.00    1.16759   1.13406   63.149
 5152.00    1.16004   1.12561   63.586
 5153.00    1.16384   1.11926   -1.000
 5154.00    1.17250   1.12043   -1.000
 5155.00    1.18719   1.12994   -1.000
 5156.00    1.20632   1.14737   -1.000
 5157.00    1.22023   1.16887   -1.000
 5158.00    1.22811   1.18731   -1.000
 5159.00    1.23515   1.19806   -1.000
 5160.00    1.23560   1.20100   59.191
 5161.00    1.22784   1.19734   59.060
 5162.00    1.21686   1.18793   59.200
 5163.00    1.20760   1.17359   59.499
 5164.00    1.19037   1.15227   60.070
 5165.00    1.14537   1.11628   60.928
 5166.00    1.06875   1.05812   62.816
 5167.00    0.99618   0.98632   67.117
 5168.00    0.97233   0.93351   -1.000
 5169.00    1.00895   0.92740   -1.000
 5170.00    1.05153   0.95647   -1.000
 5171.00    1.04351   0.97563   -1.000
 5172.00    0.98501   0.95667   74.176
 5173.00    0.96373   0.92846   -1.000
 5174.00    1.02993   0.93958   -1.000
 5175.00    1.12540   1.00007   -1.000
 5176.00    1.18987   1.07568   -1.000
 5177.00    1.21629   1.12943   -1.000
 5178.00    1.22945   1.15440   -1.000
 5179.00    1.23071   1.16112   -1.000
 5180.00    1.20859   1.15388   -1.000
 5181.00    1.16398   1.12483   -1.000
 5182.00    1.07796   1.06550   64.736
 5183.00    0.97723   0.98808   68.651
 5184.00    0.94847   0.93042   75.667
 5185.00    1.01590   0.93217   -1.000
 5186.00    1.11112   0.99385   -1.000
 5187.00    1.17101   1.07050   -1.000
 5188.00    1.18460   1.12196   -1.000
 5189.00    1.18158   1.14350   -1.000
 5190.00    1.18120   1.14662   -1.000
 5191.00    1.16742   1.13539   62.602
 5192.00    1.14353   1.11155   62.977
 5193.00    1.13598   1.08955   -1.000
 5194.00    1.15114   1.08539   -1.000
 5195.00    1.16606   1.09593   -1.000
 5196.00    1.17557   1.10925   -1.000
 5197.00    1.18577   1.12300   -1.000
 5198.00    1.19859   1.13983   -1.000
 5199.00    1.20930   1.15823   -1.000
 5200.00    1.21582   1.17309   -1.000
 5201.00    1.22078   1.17984   -1.000
 5202.00    1.21260   1.17576   -1.000
 5203.00    1.19392   1.15984   60.894
 5204.00    1.16849   1.13302   -1.000
 5205.00    1.14319   1.10030   -1.000
 5206.00    1.13465   1.07158   -1.000
 5207.00    1.13176   1.05467   -1.000
 5208.00    1.13178   1.04902   -1.000
 5209.00    1.13749   1.05098   -1.000
 5210.00    1.15685   1.06409   -1.000
 5211.00    1.18797   1.09340   -1.000
 5212.00    1.21599   1.13224   -1.000
 5213.00    1.23058   1.16567   -1.000
 5214.00    1.22649   1.18062   -1.000
 5215.00    1.20768   1.17367   59.445
 5216.00    1.18847   1.15496   59.496
 5217.00    1.18783   1.14226   -1.000
 5218.00    1.20668   1.14733   -1.000
 5219.00    1.23277   1.16689   -1.000
 5220.00    1.24689   1.18928   -1.000
 5221.00    1.25265   1.20479   -1.000
 5222.00    1.25426   1.20851   -1.000
 5223.00    1.23861   1.19830   -1.000
 5224.00    1.20587   1.17289   58.957
 5225.00    1.15935   1.13290   60.430
 5226.00    1.11617   1.08679   62.731
 5227.00    1.09752   1.05428   -1.000
 5228.00    1.12932   1.05470   -1.000
 5229.00    1.17813   1.08901   -1.000
 5230.00    1.21110   1.13570   -1.000
 5231.00    1.22063   1.16687   -1.000
 5232.00    1.20925   1.17017   -1.000
 5233.00    1.19441   1.15346   -1.000
 5234.00    1.18671   1.13596   -1.000
 5235.00    1.19541   1.13570   -1.000
 5236.00    1.21993   1.15486   -1.000
 5237.00    1.24148   1.18213   -1.000
 5238.00    1.24822   1.20427   -1.000
 5239.00    1.24594   1.21483   58.278
 5240.00    1.24259   1.21663   58.037
 5241.00    1.24001   1.21495   58.154
 5242.00    1.24136   1.21273   58.155
 5243.00    1.24261   1.21201   57.885
 5244.00    1.24768   1.21402   57.820
 5245.00    1.25612   1.21509   -1.000
 5246.00    1.24056   1.20683   57.676
 5247.00    1.21498   1.18688   58.402
 5248.00    1.20731   1.16538   -1.000
 5249.00    1.20937   1.15197   -1.000
 5250.00    1.21027   1.14547   -1.000
 5251.00    1.20656   1.14317   -1.000
 5252.00    1.20557   1.14713   -1.000
 5253.00    1.20849   1.15547   -1.000
 5254.00    1.21152   1.16093   -1.000
 5255.00    1.21594   1.16232   -1.000
 5256.00    1.22853   1.16878   -1.000
 5257.00    1.24984   1.18808   -1.000
 5258.00    1.26563   1.21341   -1.000
 5259.00    1.26310   1.22904   58.039
 5260.00    1.24687   1.22513   57.155
 5261.00    1.20997   1.20070   57.352
 5262.00    1.17256   1.16083   58.585
 5263.00    1.13781   1.11500   60.785
 5264.00    1.11084   1.07322   63.595
 5265.00    1.10277   1.04417   -1.000
 5266.00    1.10523   1.03374   -1.000
 5267.00    1.11820   1.03932   -1.000
 5268.00    1.12242   1.04507   -1.000
 5269.00    1.10126   1.03409   -1.000
 5270.00    1.08348   1.01454   -1.000
 5271.00    1.11453   1.01518   -1.000
 5272.00    1.16669   1.04935   -1.000
 5273.00    1.18583   1.09620   -1.000
 5274.00    1.18073   1.12524   -1.000
 5275.00    1.18131   1.13278   -1.000
 5276.00    1.19477   1.13823   -1.000
 5277.00    1.22022   1.15726   -1.000
 5278.00    1.24633   1.18727   -1.000
 5279.00    1.25703   1.21029   -1.000
 5280.00    1.24354   1.21189   57.349
 5281.00    1.21851   1.19393   57.212
 5282.00    1.20114   1.16873   58.254
 5283.00    1.19203   1.14826   -1.000
 5284.00    1.19709   1.14213   -1.000
 5285.00    1.22185   1.15687   -1.000
 5286.00    1.25147   1.18849   -1.000
 5287.00    1.27281   1.22059   -1.000
 5288.00    1.25389   1.23906   57.347
 5289.00    1.22885   1.24552   56.419
 5290.00    1.25708   1.24864   56.493
 5291.00    1.27474   1.25091   56.614
 5292.00    1.27263   1.24947   56.389
 5293.00    1.26686   1.24380   56.185
 5294.00    1.25897   1.23591   56.358
 5295.00    1.25021   1.22346   56.830
 5296.00    1.22549   1.20024   57.511
 5297.00    1.19152   1.16709   58.784
 5298.00    1.17537   1.13806   60.825
 5299.00    1.18538   1.12965   -1.000
 5300.00    1.20931   1.14285   -1.000
 5301.00    1.21884   1.16221   -1.000
 5302.00    1.21821   1.17703   -1.000
 5303.00    1.23388   1.19146   -1.000
 5304.00    1.25596   1.21149   -1.000
 5305.00    1.26437   1.23258   57.999
 5306.00    1.26420   1.24366   56.728
 5307.00    1.25874   1.24197   56.266
 5308.00    1.25499   1.23667   56.582
 5309.00    1.26452   1.23750   57.116
 5310.00    1.28101   1.24516   -1.000
 5311.00    1.28308   1.25234   56.520
 5312.00    1.27663   1.25308   56.067
 5313.00    1.26990   1.24793   55.976
 5314.00    1.26355   1.23960   56.207
 5315.00    1.25649   1.22885   56.484
 5316.00    1.24215   1.21624   56.830
 5317.00    1.23486   1.20570   57.342
 5318.00    1.24421   1.20344   -1.000
 5319.00    1.25985   1.20956   -1.000
 5320.00    1.26056   1.21639   -1.000
 5321.00    1.24994   1.21745   57.475
 5322.00    1.23450   1.21060   57.521
 5323.00    1.21611   1.19603   57.866
 5324.00    1.20513   1.17814   58.450
 5325.00    1.20471   1.16341   -1.000
 5326.00    1.19689   1.14846   -1.000
 5327.00    1.15837   1.12055   60.283
 5328.00    1.11399   1.08010   61.278
 5329.00    1.11416   1.05282   -1.000
 5330.00    1.16266   1.06639   -1.000
 5331.00    1.21024   1.11411   -1.000
 5332.00    1.22528   1.16089   -1.000
 5333.00    1.23197   1.18670   -1.000
 5334.00    1.24389   1.19905   -1.000
 5335.00    1.25088   1.20935   -1.000
 5336.00    1.25219   1.21787   57.881
 5337.00    1.24232   1.21940   57.466
 5338.00    1.23139   1.21171   57.612
 5339.00    1.21912   1.19485   58.003
 5340.00    1.19756   1.17158   58.538
 5341.00    1.18652   1.15284   59.703
 5342.00    1.20459   1.15268   -1.000
 5343.00    1.22829   1.17089   -1.000
 5344.00    1.24460   1.19080   -1.000
 5345.00    1.24410   1.19912   -1.000
 5346.00    1.23407   1.19612   -1.000
 5347.00    1.22917   1.18818   -1.000
 5348.00    1.22138   1.17965   -1.000
 5349.00    1.21326   1.17301   -1.000
 5350.00    1.21845   1.17359   -1.000
 5351.00    1.23896   1.18561   -1.000
 5352.00    1.25062   1.20388   -1.000
 5353.00    1.25144   1.21988   58.026
 5354.00    1.25651   1.23133   57.049
 5355.00    1.26913   1.24176   56.682
 5356.00    1.27806   1.25308   56.354
 5357.00    1.28396   1.26158   55.730
 5358.00    1.28596   1.26435   55.188
 5359.00    1.28153   1.26235   55.067
 5360.00    1.27570   1.25632   55.152
 5361.00    1.26531   1.24572   55.309
 5362.00    1.24929   1.23182   55.786
 5363.00    1.23737   1.21776   56.628
 5364.00    1.22763   1.20562   57.515
 5365.00    1.22015   1.19603   58.088
 5366.00    1.21990   1.18976   58.438
 5367.00    1.22111   1.18713   58.784
 5368.00    1.21636   1.18411   58.813
 5369.00    1.20373   1.17225   58.722
 5370.00    1.18375   1.14815   59.089
 5371.00    1.16612   1.12214   -1.000
 5372.00    1.17468   1.11402   -1.000
 5373.00    1.21107   1.13526   -1.000
 5374.00    1.24691   1.17554   -1.000
 5375.00    1.26908   1.21291   -1.000
 5376.00    1.27863   1.23339   -1.000
 5377.00    1.27446   1.23771   56.049
 5378.00    1.27087   1.23506   56.014
 5379.00    1.26531   1.23171   56.112
 5380.00    1.25029   1.22749   56.181
 5381.00    1.23728   1.22006   56.424
 5382.00    1.22915   1.21018   56.899
 5383.00    1.22566   1.20238   57.469
 5384.00    1.23200   1.20112   57.864
 5385.00    1.24663   1.20715   -1.000
 5386.00    1.25923   1.21635   -1.000
 5387.00    1.25932   1.22208   57.262
 5388.00    1.25273   1.22012   56.935
 5389.00    1.24597   1.21043   57.063
 5390.00    1.23608   1.19623   57.510
 5391.00    1.23388   1.18282   -1.000
 5392.00    1.23576   1.17359   -1.000
 5393.00    1.22561   1.16824   -1.000
 5394.00    1.21579   1.16517   -1.000
 5395.00    1.21377   1.16052   -1.000
 5396.00    1.20289   1.14911   -1.000
 5397.00    1.18646   1.13326   -1.000
 5398.00    1.18783   1.12607   -1.000
 5399.00    1.20764   1.13677   -1.000
 5400.00    1.22581   1.15881   -1.000
 5401.00    1.22996   1.17867   -1.000
 5402.00    1.22614   1.18752   58.410
 5403.00    1.20984   1.18067   58.383
 5404.00    1.18020   1.15642   58.716
 5405.00    1.16146   1.12275   59.971
 5406.00    1.16508   1.09880   -1.000
 5407.00    1.18627   1.09936   -1.000
 5408.00    1.20736   1.11732   -1.000
 5409.00    1.20594   1.13281   -1.000
 5410.00    1.19381   1.13762   -1.000
 5411.00    1.20062   1.14239   -1.000
 5412.00    1.22323   1.15918   -1.000
 5413.00    1.23823   1.18199   -1.000
 5414.00    1.23645   1.19674   -1.000
 5415.00    1.22879   1.20127   57.887
 5416.00    1.23657   1.20487   57.687
 5417.00    1.25054   1.21337   -1.000
 5418.00    1.24917   1.22115   57.493
 5419.00    1.24261   1.22074   57.082
 5420.00    1.23809   1.21380   57.074
 5421.00    1.23656   1.20698   57.529
 5422.00    1.23593   1.20303   57.980
 5423.00    1.22646   1.19847   57.975
 5424.00    1.21471   1.19077   57.720
 5425.00    1.22021   1.18727   58.097
 5426.00    1.24038   1.19642   -1.000
 5427.00    1.24766   1.21094   -1.000
 5428.00    1.22965   1.21163   57.742
 5429.00    1.20213   1.19018   57.427
 5430.00    1.19042   1.16272   58.472
 5431.00    1.20234   1.15132   -1.000
 5432.00    1.21770   1.15665   -1.000
 5433.00    1.21482   1.16123   -1.000
 5434.00    1.19645   1.15392   -1.000
 5435.00    1.19059   1.14248   -1.000
 5436.00    1.20353   1.14272   -1.000
 5437.00    1.22575   1.16099   -1.000
 5438.00    1.25154   1.19090   -1.000
 5439.00    1.27265   1.22020   -1.000
 5440.00    1.28301   1.24016   -1.000
 5441.00    1.27520   1.24982   56.743
 5442.00    1.26260   1.25236   56.152
 5443.00    1.25548   1.24932   55.912
 5444.00    1.23874   1.23671   55.886
 5445.00    1.21113   1.20988   56.226
 5446.00    1.18872   1.17321   57.366
 5447.00    1.18614   1.14358   -1.000
 5448.00    1.20981   1.13874   -1.000
 5449.00    1.23986   1.16023   -1.000
 5450.00    1.25577   1.19197   -1.000
 5451.00    1.26308   1.21484   -1.000
 5452.00    1.26355   1.22075   -1.000
 5453.00    1.24690   1.21131   57.693
 5454.00    1.21760   1.18905   58.000
 5455.00    1.19534   1.16015   59.004
 5456.00    1.19571   1.14052   -1.000
 5457.00    1.22101   1.14622   -1.000
 5458.00    1.25215   1.17544   -1.000
 5459.00    1.26513   1.20707   -1.000
 5460.00    1.26036   1.22124   -1.000
 5461.00    1.24611   1.21495   57.695
 5462.00    1.22445   1.19659   57.994
 5463.00    1.21043   1.17823   58.952
 5464.00    1.21394   1.17081   -1.000
 5465.00    1.22780   1.17735   -1.000
 5466.00    1.23807   1.19052   -1.000
 5467.00    1.24336   1.20143   -1.000
 5468.00    1.24771   1.20780   -1.000
 5469.00    1.25012   1.21031   -1.000
 5470.00    1.25312   1.20855   -1.000
 5471.00    1.24950   1.20297   -1.000
 5472.00    1.24107   1.19577   -1.000
 5473.00    1.23299   1.18821   -1.000
 5474.00    1.22062   1.17873   -1.000
 5475.00    1.19817   1.16421   59.933
 5476.00    1.17301   1.14423   60.696
 5477.00    1.16920   1.12703   -1.000
 5478.00    1.19142   1.12719   -1.000
 5479.00    1.21994   1.14702   -1.000
 5480.00    1.22860   1.16769   -1.000
 5481.00    1.22109   1.17240   -1.000
 5482.00    1.21756   1.16596   -1.000
 5483.00    1.22638   1.16536   -1.000
 5484.00    1.23936   1.17900   -1.000
 5485.00    1.24322   1.19846   -1.000
 5486.00    1.24150   1.20922   58.956
 5487.00    1.23785   1.20518   58.132
 5488.00    1.22888   1.19308   58.255
 5489.00    1.22133   1.18490   59.024
 5490.00    1.22774   1.18609   -1.000
 5491.00    1.23440   1.19326   -1.000
 5492.00    1.23870   1.19993   -1.000
 5493.00    1.24019   1.20229   -1.000
 5494.00    1.23256   1.20114   58.733
 5495.00    1.23248   1.19954   58.719
 5496.00    1.23685   1.19747   -1.000
 5497.00    1.23258   1.19299   -1.000
 5498.00    1.22909   1.18967   -1.000
 5499.00    1.23483   1.19293   -1.000
 5500.00    1.23642   1.19806   -1.000
 5501.00    1.22391   1.19477   58.935
 5502.00    1.21135   1.18302   58.879
 5503.00    1.21894   1.17348   -1.000
 5504.00    1.23694   1.17253   -1.000
 5505.00    1.23769   1.17361   -1.000
 5506.00    1.22074   1.16874   -1.000
 5507.00    1.21122   1.16177   -1.000
 5508.00    1.22091   1.16235   -1.000
 5509.00    1.23235   1.17224   -1.000
 5510.00    1.22750   1.18143   -1.000
 5511.00    1.21454   1.17940   59.250
 5512.00    1.21130   1.16641   -1.000
 5513.00    1.20546   1.15126   -1.000
 5514.00    1.20210   1.14415   -1.000
 5515.00    1.21711   1.14906   -1.000
 5516.00    1.23958   1.16204   -1.000
 5517.00    1.25011   1.17774   -1.000
 5518.00    1.25226   1.19339   -1.000
 5519.00    1.26228   1.20713   -1.000
 5520.00    1.26141   1.21598   -1.000
 5521.00    1.25298   1.21805   57.352
 5522.00    1.25102   1.21585   57.376
 5523.00    1.25157   1.21374   -1.000
 5524.00    1.24444   1.21208   57.648
 5525.00    1.23192   1.20672   57.798
 5526.00    1.21753   1.19291   58.026
 5527.00    1.19253   1.17082   58.625
 5528.00    1.17143   1.14895   59.745
 5529.00    1.17903   1.14047   -1.000
 5530.00    1.20899   1.15165   -1.000
 5531.00    1.23167   1.17398   -1.000
 5532.00    1.23737   1.19173   -1.000
 5533.00    1.23269   1.19642   58.800
 5534.00    1.22465   1.19116   58.553
 5535.00    1.22155   1.18389   58.947
 5536.00    1.22649   1.18054   -1.000
 5537.00    1.23427   1.18283   -1.000
 5538.00    1.24212   1.18862   -1.000
 5539.00    1.24814   1.19582   -1.000
 5540.00    1.25097   1.20444   -1.000
 5541.00    1.25157   1.21260   -1.000
 5542.00    1.24768   1.21508   57.546
 5543.00    1.23741   1.20977   57.354
 5544.00    1.23166   1.20127   57.707
 5545.00    1.23124   1.19607   58.328
 5546.00    1.23229   1.19630   58.682
 5547.00    1.24070   1.20057   -1.000
 5548.00    1.25078   1.20848   -1.000
 5549.00    1.25788   1.21925   -1.000
 5550.00    1.26091   1.22849   57.732
 5551.00    1.25822   1.23203   57.196
 5552.00    1.25659   1.22926   56.906
 5553.00    1.25274   1.22156   57.023
 5554.00    1.23989   1.21215   57.453
 5555.00    1.23275   1.20598   58.048
 5556.00    1.23636   1.20551   58.520
 5557.00    1.23954   1.20810   58.585
 5558.00    1.24384   1.21000   58.428
 5559.00    1.24734   1.21064   58.284
 5560.00    1.24895   1.21131   -1.000
 5561.00    1.24201   1.21063   58.137
 5562.00    1.23015   1.20580   58.173
 5563.00    1.22317   1.19777   58.400
 5564.00    1.21759   1.19046   58.864
 5565.00    1.21616   1.18629   59.383
 5566.00    1.21584   1.18433   59.657
 5567.00    1.21879   1.18263   59.789
 5568.00    1.21783   1.18111   59.878
 5569.00    1.21170   1.18046   59.838
 5570.00    1.21297   1.18106   59.702
 5571.00    1.21450   1.18187   59.733
 5572.00    1.20655   1.18069   59.811
 5573.00    1.20058   1.17812   59.779
 5574.00    1.20809   1.17850   59.878
 5575.00    1.21409   1.18449   59.839
 5576.00    1.19826   1.19283   59.356
 5577.00    1.11548   1.19877   -1.000
 5578.00    0.89769   1.20241   -1.000
 5579.00    0.61224   1.20611   -1.000
 5580.00    0.50026   1.20932   -1.000
 5581.00    0.70318   1.20996   -1.000
 5582.00    1.03523   1.20752   -1.000
 5583.00    1.20570   1.20348   60.055
 5584.00    1.22511   1.19879   59.307
 5585.00    1.21642   1.18985   58.930
 5586.00    1.19546   1.17135   59.072
 5587.00    1.16489   1.14520   59.935
 5588.00    1.14918   1.12160   61.427
 5589.00    1.15588   1.11131   -1.000
 5590.00    1.17435   1.11752   -1.000
 5591.00    1.19472   1.13419   -1.000
 5592.00    1.20349   1.15066   -1.000
 5593.00    1.19982   1.15921   -1.000
 5594.00    1.19823   1.16178   61.075
 5595.00    1.20391   1.16676   -1.000
 5596.00    1.21588   1.17814   -1.000
 5597.00    1.22148   1.18791   -1.000
 5598.00    1.20976   1.18579   59.723
 5599.00    1.19637   1.17357   59.788
 5600.00    1.19133   1.15992   60.661
 5601.00    1.18872   1.14834   -1.000
 5602.00    1.18350   1.13967   -1.000
 5603.00    1.18687   1.13934   -1.000
 5604.00    1.20898   1.15374   -1.000
 5605.00    1.23209   1.18102   -1.000
 5606.00    1.24664   1.20948   -1.000
 5607.00    1.24817   1.22802   58.912
 5608.00    1.25057   1.23520   57.910
 5609.00    1.25489   1.23582   57.541
 5610.00    1.25417   1.23532   57.554
 5611.00    1.25653   1.23663   57.667
 5612.00    1.25467   1.23759   57.698
 5613.00    1.24229   1.23041   57.567
 5614.00    1.21291   1.20802   57.606
 5615.00    1.17736   1.17427   58.365
 5616.00    1.17010   1.14749   60.043
 5617.00    1.19619   1.14453   -1.000
 5618.00    1.22303   1.16175   -1.000
 5619.00    1.23205   1.18176   -1.000
 5620.00    1.23191   1.19387   -1.000
 5621.00    1.23668   1.20065   59.488
 5622.00    1.23698   1.20467   59.323
 5623.00    1.22415   1.20104   59.027
 5624.00    1.21059   1.18712   59.004
 5625.00    1.20554   1.17112   59.746
 5626.00    1.21656   1.16580   -1.000
 5627.00    1.23122   1.17547   -1.000
 5628.00    1.24184   1.19205   -1.000
 5629.00    1.25046   1.20668   -1.000
 5630.00    1.25329   1.21738   58.887
 5631.00    1.25433   1.22412   58.337
 5632.00    1.25188   1.22599   58.053
 5633.00    1.24354   1.22293   57.870
 5634.00    1.23620   1.21630   57.775
 5635.00    1.23375   1.20768   58.050
 5636.00    1.22817   1.19827   58.512
 5637.00    1.22181   1.18954   58.902
 5638.00    1.22457   1.18422   -1.000
 5639.00    1.22515   1.18367   -1.000
 5640.00    1.22024   1.18483   59.933
 5641.00    1.21922   1.18367   59.878
 5642.00    1.22159   1.18093   -1.000
 5643.00    1.22431   1.18097   -1.000
 5644.00    1.22698   1.18545   -1.000
 5645.00    1.23175   1.19142   -1.000
 5646.00    1.23254   1.19630   59.501
 5647.00    1.23373   1.19958   59.261
 5648.00    1.23927   1.20048   -1.000
 5649.00    1.23894   1.19831   -1.000
 5650.00    1.23778   1.19527   -1.000
 5651.00    1.23923   1.19549   -1.000
 5652.00    1.23833   1.19964   -1.000
 5653.00    1.22980   1.20305   58.558
 5654.00    1.21791   1.20102   58.210
 5655.00    1.21508   1.19398   58.264
 5656.00    1.21002   1.18383   58.631
 5657.00    1.19364   1.16888   59.163
 5658.00    1.17644   1.14934   60.009
 5659.00    1.17200   1.13417   61.542
 5660.00    1.18391   1.13386   -1.000
 5661.00    1.20182   1.14629   -1.000
 5662.00    1.20175   1.15823   -1.000
 5663.00    1.19821   1.16447   60.978
 5664.00    1.21003   1.17244   60.984
 5665.00    1.22164   1.18441   -1.000
 5666.00    1.22319   1.19235   59.899
 5667.00    1.21778   1.19079   59.332
 5668.00    1.21876   1.18367   59.404
 5669.00    1.22030   1.17896   -1.000
 5670.00    1.22120   1.18059   -1.000
 5671.00    1.22860   1.18719   -1.000
 5672.00    1.23426   1.19681   -1.000
 5673.00    1.23748   1.20741   59.195
 5674.00    1.23744   1.21545   58.634
 5675.00    1.23937   1.21872   58.051
 5676.00    1.23949   1.21893   57.767
 5677.00    1.23766   1.21870   57.908
 5678.00    1.23818   1.21791   57.931
 5679.00    1.23882   1.21437   57.763
 5680.00    1.23545   1.20770   57.864
 5681.00    1.22713   1.19911   58.159
 5682.00    1.21324   1.18857   58.439
 5683.00    1.20060   1.17724   58.954
 5684.00    1.19939   1.17036   59.675
 5685.00    1.20136   1.17093   60.113
 5686.00    1.19922   1.17421   59.975
 5687.00    1.19679   1.17420   59.633
 5688.00    1.19744   1.17137   59.634
 5689.00    1.20381   1.17129   60.156
 5690.00    1.21695   1.17780   -1.000
 5691.00    1.22905   1.18906   -1.000
 5692.00    1.23575   1.20009   -1.000
 5693.00    1.23763   1.20736   58.579
 5694.00    1.22935   1.20997   58.153
 5695.00    1.23018   1.20934   57.915
 5696.00    1.23498   1.20738   57.912
 5697.00    1.23182   1.20408   57.982
 5698.00    1.22856   1.19817   58.080
 5699.00    1.21990   1.18961   58.445
 5700.00    1.20319   1.18051   59.103
 5701.00    1.19181   1.17262   59.717
 5702.00    1.18858   1.16745   60.284
 5703.00    1.20011   1.16808   60.772
 5704.00    1.21046   1.17387   60.679
 5705.00    1.20337   1.17778   60.088
 5706.00    1.19039   1.17364   59.673
 5707.00    1.18102   1.16174   59.819
 5708.00    1.16697   1.14677   60.466
 5709.00    1.14845   1.13351   61.482
 5710.00    1.14252   1.12509   62.564
 5711.00    1.15141   1.12422   63.240
 5712.00    1.17206   1.13223   -1.000
 5713.00    1.19078   1.14871   -1.000
 5714.00    1.20934   1.17021   -1.000
 5715.00    1.22261   1.18883   60.477
 5716.00    1.22503   1.19952   59.228
 5717.00    1.22330   1.20489   58.686
 5718.00    1.22697   1.20864   58.563
 5719.00    1.23009   1.21252   58.410
 5720.00    1.23592   1.21747   58.175
 5721.00    1.24383   1.22309   57.839
 5722.00    1.24570   1.22819   57.506
 5723.00    1.24259   1.23202   57.306
 5724.00    1.24052   1.23388   57.200
 5725.00    1.23905   1.23188   57.124
 5726.00    1.23522   1.22461   57.149
 5727.00    1.22753   1.21475   57.460
 5728.00    1.22229   1.20856   58.029
 5729.00    1.22883   1.20906   58.582
 5730.00    1.22993   1.21203   58.680
 5731.00    1.22003   1.21190   58.285
 5732.00    1.22103   1.20974   58.169
 5733.00    1.23092   1.21124   58.433
 5734.00    1.23526   1.21849   58.505
 5735.00    1.23484   1.22656   58.082
 5736.00    1.23488   1.22912   57.581
 5737.00    1.23530   1.22618   57.423
 5738.00    1.23286   1.22202   57.514
 5739.00    1.22845   1.21970   57.627
 5740.00    1.22576   1.21928   57.752
 5741.00    1.22535   1.21882   57.819
 5742.00    1.22586   1.21732   57.937
 5743.00    1.22231   1.21632   58.039
 5744.00    1.22385   1.21835   58.055
 5745.00    1.23504   1.22309   57.930
 5746.00    1.23460   1.22584   57.719
 5747.00    1.22179   1.22234   57.311
 5748.00    1.21850   1.21524   57.291
 5749.00    1.22376   1.21220   57.771
 5750.00    1.22625   1.21589   58.207
 5751.00    1.21599   1.21876   58.145
 5752.00    1.20158   1.21194   57.832
 5753.00    1.19031   1.19582   57.952
 5754.00    1.19416   1.18168   58.571
 5755.00    1.20475   1.18126   59.245
 5756.00    1.21650   1.19528   59.560
 5757.00    1.23019   1.21431   59.167
 5758.00    1.23663   1.22729   58.202
 5759.00    1.23070   1.22903   57.272
 5760.00    1.21666   1.22040   57.002
 5761.00    1.20137   1.20620   57.447
 5762.00    1.20022   1.19279   58.173
 5763.00    1.20552   1.18675   58.956
 5764.00    1.21102   1.19314   59.543
 5765.00    1.22341   1.20998   59.386
 5766.00    1.23659   1.22721   58.488
 5767.00    1.24002   1.23641   57.560
 5768.00    1.24043   1.23836   57.114
 5769.00    1.23824   1.23669   57.028
 5770.00    1.22868   1.23323   56.958
 5771.00    1.22204   1.22888   56.948
 5772.00    1.21980   1.22435   57.115
 5773.00    1.21910   1.21978   57.364
 5774.00    1.21626   1.21560   57.710
 5775.00    1.20802   1.21305   57.979
 5776.00    1.20675   1.21336   58.073
 5777.00    1.21142   1.21586   58.058
 5778.00    1.21149   1.21615   57.848
 5779.00    1.20341   1.20907   57.645
 5780.00    1.18586   1.19345   57.712
 5781.00    1.16755   1.17381   58.190
 5782.00    1.16125   1.15812   59.291
 5783.00    1.16097   1.15151   60.431
 5784.00    1.16535   1.15209   60.786
 5785.00    1.17768   1.15466   60.557
 5786.00    1.18910   1.15962   60.327
 5787.00    1.20227   1.17097   60.111
 5788.00    1.21125   1.18606   59.699
 5789.00    1.21008   1.19691   58.942
 5790.00    1.20892   1.20009   58.291
 5791.00    1.20566   1.19814   58.085
 5792.00    1.20734   1.19742   58.271
 5793.00    1.22207   1.20280   58.401
 5794.00    1.22226   1.21297   58.117
 5795.00    1.21689   1.22214   57.643
 5796.00    1.21933   1.22518   57.278
 5797.00    1.20993   1.22085   57.061
 5798.00    1.20880   1.21434   57.204
 5799.00    1.21463   1.21409   57.586
 5800.00    1.22386   1.22249   57.688
 5801.00    1.23485   1.23369   57.169
 5802.00    1.23580   1.24009   56.385
 5803.00    1.22759   1.23790   55.873
 5804.00    1.22043   1.22868   56.039
 5805.00    1.21623   1.21821   56.540
 5806.00    1.21293   1.21268   56.980
 5807.00    1.21542   1.21359   57.364
 5808.00    1.21735   1.21820   57.443
 5809.00    1.21760   1.22338   57.247
 5810.00    1.22823   1.22784   57.047
 5811.00    1.22471   1.23158   56.949
 5812.00    1.22556   1.23372   56.938
 5813.00    1.22886   1.23271   56.812
 5814.00    1.22759   1.22764   56.604
 5815.00    1.21895   1.21928   56.556
 5816.00    1.21431   1.21151   56.835
 5817.00    1.21766   1.21006   57.252
 5818.00    1.22800   1.21766   57.270
 5819.00    1.23905   1.22955   56.893
 5820.00    1.24219   1.23857   56.531
 5821.00    1.23874   1.24185   56.241
 5822.00    1.24107   1.24071   56.001
 5823.00    1.23896   1.23801   55.933
 5824.00    1.23313   1.23593   56.089
 5825.00    1.23540   1.23536   56.174
 5826.00    1.24104   1.23596   56.055
 5827.00    1.24403   1.23705   55.969
 5828.00    1.24284   1.23844   55.881
 5829.00    1.23962   1.24032   55.860
 5830.00    1.23619   1.24201   55.920
 5831.00    1.23421   1.24224   55.951
 5832.00    1.23320   1.24076   55.869
 5833.00    1.22960   1.23806   55.862
 5834.00    1.23148   1.23423   55.849
 5835.00    1.23879   1.23044   56.084
 5836.00    1.24309   1.22905   56.369
 5837.00    1.23875   1.23021   56.322
 5838.00    1.23187   1.23153   56.145
 5839.00    1.23295   1.23281   56.159
 5840.00    1.23730   1.23608   56.344
 5841.00    1.24256   1.24107   56.344
 5842.00    1.24153   1.24490   56.045
 5843.00    1.23882   1.24547   55.662
 5844.00    1.23778   1.24241   55.503
 5845.00    1.23009   1.23648   55.607
 5846.00    1.21919   1.22864   55.817
 5847.00    1.21349   1.22082   56.096
 5848.00    1.22025   1.21574   56.449
 5849.00    1.22623   1.21495   56.718
 5850.00    1.23108   1.21609   56.867
 5851.00    1.22428   1.21417   56.833
 5852.00    1.21104   1.20634   57.033
 5853.00    1.20333   1.19569   57.390
 5854.00    1.20129   1.18824   57.830
 5855.00    1.20077   1.18534   58.308
 5856.00    1.19407   1.18141   58.489
 5857.00    1.18474   1.17151   58.563
 5858.00    1.18134   1.16064   58.831
 5859.00    1.19228   1.15901   59.464
 5860.00    1.20669   1.16882   -1.000
 5861.00    1.20977   1.18269   59.008
 5862.00    1.21911   1.19281   58.345
 5863.00    1.21740   1.19818   58.000
 5864.00    1.21259   1.20133   57.809
 5865.00    1.21396   1.20265   57.617
 5866.00    1.20938   1.20039   57.645
 5867.00    1.20626   1.19637   57.839
 5868.00    1.20968   1.19622   58.074
 5869.00    1.21488   1.20268   58.237
 5870.00    1.22303   1.21158   57.957
 5871.00    1.22551   1.21743   57.390
 5872.00    1.22286   1.21853   57.007
 5873.00    1.22588   1.21660   56.867
 5874.00    1.22907   1.21464   56.937
 5875.00    1.22943   1.21366   57.049
 5876.00    1.22405   1.21271   57.006
 5877.00    1.22167   1.21001   57.008
 5878.00    1.22095   1.20441   57.230
 5879.00    1.21957   1.19647   57.420
 5880.00    1.21824   1.18856   57.625
 5881.00    1.21551   1.18331   58.085
 5882.00    1.21014   1.18142   58.309
 5883.00    1.20451   1.18054   58.218
 5884.00    1.20199   1.17828   58.102
 5885.00    1.20179   1.17553   58.216
 5886.00    1.19534   1.17147   58.414
 5887.00    1.17626   1.15616   58.501
 5888.00    1.12672   1.11654   58.907
 5889.00    1.04511   1.05465   60.173
 5890.00    0.95482   0.99676   63.106
 5891.00    0.88491   0.97564   -1.000
 5892.00    0.86831   0.99735   -1.000
 5893.00    0.91718   1.03481   -1.000
 5894.00    0.98919   1.05394   -1.000
 5895.00    1.02528   1.04317   65.598
 5896.00    1.01324   1.02067   65.210
 5897.00    0.98394   1.01671   66.546
 5898.00    0.99051   1.04409   67.768
 5899.00    1.03984   1.08517   66.681
 5900.00    1.11086   1.11935   64.454
 5901.00    1.17042   1.14296   62.281
 5902.00    1.19151   1.15908   -1.000
 5903.00    1.19458   1.16909   59.482
 5904.00    1.19970   1.17422   58.706
 5905.00    1.20117   1.17628   58.555
 5906.00    1.19977   1.17736   58.525
 5907.00    1.20875   1.17959   58.554
 5908.00    1.21319   1.18359   58.613
 5909.00    1.20848   1.18781   58.540
 5910.00    1.20634   1.19063   58.412
 5911.00    1.20149   1.19166   58.394
 5912.00    1.19655   1.18962   58.590
 5913.00    1.19364   1.18241   58.649
 5914.00    1.18118   1.17070   58.768
 5915.00    1.17597   1.15984   59.232
 5916.00    1.18336   1.15578   60.010
 5917.00    1.19147   1.15963   60.203
 5918.00    1.19583   1.16792   59.951
 5919.00    1.19995   1.17671   59.629
 5920.00    1.19708   1.18269   59.420
 5921.00    1.19645   1.18485   59.202
 5922.00    1.19934   1.18447   59.046
 5923.00    1.20158   1.18401   58.900
 5924.00    1.20153   1.18544   58.962
 5925.00    1.20348   1.18867   58.912
 5926.00    1.19541   1.19220   58.662
 5927.00    1.18693   1.19380   58.516
 5928.00    1.18355   1.19122   58.438
 5929.00    1.17961   1.18430   58.455
 5930.00    1.17727   1.17728   58.693
 5931.00    1.18702   1.17618   59.165
 5932.00    1.19813   1.18131   59.444
 5933.00    1.19512   1.18558   59.145
 5934.00    1.18952   1.18387   58.622
 5935.00    1.19109   1.17968   58.639
 5936.00    1.18460   1.17960   59.135
 5937.00    1.18515   1.18533   59.420
 5938.00    1.19798   1.19232   59.314
 5939.00    1.20265   1.19519   58.847
 5940.00    1.20354   1.19204   58.438
 5941.00    1.19636   1.18443   58.401
 5942.00    1.19207   1.17687   58.793
 5943.00    1.19106   1.17427   59.342
 5944.00    1.19160   1.17807   59.502
 5945.00    1.19034   1.18478   59.320
 5946.00    1.19029   1.18921   58.942
 5947.00    1.18297   1.18777   58.641
 5948.00    1.17043   1.18080   58.559
 5949.00    1.16787   1.17381   58.892
 5950.00    1.17369   1.17245   59.489
 5951.00    1.18063   1.17543   59.954
 5952.00    1.17732   1.17664   59.878
 5953.00    1.17711   1.17497   59.562
 5954.00    1.18211   1.17456   59.485
 5955.00    1.17867   1.17642   59.610
 5956.00    1.17638   1.17667   59.508
 5957.00    1.18317   1.17413   59.438
 5958.00    1.19000   1.17288   59.544
 5959.00    1.19598   1.17694   59.761
 5960.00    1.19845   1.18528   59.715
 5961.00    1.19600   1.19374   59.295
 5962.00    1.19737   1.19945   58.603
 5963.00    1.20347   1.20123   58.173
 5964.00    1.19901   1.19937   58.034
 5965.00    1.18883   1.19507   58.050
 5966.00    1.18887   1.19065   58.269
 5967.00    1.19211   1.18916   58.568
 5968.00    1.20024   1.19156   58.752
 5969.00    1.20255   1.19553   58.854
 5970.00    1.19895   1.19912   58.569
 5971.00    1.20079   1.20234   58.195
 5972.00    1.19860   1.20453   58.136
 5973.00    1.19369   1.20424   58.091
 5974.00    1.19035   1.20038   57.969
 5975.00    1.18133   1.19242   58.042
 5976.00    1.17678   1.18169   58.450
 5977.00    1.17099   1.17271   58.919
 5978.00    1.17358   1.16991   59.355
 5979.00    1.17946   1.17409   59.724
 5980.00    1.18655   1.18226   59.797
 5981.00    1.18584   1.18877   59.388
 5982.00    1.17842   1.18836   58.955
 5983.00    1.16773   1.17986   58.886
 5984.00    1.16520   1.16807   59.176
 5985.00    1.16814   1.16089   59.707
 5986.00    1.17231   1.16278   60.156
 5987.00    1.17552   1.17098   60.259
 5988.00    1.17985   1.17944   59.852
 5989.00    1.18971   1.18517   59.272
 5990.00    1.18846   1.18760   59.006
 5991.00    1.18202   1.18714   58.791
 5992.00    1.18238   1.18670   58.613
 5993.00    1.19043   1.19020   58.766
 5994.00    1.18810   1.19657   58.762
 5995.00    1.17994   1.19982   58.357
 5996.00    1.17993   1.19647   57.957
 5997.00    1.17592   1.18877   58.015
 5998.00    1.17476   1.18211   58.480
 5999.00    1.17429   1.18049   58.829
 6000.00    1.17757   1.18318   59.028
 6001.00    1.17644   1.18577   59.066
 6002.00    1.17022   1.18475   58.986
 6003.00    1.17119   1.18110   59.160
 6004.00    1.16980   1.17852   59.496
 6005.00    1.17011   1.17830   59.599
 6006.00    1.16912   1.17602   59.512
 6007.00    1.16179   1.16833   59.399
 6008.00    1.15739   1.15973   59.588
 6009.00    1.16035   1.15868   60.115
 6010.00    1.17223   1.16758   60.545
 6011.00    1.17789   1.17828   60.246
 6012.00    1.17405   1.18117   59.507
 6013.00    1.16684   1.17679   59.110
 6014.00    1.15946   1.17222   59.342
 6015.00    1.16199   1.17112   59.795
 6016.00    1.16404   1.17162   59.895
 6017.00    1.16211   1.17096   59.617
 6018.00    1.16692   1.16958   59.739
 6019.00    1.16574   1.16746   59.981
 6020.00    1.15642   1.16346   59.994
 6021.00    1.14685   1.15955   59.912
 6022.00    1.14758   1.15936   60.203
 6023.00    1.15846   1.16296   60.416
 6024.00    1.15663   1.16823   60.053
 6025.00    1.15794   1.17447   59.721
 6026.00    1.16635   1.18117   59.643
 6027.00    1.17319   1.18680   59.481
 6028.00    1.16754   1.19114   59.144
 6029.00    1.16846   1.19545   58.936
 6030.00    1.17283   1.19916   58.568
 6031.00    1.17643   1.20132   58.386
 6032.00    1.18544   1.20312   58.351
 6033.00    1.18722   1.20544   58.412
 6034.00    1.18286   1.20761   58.490
 6035.00    1.18084   1.20908   58.305
 6036.00    1.18228   1.21004   58.065
 6037.00    1.18093   1.20982   57.970
 6038.00    1.18205   1.20774   57.932
 6039.00    1.17894   1.20406   57.862
 6040.00    1.17208   1.19980   58.028
 6041.00    1.16899   1.19645   58.326
 6042.00    1.16821   1.19440   58.433
 6043.00    1.16861   1.19373   58.541
 6044.00    1.17289   1.19667   58.388
 6045.00    1.17227   1.20350   58.257
 6046.00    1.17792   1.20978   57.879
 6047.00    1.18036   1.21300   57.547
 6048.00    1.17906   1.21444   57.637
 6049.00    1.17649   1.21529   57.606
 6050.00    1.17774   1.21551   57.544
 6051.00    1.17536   1.21474   57.664
 6052.00    1.17440   1.21232   57.860
 6053.00    1.16718   1.20804   57.955
 6054.00    1.16029   1.20252   58.017
 6055.00    1.15746   1.19672   58.173
 6056.00    1.16014   1.19193   58.409
 6057.00    1.16357   1.19004   58.619
 6058.00    1.16829   1.19215   58.924
 6059.00    1.17005   1.19681   59.001
 6060.00    1.17045   1.20117   58.810
 6061.00    1.16632   1.20271   58.479
 6062.00    1.16625   1.19938   58.289
 6063.00    1.16381   1.19064   58.419
 6064.00    1.15795   1.17864   58.749
 6065.00    1.08153   1.16884   -1.000
 6066.00    0.87153   1.16795   -1.000
 6067.00    1.06476   1.17844   -1.000
 6068.00    1.01125   1.19455   -1.000
 6069.00    0.33858   1.20763   -1.000
 6070.00    0.30151   1.21443   -1.000
 6071.00    0.90641   1.21702   -1.000
 6072.00    1.15328   1.21725   58.062
 6073.00    1.06036   1.21542   -1.000
 6074.00    0.97638   1.21342   -1.000
 6075.00    0.46922   1.21323   -1.000
 6076.00    0.79440   1.21098   -1.000
 6077.00    1.20721   1.20417   57.916
 6078.00    1.13925   1.19538   58.159
 6079.00    1.14446   1.18843   58.480
 6080.00    1.14858   1.18491   58.850
 6081.00    1.14969   1.18256   59.296
 6082.00    1.14582   1.17938   59.555
 6083.00    1.14198   1.17707   59.557
 6084.00    1.14026   1.17720   59.651
 6085.00    1.14069   1.17873   59.789
 6086.00    1.14855   1.18059   59.751
 6087.00    1.15327   1.18314   59.701
 6088.00    1.15317   1.18557   59.606
 6089.00    1.14911   1.18519   59.402
 6090.00    1.13808   1.18102   59.251
 6091.00    1.13840   1.17588   59.474
 6092.00    1.14364   1.17367   59.830
 6093.00    1.14664   1.17585   59.992
 6094.00    1.15240   1.18129   59.837
 6095.00    1.15944   1.18764   59.439
 6096.00    1.16080   1.19224   59.147
 6097.00    1.15681   1.19459   58.826
 6098.00    1.15268   1.19665   58.653
 6099.00    1.15128   1.19839   58.737
 6100.00    1.14446   1.19503   58.866
 6101.00    1.13091   1.18113   58.881
 6102.00    1.11888   1.15867   59.063
 6103.00    1.10656   1.14046   60.043
 6104.00    1.11191   1.13959   61.467
 6105.00    1.13259   1.15430   62.013
 6106.00    1.14232   1.17183   61.225
 6107.00    1.14034   1.18284   60.057
 6108.00    1.13789   1.18777   59.366
 6109.00    1.14535   1.19102   59.343
 6110.00    1.14565   1.19377   59.588
 6111.00    1.14549   1.19438   59.676
 6112.00    1.14100   1.19374   59.608
 6113.00    1.14060   1.19483   59.435
 6114.00    1.14750   1.19770   59.222
 6115.00    1.14076   1.19914   59.165
 6116.00    1.14242   1.19769   58.853
 6117.00    1.13713   1.19534   58.829
 6118.00    1.13488   1.19274   59.136
 6119.00    1.13076   1.18598   59.465
 6120.00    1.12149   1.17235   59.561
 6121.00    1.10907   1.15492   60.021
 6122.00    1.09764   1.14103   60.935
 6123.00    1.10306   1.13893   61.654
 6124.00    1.12068   1.14988   62.088
 6125.00    1.13395   1.16437   61.817
 6126.00    1.12839   1.17289   60.757
 6127.00    1.13411   1.17447   60.200
 6128.00    1.13057   1.17357   60.351
 6129.00    1.12821   1.17508   60.630
 6130.00    1.13263   1.18100   60.486
 6131.00    1.13407   1.18940   60.267
 6132.00    1.13244   1.19624   59.714
 6133.00    1.12880   1.19734   -1.000
 6134.00    1.11701   1.18804   -1.000
 6135.00    1.09957   1.16488   -1.000
 6136.00    1.08279   1.13248   60.277
 6137.00    1.06587   1.10668   61.831
 6138.00    1.07026   1.10334   63.640
 6139.00    1.08669   1.12131   64.866
 6140.00    1.10080   1.14320   64.460
 6141.00    1.10848   1.15428   62.617
 6142.00    1.10461   1.15695   61.101
 6143.00    1.10454   1.16247   60.728
 6144.00    1.11336   1.17361   60.906
 6145.00    1.12497   1.18386   60.825
 6146.00    1.12415   1.18773   60.102
 6147.00    1.11939   1.18541   -1.000
 6148.00    1.10805   1.17968   -1.000
 6149.00    1.10868   1.17332   -1.000
 6150.00    1.12058   1.16872   60.328
 6151.00    1.12314   1.16773   60.750
 6152.00    1.12419   1.17030   61.013
 6153.00    1.11510   1.17320   60.925
 6154.00    1.10853   1.17241   -1.000
 6155.00    1.10556   1.16788   60.269
 6156.00    1.10412   1.16346   60.373
 6157.00    1.10882   1.16134   60.904
 6158.00    1.10405   1.15927   61.122
 6159.00    1.09744   1.15215   61.187
 6160.00    1.08021   1.13410   61.561
 6161.00    1.06103   1.10517   62.377
 6162.00    1.04985   1.07681   63.783
 6163.00    1.05132   1.06446   65.785
 6164.00    1.06171   1.07328   67.385
 6165.00    1.07817   1.09413   67.509
 6166.00    1.09046   1.11386   66.141
 6167.00    1.08690   1.12404   64.419
 6168.00    1.07787   1.12251   63.698
 6169.00    1.06707   1.11258   63.590
 6170.00    1.05786   1.10452   63.947
 6171.00    1.06850   1.10837   64.818
 6172.00    1.08501   1.12268   65.184
 6173.00    1.09127   1.13743   64.398
 6174.00    1.09373   1.14633   63.150
 6175.00    1.09153   1.15045   62.530
 6176.00    1.09594   1.15211   62.694
 6177.00    1.10291   1.15320   62.680
 6178.00    1.09967   1.15557   62.511
 6179.00    1.09467   1.15889   -1.000
 6180.00    1.09251   1.16179   -1.000
 6181.00    1.09484   1.16481   -1.000
 6182.00    1.10399   1.16888   -1.000
 6183.00    1.11143   1.17224   61.455
 6184.00    1.11165   1.17245   61.185
 6185.00    1.10618   1.16870   61.109
 6186.00    1.09772   1.16154   -1.000
 6187.00    1.09622   1.15283   61.567
 6188.00    1.09095   1.14463   62.133
 6189.00    1.08369   1.13605   62.825
 6190.00    1.07750   1.12441   63.455
 6191.00    1.06960   1.11215   64.022
 6192.00    1.07130   1.10809   64.546
 6193.00    1.08248   1.11788   65.358
 6194.00    1.09157   1.13616   65.462
 6195.00    1.09560   1.15305   64.402
 6196.00    1.10021   1.16319   -1.000
 6197.00    1.10251   1.16589   62.020
 6198.00    1.09640   1.16138   -1.000
 6199.00    1.09496   1.15184   61.806
 6200.00    1.08990   1.14390   62.338
 6201.00    1.08956   1.14436   63.053
 6202.00    1.09554   1.15301   63.411
 6203.00    1.09734   1.16356   -1.000
 6204.00    1.09933   1.17079   -1.000
 6205.00    1.09461   1.17372   -1.000
 6206.00    1.09966   1.17459   -1.000
 6207.00    1.10309   1.17549   -1.000
 6208.00    1.10108   1.17626   -1.000
 6209.00    1.09886   1.17528   -1.000
 6210.00    1.09214   1.17112   -1.000
 6211.00    1.08961   1.16307   -1.000
 6212.00    1.08388   1.15073   -1.000
 6213.00    1.07258   1.13504   -1.000
 6214.00    1.06757   1.12053   63.352
 6215.00    1.07086   1.11273   64.065
 6216.00    1.07258   1.11307   65.023
 6217.00    1.07332   1.11795   65.525
 6218.00    1.07301   1.12135   65.432
 6219.00    1.07083   1.12004   64.553
 6220.00    1.06710   1.11689   64.498
 6221.00    1.06943   1.11746   64.939
 6222.00    1.07978   1.12333   64.533
 6223.00    1.08173   1.13050   64.215
 6224.00    1.09188   1.13524   65.557
 6225.00    1.08747   1.13767   69.667
 6226.00    1.08920   1.13899   66.126
 6227.00    1.08576   1.13801   63.651
 6228.00    1.07432   1.13140   63.902
 6229.00    1.07002   1.11710   63.968
 6230.00    1.05116   1.09886   64.480
 6231.00    1.04275   1.08617   65.460
 6232.00    1.04645   1.08686   66.518
 6233.00    1.06334   1.10021   67.111
 6234.00    1.07243   1.11922   66.549
 6235.00    1.07553   1.13553   -1.000
 6236.00    1.08087   1.14332   -1.000
 6237.00    1.06601   1.14126   -1.000
 6238.00    1.06118   1.13272   -1.000
 6239.00    1.05782   1.12247   -1.000
 6240.00    1.04509   1.11406   -1.000
 6241.00    1.05049   1.10886   -1.000
 6242.00    1.04859   1.10494   -1.000
 6243.00    1.04215   1.09960   -1.000
 6244.00    1.03192   1.09353   -1.000
 6245.00    1.03452   1.09007   -1.000
 6246.00    1.04911   1.09214   66.862
 6247.00    1.04426   1.10109   -1.000
 6248.00    1.05105   1.11476   -1.000
 6249.00    1.05914   1.12673   -1.000
 6250.00    1.05295   1.13046   -1.000
 6251.00    1.05124   1.12330   -1.000
 6252.00    1.03888   1.10853   -1.000
 6253.00    1.02259   1.09391   -1.000
 6254.00    1.02593   1.08558   -1.000
 6255.00    1.02504   1.08294   -1.000
 6256.00    1.02553   1.08141   -1.000
 6257.00    1.02442   1.07839   -1.000
 6258.00    1.02938   1.07627   67.444
 6259.00    1.02777   1.07957   -1.000
 6260.00    1.04018   1.08986   68.577
 6261.00    1.04841   1.10461   -1.000
 6262.00    1.05119   1.11944   -1.000
 6263.00    1.05888   1.13009   -1.000
 6264.00    1.05364   1.13384   -1.000
 6265.00    1.05205   1.13227   -1.000
 6266.00    1.05853   1.13077   -1.000
 6267.00    1.05625   1.13257   -1.000
 6268.00    1.06021   1.13514   -1.000
 6269.00    1.05975   1.13472   -1.000
 6270.00    1.05328   1.13239   -1.000
 6271.00    1.04652   1.13184   -1.000
 6272.00    1.05027   1.13397   -1.000
 6273.00    1.06033   1.13614   -1.000
 6274.00    1.06222   1.13499   -1.000
 6275.00    1.05633   1.12928   -1.000
 6276.00    1.05007   1.12003   -1.000
 6277.00    1.04205   1.10887   -1.000
 6278.00    1.02863   1.09707   -1.000
 6279.00    1.00698   1.08650   -1.000
 6280.00    0.98532   1.07985   -1.000
 6281.00    0.97244   1.08039   -1.000
 6282.00    0.97722   1.08887   -1.000
 6283.00    0.98882   1.10251   -1.000
 6284.00    0.99156   1.11684   -1.000
 6285.00    0.99530   1.12851   -1.000
 6286.00    1.00346   1.13712   -1.000
 6287.00    1.01097   1.14364   -1.000
 6288.00    1.02085   1.14765   -1.000
 6289.00    1.02856   1.14731   -1.000
 6290.00    1.03316   1.14204   -1.000
 6291.00    1.03001   1.13454   -1.000
 6292.00    1.02455   1.12848   -1.000
 6293.00    1.02830   1.12558   -1.000
 6294.00    1.03725   1.12442   -1.000
 6295.00    1.03890   1.12162   -1.000
 6296.00    1.03031   1.11529   -1.000
 6297.00    1.02026   1.10776   -1.000
 6298.00    1.00997   1.10324   -1.000
 6299.00    1.01332   1.10238   -1.000
 6300.00    1.00516   1.10157   -1.000
 6301.00    0.97610   1.09852   -1.000
 6302.00    0.95717   1.09639   -1.000
 6303.00    0.95087   1.10013   -1.000
 6304.00    0.96904   1.10984   -1.000
 6305.00    1.00772   1.12116   -1.000
 6306.00    1.03617   1.13094   -1.000
 6307.00    1.03832   1.13884   -1.000
 6308.00    1.03167   1.14430   -1.000
 6309.00    1.03383   1.14559   -1.000
 6310.00    1.03139   1.14275   -1.000
 6311.00    1.02354   1.13801   -1.000
 6312.00    1.02383   1.13344   -1.000
 6313.00    1.02697   1.12894   -1.000
 6314.00    1.02356   1.12301   -1.000
 6315.00    1.01604   1.11579   -1.000
 6316.00    1.01725   1.10960   -1.000
 6317.00    1.00986   1.10569   -1.000
 6318.00    1.00579   1.10405   -1.000
 6319.00    1.00794   1.10661   -1.000
 6320.00    1.01903   1.11460   -1.000
 6321.00    1.02772   1.12466   -1.000
 6322.00    1.02691   1.13293   -1.000
 6323.00    1.03120   1.13970   -1.000
 6324.00    1.04080   1.14630   -1.000
 6325.00    1.04879   1.15163   -1.000
 6326.00    1.05081   1.15399   -1.000
 6327.00    1.05493   1.15386   -1.000
 6328.00    1.05400   1.15316   -1.000
 6329.00    1.05212   1.15280   -1.000
 6330.00    1.04874   1.15273   -1.000
 6331.00    1.04249   1.15373   -1.000
 6332.00    1.04046   1.15583   -1.000
 6333.00    1.03318   1.15530   -1.000
 6334.00    1.03319   1.14756   -1.000
 6335.00    1.03038   1.13363   -1.000
 6336.00    1.01804   1.12116   -1.000
 6337.00    1.02796   1.11754   -1.000
 6338.00    0.98817   1.12329   -1.000
 6339.00    0.95107   1.13352   -1.000
 6340.00    1.05589   1.14344   -1.000
 6341.00    1.04556   1.14979   -1.000
 6342.00    1.05323   1.15043   -1.000
 6343.00    1.05233   1.14600   -1.000
 6344.00    1.04349   1.14088   -1.000
 6345.00    1.05018   1.13987   -1.000
 6346.00    1.05663   1.14411   -1.000
 6347.00    1.04947   1.15119   -1.000
 6348.00    1.05351   1.15837   -1.000
 6349.00    1.05633   1.16443   -1.000
 6350.00    1.06076   1.16870   -1.000
 6351.00    1.05494   1.17037   -1.000
 6352.00    1.05982   1.16850   -1.000
 6353.00    1.05891   1.16262   -1.000
 6354.00    1.04964   1.15411   -1.000
 6355.00    1.05286   1.14636   -1.000
 6356.00    1.04445   1.14147   -1.000
 6357.00    1.03068   1.13747   -1.000
 6358.00    1.02164   1.13154   -1.000
 6359.00    1.02742   1.12444   -1.000
 6360.00    1.02843   1.11860   -1.000
 6361.00    1.02998   1.11455   -1.000
 6362.00    1.03080   1.11207   -1.000
 6363.00    1.02545   1.11234   -1.000
 6364.00    1.02951   1.11661   -1.000
 6365.00    1.02298   1.12434   -1.000
 6366.00    1.02131   1.13358   -1.000
 6367.00    1.02801   1.14246   -1.000
 6368.00    1.03069   1.14934   -1.000
 6369.00    1.04531   1.15314   -1.000
 6370.00    1.04563   1.15472   -1.000
 6371.00    1.04500   1.15649   -1.000
 6372.00    1.04824   1.15972   -1.000
 6373.00    1.05461   1.16362   -1.000
 6374.00    1.05502   1.16642   -1.000
 6375.00    1.05610   1.16676   -1.000
 6376.00    1.05191   1.16472   -1.000
 6377.00    1.04044   1.16108   -1.000
 6378.00    1.04174   1.15654   -1.000
 6379.00    1.03610   1.15210   -1.000
 6380.00    1.04016   1.14895   -1.000
 6381.00    1.03652   1.14773   -1.000
 6382.00    1.03129   1.14838   -1.000
 6383.00    1.03464   1.14993   -1.000
 6384.00    1.03084   1.15139   -1.000
 6385.00    1.02359   1.15294   -1.000
 6386.00    1.02989   1.15531   -1.000
 6387.00    1.02653   1.15817   -1.000
 6388.00    1.01668   1.16017   -1.000
 6389.00    1.01114   1.16029   -1.000
 6390.00    1.00964   1.15751   -1.000
 6391.00    1.00037   1.15000   -1.000
 6392.00    0.99078   1.13762   -1.000
 6393.00    0.97684   1.12541   -1.000
 6394.00    0.96909   1.12159   -1.000
 6395.00    0.97281   1.12945   -1.000
 6396.00    0.98507   1.14273   -1.000
 6397.00    0.98491   1.15071   -1.000
 6398.00    0.97036   1.14710   -1.000
 6399.00    0.95761   1.13416   -1.000
 6400.00    0.93719   1.12223   -1.000
 6401.00    0.93790   1.12217   -1.000
 6402.00    0.94430   1.13524   -1.000
 6403.00    0.95026   1.15239   -1.000
 6404.00    0.94579   1.16369   -1.000
 6405.00    0.93604   1.16554   -1.000
 6406.00    0.93214   1.15935   -1.000
 6407.00    0.92535   1.14925   -1.000
 6408.00    0.91151   1.14080   -1.000
 6409.00    0.90846   1.13776   -1.000
 6410.00    0.90227   1.13856   -1.000
 6411.00    0.89983   1.13912   -1.000
 6412.00    0.89281   1.13902   -1.000
 6413.00    0.88524   1.14069   -1.000
 6414.00    0.88431   1.14435   -1.000
 6415.00    0.88515   1.14839   -1.000
 6416.00    0.87816   1.15133   -1.000
 6417.00    0.87297   1.15194   -1.000
 6418.00    0.86374   1.14849   -1.000
 6419.00    0.85284   1.14020   -1.000
 6420.00    0.83069   1.13020   -1.000
 6421.00    0.81628   1.12524   -1.000
 6422.00    0.82379   1.13015   -1.000
 6423.00    0.82477   1.14276   -1.000
 6424.00    0.83049   1.15578   -1.000
 6425.00    0.82267   1.16449   -1.000
 6426.00    0.81044   1.16948   -1.000
 6427.00    0.80322   1.17149   -1.000
 6428.00    0.79876   1.16818   -1.000
