###################################################################
## OUTPUT of StarlightChains_v04.for    [Cid@UFSC - 01/Apr/2007] ##
###################################################################

## Some input info
NGC6569_a_1.cxt                          [arq_obs]
Base.BC03.S                              [arq_base]
NGC6569_a_1.msk                          [arq_masks]
StCv04.C99.config                        [arq_config]
  150                                    [N_base]
    0                                    [N_YAV_components = # of components with extra extinction!]
    0                                    [i_FitPowerLaw (1/0 = Yes/No)]
-9.99                                    [alpha_PowerLaw]
CCM                                      [red_law_option]
 1.458241                                [q_norm = A(l_norm)/A(V)]

## (Re)Sampling Parameters
 3359.00                                 [l_ini (A)]
 6428.00                                 [l_fin (A)]
    1.00                                 [dl    (A)]     (OBS: dl_cushion =    50.00 A)

## Normalization info
 4020.00                                 [l_norm (A) - for base]
 4010.00                                 [llow_norm (A) - window for f_obs]
 4060.00                                 [lupp_norm (A) - window for f_obs]
3.450800E-15                             [fobs_norm (in input units)]

## S/N
 4730.00                                 [llow_SN (A) - window for S/N]
 4780.00                                 [lupp_SN (A) - window for S/N]
  49.160                                 [S/N in S/N window]
  30.918                                 [S/N in norm. window]
 207.538                                 [S/N_err in S/N window]
 130.528                                 [S/N_err in norm. window]
  1.0000                                 [fscale_chi2]

## etc...
  2147483598                             [idum_orig]
  3066                                   [NOl_eff]
   802                                   [Nl_eff]
  2264    NSIGMA                         [Ntot_cliped & clip_method]
  5083890                                [Nglobal_steps]
   7                                     [N_chains]
  27                                     [NEX0s_base = N_base in EX0s-fits]
 0   0   1       50   2.0   3.260E+02    [Clip-Bug, RC-Crash & Burn-In warning-flags, n_censored_weights, wei_nsig_threshold & wei_limit]
   202    201.727    201.723      0.004  [idt_all, wdt_TotTime, wdt_UsrTime & wdt_SysTime (sec)]

## Synthesis Results - Best model ##

 2.77024E+00                             [chi2/Nl_eff]
     1.47066                             [adev (%)]

    97.68194                             [sum-of-x (%)]
 3.21884E-14                             [Flux_tot (units of input spectrum!)]
 1.39756E-09                             [Mini_tot (???)]
 6.94445E-10                             [Mcor_tot (???)]

 -13.24                                  [v0_min  (km/s)]
   0.01                                  [vd_min  (km/s)]
 1.6800                                  [AV_min  (mag)]
 0.0000                                  [YAV_min (mag)]

# j     x_j(%)      Mini_j(%)     Mcor_j(%)     age_j(yr)     Z_j      (L/M)_j    YAV?  Mstars   component_j        a/Fe...       SSP_chi2r SSP_adev(%)   SSP_AV   SSP_x(%)
  1      0.0000     0.0000E+00    0.0000E+00    1.000000E+06  0.00010  8.160E-03    0   1.0000   age020_m22            0.0000     4.2964E+03    36.4094   4.0000   107.3870
  2      5.8335     2.8902E-03    5.8165E-03    3.160000E+06  0.00010  4.759E-02    0   1.0000   age045_m22            0.0000     1.3579E+02     5.4298   3.3052    97.6259
  3     12.7896     1.5609E-02    3.0099E-02    5.010000E+06  0.00010  1.932E-02    0   0.9582   age055_m22            0.0000     3.0231E+02    11.1417   3.4811    86.8992
  4      0.0000     0.0000E+00    0.0000E+00    6.610000E+06  0.00010  9.973E-03    0   0.9297   age061_m22            0.0000     4.0374E+03    35.5693   4.0000   110.3146
  5      0.0000     0.0000E+00    0.0000E+00    8.710000E+06  0.00010  7.690E-03    0   0.9030   age067_m22            0.0000     3.9812E+03    35.2347   4.0000   110.7742
  6      0.0000     0.0000E+00    0.0000E+00    1.000000E+07  0.00010  6.375E-03    0   0.8902   age070_m22            0.0000     4.0657E+03    35.3590   4.0000   111.2173
  7      0.0000     0.0000E+00    0.0000E+00    1.445000E+07  0.00010  4.874E-03    0   0.8589   age078_m22            0.0000     2.9820E+03    30.4405   4.0000   111.8626
  8      0.0000     0.0000E+00    0.0000E+00    2.512000E+07  0.00010  4.103E-03    0   0.8174   age090_m22            0.0000     1.2742E+03    19.6091   4.0000   110.6242
  9      0.0000     0.0000E+00    0.0000E+00    4.000000E+07  0.00010  3.654E-03    0   0.7830   age104_m22            0.0000     6.5083E+02    12.1149   4.0000   107.9541
 10      0.0000     0.0000E+00    0.0000E+00    5.500000E+07  0.00010  3.093E-03    0   0.7597   age110_m22            0.0000     5.3557E+02    10.4711   4.0000   106.6658
 11      0.0000     0.0000E+00    0.0000E+00    1.015200E+08  0.00010  2.431E-03    0   0.7138   age116_m22            0.0000     3.5901E+02     9.3903   4.0000    98.3785
 12      0.0000     0.0000E+00    0.0000E+00    1.609000E+08  0.00010  1.319E-03    0   0.6775   age120_m22            0.0000     3.3570E+02     9.0693   3.5240   100.4529
 13      0.0000     0.0000E+00    0.0000E+00    2.861200E+08  0.00010  1.075E-03    0   0.6412   age125_m22            0.0000     6.7427E+02    13.1472   3.6748   101.6882
 14      0.0000     0.0000E+00    0.0000E+00    5.088000E+08  0.00010  7.183E-04    0   0.6083   age130_m22            0.0000     7.8257E+02    14.2823   3.4701   102.6418
 15      0.0000     0.0000E+00    0.0000E+00    9.047900E+08  0.00010  4.524E-04    0   0.5785   age135_m22            0.0000     7.8967E+02    14.4537   3.2705   103.7571
 16      0.0000     0.0000E+00    0.0000E+00    1.278050E+09  0.00010  3.018E-04    0   0.5588   age138_m22            0.0000     4.5669E+02    10.9833   2.6830   103.7523
 17      0.0000     0.0000E+00    0.0000E+00    1.434000E+09  0.00010  2.691E-04    0   0.5532   age139_m22            0.0000     3.9597E+02    10.2438   2.5159   103.5740
 18      0.0000     0.0000E+00    0.0000E+00    2.500000E+09  0.00010  1.582E-04    0   0.5296   age150_m22            0.0000     3.5651E+02     9.8138   2.3835   104.7243
 19      0.0000     0.0000E+00    0.0000E+00    4.250000E+09  0.00010  1.007E-04    0   0.5110   age158_m22            0.0000     2.4216E+02     8.0574   2.2099   103.6716
 20      0.0000     0.0000E+00    0.0000E+00    6.250000E+09  0.00010  6.869E-05    0   0.4985   age166_m22            0.0000     1.4995E+02     6.1916   2.1272   101.5865
 21      0.0000     0.0000E+00    0.0000E+00    7.500000E+09  0.00010  5.873E-05    0   0.4931   age171_m22            0.0000     1.3753E+02     5.9227   2.1071   101.2176
 22      0.0000     0.0000E+00    0.0000E+00    1.000000E+10  0.00010  4.481E-05    0   0.4854   age181_m22            0.0000     1.3394E+02     5.8507   2.0687   100.8774
 23      0.0000     0.0000E+00    0.0000E+00    1.300000E+10  0.00010  3.489E-05    0   0.4791   age193_m22            0.0000     1.2503E+02     5.6328   2.0125   100.3491
 24      0.0000     0.0000E+00    0.0000E+00    1.500000E+10  0.00010  3.035E-05    0   0.4766   age201_m22            0.0000     1.1854E+02     5.4814   1.9727   100.1978
 25      0.0000     0.0000E+00    0.0000E+00    1.800000E+10  0.00010  2.510E-05    0   0.4735   age213_m22            0.0000     1.0363E+02     5.0920   1.9002    99.7385
 26      0.5761     1.6059E-03    3.2319E-03    1.000000E+06  0.00040  8.458E-03    0   1.0000   age020_m32            0.0000     4.3869E+03    36.6845   4.0000   108.4211
 27      0.0000     0.0000E+00    0.0000E+00    3.160000E+06  0.00040  3.973E-02    0   1.0000   age045_m32            0.0000     9.3027E+02    17.1885   4.0000   107.8105
 28      0.0000     0.0000E+00    0.0000E+00    5.010000E+06  0.00040  1.935E-02    0   0.9532   age055_m32            0.0000     1.6402E+03    24.1111   4.0000   106.1887
 29      0.0000     0.0000E+00    0.0000E+00    6.610000E+06  0.00040  1.204E-02    0   0.9243   age061_m32            0.0000     3.1679E+03    31.8471   4.0000   110.5460
 30      0.0000     0.0000E+00    0.0000E+00    8.710000E+06  0.00040  9.433E-03    0   0.9001   age067_m32            0.0000     3.0045E+03    30.9011   4.0000   111.2180
 31      0.0000     0.0000E+00    0.0000E+00    1.000000E+07  0.00040  8.053E-03    0   0.8877   age070_m32            0.0000     2.8095E+03    29.9497   4.0000   111.1105
 32      0.0000     0.0000E+00    0.0000E+00    1.445000E+07  0.00040  7.027E-03    0   0.8578   age078_m32            0.0000     7.8155E+02    16.7097   4.0000   104.7762
 33      0.0000     0.0000E+00    0.0000E+00    2.512000E+07  0.00040  4.707E-03    0   0.8166   age090_m32            0.0000     3.0144E+02     9.7199   4.0000   100.5717
 34      0.0009     5.7590E-06    9.0714E-06    4.000000E+07  0.00040  3.714E-03    0   0.7827   age104_m32            0.0000     2.3802E+02     7.4966   4.0000    97.9652
 35      0.0000     0.0000E+00    0.0000E+00    5.500000E+07  0.00040  2.982E-03    0   0.7593   age110_m32            0.0000     2.6410E+02     7.8236   4.0000    97.2844
 36      0.0000     0.0000E+00    0.0000E+00    1.015200E+08  0.00040  2.188E-03    0   0.7143   age116_m32            0.0000     4.4787E+02    10.5866   3.8049    99.8395
 37      0.0000     0.0000E+00    0.0000E+00    1.609000E+08  0.00040  1.690E-03    0   0.6856   age120_m32            0.0000     5.7391E+02    12.1018   3.6231   101.7831
 38      0.0000     0.0000E+00    0.0000E+00    2.861200E+08  0.00040  1.152E-03    0   0.6509   age125_m32            0.0000     6.9707E+02    13.4460   3.4391   102.4781
 39      0.0000     0.0000E+00    0.0000E+00    5.088000E+08  0.00040  7.331E-04    0   0.6182   age130_m32            0.0000     7.4539E+02    13.9600   3.2897   102.8229
 40      0.0000     0.0000E+00    0.0000E+00    9.047900E+08  0.00040  3.960E-04    0   0.5890   age135_m32            0.0000     4.8235E+02    11.3441   2.7937   102.6330
 41      0.0000     0.0000E+00    0.0000E+00    1.278050E+09  0.00040  2.854E-04    0   0.5687   age138_m32            0.0000     4.0325E+02    10.5152   2.4679   105.1696
 42      0.0000     0.0000E+00    0.0000E+00    1.434000E+09  0.00040  2.531E-04    0   0.5632   age139_m32            0.0000     3.9167E+02    10.3649   2.4021   105.2933
 43      0.0000     0.0000E+00    0.0000E+00    2.500000E+09  0.00040  1.488E-04    0   0.5386   age150_m32            0.0000     3.0527E+02     9.1339   2.1368   103.9331
 44      0.0000     0.0000E+00    0.0000E+00    4.250000E+09  0.00040  9.082E-05    0   0.5199   age158_m32            0.0000     1.5027E+02     6.2412   2.0015   101.6830
 45     17.9096     6.6375E+00    6.7805E+00    6.250000E+09  0.00040  6.362E-05    0   0.5076   age166_m32            0.0000     6.8183E+01     3.9908   1.9239    99.2049
 46     22.1086     9.8560E+00    9.9711E+00    7.500000E+09  0.00040  5.289E-05    0   0.5027   age171_m32            0.0000     5.6593E+01     3.5810   1.8855    98.0301
 47     12.3918     7.3559E+00    7.3249E+00    1.000000E+10  0.00040  3.972E-05    0   0.4948   age181_m32            0.0000     5.0314E+01     3.3231   1.8243    96.7191
 48      0.0000     0.0000E+00    0.0000E+00    1.300000E+10  0.00040  3.283E-05    0   0.4870   age193_m32            0.0000     7.6737E+01     4.3478   1.7969    99.0752
 49      0.0000     0.0000E+00    0.0000E+00    1.500000E+10  0.00040  2.925E-05    0   0.4854   age201_m32            0.0000     9.9773E+01     5.0933   1.7887   100.4127
 50      0.0000     0.0000E+00    0.0000E+00    1.800000E+10  0.00040  2.469E-05    0   0.4819   age213_m32            0.0000     1.0845E+02     5.3783   1.7525   100.8599
 51      0.0438     9.2777E-05    1.8671E-04    1.000000E+06  0.00400  1.114E-02    0   1.0000   age020_m42            0.0000     3.9265E+03    34.9220   4.0000   107.9526
 52      0.0000     0.0000E+00    0.0000E+00    3.160000E+06  0.00400  4.073E-02    0   0.9999   age045_m42            0.0000     3.5080E+02     9.8942   4.0000   102.3275
 53      0.0000     0.0000E+00    0.0000E+00    5.010000E+06  0.00400  2.534E-02    0   0.9488   age055_m42            0.0000     1.2090E+03    20.2204   4.0000   106.2427
 54      0.0000     0.0000E+00    0.0000E+00    6.610000E+06  0.00400  2.583E-02    0   0.9220   age061_m42            0.0000     2.0559E+02     7.1513   4.0000    97.5358
 55      0.0000     0.0000E+00    0.0000E+00    8.710000E+06  0.00400  1.706E-02    0   0.8983   age067_m42            0.0000     1.6093E+02     7.3246   3.8670    93.7342
 56      0.0000     0.0000E+00    0.0000E+00    1.000000E+07  0.00400  1.271E-02    0   0.8862   age070_m42            0.0000     1.9778E+02     8.8435   3.8205    92.9017
 57      0.0000     0.0000E+00    0.0000E+00    1.445000E+07  0.00400  7.666E-03    0   0.8571   age078_m42            0.0000     3.4293E+02    12.4166   4.0000    96.1295
 58      0.0000     0.0000E+00    0.0000E+00    2.512000E+07  0.00400  5.070E-03    0   0.8174   age090_m42            0.0000     1.6909E+02     8.1726   3.6985    94.4263
 59      0.0000     0.0000E+00    0.0000E+00    4.000000E+07  0.00400  3.505E-03    0   0.7851   age104_m42            0.0000     1.1689E+02     6.4740   3.4103    96.9822
 60      0.0000     0.0000E+00    0.0000E+00    5.500000E+07  0.00400  3.059E-03    0   0.7629   age110_m42            0.0000     1.9590E+02     6.6646   3.5396    99.9424
 61      0.0000     0.0000E+00    0.0000E+00    1.015200E+08  0.00400  2.268E-03    0   0.7207   age116_m42            0.0000     4.9844E+02    11.2530   3.5396   102.7079
 62      0.0000     0.0000E+00    0.0000E+00    1.609000E+08  0.00400  1.720E-03    0   0.6930   age120_m42            0.0000     5.4796E+02    11.8533   3.4213   103.6286
 63      0.0000     0.0000E+00    0.0000E+00    2.861200E+08  0.00400  1.079E-03    0   0.6613   age125_m42            0.0000     5.2974E+02    11.8521   3.0634   104.1350
 64      0.0000     0.0000E+00    0.0000E+00    5.088000E+08  0.00400  6.261E-04    0   0.6313   age130_m42            0.0000     5.9618E+02    12.7253   2.8722   106.8117
 65      0.0000     0.0000E+00    0.0000E+00    9.047900E+08  0.00400  3.535E-04    0   0.6024   age135_m42            0.0000     4.0065E+02    10.6569   2.4487   107.9116
 66      0.0000     0.0000E+00    0.0000E+00    1.278050E+09  0.00400  2.677E-04    0   0.5837   age138_m42            0.0000     1.9535E+02     8.1305   1.7545   106.4234
 67      0.0000     0.0000E+00    0.0000E+00    1.434000E+09  0.00400  1.910E-04    0   0.5716   age139_m42            0.0000     2.3643E+02     8.6162   1.9321   106.8347
 68      0.0000     0.0000E+00    0.0000E+00    2.500000E+09  0.00400  9.818E-05    0   0.5463   age150_m42            0.0000     1.2141E+02     6.5054   1.6481   102.6294
 69      0.0034     1.4774E-03    1.5666E-03    4.250000E+09  0.00400  5.491E-05    0   0.5269   age158_m42            0.0000     8.7073E+01     5.5335   1.5064   100.4028
 70      0.0000     0.0000E+00    0.0000E+00    6.250000E+09  0.00400  3.857E-05    0   0.5151   age166_m42            0.0000     1.0286E+02     5.8675   1.3849    99.0817
 71      0.0000     0.0000E+00    0.0000E+00    7.500000E+09  0.00400  3.243E-05    0   0.5110   age171_m42            0.0000     1.2017E+02     6.2081   1.3113    98.5115
 72      1.3887     1.3508E+00    1.3668E+00    1.000000E+10  0.00400  2.424E-05    0   0.5028   age181_m42            0.0000     1.4697E+02     6.7019   1.2373    97.8458
 73      3.6373     4.5545E+00    4.5161E+00    1.300000E+10  0.00400  1.883E-05    0   0.4927   age193_m42            0.0000     1.6784E+02     7.0324   1.1989    97.5550
 74      3.8608     5.4024E+00    5.3481E+00    1.500000E+10  0.00400  1.685E-05    0   0.4919   age201_m42            0.0000     1.5905E+02     6.8553   1.2009    97.6517
 75      3.2924     5.3463E+00    5.2442E+00    1.800000E+10  0.00400  1.452E-05    0   0.4874   age213_m42            0.0000     1.4417E+02     6.5455   1.2113    98.0398
 76      0.0000     0.0000E+00    0.0000E+00    1.000000E+06  0.00800  1.286E-02    0   1.0000   age020_m52            0.0000     3.7838E+03    34.0931   4.0000   109.9153
 77      0.0000     0.0000E+00    0.0000E+00    3.160000E+06  0.00800  3.147E-02    0   0.9966   age045_m52            0.0000     3.2506E+03    32.0654   4.0000   110.4114
 78      0.0000     0.0000E+00    0.0000E+00    5.010000E+06  0.00800  2.664E-02    0   0.9443   age055_m52            0.0000     1.6453E+03    23.4961   4.0000   107.9339
 79      0.0000     0.0000E+00    0.0000E+00    6.610000E+06  0.00800  2.151E-02    0   0.9177   age061_m52            0.0000     1.2691E+02     7.3881   3.4309    94.4284
 80      0.0000     0.0000E+00    0.0000E+00    8.710000E+06  0.00800  1.628E-02    0   0.8948   age067_m52            0.0000     1.6268E+02     7.8788   3.8100    94.4988
 81      0.0000     0.0000E+00    0.0000E+00    1.000000E+07  0.00800  1.215E-02    0   0.8827   age070_m52            0.0000     2.4357E+02    10.1497   4.0000    97.1715
 82      0.0000     0.0000E+00    0.0000E+00    1.445000E+07  0.00800  8.739E-03    0   0.8552   age078_m52            0.0000     2.8672E+02    10.4239   4.0000    99.9982
 83      0.0000     0.0000E+00    0.0000E+00    2.512000E+07  0.00800  5.676E-03    0   0.8162   age090_m52            0.0000     2.0471E+02     7.3792   3.8292    97.9446
 84      0.0000     0.0000E+00    0.0000E+00    4.000000E+07  0.00800  3.939E-03    0   0.7841   age104_m52            0.0000     2.2944E+02     7.3202   3.7044    99.5954
 85      0.0000     0.0000E+00    0.0000E+00    5.500000E+07  0.00800  3.155E-03    0   0.7627   age110_m52            0.0000     2.8332E+02     8.0574   3.7036   100.5966
 86      0.0000     0.0000E+00    0.0000E+00    1.015200E+08  0.00800  2.206E-03    0   0.7226   age116_m52            0.0000     4.1623E+02    10.1534   3.5729   103.0964
 87      0.0000     0.0000E+00    0.0000E+00    1.609000E+08  0.00800  1.596E-03    0   0.6963   age120_m52            0.0000     4.7124E+02    10.9623   3.3783   104.1827
 88      0.0000     0.0000E+00    0.0000E+00    2.861200E+08  0.00800  1.002E-03    0   0.6665   age125_m52            0.0000     6.2751E+02    13.0769   3.1343   105.7184
 89      0.0000     0.0000E+00    0.0000E+00    5.088000E+08  0.00800  5.759E-04    0   0.6377   age130_m52            0.0000     6.6577E+02    13.7655   2.8123   109.0818
 90      0.0000     0.0000E+00    0.0000E+00    9.047900E+08  0.00800  2.972E-04    0   0.6086   age135_m52            0.0000     4.5270E+02    11.5295   2.2706   108.3271
 91      0.0000     0.0000E+00    0.0000E+00    1.278050E+09  0.00800  2.242E-04    0   0.5907   age138_m52            0.0000     2.3244E+02     8.7339   1.6091   108.8370
 92      0.0000     0.0000E+00    0.0000E+00    1.434000E+09  0.00800  1.645E-04    0   0.5787   age139_m52            0.0000     2.0344E+02     8.1176   1.7517   108.2590
 93      0.0000     0.0000E+00    0.0000E+00    2.500000E+09  0.00800  7.723E-05    0   0.5519   age150_m52            0.0000     1.6966E+02     7.4899   1.4064   104.8854
 94      0.0021     1.2076E-03    1.2929E-03    4.250000E+09  0.00800  4.151E-05    0   0.5320   age158_m52            0.0000     1.6275E+02     7.3601   1.3319   102.4403
 95      0.0000     0.0000E+00    0.0000E+00    6.250000E+09  0.00800  3.010E-05    0   0.5197   age166_m52            0.0000     2.1102E+02     8.0890   1.1473   101.0255
 96      0.3775     3.6077E-01    3.7311E-01    7.500000E+09  0.00800  2.467E-05    0   0.5139   age171_m52            0.0000     2.2773E+02     8.3405   1.1094   100.5836
 97      0.0000     0.0000E+00    0.0000E+00    1.000000E+10  0.00800  1.862E-05    0   0.5054   age181_m52            0.0000     2.9136E+02     9.2370   0.9934   100.0119
 98      0.0000     0.0000E+00    0.0000E+00    1.300000E+10  0.00800  1.433E-05    0   0.4988   age193_m52            0.0000     3.6259E+02    10.0601   0.9098   100.4761
 99      0.7684     1.4565E+00    1.4468E+00    1.500000E+10  0.00800  1.244E-05    0   0.4936   age201_m52            0.0000     3.9053E+02    10.3332   0.8838   100.9156
100      0.0000     0.0000E+00    0.0000E+00    1.800000E+10  0.00800  1.070E-05    0   0.4888   age213_m52            0.0000     4.1184E+02    10.5663   0.8536   100.7086
101      0.0000     0.0000E+00    0.0000E+00    1.000000E+06  0.02000  1.989E-02    0   1.0000   age020_m62            0.0000     3.6725E+03    33.8449   4.0000   108.3226
102      0.0000     0.0000E+00    0.0000E+00    3.160000E+06  0.02000  3.772E-02    0   0.9858   age045_m62            0.0000     2.8588E+03    30.5761   4.0000   108.7820
103      0.0000     0.0000E+00    0.0000E+00    5.010000E+06  0.02000  3.227E-02    0   0.9342   age055_m62            0.0000     8.1285E+02    16.4892   4.0000   106.0213
104      0.0000     0.0000E+00    0.0000E+00    6.610000E+06  0.02000  2.387E-02    0   0.9090   age061_m62            0.0000     3.2623E+02    11.9130   4.0000    97.6053
105      0.0000     0.0000E+00    0.0000E+00    8.710000E+06  0.02000  1.102E-02    0   0.8861   age067_m62            0.0000     7.0731E+02    17.0047   3.7236    88.4539
106      0.0000     0.0000E+00    0.0000E+00    1.000000E+07  0.02000  1.011E-02    0   0.8751   age070_m62            0.0000     4.4503E+02    13.8611   3.7789    90.4800
107      0.0000     0.0000E+00    0.0000E+00    1.445000E+07  0.02000  7.331E-03    0   0.8472   age078_m62            0.0000     2.7734E+02    11.2060   3.8315    91.3711
108      0.0000     0.0000E+00    0.0000E+00    2.512000E+07  0.02000  4.206E-03    0   0.8099   age090_m62            0.0000     2.8409E+02    11.4657   3.7383    90.9376
109      0.0000     0.0000E+00    0.0000E+00    4.000000E+07  0.02000  3.373E-03    0   0.7799   age104_m62            0.0000     1.5793E+02     6.6938   3.6316    98.1494
110      0.0000     0.0000E+00    0.0000E+00    5.500000E+07  0.02000  2.747E-03    0   0.7595   age110_m62            0.0000     2.2191E+02     7.1430   3.6113   100.6419
111      0.0000     0.0000E+00    0.0000E+00    1.015200E+08  0.02000  1.878E-03    0   0.7221   age116_m62            0.0000     4.2655E+02    10.3065   3.5373   103.9695
112      0.0000     0.0000E+00    0.0000E+00    1.609000E+08  0.02000  1.378E-03    0   0.6978   age120_m62            0.0000     5.6999E+02    12.0853   3.4199   105.5489
113      0.0000     0.0000E+00    0.0000E+00    2.861200E+08  0.02000  8.869E-04    0   0.6700   age125_m62            0.0000     7.8008E+02    14.3508   3.0948   108.6825
114      0.0000     0.0000E+00    0.0000E+00    5.088000E+08  0.02000  4.834E-04    0   0.6430   age130_m62            0.0000     7.1609E+02    14.1434   2.6844   110.5004
115      0.0000     0.0000E+00    0.0000E+00    9.047900E+08  0.02000  2.312E-04    0   0.6152   age135_m62            0.0000     4.0081E+02    10.8922   2.0554   110.9417
116      0.0000     0.0000E+00    0.0000E+00    1.278050E+09  0.02000  1.387E-04    0   0.5927   age138_m62            0.0000     2.1762E+02     8.2996   1.6475   107.6863
117      0.0000     0.0000E+00    0.0000E+00    1.434000E+09  0.02000  1.168E-04    0   0.5865   age139_m62            0.0000     1.9773E+02     7.9378   1.6187   106.1759
118      0.0000     0.0000E+00    0.0000E+00    2.500000E+09  0.02000  5.505E-05    0   0.5610   age150_m62            0.0000     2.1263E+02     8.2335   1.2520   103.5275
119      0.0100     7.6745E-03    8.3510E-03    4.250000E+09  0.02000  3.070E-05    0   0.5407   age158_m62            0.0000     3.4647E+02    10.0839   0.9843   103.1682
120      0.0000     0.0000E+00    0.0000E+00    6.250000E+09  0.02000  2.104E-05    0   0.5277   age166_m62            0.0000     4.3384E+02    10.9862   0.8641   103.4454
121      0.0000     0.0000E+00    0.0000E+00    7.500000E+09  0.02000  1.770E-05    0   0.5223   age171_m62            0.0000     4.8360E+02    11.5251   0.7842   103.7176
122      0.0000     0.0000E+00    0.0000E+00    1.000000E+10  0.02000  1.297E-05    0   0.5121   age181_m62            0.0000     5.9161E+02    12.5991   0.6417   103.9867
123      0.0000     0.0000E+00    0.0000E+00    1.300000E+10  0.02000  9.691E-06    0   0.5047   age193_m62            0.0000     6.6225E+02    13.2447   0.5671   104.2376
124      0.0427     1.2035E-01    1.2107E-01    1.500000E+10  0.02000  8.360E-06    0   0.4999   age201_m62            0.0000     7.2897E+02    13.8736   0.5064   104.3117
125      0.1492     5.0904E-01    5.0669E-01    1.800000E+10  0.02000  6.911E-06    0   0.4946   age213_m62            0.0000     8.1675E+02    14.6941   0.4468   104.2958
126      0.0000     0.0000E+00    0.0000E+00    1.000000E+06  0.05000  2.651E-02    0   0.9998   age020_m72            0.0000     3.6850E+03    33.6000   4.0000   109.5886
127      0.0131     6.4033E-06    1.2341E-05    3.160000E+06  0.05000  4.817E-02    0   0.9577   age045_m72            0.0000     2.1389E+03    26.1179   4.0000   110.0723
128      0.0000     0.0000E+00    0.0000E+00    5.010000E+06  0.05000  3.101E-02    0   0.9147   age055_m72            0.0000     8.1556E+02    17.6675   4.0000   104.2685
129      0.6657     1.0662E-03    1.9048E-03    6.610000E+06  0.05000  1.472E-02    0   0.8877   age061_m72            0.0000     5.4055E+02    14.5294   3.9551    89.5328
130      0.0000     0.0000E+00    0.0000E+00    8.710000E+06  0.05000  1.050E-02    0   0.8638   age067_m72            0.0000     7.3344E+02    17.3845   4.0000   100.8952
131      0.0000     0.0000E+00    0.0000E+00    1.000000E+07  0.05000  8.954E-03    0   0.8524   age070_m72            0.0000     1.5768E+03    23.0596   4.0000   108.7148
132      0.0000     0.0000E+00    0.0000E+00    1.445000E+07  0.05000  6.392E-03    0   0.8262   age078_m72            0.0000     1.3853E+03    21.5073   4.0000   108.7901
133      0.0000     0.0000E+00    0.0000E+00    2.512000E+07  0.05000  4.207E-03    0   0.7902   age090_m72            0.0000     4.1079E+02    12.0339   4.0000   103.6566
134      0.0000     0.0000E+00    0.0000E+00    4.000000E+07  0.05000  3.198E-03    0   0.7618   age104_m72            0.0000     2.9471E+02     8.2601   3.8972   100.0169
135      0.0000     0.0000E+00    0.0000E+00    5.500000E+07  0.05000  2.593E-03    0   0.7432   age110_m72            0.0000     3.6322E+02     9.3928   3.8145   101.7072
136      0.0000     0.0000E+00    0.0000E+00    1.015200E+08  0.05000  1.716E-03    0   0.7092   age116_m72            0.0000     4.9879E+02    11.1355   3.6452   103.5902
137      0.0000     0.0000E+00    0.0000E+00    1.609000E+08  0.05000  1.218E-03    0   0.6876   age120_m72            0.0000     6.4566E+02    12.8289   3.4139   105.4472
138      0.0000     0.0000E+00    0.0000E+00    2.861200E+08  0.05000  7.047E-04    0   0.6618   age125_m72            0.0000     7.5973E+02    14.4273   2.9151   108.5849
139      0.0000     0.0000E+00    0.0000E+00    5.088000E+08  0.05000  3.590E-04    0   0.6356   age130_m72            0.0000     6.2990E+02    13.3946   2.3547   111.1275
140      0.0000     0.0000E+00    0.0000E+00    9.047900E+08  0.05000  1.484E-04    0   0.6088   age135_m72            0.0000     3.0493E+02    10.0784   1.5913   106.1354
141      0.0000     0.0000E+00    0.0000E+00    1.278050E+09  0.05000  9.435E-05    0   0.5924   age138_m72            0.0000     3.3542E+02    10.4920   1.2040   103.2308
142      0.0000     0.0000E+00    0.0000E+00    1.434000E+09  0.05000  7.827E-05    0   0.5847   age139_m72            0.0000     3.1817E+02    10.1725   1.2085   102.7963
143      0.7918     4.9667E-01    5.5805E-01    2.500000E+09  0.05000  3.759E-05    0   0.5583   age150_m72            0.0000     4.2844E+02    11.1370   0.8870   102.2897
144      1.5559     1.9917E+00    2.1540E+00    4.250000E+09  0.05000  1.842E-05    0   0.5374   age158_m72            0.0000     5.8450E+02    12.2922   0.5809   101.9879
145      0.0000     0.0000E+00    0.0000E+00    6.250000E+09  0.05000  1.207E-05    0   0.5242   age166_m72            0.0000     7.5615E+02    13.7904   0.3675   101.3760
146      0.7013     1.6547E+00    1.7260E+00    7.500000E+09  0.05000  9.993E-06    0   0.5183   age171_m72            0.0000     7.8196E+02    13.9894   0.3271   101.3112
147      0.0000     0.0000E+00    0.0000E+00    1.000000E+10  0.05000  7.291E-06    0   0.5081   age181_m72            0.0000     9.0326E+02    15.1249   0.2259   100.8718
148      0.3224     1.4300E+00    1.4442E+00    1.300000E+10  0.05000  5.316E-06    0   0.5018   age193_m72            0.0000     1.1083E+03    16.8978   0.0748   100.1796
149      1.7049     8.9390E+00    8.9445E+00    1.500000E+10  0.05000  4.497E-06    0   0.4972   age201_m72            0.0000     1.2114E+03    17.7795   0.0178   100.1316
150      6.7405     4.2506E+01    4.2122E+01    1.800000E+10  0.05000  3.739E-06    0   0.4924   age213_m72            0.0000     1.3521E+03    18.9636  -0.0627    99.7346


## Synthesis Results - Average & Chains ##

# j      x_j: min, <> & last-chain-values for 1 ...  7 chains
  1      0.0000      0.0564      0.0732      0.0000      0.0463      0.0000      0.0000      0.0609      0.0000
  2      5.8335      5.5901      5.6807      5.7042      5.7279      5.7758      5.6010      5.5620      5.7338
  3     12.7896     12.3261     12.4019     12.5028     12.6251     12.3223     12.3438     11.9982     12.5716
  4      0.0000      0.0183      0.0000      0.0000      0.0000      0.0730      0.0000      0.0000      0.0000
  5      0.0000      0.0232      0.0000      0.0539      0.0000      0.0538      0.0000      0.0000      0.0000
  6      0.0000      0.0263      0.0000      0.0000      0.0000      0.0000      0.1103      0.0319      0.0000
  7      0.0000      0.0237      0.1031      0.0150      0.0745      0.0000      0.0000      0.0291      0.0428
  8      0.0000      0.0122      0.0000      0.0000      0.0000      0.0000      0.0000      0.0000      0.0000
  9      0.0000      0.0122      0.0000      0.0000      0.0000      0.0000      0.0000      0.0000      0.0000
 10      0.0000      0.0109      0.0000      0.0000      0.0477      0.0000      0.0025      0.0000      0.1030
 11      0.0000      0.0086      0.0000      0.0000      0.0000      0.0000      0.0000      0.0038      0.0000
 12      0.0000      0.0095      0.0000      0.0000      0.0000      0.0000      0.0000      0.0000      0.0000
 13      0.0000      0.0057      0.0000      0.0000      0.0000      0.0000      0.0000      0.0000      0.0000
 14      0.0000      0.0035      0.0000      0.0000      0.0000      0.0031      0.0000      0.0000      0.0000
 15      0.0000      0.0042      0.0000      0.0000      0.0000      0.0000      0.0000      0.0000      0.0000
 16      0.0000      0.0088      0.0000      0.0000      0.0264      0.0000      0.0000      0.0000      0.0000
 17      0.0000      0.0110      0.0000      0.0000      0.0000      0.0000      0.0000      0.0000      0.0000
 18      0.0000      0.0154      0.0000      0.1085      0.0000      0.0000      0.0000      0.0000      0.0000
 19      0.0000      0.0309      0.0146      0.0000      0.0000      0.0000      0.0000      0.0000      0.0000
 20      0.0000      0.0565      0.0584      0.1061      0.0000      0.0000      0.0000      0.0000      0.0667
 21      0.0000      0.0663      0.0193      0.0290      0.0000      0.0000      0.0000      0.0000      0.0000
 22      0.0000      0.0729      0.0256      0.0699      0.2122      0.0445      0.1216      0.0163      0.1517
 23      0.0000      0.0791      0.0644      0.0000      0.0295      0.0000      0.0000      0.1299      0.0342
 24      0.0000      0.0969      0.0000      0.0000      0.0000      0.0000      0.0048      0.0899      0.0000
 25      0.0000      0.0937      0.0594      0.0000      0.0000      0.0747      0.0541      0.1220      0.4724
 26      0.5761      0.6280      0.6118      0.6768      0.5824      0.5882      0.6781      0.5950      0.6843
 27      0.0000      0.0166      0.0000      0.0000      0.1154      0.0000      0.0000      0.0000      0.1208
 28      0.0000      0.0207      0.0000      0.0000      0.0606      0.0000      0.0000      0.0000      0.0000
 29      0.0000      0.0222      0.0000      0.0867      0.0000      0.0000      0.0136      0.0000      0.0025
 30      0.0000      0.0173      0.0038      0.0000      0.0026      0.0000      0.0000      0.0000      0.0000
 31      0.0000      0.0173      0.0000      0.0770      0.0521      0.0000      0.0108      0.0000      0.0177
 32      0.0000      0.0230      0.0005      0.0105      0.0000      0.0000      0.0089      0.0000      0.0000
 33      0.0000      0.0141      0.0000      0.0000      0.0000      0.0000      0.1372      0.0000      0.0000
 34      0.0009      0.0244      0.0000      0.0000      0.0817      0.0000      0.0037      0.1319      0.0000
 35      0.0000      0.0085      0.0000      0.0000      0.0000      0.0000      0.0041      0.0000      0.0000
 36      0.0000      0.0070      0.0000      0.0000      0.0000      0.0000      0.0062      0.0000      0.0000
 37      0.0000      0.0077      0.0000      0.0000      0.0000      0.0000      0.0000      0.0000      0.0000
 38      0.0000      0.0041      0.0000      0.0000      0.0000      0.0027      0.0000      0.0000      0.0000
 39      0.0000      0.0046      0.0000      0.0000      0.0000      0.0000      0.0000      0.0000      0.0000
 40      0.0000      0.0074      0.0410      0.0421      0.0000      0.0000      0.0000      0.0000      0.0000
 41      0.0000      0.0208      0.0000      0.0000      0.0000      0.0000      0.0000      0.0000      0.0000
 42      0.0000      0.0156      0.0000      0.0000      0.0773      0.0000      0.0000      0.0444      0.0000
 43      0.0000      0.0292      0.0598      0.0275      0.0000      0.1259      0.0000      0.1177      0.0059
 44      0.0000      0.0715      0.0698      0.0207      0.0000      0.0000      0.0000      0.0000      0.0000
 45     17.9096     17.0107     17.2988     17.2468     16.8865     17.0610     17.7883     17.1711     17.0824
 46     22.1086     20.7250     21.2866     21.6177     21.7103     21.5269     20.7772     21.4801     21.7667
 47     12.3918     12.8578     12.8537     12.7418     12.8417     13.2221     12.8176     13.0379     12.1472
 48      0.0000      0.1792      0.0000      0.1692      0.0538      0.0000      0.0000      0.0000      0.3548
 49      0.0000      0.1089      0.0487      0.0000      0.0000      0.0341      0.0243      0.0738      0.0000
 50      0.0000      0.0827      0.0600      0.0000      0.0000      0.2437      0.0215      0.0000      0.0000
 51      0.0438      0.0486      0.0000      0.0000      0.0000      0.0361      0.0000      0.5043      0.0000
 52      0.0000      0.0228      0.1544      0.0815      0.0000      0.0000      0.0858      0.0000      0.0000
 53      0.0000      0.0281      0.0000      0.0000      0.0847      0.0829      0.0000      0.0000      0.0000
 54      0.0000      0.0164      0.0145      0.0000      0.0000      0.0392      0.0000      0.0000      0.0000
 55      0.0000      0.0272      0.0000      0.0000      0.0000      0.0000      0.0000      0.0504      0.0131
 56      0.0000      0.0252      0.2442      0.0000      0.1246      0.0000      0.0000      0.0121      0.0000
 57      0.0000      0.0201      0.0774      0.0356      0.0145      0.0231      0.0868      0.0667      0.0577
 58      0.0000      0.0154      0.0000      0.0000      0.0273      0.0000      0.0000      0.0000      0.0000
 59      0.0000      0.0140      0.0000      0.0000      0.0183      0.0000      0.0000      0.0000      0.0000
 60      0.0000      0.0098      0.0000      0.0038      0.0000      0.0000      0.0000      0.0226      0.0000
 61      0.0000      0.0045      0.0000      0.0000      0.0000      0.0000      0.0000      0.0000      0.0000
 62      0.0000      0.0052      0.0000      0.0000      0.0000      0.0000      0.0000      0.0318      0.0000
 63      0.0000      0.0053      0.0536      0.0597      0.0000      0.0000      0.0000      0.0000      0.0000
 64      0.0000      0.0058      0.0000      0.0000      0.0000      0.0000      0.0000      0.0000      0.0000
 65      0.0000      0.0134      0.0000      0.0050      0.0000      0.0000      0.0000      0.0050      0.0549
 66      0.0000      0.0291      0.0000      0.0000      0.0000      0.0000      0.0360      0.0283      0.0000
 67      0.0000      0.0233      0.0000      0.0136      0.0551      0.0609      0.0000      0.0000      0.0000
 68      0.0000      0.0725      0.0510      0.0000      0.0000      0.0000      0.2752      0.0000      0.0000
 69      0.0034      0.1239      0.0344      0.0000      0.0170      0.0788      0.1638      0.2135      0.0919
 70      0.0000      0.1520      0.0000      0.0000      0.0400      0.0000      0.3727      0.0542      0.0000
 71      0.0000      0.1244      0.1055      0.0000      0.0357      0.0809      0.0000      0.0000      0.4528
 72      1.3887      1.3391      1.4407      1.4094      1.2422      1.0761      1.1563      1.1881      0.9728
 73      3.6373      3.4802      3.5969      3.7108      3.4933      3.3923      3.3901      3.6696      3.1649
 74      3.8608      4.1955      4.2046      4.3202      4.4599      4.3012      4.3289      3.6970      4.2407
 75      3.2924      3.7794      4.0509      3.3012      3.8115      4.1341      3.6019      3.6807      3.8257
 76      0.0000      0.0183      0.0000      0.0000      0.0000      0.0000      0.0000      0.0000      0.0307
 77      0.0000      0.0150      0.1280      0.0000      0.0000      0.0168      0.0000      0.0000      0.0000
 78      0.0000      0.0220      0.0000      0.0633      0.0140      0.0000      0.0000      0.0000      0.0000
 79      0.0000      0.0209      0.0000      0.0000      0.0000      0.0000      0.0000      0.0201      0.0000
 80      0.0000      0.0125      0.0000      0.0025      0.0000      0.0000      0.0000      0.0000      0.0146
 81      0.0000      0.0148      0.0000      0.0000      0.0000      0.0000      0.0958      0.0000      0.0000
 82      0.0000      0.0116      0.1160      0.0000      0.0383      0.0000      0.0125      0.0000      0.0071
 83      0.0000      0.0131      0.0000      0.0000      0.0023      0.0000      0.0418      0.0000      0.0000
 84      0.0000      0.0064      0.0000      0.0000      0.0000      0.0000      0.0000      0.0000      0.0000
 85      0.0000      0.0073      0.0000      0.0000      0.0000      0.0000      0.0000      0.0000      0.0000
 86      0.0000      0.0064      0.0000      0.0000      0.0000      0.0000      0.0383      0.0000      0.0000
 87      0.0000      0.0056      0.0000      0.0000      0.0000      0.0000      0.0000      0.0528      0.0000
 88      0.0000      0.0036      0.0000      0.0000      0.0000      0.0000      0.0000      0.0000      0.0000
 89      0.0000      0.0069      0.0000      0.0000      0.0000      0.0000      0.0000      0.0000      0.0000
 90      0.0000      0.0136      0.0074      0.0093      0.0000      0.0000      0.0000      0.0000      0.0000
 91      0.0000      0.0269      0.0142      0.0000      0.0000      0.0000      0.0000      0.0000      0.0000
 92      0.0000      0.0263      0.0000      0.0000      0.0000      0.0000      0.0367      0.0000      0.0000
 93      0.0000      0.0877      0.0000      0.2203      0.0003      0.0000      0.0000      0.0000      0.0000
 94      0.0021      0.1312      0.0109      0.0670      0.0000      0.0311      0.4460      0.3808      0.0307
 95      0.0000      0.1513      0.0610      0.3694      0.1270      0.0000      0.6829      0.0000      0.7241
 96      0.3775      0.1053      0.0000      0.1477      0.3451      0.0000      0.0272      0.2787      0.0000
 97      0.0000      0.1341      0.0928      0.0277      0.0000      0.2312      0.0935      0.1010      0.0486
 98      0.0000      0.0781      0.0890      0.0000      0.1136      0.0541      0.1158      0.0000      0.0899
 99      0.7684      0.1511      0.0847      0.1600      0.2739      0.1223      0.0357      0.1942      0.4554
100      0.0000      0.0965      0.0000      0.1469      0.1116      0.0000      0.0000      0.0957      0.0000
101      0.0000      0.0389      0.0000      0.0000      0.0173      0.0670      0.0214      0.0000      0.0000
102      0.0000      0.0437      0.0000      0.0071      0.0000      0.1345      0.0253      0.1204      0.0000
103      0.0000      0.0235      0.0000      0.0041      0.0375      0.0000      0.0000      0.0000      0.1852
104      0.0000      0.0285      0.0000      0.0000      0.0000      0.0000      0.0126      0.0960      0.0209
105      0.0000      0.0580      0.0000      0.0000      0.0000      0.0437      0.0891      0.0464      0.0000
106      0.0000      0.0299      0.0512      0.0000      0.0085      0.0000      0.0000      0.0000      0.0000
107      0.0000      0.0474      0.0000      0.0000      0.0202      0.1140      0.0535      0.0000      0.2547
108      0.0000      0.0200      0.0000      0.0000      0.0000      0.0605      0.0614      0.0000      0.0000
109      0.0000      0.0088      0.0000      0.0000      0.0000      0.0066      0.0000      0.0000      0.0000
110      0.0000      0.0083      0.0000      0.0000      0.0000      0.0000      0.0000      0.0000      0.0211
111      0.0000      0.0044      0.0000      0.0000      0.0088      0.0103      0.0000      0.0000      0.0000
112      0.0000      0.0043      0.0000      0.0000      0.0000      0.0000      0.0000      0.0000      0.0000
113      0.0000      0.0050      0.0008      0.0000      0.0000      0.0000      0.0000      0.0000      0.0000
114      0.0000      0.0052      0.0000      0.0000      0.0000      0.0000      0.0000      0.0000      0.0000
115      0.0000      0.0138      0.0000      0.0000      0.0000      0.0000      0.0000      0.0024      0.0000
116      0.0000      0.0263      0.0000      0.0000      0.0000      0.0706      0.0000      0.0000      0.0000
117      0.0000      0.0292      0.0000      0.0290      0.0000      0.0000      0.0000      0.0026      0.0000
118      0.0000      0.0735      0.0000      0.0000      0.1568      0.0771      0.0000      0.0000      0.0833
119      0.0100      0.0656      0.1266      0.0245      0.0000      0.0327      0.0000      0.2206      0.0473
120      0.0000      0.0829      0.4245      0.0000      0.1757      0.1231      0.0437      0.0000      0.0000
121      0.0000      0.0631      0.0286      0.0000      0.0000      0.0648      0.0000      0.0312      0.0000
122      0.0000      0.0848      0.0000      0.0000      0.0000      0.2618      0.1840      0.0000      0.1426
123      0.0000      0.0392      0.0000      0.0189      0.0000      0.0000      0.0316      0.0000      0.0000
124      0.0427      0.4127      0.2403      0.4820      0.4061      0.5015      0.4813      0.2720      0.1490
125      0.1492      0.4868      0.3329      0.4378      0.4784      0.5251      0.4318      0.5099      0.5063
126      0.0000      0.0343      0.0000      0.0000      0.0000      0.0000      0.0980      0.0000      0.0000
127      0.0131      0.0252      0.0000      0.0803      0.0000      0.0000      0.0000      0.1352      0.0322
128      0.0000      0.0239      0.0881      0.0000      0.0000      0.0475      0.0000      0.0785      0.0091
129      0.6657      0.1544      0.1874      0.3613      0.1279      0.1626      0.1952      0.1338      0.0245
130      0.0000      0.0383      0.0000      0.1423      0.0000      0.0000      0.0738      0.0000      0.0053
131      0.0000      0.0290      0.0265      0.0302      0.0572      0.0876      0.0000      0.0000      0.1204
132      0.0000      0.0107      0.0000      0.0000      0.0000      0.1313      0.0000      0.0000      0.0084
133      0.0000      0.0086      0.0000      0.0000      0.0862      0.0000      0.0000      0.0000      0.0000
134      0.0000      0.0039      0.0000      0.0000      0.0000      0.0000      0.0000      0.0000      0.0000
135      0.0000      0.0052      0.0000      0.0000      0.0805      0.0000      0.0000      0.0000      0.0000
136      0.0000      0.0047      0.0000      0.0000      0.0194      0.0000      0.0000      0.0000      0.0000
137      0.0000      0.0033      0.0000      0.0000      0.0000      0.0000      0.0000      0.0000      0.0000
138      0.0000      0.0034      0.0204      0.0102      0.0000      0.0000      0.0000      0.0000      0.0000
139      0.0000      0.0068      0.0000      0.0000      0.0000      0.0289      0.0000      0.0000      0.0000
140      0.0000      0.0275      0.0000      0.0000      0.0000      0.0363      0.0089      0.0000      0.0000
141      0.0000      0.0499      0.1247      0.0000      0.0148      0.0000      0.0000      0.0241      0.0854
142      0.0000      0.0695      0.0000      0.2821      0.0595      0.0566      0.0000      0.1293      0.0000
143      0.7918      0.1150      0.4088      0.0000      0.0655      0.1200      0.0879      0.2893      0.0507
144      1.5559      0.4463      0.5779      0.6848      0.4784      0.4634      0.6480      0.9857      0.2805
145      0.0000      0.0930      0.0988      0.1319      0.0882      0.3068      0.1130      0.1032      0.1080
146      0.7013      0.1411      0.1588      0.1251      0.2125      0.0000      0.1486      0.1506      0.2563
147      0.0000      0.0283      0.0000      0.0000      0.0000      0.0000      0.0000      0.0583      0.1763
148      0.3224      0.4023      0.3568      0.3977      0.4100      0.3881      0.4053      0.3707      0.3390
149      1.7049      1.8442      1.8957      1.7314      1.8757      1.8652      1.8515      1.8434      1.7457
150      6.7405      7.1517      7.1108      7.2968      7.1262      7.0276      7.0289      7.0716      7.4123

# j      m_j: min, <> & last-chain-values for 1 ...  7 chains
  1  0.0000E+00  3.1593E-04  4.1343E-04  0.0000E+00  2.5908E-04  0.0000E+00  0.0000E+00  3.4407E-04  0.0000E+00
  2  5.8165E-03  5.3668E-03  5.5006E-03  5.4916E-03  5.4929E-03  5.5489E-03  5.4267E-03  5.3843E-03  5.4659E-03
  3  3.0099E-02  2.7931E-02  2.8344E-02  2.8410E-02  2.8576E-02  2.7941E-02  2.8229E-02  2.7414E-02  2.8286E-02
  4  0.0000E+00  7.7741E-05  0.0000E+00  0.0000E+00  0.0000E+00  3.1099E-04  0.0000E+00  0.0000E+00  0.0000E+00
  5  0.0000E+00  1.2437E-04  0.0000E+00  2.8978E-04  0.0000E+00  2.8859E-04  0.0000E+00  0.0000E+00  0.0000E+00
  6  0.0000E+00  1.6749E-04  0.0000E+00  0.0000E+00  0.0000E+00  0.0000E+00  7.1027E-04  2.0517E-04  0.0000E+00
  7  0.0000E+00  1.9045E-04  8.3723E-04  1.2111E-04  5.9898E-04  0.0000E+00  0.0000E+00  2.3610E-04  3.4236E-04
  8  0.0000E+00  1.1075E-04  0.0000E+00  0.0000E+00  0.0000E+00  0.0000E+00  0.0000E+00  0.0000E+00  0.0000E+00
  9  0.0000E+00  1.1902E-04  0.0000E+00  0.0000E+00  0.0000E+00  0.0000E+00  0.0000E+00  0.0000E+00  0.0000E+00
 10  0.0000E+00  1.2191E-04  0.0000E+00  0.0000E+00  5.3440E-04  0.0000E+00  2.8228E-05  0.0000E+00  1.1482E-03
 11  0.0000E+00  1.1576E-04  0.0000E+00  0.0000E+00  0.0000E+00  0.0000E+00  0.0000E+00  5.1623E-05  0.0000E+00
 12  0.0000E+00  2.2378E-04  0.0000E+00  0.0000E+00  0.0000E+00  0.0000E+00  0.0000E+00  0.0000E+00  0.0000E+00
 13  0.0000E+00  1.5629E-04  0.0000E+00  0.0000E+00  0.0000E+00  0.0000E+00  0.0000E+00  0.0000E+00  0.0000E+00
 14  0.0000E+00  1.3622E-04  0.0000E+00  0.0000E+00  0.0000E+00  1.1994E-04  0.0000E+00  0.0000E+00  0.0000E+00
 15  0.0000E+00  2.4443E-04  0.0000E+00  0.0000E+00  0.0000E+00  0.0000E+00  0.0000E+00  0.0000E+00  0.0000E+00
 16  0.0000E+00  7.4349E-04  0.0000E+00  0.0000E+00  2.2303E-03  0.0000E+00  0.0000E+00  0.0000E+00  0.0000E+00
 17  0.0000E+00  1.0306E-03  0.0000E+00  0.0000E+00  0.0000E+00  0.0000E+00  0.0000E+00  0.0000E+00  0.0000E+00
 18  0.0000E+00  2.3542E-03  0.0000E+00  1.6647E-02  0.0000E+00  0.0000E+00  0.0000E+00  0.0000E+00  0.0000E+00
 19  0.0000E+00  7.1548E-03  3.4256E-03  0.0000E+00  0.0000E+00  0.0000E+00  0.0000E+00  0.0000E+00  0.0000E+00
 20  0.0000E+00  1.8750E-02  1.9528E-02  3.5286E-02  0.0000E+00  0.0000E+00  0.0000E+00  0.0000E+00  2.1956E-02
 21  0.0000E+00  2.5433E-02  7.4484E-03  1.1144E-02  0.0000E+00  0.0000E+00  0.0000E+00  0.0000E+00  0.0000E+00
 22  0.0000E+00  3.6091E-02  1.2791E-02  3.4697E-02  1.0493E-01  2.2023E-02  6.0741E-02  8.1447E-03  7.4543E-02
 23  0.0000E+00  4.9598E-02  4.0767E-02  0.0000E+00  1.8459E-02  0.0000E+00  0.0000E+00  8.2207E-02  2.1333E-02
 24  0.0000E+00  6.9522E-02  0.0000E+00  0.0000E+00  0.0000E+00  0.0000E+00  3.4887E-03  6.5043E-02  0.0000E+00
 25  0.0000E+00  8.0735E-02  5.1595E-02  0.0000E+00  0.0000E+00  6.4403E-02  4.7062E-02  1.0607E-01  4.0429E-01
 26  3.2319E-03  3.3925E-03  3.3332E-03  3.6662E-03  3.1424E-03  3.1797E-03  3.6967E-03  3.2408E-03  3.6706E-03
 27  0.0000E+00  1.9068E-05  0.0000E+00  0.0000E+00  1.3252E-04  0.0000E+00  0.0000E+00  0.0000E+00  1.3792E-04
 28  0.0000E+00  4.6548E-05  0.0000E+00  0.0000E+00  1.3623E-04  0.0000E+00  0.0000E+00  0.0000E+00  0.0000E+00
 29  0.0000E+00  7.7930E-05  0.0000E+00  3.0505E-04  0.0000E+00  0.0000E+00  4.8144E-05  0.0000E+00  8.8517E-06
 30  0.0000E+00  7.5530E-05  1.6869E-05  0.0000E+00  1.1363E-05  0.0000E+00  0.0000E+00  0.0000E+00  0.0000E+00
 31  0.0000E+00  8.7065E-05  0.0000E+00  3.8880E-04  2.6206E-04  0.0000E+00  5.4828E-05  0.0000E+00  8.8423E-05
 32  0.0000E+00  1.2844E-04  2.9473E-06  5.8844E-05  0.0000E+00  0.0000E+00  4.9916E-05  0.0000E+00  0.0000E+00
 33  0.0000E+00  1.1169E-04  0.0000E+00  0.0000E+00  0.0000E+00  0.0000E+00  1.0976E-03  0.0000E+00  0.0000E+00
 34  9.0714E-06  2.3488E-04  0.0000E+00  0.0000E+00  7.8621E-04  0.0000E+00  3.5944E-05  1.2803E-03  0.0000E+00
 35  0.0000E+00  9.9127E-05  0.0000E+00  0.0000E+00  0.0000E+00  0.0000E+00  4.7731E-05  0.0000E+00  0.0000E+00
 36  0.0000E+00  1.0515E-04  0.0000E+00  0.0000E+00  0.0000E+00  0.0000E+00  9.2671E-05  0.0000E+00  0.0000E+00
 37  0.0000E+00  1.4239E-04  0.0000E+00  0.0000E+00  0.0000E+00  0.0000E+00  0.0000E+00  0.0000E+00  0.0000E+00
 38  0.0000E+00  1.0661E-04  0.0000E+00  0.0000E+00  0.0000E+00  6.8479E-05  0.0000E+00  0.0000E+00  0.0000E+00
 39  0.0000E+00  1.7600E-04  0.0000E+00  0.0000E+00  0.0000E+00  0.0000E+00  0.0000E+00  0.0000E+00  0.0000E+00
 40  0.0000E+00  5.0547E-04  2.8099E-03  2.8681E-03  0.0000E+00  0.0000E+00  0.0000E+00  0.0000E+00  0.0000E+00
 41  0.0000E+00  1.8943E-03  0.0000E+00  0.0000E+00  0.0000E+00  0.0000E+00  0.0000E+00  0.0000E+00  0.0000E+00
 42  0.0000E+00  1.5906E-03  0.0000E+00  0.0000E+00  7.8510E-03  0.0000E+00  0.0000E+00  4.5524E-03  0.0000E+00
 43  0.0000E+00  4.8235E-03  9.9671E-03  4.5556E-03  0.0000E+00  2.0830E-02  0.0000E+00  1.9628E-02  9.6488E-04
 44  0.0000E+00  1.8703E-02  1.8401E-02  5.4220E-03  0.0000E+00  0.0000E+00  0.0000E+00  0.0000E+00  0.0000E+00
 45  6.7805E+00  6.2010E+00  6.3601E+00  6.3046E+00  6.1488E+00  6.2236E+00  6.5442E+00  6.3116E+00  6.1831E+00
 46  9.9711E+00  9.0000E+00  9.3231E+00  9.4139E+00  9.4172E+00  9.3546E+00  9.1057E+00  9.4055E+00  9.3855E+00
 47  7.3249E+00  7.3181E+00  7.3785E+00  7.2724E+00  7.3007E+00  7.5306E+00  7.3623E+00  7.4824E+00  6.8647E+00
 48  0.0000E+00  1.2144E-01  0.0000E+00  1.1498E-01  3.6448E-02  0.0000E+00  0.0000E+00  0.0000E+00  2.3873E-01
 49  0.0000E+00  8.2556E-02  3.7276E-02  0.0000E+00  0.0000E+00  2.5898E-02  1.8588E-02  5.6412E-02  0.0000E+00
 50  0.0000E+00  7.3773E-02  5.3998E-02  0.0000E+00  0.0000E+00  2.1743E-01  1.9358E-02  0.0000E+00  0.0000E+00
 51  1.8671E-04  1.9940E-04  0.0000E+00  0.0000E+00  0.0000E+00  1.4803E-04  0.0000E+00  2.0857E-03  0.0000E+00
 52  0.0000E+00  2.5629E-05  1.7463E-04  9.1622E-05  0.0000E+00  0.0000E+00  9.7145E-05  0.0000E+00  0.0000E+00
 53  0.0000E+00  4.8061E-05  0.0000E+00  0.0000E+00  1.4475E-04  1.4187E-04  0.0000E+00  0.0000E+00  0.0000E+00
 54  0.0000E+00  2.6824E-05  2.3912E-05  0.0000E+00  0.0000E+00  6.4046E-05  0.0000E+00  0.0000E+00  0.0000E+00
 55  0.0000E+00  6.5388E-05  0.0000E+00  0.0000E+00  0.0000E+00  0.0000E+00  0.0000E+00  1.2237E-04  3.1241E-05
 56  0.0000E+00  8.0299E-05  7.8474E-04  0.0000E+00  3.9638E-04  0.0000E+00  0.0000E+00  3.8871E-05  0.0000E+00
 57  0.0000E+00  1.0262E-04  3.9885E-04  1.8219E-04  7.4082E-05  1.1799E-04  4.4757E-04  3.4363E-04  2.9285E-04
 58  0.0000E+00  1.1380E-04  0.0000E+00  0.0000E+00  2.0112E-04  0.0000E+00  0.0000E+00  0.0000E+00  0.0000E+00
 59  0.0000E+00  1.4277E-04  0.0000E+00  0.0000E+00  1.8724E-04  0.0000E+00  0.0000E+00  0.0000E+00  0.0000E+00
 60  0.0000E+00  1.1118E-04  0.0000E+00  4.3249E-05  0.0000E+00  0.0000E+00  0.0000E+00  2.5924E-04  0.0000E+00
 61  0.0000E+00  6.4776E-05  0.0000E+00  0.0000E+00  0.0000E+00  0.0000E+00  0.0000E+00  0.0000E+00  0.0000E+00
 62  0.0000E+00  9.4949E-05  0.0000E+00  0.0000E+00  0.0000E+00  0.0000E+00  0.0000E+00  5.9044E-04  0.0000E+00
 63  0.0000E+00  1.4795E-04  1.5143E-03  1.6763E-03  0.0000E+00  0.0000E+00  0.0000E+00  0.0000E+00  0.0000E+00
 64  0.0000E+00  2.6941E-04  0.0000E+00  0.0000E+00  0.0000E+00  0.0000E+00  0.0000E+00  0.0000E+00  0.0000E+00
 65  0.0000E+00  1.0452E-03  0.0000E+00  3.8755E-04  0.0000E+00  0.0000E+00  0.0000E+00  3.9506E-04  4.2421E-03
 66  0.0000E+00  2.8964E-03  0.0000E+00  0.0000E+00  0.0000E+00  0.0000E+00  3.6171E-03  2.8427E-03  0.0000E+00
 67  0.0000E+00  3.1828E-03  0.0000E+00  1.8608E-03  7.5280E-03  8.3330E-03  0.0000E+00  0.0000E+00  0.0000E+00
 68  0.0000E+00  1.8435E-02  1.3077E-02  0.0000E+00  0.0000E+00  0.0000E+00  7.0606E-02  0.0000E+00  0.0000E+00
 69  1.5666E-03  5.4318E-02  1.5197E-02  0.0000E+00  7.4272E-03  3.4573E-02  7.2453E-02  9.4384E-02  3.9984E-02
 70  0.0000E+00  9.2755E-02  0.0000E+00  0.0000E+00  2.4392E-02  0.0000E+00  2.2950E-01  3.3344E-02  0.0000E+00
 71  0.0000E+00  8.9591E-02  7.6584E-02  0.0000E+00  2.5661E-02  5.8304E-02  0.0000E+00  0.0000E+00  3.2367E-01
 72  1.3668E+00  1.2691E+00  1.3770E+00  1.3394E+00  1.1759E+00  1.0206E+00  1.1060E+00  1.1353E+00  9.1542E-01
 73  4.5161E+00  4.1605E+00  4.3370E+00  4.4486E+00  4.1714E+00  4.0582E+00  4.0902E+00  4.4234E+00  3.7568E+00
 74  5.3481E+00  5.5960E+00  5.6562E+00  5.7783E+00  5.9419E+00  5.7409E+00  5.8270E+00  4.9721E+00  5.6162E+00
 75  5.2442E+00  5.7964E+00  6.2660E+00  5.0771E+00  5.8390E+00  6.3447E+00  5.5749E+00  5.6920E+00  5.8258E+00
 76  0.0000E+00  6.5077E-05  0.0000E+00  0.0000E+00  0.0000E+00  0.0000E+00  0.0000E+00  0.0000E+00  1.0824E-04
 77  0.0000E+00  2.1738E-05  1.8682E-04  0.0000E+00  0.0000E+00  2.4303E-05  0.0000E+00  0.0000E+00  0.0000E+00
 78  0.0000E+00  3.5570E-05  0.0000E+00  1.0281E-04  2.2659E-05  0.0000E+00  0.0000E+00  0.0000E+00  0.0000E+00
 79  0.0000E+00  4.0645E-05  0.0000E+00  0.0000E+00  0.0000E+00  0.0000E+00  0.0000E+00  3.9580E-05  0.0000E+00
 80  0.0000E+00  3.1309E-05  0.0000E+00  6.2696E-06  0.0000E+00  0.0000E+00  0.0000E+00  0.0000E+00  3.6399E-05
 81  0.0000E+00  4.9165E-05  0.0000E+00  0.0000E+00  0.0000E+00  0.0000E+00  3.2106E-04  0.0000E+00  0.0000E+00
 82  0.0000E+00  5.1770E-05  5.2297E-04  0.0000E+00  1.7120E-04  0.0000E+00  5.6395E-05  0.0000E+00  3.1423E-05
 83  0.0000E+00  8.5769E-05  0.0000E+00  0.0000E+00  1.4894E-05  0.0000E+00  2.7690E-04  0.0000E+00  0.0000E+00
 84  0.0000E+00  5.8563E-05  0.0000E+00  0.0000E+00  0.0000E+00  0.0000E+00  0.0000E+00  0.0000E+00  0.0000E+00
 85  0.0000E+00  8.1112E-05  0.0000E+00  0.0000E+00  0.0000E+00  0.0000E+00  0.0000E+00  0.0000E+00  0.0000E+00
 86  0.0000E+00  9.6174E-05  0.0000E+00  0.0000E+00  0.0000E+00  0.0000E+00  5.7775E-04  0.0000E+00  0.0000E+00
 87  0.0000E+00  1.1152E-04  0.0000E+00  0.0000E+00  0.0000E+00  0.0000E+00  0.0000E+00  1.0608E-03  0.0000E+00
 88  0.0000E+00  1.1053E-04  0.0000E+00  0.0000E+00  0.0000E+00  0.0000E+00  0.0000E+00  0.0000E+00  0.0000E+00
 89  0.0000E+00  3.4823E-04  0.0000E+00  0.0000E+00  0.0000E+00  0.0000E+00  0.0000E+00  0.0000E+00  0.0000E+00
 90  0.0000E+00  1.2688E-03  7.0274E-04  8.7354E-04  0.0000E+00  0.0000E+00  0.0000E+00  0.0000E+00  0.0000E+00
 91  0.0000E+00  3.2420E-03  1.7226E-03  0.0000E+00  0.0000E+00  0.0000E+00  0.0000E+00  0.0000E+00  0.0000E+00
 92  0.0000E+00  4.2234E-03  0.0000E+00  0.0000E+00  0.0000E+00  0.0000E+00  5.9547E-03  0.0000E+00  0.0000E+00
 93  0.0000E+00  2.8630E-02  0.0000E+00  7.2115E-02  9.1913E-05  0.0000E+00  0.0000E+00  0.0000E+00  0.0000E+00
 94  1.2929E-03  7.6833E-02  6.4447E-03  3.9337E-02  0.0000E+00  1.8198E-02  2.6356E-01  2.2483E-01  1.7874E-02
 95  0.0000E+00  1.1935E-01  4.8546E-02  2.9223E-01  1.0006E-01  0.0000E+00  5.4368E-01  0.0000E+00  5.6720E-01
 96  3.7311E-01  1.0021E-01  0.0000E+00  1.4093E-01  3.2808E-01  0.0000E+00  2.6152E-02  2.6747E-01  0.0000E+00
 97  0.0000E+00  1.6627E-01  1.1605E-01  3.4428E-02  0.0000E+00  2.8694E-01  1.1698E-01  1.2629E-01  5.9872E-02
 98  0.0000E+00  1.2416E-01  1.4277E-01  0.0000E+00  1.8044E-01  8.6104E-02  1.8584E-01  0.0000E+00  1.4191E-01
 99  1.4468E+00  2.7387E-01  1.5486E-01  2.9080E-01  4.9594E-01  2.2194E-01  6.5233E-02  3.5494E-01  8.1976E-01
100  0.0000E+00  2.0137E-01  0.0000E+00  3.0736E-01  2.3264E-01  0.0000E+00  0.0000E+00  2.0149E-01  0.0000E+00
101  0.0000E+00  8.9436E-05  0.0000E+00  0.0000E+00  3.9794E-05  1.5392E-04  4.9707E-05  0.0000E+00  0.0000E+00
102  0.0000E+00  5.2175E-05  0.0000E+00  8.4711E-06  0.0000E+00  1.6069E-04  3.0501E-05  1.4491E-04  0.0000E+00
103  0.0000E+00  3.1122E-05  0.0000E+00  5.4273E-06  4.9543E-05  0.0000E+00  0.0000E+00  0.0000E+00  2.4324E-04
104  0.0000E+00  4.9588E-05  0.0000E+00  0.0000E+00  0.0000E+00  0.0000E+00  2.2108E-05  1.6849E-04  3.6183E-05
105  0.0000E+00  2.1320E-04  0.0000E+00  0.0000E+00  0.0000E+00  1.6053E-04  3.3031E-04  1.7193E-04  0.0000E+00
106  0.0000E+00  1.1815E-04  2.0438E-04  0.0000E+00  3.3593E-05  0.0000E+00  0.0000E+00  0.0000E+00  0.0000E+00
107  0.0000E+00  2.5035E-04  0.0000E+00  0.0000E+00  1.0676E-04  6.0235E-04  2.8516E-04  0.0000E+00  1.3354E-03
108  0.0000E+00  1.7569E-04  0.0000E+00  0.0000E+00  0.0000E+00  5.3239E-04  5.4508E-04  0.0000E+00  0.0000E+00
109  0.0000E+00  9.2678E-05  0.0000E+00  0.0000E+00  0.0000E+00  7.0162E-05  0.0000E+00  0.0000E+00  0.0000E+00
110  0.0000E+00  1.0459E-04  0.0000E+00  0.0000E+00  0.0000E+00  0.0000E+00  0.0000E+00  0.0000E+00  2.6452E-04
111  0.0000E+00  7.6490E-05  0.0000E+00  0.0000E+00  1.5461E-04  1.8129E-04  0.0000E+00  0.0000E+00  0.0000E+00
112  0.0000E+00  9.9907E-05  0.0000E+00  0.0000E+00  0.0000E+00  0.0000E+00  0.0000E+00  0.0000E+00  0.0000E+00
113  0.0000E+00  1.7160E-04  2.8249E-05  0.0000E+00  0.0000E+00  0.0000E+00  0.0000E+00  0.0000E+00  0.0000E+00
114  0.0000E+00  3.1898E-04  0.0000E+00  0.0000E+00  0.0000E+00  0.0000E+00  0.0000E+00  0.0000E+00  0.0000E+00
115  0.0000E+00  1.6778E-03  0.0000E+00  0.0000E+00  0.0000E+00  0.0000E+00  0.0000E+00  2.9475E-04  0.0000E+00
116  0.0000E+00  5.1410E-03  0.0000E+00  0.0000E+00  0.0000E+00  1.3801E-02  0.0000E+00  0.0000E+00  0.0000E+00
117  0.0000E+00  6.6919E-03  0.0000E+00  6.6723E-03  0.0000E+00  0.0000E+00  0.0000E+00  6.0511E-04  0.0000E+00
118  0.0000E+00  3.4199E-02  0.0000E+00  0.0000E+00  7.2921E-02  3.5911E-02  0.0000E+00  0.0000E+00  3.8521E-02
119  8.3510E-03  5.2800E-02  1.0272E-01  1.9809E-02  0.0000E+00  2.6356E-02  0.0000E+00  1.7900E-01  3.7824E-02
120  0.0000E+00  9.4945E-02  4.9064E-01  0.0000E+00  2.0106E-01  1.4116E-01  5.0560E-02  0.0000E+00  0.0000E+00
121  0.0000E+00  8.5072E-02  3.8842E-02  0.0000E+00  0.0000E+00  8.7410E-02  0.0000E+00  4.2427E-02  0.0000E+00
122  0.0000E+00  1.5295E-01  0.0000E+00  0.0000E+00  0.0000E+00  4.7261E-01  3.3505E-01  0.0000E+00  2.5549E-01
123  0.0000E+00  9.3352E-02  0.0000E+00  4.5154E-02  0.0000E+00  0.0000E+00  7.5964E-02  0.0000E+00  0.0000E+00
124  1.2107E-01  1.1274E+00  6.6202E-01  1.3204E+00  1.1083E+00  1.3711E+00  1.3269E+00  7.4931E-01  4.0424E-01
125  5.0669E-01  1.5916E+00  1.0979E+00  1.4355E+00  1.5625E+00  1.7182E+00  1.4248E+00  1.6813E+00  1.6438E+00
126  0.0000E+00  5.9029E-05  0.0000E+00  0.0000E+00  0.0000E+00  0.0000E+00  1.7042E-04  0.0000E+00  0.0000E+00
127  1.2341E-05  2.2872E-05  0.0000E+00  7.3185E-05  0.0000E+00  0.0000E+00  0.0000E+00  1.2387E-04  2.9027E-05
128  0.0000E+00  3.2148E-05  1.1969E-04  0.0000E+00  0.0000E+00  6.4103E-05  0.0000E+00  1.0669E-04  1.2150E-05
129  1.9048E-03  4.2552E-04  5.2075E-04  9.9820E-04  3.5187E-04  4.4824E-04  5.4265E-04  3.7160E-04  6.6909E-05
130  0.0000E+00  1.4400E-04  0.0000E+00  5.3644E-04  0.0000E+00  0.0000E+00  2.8003E-04  0.0000E+00  1.9627E-05
131  0.0000E+00  1.2593E-04  1.1626E-04  1.3164E-04  2.4836E-04  3.8141E-04  0.0000E+00  0.0000E+00  5.1980E-04
132  0.0000E+00  6.3239E-05  0.0000E+00  0.0000E+00  0.0000E+00  7.7574E-04  0.0000E+00  0.0000E+00  4.9347E-05
133  0.0000E+00  7.3718E-05  0.0000E+00  0.0000E+00  7.3917E-04  0.0000E+00  0.0000E+00  0.0000E+00  0.0000E+00
134  0.0000E+00  4.2505E-05  0.0000E+00  0.0000E+00  0.0000E+00  0.0000E+00  0.0000E+00  0.0000E+00  0.0000E+00
135  0.0000E+00  6.8452E-05  0.0000E+00  0.0000E+00  1.0533E-03  0.0000E+00  0.0000E+00  0.0000E+00  0.0000E+00
136  0.0000E+00  8.9005E-05  0.0000E+00  0.0000E+00  3.6603E-04  0.0000E+00  0.0000E+00  0.0000E+00  0.0000E+00
137  0.0000E+00  8.5307E-05  0.0000E+00  0.0000E+00  0.0000E+00  0.0000E+00  0.0000E+00  0.0000E+00  0.0000E+00
138  0.0000E+00  1.4678E-04  8.8166E-04  4.4018E-04  0.0000E+00  0.0000E+00  0.0000E+00  0.0000E+00  0.0000E+00
139  0.0000E+00  5.5172E-04  0.0000E+00  0.0000E+00  0.0000E+00  2.3374E-03  0.0000E+00  0.0000E+00  0.0000E+00
140  0.0000E+00  5.1515E-03  0.0000E+00  0.0000E+00  0.0000E+00  6.8165E-03  1.6780E-03  0.0000E+00  0.0000E+00
141  0.0000E+00  1.4304E-02  3.6086E-02  0.0000E+00  4.2481E-03  0.0000E+00  0.0000E+00  6.9692E-03  2.4331E-02
142  0.0000E+00  2.3738E-02  0.0000E+00  9.6555E-02  2.0270E-02  1.9328E-02  0.0000E+00  4.4505E-02  0.0000E+00
143  5.5805E-01  7.8036E-02  2.7980E-01  0.0000E+00  4.4388E-02  8.1497E-02  6.0181E-02  1.9796E-01  3.4158E-02
144  2.1540E+00  5.9496E-01  7.7688E-01  9.1533E-01  6.3703E-01  6.1813E-01  8.7167E-01  1.3249E+00  3.7131E-01
145  0.0000E+00  1.8458E-01  1.9781E-01  2.6241E-01  1.7480E-01  6.0920E-01  2.2628E-01  2.0639E-01  2.1274E-01
146  1.7260E+00  3.3441E-01  3.7961E-01  2.9734E-01  5.0292E-01  0.0000E+00  3.5531E-01  3.5990E-01  6.0307E-01
147  0.0000E+00  9.0121E-02  0.0000E+00  0.0000E+00  0.0000E+00  0.0000E+00  0.0000E+00  1.8719E-01  5.5729E-01
148  1.4442E+00  1.7349E+00  1.5519E+00  1.7200E+00  1.7664E+00  1.6748E+00  1.7643E+00  1.6120E+00  1.4515E+00
149  8.9445E+00  9.3159E+00  9.6581E+00  8.7706E+00  9.4645E+00  9.4284E+00  9.4391E+00  9.3894E+00  8.7558E+00
150  4.2122E+01  4.3032E+01  4.3152E+01  4.4027E+01  4.2829E+01  4.2313E+01  4.2682E+01  4.2904E+01  4.4284E+01

# AV, chi2 & Mass for <> & i_chain = 1 ...  7 solutions
AV       1.6800      1.6796      1.6810      1.6800      1.6805      1.6794      1.6793      1.6792      1.6796
chi2 2.7702E+00  2.8320E+00  2.8162E+00  2.8146E+00  2.8181E+00  2.8155E+00  2.8181E+00  2.8101E+00  2.8196E+00
Mass 6.9444E-10  7.2079E-10  7.1597E-10  7.1914E-10  7.2244E-10  7.2015E-10  7.1392E-10  7.1446E-10  7.2592E-10
 -13.28                                  [v0_min (km/s) before EX0s...]
   3.93                                  [vd_min (km/s) before EX0s...]


## Synthetic spectrum (Best Model) ##l_obs f_obs f_syn wei
 3070    [Nl_obs]
 3359.00    0.00000   0.41357   -2.000
 3360.00    0.06634   0.39638   -1.000
 3361.00    0.23380   0.40621   -1.000
 3362.00    0.26744   0.43091   -1.000
 3363.00    0.28680   0.46204   -1.000
 3364.00    0.28503   0.48105   -1.000
 3365.00    0.24681   0.47734   -1.000
 3366.00    0.25984   0.46710   -1.000
 3367.00    0.27531   0.45680   -1.000
 3368.00    0.32031   0.44539   -1.000
 3369.00    0.28700   0.43689   -1.000
 3370.00    0.27122   0.41923   -1.000
 3371.00    0.32512   0.40810   -1.000
 3372.00    0.29951   0.41199   -1.000
 3373.00    0.27664   0.43176   -1.000
 3374.00    0.28629   0.45760   -1.000
 3375.00    0.28970   0.48327   -1.000
 3376.00    0.32065   0.49369   -1.000
 3377.00    0.34979   0.48670   -1.000
 3378.00    0.35164   0.47090   -1.000
 3379.00    0.32892   0.45967   -1.000
 3380.00    0.33641   0.46081   -1.000
 3381.00    0.35680   0.46808   -1.000
 3382.00    0.30036   0.47630   -1.000
 3383.00    0.31409   0.48191   -1.000
 3384.00    0.33243   0.48608   -1.000
 3385.00    0.35919   0.49363   -1.000
 3386.00    0.39588   0.49088   -1.000
 3387.00    0.37163   0.48067   -1.000
 3388.00    0.36153   0.47387   -1.000
 3389.00    0.36838   0.48001   -1.000
 3390.00    0.34798   0.48920   -1.000
 3391.00    0.31964   0.49402   -1.000
 3392.00    0.30681   0.48524   -1.000
 3393.00    0.35688   0.47752   -1.000
 3394.00    0.39709   0.48496   -1.000
 3395.00    0.38778   0.49813   -1.000
 3396.00    0.37498   0.51302   -1.000
 3397.00    0.39285   0.52418   -1.000
 3398.00    0.39418   0.53280   -1.000
 3399.00    0.41366   0.53345   -1.000
 3400.00    0.43479   0.52769   -1.000
 3401.00    0.44206   0.51818   36.165
 3402.00    0.43542   0.49958   36.869
 3403.00    0.42456   0.49035   38.148
 3404.00    0.41644   0.48518   38.605
 3405.00    0.40928   0.48969   -1.000
 3406.00    0.38300   0.48964   -1.000
 3407.00    0.41799   0.48411   40.503
 3408.00    0.40957   0.47772   40.818
 3409.00    0.39428   0.48124   -1.000
 3410.00    0.42453   0.49353   41.430
 3411.00    0.45459   0.49059   40.863
 3412.00    0.45702   0.48136   39.880
 3413.00    0.44421   0.46861   40.167
 3414.00    0.41252   0.46739   41.656
 3415.00    0.40301   0.48148   -1.000
 3416.00    0.42417   0.49772   41.757
 3417.00    0.44495   0.51004   40.474
 3418.00    0.47241   0.51908   38.669
 3419.00    0.49253   0.52716   36.798
 3420.00    0.49865   0.53282   35.438
 3421.00    0.48574   0.53059   35.287
 3422.00    0.46418   0.51514   35.175
 3423.00    0.46774   0.49902   35.632
 3424.00    0.45818   0.49495   36.624
 3425.00    0.43795   0.50072   36.890
 3426.00    0.45296   0.50802   35.832
 3427.00    0.49741   0.51844   35.109
 3428.00    0.49354   0.53649   47.021
 3429.00    0.50108   0.55160   -1.000
 3430.00    0.49279   0.55436   -1.000
 3431.00    0.49411   0.53616   -1.000
 3432.00    0.49329   0.51574   -1.000
 3433.00    0.50302   0.50762   98.243
 3434.00    0.50331   0.51862   35.060
 3435.00    0.52291   0.53544   46.804
 3436.00    0.51462   0.53676   -1.000
 3437.00    0.50189   0.52442   97.708
 3438.00    0.48063   0.50663   35.329
 3439.00    0.47809   0.48760   37.130
 3440.00    0.46397   0.46819   39.570
 3441.00    0.46501   0.45250   42.301
 3442.00    0.44634   0.44877   43.524
 3443.00    0.42617   0.45468   43.508
 3444.00    0.43644   0.46538   42.867
 3445.00    0.44717   0.47621   40.959
 3446.00    0.46165   0.49437   38.703
 3447.00    0.45995   0.51656   36.792
 3448.00    0.46043   0.53545   -1.000
 3449.00    0.47722   0.54534   -1.000
 3450.00    0.49520   0.53452   -1.000
 3451.00    0.52234   0.51423  323.423
 3452.00    0.54733   0.49900   -1.000
 3453.00    0.52213   0.49820   -1.000
 3454.00    0.51044   0.50775  326.008
 3455.00    0.50456   0.51844   -1.000
 3456.00    0.50036   0.52051   -1.000
 3457.00    0.49828   0.51340   -1.000
 3458.00    0.53142   0.50324   -1.000
 3459.00    0.55599   0.49352   -1.000
 3460.00    0.53272   0.48244   35.113
 3461.00    0.50874   0.48004   35.391
 3462.00    0.49411   0.49491   46.892
 3463.00    0.50624   0.51023  326.008
 3464.00    0.53763   0.51325   -1.000
 3465.00    0.53042   0.50734   -1.000
 3466.00    0.51792   0.50743   -1.000
 3467.00    0.51019   0.51894  318.540
 3468.00    0.50779   0.53437   -1.000
 3469.00    0.54174   0.54709  302.417
 3470.00    0.53512   0.55001   -1.000
 3471.00    0.51450   0.54079   -1.000
 3472.00    0.53557   0.52831  301.257
 3473.00    0.54123   0.50780   -1.000
 3474.00    0.54851   0.48783   -1.000
 3475.00    0.54495   0.47759   -1.000
 3476.00    0.51766   0.48013   35.631
 3477.00    0.49682   0.49653   36.381
 3478.00    0.49817   0.51316   47.384
 3479.00    0.52260   0.52580  325.275
 3480.00    0.53558   0.53655  306.860
 3481.00    0.56407   0.53817   -1.000
 3482.00    0.57305   0.53203   -1.000
 3483.00    0.56368   0.52485   -1.000
 3484.00    0.56558   0.52341   -1.000
 3485.00    0.56890   0.53349   -1.000
 3486.00    0.56182   0.54673   -1.000
 3487.00    0.56464   0.54939   -1.000
 3488.00    0.57240   0.54010   -1.000
 3489.00    0.53910   0.52135   -1.000
 3490.00    0.54633   0.50574   -1.000
 3491.00    0.53571   0.50766   -1.000
 3492.00    0.52807   0.51946   -1.000
 3493.00    0.52636   0.52538  326.008
 3494.00    0.51282   0.52425   -1.000
 3495.00    0.49306   0.51588   -1.000
 3496.00    0.50305   0.50629  321.570
 3497.00    0.52008   0.50946   -1.000
 3498.00    0.53487   0.51867   -1.000
 3499.00    0.54030   0.53024   -1.000
 3500.00    0.55713   0.53270   -1.000
 3501.00    0.58009   0.53227   -1.000
 3502.00    0.56685   0.54021   -1.000
 3503.00    0.57365   0.54686   -1.000
 3504.00    0.58804   0.54629   -1.000
 3505.00    0.57835   0.53593   -1.000
 3506.00    0.55567   0.52658   -1.000
 3507.00    0.53745   0.52313   -1.000
 3508.00    0.54795   0.52169   -1.000
 3509.00    0.56768   0.52271   -1.000
 3510.00    0.56725   0.52006   -1.000
 3511.00    0.55157   0.51596   -1.000
 3512.00    0.55681   0.50851   -1.000
 3513.00    0.54144   0.49881   -1.000
 3514.00    0.53048   0.49948   -1.000
 3515.00    0.51570   0.51350  321.807
 3516.00    0.53591   0.54095  310.982
 3517.00    0.57019   0.56219  293.859
 3518.00    0.56921   0.56462  279.759
 3519.00    0.54705   0.54779  278.979
 3520.00    0.54697   0.52779   -1.000
 3521.00    0.54177   0.51377   -1.000
 3522.00    0.52135   0.50488   -1.000
 3523.00    0.51580   0.49511   -1.000
 3524.00    0.52257   0.48303   -1.000
 3525.00    0.51017   0.47534   35.293
 3526.00    0.51026   0.48498   36.169
 3527.00    0.53836   0.50343   47.094
 3528.00    0.54092   0.52566   -1.000
 3529.00    0.54738   0.54304  307.022
 3530.00    0.57013   0.55129   -1.000
 3531.00    0.55761   0.55414  291.998
 3532.00    0.52425   0.54828   -1.000
 3533.00    0.54232   0.53424  297.639
 3534.00    0.57108   0.52800   -1.000
 3535.00    0.58655   0.53116   -1.000
 3536.00    0.59820   0.54714   -1.000
 3537.00    0.59285   0.56448   -1.000
 3538.00    0.58861   0.57495   -1.000
 3539.00    0.60498   0.58080   -1.000
 3540.00    0.60343   0.57768   -1.000
 3541.00    0.60674   0.57152   -1.000
 3542.00    0.59539   0.57103   -1.000
 3543.00    0.57834   0.57791  284.301
 3544.00    0.58946   0.58498  281.767
 3545.00    0.57578   0.58377  278.366
 3546.00    0.56399   0.57743   -1.000
 3547.00    0.55753   0.57131   -1.000
 3548.00    0.58835   0.56928   -1.000
 3549.00    0.59285   0.57217   -1.000
 3550.00    0.58316   0.57703  289.448
 3551.00    0.57253   0.58036  288.952
 3552.00    0.55436   0.57316   -1.000
 3553.00    0.54987   0.55936  303.414
 3554.00    0.55262   0.55110  311.203
 3555.00    0.55346   0.55379  314.130
 3556.00    0.55230   0.56202  309.987
 3557.00    0.55264   0.57105   -1.000
 3558.00    0.55212   0.57456   -1.000
 3559.00    0.56300   0.57372  311.681
 3560.00    0.54856   0.57494   -1.000
 3561.00    0.53146   0.58014   -1.000
 3562.00    0.54121   0.58018   -1.000
 3563.00    0.55136   0.56833   -1.000
 3564.00    0.55720   0.54403   -1.000
 3565.00    0.52321   0.52059  104.705
 3566.00    0.48597   0.51230   35.685
 3567.00    0.47781   0.51300   36.663
 3568.00    0.48286   0.51446   36.281
 3569.00    0.48900   0.50752   36.446
 3570.00    0.47619   0.49454   37.561
 3571.00    0.46053   0.49036   37.752
 3572.00    0.47400   0.49659   36.416
 3573.00    0.49900   0.50494   45.616
 3574.00    0.51491   0.51184  326.008
 3575.00    0.52365   0.51908  326.008
 3576.00    0.52003   0.52472  326.008
 3577.00    0.52566   0.52603  326.008
 3578.00    0.54228   0.52340   -1.000
 3579.00    0.53146   0.51104  109.786
 3580.00    0.48788   0.49569   37.209
 3581.00    0.47899   0.48343   39.961
 3582.00    0.46074   0.47855   41.652
 3583.00    0.45763   0.48377   41.879
 3584.00    0.45272   0.48262   42.274
 3585.00    0.44813   0.46962   43.436
 3586.00    0.42712   0.45526   44.667
 3587.00    0.42668   0.45272   44.523
 3588.00    0.45046   0.46800   42.214
 3589.00    0.48399   0.49507   40.017
 3590.00    0.48044   0.52178   37.635
 3591.00    0.49408   0.53720   45.214
 3592.00    0.52394   0.53884   -1.000
 3593.00    0.53078   0.53779  311.878
 3594.00    0.52744   0.54345   -1.000
 3595.00    0.54886   0.55864  303.753
 3596.00    0.56192   0.57206  292.649
 3597.00    0.56400   0.57904   -1.000
 3598.00    0.55487   0.58358   -1.000
 3599.00    0.57700   0.58677  265.480
 3600.00    0.57970   0.58489  263.049
 3601.00    0.59496   0.56925   -1.000
 3602.00    0.59243   0.55177   -1.000
 3603.00    0.56118   0.53951   -1.000
 3604.00    0.53440   0.53938  308.903
 3605.00    0.53949   0.54364  313.312
 3606.00    0.55904   0.54112   -1.000
 3607.00    0.56001   0.53334   -1.000
 3608.00    0.52615   0.52419  318.960
 3609.00    0.53411   0.52059   -1.000
 3610.00    0.52980   0.52483  326.008
 3611.00    0.52317   0.53315  326.008
 3612.00    0.52260   0.54349   -1.000
 3613.00    0.52858   0.55247   -1.000
 3614.00    0.56154   0.56342  299.804
 3615.00    0.60030   0.57789   -1.000
 3616.00    0.61047   0.57613   -1.000
 3617.00    0.60137   0.55509   -1.000
 3618.00    0.56037   0.53053   -1.000
 3619.00    0.52800   0.52042  108.027
 3620.00    0.53892   0.53305   44.548
 3621.00    0.55410   0.55557  319.250
 3622.00    0.56133   0.57320   -1.000
 3623.00    0.58972   0.58369  279.311
 3624.00    0.59647   0.59280  273.537
 3625.00    0.61842   0.61088  268.468
 3626.00    0.65104   0.63318   -1.000
 3627.00    0.64695   0.64932  248.976
 3628.00    0.63799   0.63985  247.409
 3629.00    0.62167   0.60594   -1.000
 3630.00    0.59775   0.56300   -1.000
 3631.00    0.55359   0.53805   -1.000
 3632.00    0.52886   0.53988   -1.000
 3633.00    0.54312   0.55738   -1.000
 3634.00    0.55998   0.57154   -1.000
 3635.00    0.57865   0.57453  303.919
 3636.00    0.59547   0.57619   -1.000
 3637.00    0.59890   0.59014  283.958
 3638.00    0.61226   0.60754  270.664
 3639.00    0.61694   0.61938  259.257
 3640.00    0.62628   0.62346  252.656
 3641.00    0.62928   0.61673   -1.000
 3642.00    0.62783   0.60166   -1.000
 3643.00    0.61569   0.58536   -1.000
 3644.00    0.58337   0.57283   -1.000
 3645.00    0.58419   0.56568   -1.000
 3646.00    0.60161   0.55901   -1.000
 3647.00    0.60774   0.55453   -1.000
 3648.00    0.58202   0.55472   -1.000
 3649.00    0.55636   0.55855  303.771
 3650.00    0.55265   0.56743   -1.000
 3651.00    0.59334   0.58103   -1.000
 3652.00    0.62432   0.59871   -1.000
 3653.00    0.64185   0.61209   -1.000
 3654.00    0.62742   0.62355  252.836
 3655.00    0.64575   0.63490  250.003
 3656.00    0.66832   0.64518   -1.000
 3657.00    0.62967   0.65171   -1.000
 3658.00    0.61697   0.65256   -1.000
 3659.00    0.62750   0.65241   -1.000
 3660.00    0.63183   0.64952   -1.000
 3661.00    0.63705   0.64078  240.667
 3662.00    0.63847   0.62988  243.369
 3663.00    0.63366   0.62250  246.352
 3664.00    0.61680   0.62378  250.057
 3665.00    0.63101   0.62946  250.723
 3666.00    0.65053   0.63185   -1.000
 3667.00    0.64212   0.62881   -1.000
 3668.00    0.62469   0.61791  254.557
 3669.00    0.61127   0.60851  258.142
 3670.00    0.60355   0.60939  262.684
 3671.00    0.60978   0.61950  258.837
 3672.00    0.64212   0.63219  250.058
 3673.00    0.65145   0.63870   -1.000
 3674.00    0.65706   0.63690   -1.000
 3675.00    0.65550   0.62837   -1.000
 3676.00    0.63301   0.61377   -1.000
 3677.00    0.61327   0.59568   -1.000
 3678.00    0.60282   0.58109   -1.000
 3679.00    0.58743   0.57799  271.265
 3680.00    0.59097   0.58297  276.333
 3681.00    0.60797   0.59088   -1.000
 3682.00    0.59568   0.60021  266.411
 3683.00    0.60509   0.60326  259.933
 3684.00    0.61070   0.60027  259.639
 3685.00    0.59312   0.58790  267.137
 3686.00    0.59036   0.57534   -1.000
 3687.00    0.60285   0.57433   -1.000
 3688.00    0.59631   0.58855  290.045
 3689.00    0.62230   0.61367  278.927
 3690.00    0.65319   0.63328   -1.000
 3691.00    0.65271   0.64194  245.255
 3692.00    0.66224   0.63862   -1.000
 3693.00    0.68995   0.63159   -1.000
 3694.00    0.66404   0.62766   -1.000
 3695.00    0.66697   0.62898   -1.000
 3696.00    0.65993   0.62883   -1.000
 3697.00    0.64224   0.63109  247.701
 3698.00    0.64760   0.64423  243.427
 3699.00    0.68900   0.66225   -1.000
 3700.00    0.69928   0.67723   -1.000
 3701.00    0.67226   0.66847  229.170
 3702.00    0.66650   0.63469   -1.000
 3703.00    0.65265   0.59029   -1.000
 3704.00    0.60956   0.55490   -1.000
 3705.00    0.57545   0.53988   -1.000
 3706.00    0.57086   0.54580   -1.000
 3707.00    0.59125   0.55787   -1.000
 3708.00    0.60382   0.57060   -1.000
 3709.00    0.58683   0.57633   -1.000
 3710.00    0.59117   0.57655   -1.000
 3711.00    0.62028   0.58116   -1.000
 3712.00    0.64429   0.59598   -1.000
 3713.00    0.67016   0.62237   -1.000
 3714.00    0.69375   0.64854   -1.000
 3715.00    0.72299   0.66590   -1.000
 3716.00    0.71247   0.66610   -1.000
 3717.00    0.69052   0.65121   -1.000
 3718.00    0.64305   0.61931   -1.000
 3719.00    0.59324   0.56896   -1.000
 3720.00    0.56849   0.51200   -1.000
 3721.00    0.55992   0.48675   -1.000
 3722.00    0.54784   0.49957   44.351
 3723.00    0.57805   0.54138   -1.000
 3724.00    0.61733   0.59332   -1.000
 3725.00    0.64570   0.62718   -1.000
 3726.00    0.67339   0.63247   -1.000
 3727.00    0.67620   0.63108   -1.000
 3728.00    0.63876   0.63391  263.428
 3729.00    0.61860   0.63903   -1.000
 3730.00    0.63698   0.63624  261.109
 3731.00    0.64551   0.60912   -1.000
 3732.00    0.61664   0.55303   -1.000
 3733.00    0.57069   0.49825   -1.000
 3734.00    0.51756   0.45726   35.704
 3735.00    0.51472   0.44790   39.397
 3736.00    0.52321   0.47366   40.049
 3737.00    0.53948   0.52397   37.593
 3738.00    0.58136   0.57559   43.267
 3739.00    0.64735   0.62582   -1.000
 3740.00    0.67400   0.65447   -1.000
 3741.00    0.65676   0.65736  260.547
 3742.00    0.65951   0.63796   -1.000
 3743.00    0.67053   0.61218   -1.000
 3744.00    0.63296   0.58876   -1.000
 3745.00    0.57489   0.57037  308.286
 3746.00    0.55069   0.55248  325.540
 3747.00    0.54784   0.52460  117.801
 3748.00    0.52560   0.49485   35.821
 3749.00    0.50372   0.47233   37.733
 3750.00    0.51496   0.47868   47.171
 3751.00    0.54912   0.51744   -1.000
 3752.00    0.60047   0.57226   -1.000
 3753.00    0.66621   0.62684   -1.000
 3754.00    0.71059   0.66588   -1.000
 3755.00    0.72770   0.67936   -1.000
 3756.00    0.71372   0.66766   -1.000
 3757.00    0.66626   0.63545   -1.000
 3758.00    0.62216   0.60583   -1.000
 3759.00    0.61394   0.59634   -1.000
 3760.00    0.61338   0.60472   -1.000
 3761.00    0.63663   0.62113   -1.000
 3762.00    0.65826   0.63243   -1.000
 3763.00    0.66014   0.63648   -1.000
 3764.00    0.66128   0.63368   -1.000
 3765.00    0.65026   0.62588   -1.000
 3766.00    0.64620   0.61315   -1.000
 3767.00    0.63332   0.59671   -1.000
 3768.00    0.63777   0.57277   -1.000
 3769.00    0.64413   0.54957   -1.000
 3770.00    0.64072   0.53634   -1.000
 3771.00    0.61925   0.54965   -1.000
 3772.00    0.65729   0.58537   -1.000
 3773.00    0.68022   0.62734   -1.000
 3774.00    0.69086   0.65274   -1.000
 3775.00    0.70250   0.66234   -1.000
 3776.00    0.70123   0.66758   -1.000
 3777.00    0.71528   0.67893   -1.000
 3778.00    0.73316   0.69898   -1.000
 3779.00    0.74885   0.71863   -1.000
 3780.00    0.75420   0.73453   -1.000
 3781.00    0.76422   0.74081   -1.000
 3782.00    0.77448   0.74012   -1.000
 3783.00    0.75665   0.73487   -1.000
 3784.00    0.76873   0.72523   -1.000
 3785.00    0.76367   0.70719   -1.000
 3786.00    0.73812   0.68569   -1.000
 3787.00    0.71163   0.66380   -1.000
 3788.00    0.66687   0.65049   -1.000
 3789.00    0.63830   0.65166   -1.000
 3790.00    0.63321   0.65769   -1.000
 3791.00    0.67499   0.66125   -1.000
 3792.00    0.69774   0.65552   -1.000
 3793.00    0.69506   0.63458   -1.000
 3794.00    0.64558   0.60520   -1.000
 3795.00    0.63854   0.57017   -1.000
 3796.00    0.64314   0.53513   -1.000
 3797.00    0.60857   0.50103   -1.000
 3798.00    0.57759   0.48795   -1.000
 3799.00    0.57879   0.51352   -1.000
 3800.00    0.61126   0.57549   -1.000
 3801.00    0.66447   0.63543   -1.000
 3802.00    0.68759   0.67936  261.083
 3803.00    0.70307   0.69850  251.022
 3804.00    0.72498   0.70387   -1.000
 3805.00    0.72402   0.69922   -1.000
 3806.00    0.68956   0.68939  251.253
 3807.00    0.67813   0.69050   -1.000
 3808.00    0.70603   0.70528  262.442
 3809.00    0.72229   0.72495  254.608
 3810.00    0.71131   0.73840   -1.000
 3811.00    0.73566   0.73178  245.063
 3812.00    0.76299   0.70522   -1.000
 3813.00    0.71957   0.67420   -1.000
 3814.00    0.65229   0.64909  282.527
 3815.00    0.64095   0.64272  298.640
 3816.00    0.64161   0.65461   -1.000
 3817.00    0.65959   0.66912  301.064
 3818.00    0.66864   0.66814  292.853
 3819.00    0.63024   0.64650   -1.000
 3820.00    0.61763   0.62658  321.841
 3821.00    0.63860   0.62542   -1.000
 3822.00    0.64879   0.64159  323.551
 3823.00    0.64672   0.64607  312.445
 3824.00    0.62283   0.62630  320.634
 3825.00    0.57567   0.60368   -1.000
 3826.00    0.58185   0.59066   36.694
 3827.00    0.58647   0.58548   37.244
 3828.00    0.58994   0.58548   36.844
 3829.00    0.58748   0.58175   36.240
 3830.00    0.58311   0.57453   35.858
 3831.00    0.57192   0.55560   36.564
 3832.00    0.56097   0.52370   38.512
 3833.00    0.52010   0.48265   41.260
 3834.00    0.51086   0.44973   42.050
 3835.00    0.48732   0.44217   40.994
 3836.00    0.48738   0.45609   39.472
 3837.00    0.51289   0.48123   38.967
 3838.00    0.49699   0.50638   39.859
 3839.00    0.51527   0.53232   40.482
 3840.00    0.55214   0.55926   39.384
 3841.00    0.59435   0.59512   45.611
 3842.00    0.64392   0.63334   -1.000
 3843.00    0.69784   0.67097   -1.000
 3844.00    0.71600   0.69463   -1.000
 3845.00    0.72098   0.70453   -1.000
 3846.00    0.73098   0.71109   -1.000
 3847.00    0.73952   0.71760   -1.000
 3848.00    0.71676   0.71647  285.079
 3849.00    0.68893   0.70838   -1.000
 3850.00    0.71736   0.70127   -1.000
 3851.00    0.71035   0.70967  305.473
 3852.00    0.69984   0.72631   -1.000
 3853.00    0.70237   0.73672   -1.000
 3854.00    0.68639   0.72944   -1.000
 3855.00    0.67412   0.71462   -1.000
 3856.00    0.67781   0.69909   -1.000
 3857.00    0.68118   0.68277  316.873
 3858.00    0.66436   0.66773  123.166
 3859.00    0.63821   0.66146   35.011
 3860.00    0.61474   0.66984   36.638
 3861.00    0.64150   0.69283   43.442
 3862.00    0.69988   0.71993   -1.000
 3863.00    0.75419   0.73404   -1.000
 3864.00    0.76701   0.73205   -1.000
 3865.00    0.74506   0.72659   -1.000
 3866.00    0.71951   0.72522  284.841
 3867.00    0.72093   0.72907  289.349
 3868.00    0.73023   0.73357  296.198
 3869.00    0.72214   0.72966  308.890
 3870.00    0.67123   0.71410   -1.000
 3871.00    0.63914   0.69527   -1.000
 3872.00    0.64346   0.67915   42.354
 3873.00    0.64611   0.67794   -1.000
 3874.00    0.66906   0.69375   -1.000
 3875.00    0.70782   0.71073  277.571
 3876.00    0.71630   0.70524   -1.000
 3877.00    0.69153   0.68386  282.655
 3878.00    0.66528   0.66509  306.023
 3879.00    0.65881   0.66204  322.978
 3880.00    0.67297   0.67381  324.478
 3881.00    0.65531   0.68025   -1.000
 3882.00    0.63283   0.67378   -1.000
 3883.00    0.64849   0.66596   -1.000
 3884.00    0.65871   0.65331  291.224
 3885.00    0.64978   0.62015   -1.000
 3886.00    0.62886   0.57294   -1.000
 3887.00    0.60803   0.52458   -1.000
 3888.00    0.58177   0.50008   -1.000
 3889.00    0.55789   0.50960   -1.000
 3890.00    0.57674   0.55316   -1.000
 3891.00    0.64584   0.61174   -1.000
 3892.00    0.70904   0.65954   -1.000
 3893.00    0.73614   0.67739   -1.000
 3894.00    0.72874   0.67973   -1.000
 3895.00    0.71199   0.68615   -1.000
 3896.00    0.72023   0.69785   -1.000
 3897.00    0.75404   0.71198   -1.000
 3898.00    0.76711   0.71905   -1.000
 3899.00    0.76089   0.71707   -1.000
 3900.00    0.75922   0.72096   -1.000
 3901.00    0.77472   0.72982   -1.000
 3902.00    0.77048   0.73202   -1.000
 3903.00    0.75589   0.72624   -1.000
 3904.00    0.75428   0.71594   -1.000
 3905.00    0.73943   0.71162   -1.000
 3906.00    0.73758   0.71731   -1.000
 3907.00    0.75111   0.74003   -1.000
 3908.00    0.78524   0.77094   -1.000
 3909.00    0.83392   0.79531   -1.000
 3910.00    0.84971   0.80509   -1.000
 3911.00    0.83616   0.81009   -1.000
 3912.00    0.84519   0.81080   -1.000
 3913.00    0.83016   0.80480   -1.000
 3914.00    0.78709   0.79258  214.380
 3915.00    0.77165   0.78488  219.005
 3916.00    0.78038   0.78181  223.741
 3917.00    0.77478   0.77453  226.551
 3918.00    0.77097   0.76102  230.250
 3919.00    0.76501   0.74404   -1.000
 3920.00    0.72874   0.73055  248.539
 3921.00    0.72171   0.72250  259.237
 3922.00    0.71650   0.72468  262.955
 3923.00    0.73861   0.73206  259.932
 3924.00    0.75736   0.73427   -1.000
 3925.00    0.74047   0.72776   -1.000
 3926.00    0.70686   0.70296  275.914
 3927.00    0.66172   0.66606  304.142
 3928.00    0.56909   0.61975   -1.000
 3929.00    0.49087   0.56887   39.741
 3930.00    0.44010   0.51001   -1.000
 3931.00    0.40541   0.43070   54.597
 3932.00    0.34322   0.35105   64.509
 3933.00    0.30688   0.29671   74.598
 3934.00    0.29422   0.30378   79.525
 3935.00    0.32422   0.36529   74.609
 3936.00    0.36086   0.45114   -1.000
 3937.00    0.43591   0.52856   -1.000
 3938.00    0.51765   0.60312   -1.000
 3939.00    0.58719   0.65465   45.004
 3940.00    0.65019   0.69017   -1.000
 3941.00    0.66220   0.71026   -1.000
 3942.00    0.65734   0.71367   -1.000
 3943.00    0.66089   0.71155   -1.000
 3944.00    0.66883   0.71683   -1.000
 3945.00    0.71781   0.73150   -1.000
 3946.00    0.76697   0.75356   -1.000
 3947.00    0.77789   0.76582   -1.000
 3948.00    0.78060   0.76744   -1.000
 3949.00    0.78343   0.76949   -1.000
 3950.00    0.78324   0.77299  226.314
 3951.00    0.79473   0.77354   -1.000
 3952.00    0.79527   0.77484   -1.000
 3953.00    0.79231   0.78386  224.039
 3954.00    0.80380   0.79164  219.619
 3955.00    0.81865   0.78725   -1.000
 3956.00    0.80536   0.77342   -1.000
 3957.00    0.78616   0.76225   -1.000
 3958.00    0.80071   0.76160   -1.000
 3959.00    0.78773   0.75651   -1.000
 3960.00    0.75278   0.72861   -1.000
 3961.00    0.70634   0.69194   -1.000
 3962.00    0.65793   0.65548  294.193
 3963.00    0.60955   0.62545   -1.000
 3964.00    0.58715   0.59455  138.350
 3965.00    0.52917   0.53421   37.353
 3966.00    0.44764   0.45246   44.206
 3967.00    0.37854   0.35812   54.525
 3968.00    0.32784   0.29558   65.654
 3969.00    0.31685   0.28996   70.276
 3970.00    0.33913   0.34197   63.625
 3971.00    0.42566   0.42126   52.337
 3972.00    0.51524   0.51055   43.156
 3973.00    0.57614   0.58241   43.982
 3974.00    0.64640   0.64295  314.963
 3975.00    0.70877   0.69009   -1.000
 3976.00    0.74434   0.72862   -1.000
 3977.00    0.77308   0.76079  233.870
 3978.00    0.80186   0.78885  220.449
 3979.00    0.83600   0.81162   -1.000
 3980.00    0.86915   0.81951   -1.000
 3981.00    0.86394   0.81810   -1.000
 3982.00    0.84596   0.81611   -1.000
 3983.00    0.85071   0.81909   -1.000
 3984.00    0.87235   0.83308   -1.000
 3985.00    0.87921   0.84854   -1.000
 3986.00    0.88213   0.85915   -1.000
 3987.00    0.89824   0.86995   -1.000
 3988.00    0.91102   0.88075   -1.000
 3989.00    0.91318   0.88246   -1.000
 3990.00    0.93910   0.88328   -1.000
 3991.00    0.95580   0.89034   -1.000
 3992.00    0.95954   0.90284   -1.000
 3993.00    0.96849   0.91180   -1.000
 3994.00    0.95324   0.90917   -1.000
 3995.00    0.92770   0.89385   -1.000
 3996.00    0.90682   0.87386   -1.000
 3997.00    0.89699   0.86478   -1.000
 3998.00    0.91123   0.87049   -1.000
 3999.00    0.92604   0.88912   -1.000
 4000.00    0.94413   0.90840   -1.000
 4001.00    0.96914   0.92332   -1.000
 4002.00    0.99029   0.92660   -1.000
 4003.00    0.98991   0.91771   -1.000
 4004.00    0.94490   0.89387   -1.000
 4005.00    0.90331   0.86984   -1.000
 4006.00    0.90223   0.86957   -1.000
 4007.00    0.94510   0.89232   -1.000
 4008.00    0.97465   0.92045   -1.000
 4009.00    0.99323   0.93619   -1.000
 4010.00    0.99422   0.94226   -1.000
 4011.00    0.99417   0.94564   -1.000
 4012.00    0.98308   0.94607   -1.000
 4013.00    0.96792   0.94775   -1.000
 4014.00    0.95139   0.95218  169.088
 4015.00    1.01350   0.95685   -1.000
 4016.00    1.00750   0.96000   -1.000
 4017.00    0.98883   0.96030   -1.000
 4018.00    1.00596   0.96530   -1.000
 4019.00    1.02579   0.97180   -1.000
 4020.00    1.01440   0.97593   -1.000
 4021.00    0.99821   0.97056   -1.000
 4022.00    1.00318   0.96351   -1.000
 4023.00    0.99439   0.95563   -1.000
 4024.00    0.97525   0.94685   -1.000
 4025.00    0.98623   0.94654   -1.000
 4026.00    1.01157   0.96127   -1.000
 4027.00    1.02699   0.98290   -1.000
 4028.00    1.03112   0.98753   -1.000
 4029.00    1.01804   0.96602   -1.000
 4030.00    0.96159   0.92990   -1.000
 4031.00    0.91435   0.89705   -1.000
 4032.00    0.91410   0.88374   -1.000
 4033.00    0.96798   0.88747   -1.000
 4034.00    0.97036   0.90516   -1.000
 4035.00    0.97639   0.93528   -1.000
 4036.00    1.00000   0.97316   -1.000
 4037.00    1.06922   1.00640   -1.000
 4038.00    1.09534   1.01963   -1.000
 4039.00    1.06225   1.01254   -1.000
 4040.00    1.01433   0.99807  159.691
 4041.00    1.02031   0.99006   -1.000
 4042.00    1.03157   0.98016   -1.000
 4043.00    1.02101   0.95352   -1.000
 4044.00    0.97188   0.90731   -1.000
 4045.00    0.91138   0.87037   -1.000
 4046.00    0.88369   0.87115  204.326
 4047.00    0.94039   0.90945   -1.000
 4048.00    1.01616   0.95970   -1.000
 4049.00    1.04843   0.99314   -1.000
 4050.00    1.04283   1.00521   -1.000
 4051.00    1.04589   1.00763   -1.000
 4052.00    1.04505   0.99983   -1.000
 4053.00    1.01648   0.98508   -1.000
 4054.00    0.99451   0.97497   -1.000
 4055.00    0.99702   0.96813   -1.000
 4056.00    0.99579   0.96335   -1.000
 4057.00    0.99686   0.96060   -1.000
 4058.00    0.99692   0.96706   -1.000
 4059.00    1.00573   0.98302   -1.000
 4060.00    1.03348   0.99315   -1.000
 4061.00    1.03021   0.97675   -1.000
 4062.00    1.00273   0.93751   -1.000
 4063.00    0.94057   0.90421   -1.000
 4064.00    0.93281   0.89104   -1.000
 4065.00    0.94209   0.90059   -1.000
 4066.00    0.96725   0.92437   -1.000
 4067.00    0.98852   0.94416   -1.000
 4068.00    1.02168   0.95545   -1.000
 4069.00    1.01862   0.95686   -1.000
 4070.00    1.01108   0.94049   -1.000
 4071.00    0.98648   0.91620   -1.000
 4072.00    0.97390   0.90957   -1.000
 4073.00    1.00470   0.92568   -1.000
 4074.00    1.00575   0.94087   -1.000
 4075.00    0.96546   0.93141   -1.000
 4076.00    0.92765   0.90355   -1.000
 4077.00    0.88254   0.88140  194.450
 4078.00    0.88354   0.88355  198.090
 4079.00    0.94925   0.91662   -1.000
 4080.00    0.99365   0.95953   -1.000
 4081.00    1.02392   0.98676   -1.000
 4082.00    1.03013   0.98652   -1.000
 4083.00    1.00252   0.97061   -1.000
 4084.00    1.00203   0.95525   -1.000
 4085.00    0.98590   0.95579   -1.000
 4086.00    1.02059   0.97292   -1.000
 4087.00    1.08147   0.99814   -1.000
 4088.00    1.10672   1.01661   -1.000
 4089.00    1.09575   1.02009   -1.000
 4090.00    1.08162   1.01062   -1.000
 4091.00    1.05932   0.99936   -1.000
 4092.00    1.04972   0.99350   -1.000
 4093.00    1.05021   0.98116   -1.000
 4094.00    1.03250   0.96514   -1.000
 4095.00    0.99741   0.93958   -1.000
 4096.00    0.99091   0.90915   -1.000
 4097.00    0.98270   0.88428   -1.000
 4098.00    0.93803   0.85196   -1.000
 4099.00    0.89811   0.80543   -1.000
 4100.00    0.85862   0.74091   -1.000
 4101.00    0.77179   0.69245   -1.000
 4102.00    0.75213   0.68866   -1.000
 4103.00    0.81573   0.74588   -1.000
 4104.00    0.89540   0.82321   -1.000
 4105.00    0.94692   0.88860   -1.000
 4106.00    0.98267   0.92399   -1.000
 4107.00    0.98092   0.94146   -1.000
 4108.00    0.98083   0.94790   -1.000
 4109.00    0.97746   0.94608   -1.000
 4110.00    0.98479   0.94846   -1.000
 4111.00    1.00863   0.95598   -1.000
 4112.00    1.01228   0.96813   -1.000
 4113.00    1.03345   0.98439   -1.000
 4114.00    1.03771   1.00240   -1.000
 4115.00    1.04707   1.01554   -1.000
 4116.00    1.04254   1.01476   -1.000
 4117.00    1.04499   1.00320   -1.000
 4118.00    1.02275   0.98713   -1.000
 4119.00    0.98832   0.97482  174.698
 4120.00    0.99326   0.97661  176.000
 4121.00    1.00935   0.98574   -1.000
 4122.00    1.01377   0.99328   -1.000
 4123.00    1.00467   1.00014  172.160
 4124.00    1.06342   1.01021   -1.000
 4125.00    1.09390   1.02146   -1.000
 4126.00    1.05069   1.02092   -1.000
 4127.00    1.01293   1.01140  169.814
 4128.00    1.01592   1.00151  173.221
 4129.00    1.01571   0.99854  174.502
 4130.00    1.00354   0.99014  175.551
 4131.00    0.98704   0.97154  178.284
 4132.00    1.00072   0.95282   -1.000
 4133.00    0.99183   0.95271   -1.000
 4134.00    0.98969   0.97294   -1.000
 4135.00    0.99778   1.00164  181.544
 4136.00    1.03235   1.02784  172.717
 4137.00    1.06310   1.04726  167.595
 4138.00    1.09766   1.05955   -1.000
 4139.00    1.11793   1.06685   -1.000
 4140.00    1.10133   1.05681   -1.000
 4141.00    1.06823   1.02642   -1.000
 4142.00    1.01822   0.98580   -1.000
 4143.00    0.97357   0.95455   -1.000
 4144.00    0.95677   0.95501  198.472
 4145.00    0.99019   0.98545  189.978
 4146.00    1.02825   1.01733  179.000
 4147.00    1.05345   1.03030   -1.000
 4148.00    1.06755   1.02798   -1.000
 4149.00    1.03345   1.02492  175.844
 4150.00    1.03351   1.02594  180.470
 4151.00    1.02880   1.02812  182.127
 4152.00    1.03622   1.02386  180.722
 4153.00    1.01542   1.01484  180.068
 4154.00    0.98343   1.00644   -1.000
 4155.00    0.99172   1.00523  184.015
 4156.00    1.04075   1.01552   -1.000
 4157.00    1.04644   1.03037  178.683
 4158.00    1.13200   1.04709   -1.000
 4159.00    1.35787   1.06078   -1.000
 4160.00    1.29766   1.06853   -1.000
 4161.00    0.79795   1.07339   -1.000
 4162.00    0.90530   1.07928   -1.000
 4163.00    1.15032   1.08498   -1.000
 4164.00    1.11411   1.08511   -1.000
 4165.00    1.08137   1.07742  170.435
 4166.00    1.06806   1.06062  173.142
 4167.00    1.04798   1.05105  176.945
 4168.00    1.03924   1.05006  179.062
 4169.00    1.05745   1.05387  177.321
 4170.00    1.05135   1.04610  174.824
 4171.00    1.04111   1.01755   -1.000
 4172.00    1.01162   0.98593   -1.000
 4173.00    0.96289   0.97419  199.068
 4174.00    0.96829   0.98680   -1.000
 4175.00    0.99864   1.01039  190.783
 4176.00    1.03331   1.02093  184.775
 4177.00    1.02588   1.02418  185.009
 4178.00    1.02093   1.03164  185.901
 4179.00    1.03467   1.04379  184.740
 4180.00    1.05633   1.05391  181.906
 4181.00    1.05465   1.04866  180.446
 4182.00    1.06415   1.04188   -1.000
 4183.00    1.05521   1.05022  178.132
 4184.00    1.03767   1.06167   -1.000
 4185.00    1.03392   1.06132   -1.000
 4186.00    1.02465   1.04531   -1.000
 4187.00    1.02300   1.02834  178.981
 4188.00    1.01514   1.02667  183.191
 4189.00    1.03221   1.03795  180.986
 4190.00    1.05282   1.04720  177.167
 4191.00    1.06808   1.05256  176.033
 4192.00    1.07045   1.05916  173.435
 4193.00    1.08107   1.07043  169.800
 4194.00    1.07074   1.07205  168.520
 4195.00    1.02934   1.05238   -1.000
 4196.00    0.99716   1.02385   -1.000
 4197.00    0.98926   0.99985  188.764
 4198.00    0.97509   0.98477  191.606
 4199.00    0.98920   0.97688  191.582
 4200.00    1.01048   0.98065   -1.000
 4201.00    1.00224   0.98889  186.493
 4202.00    1.00881   0.99540  185.999
 4203.00    1.02523   1.01117  184.541
 4204.00    1.02772   1.03419  181.758
 4205.00    1.03139   1.05413   -1.000
 4206.00    1.06492   1.06938  176.488
 4207.00    1.07110   1.08128  172.152
 4208.00    1.08265   1.08498  169.161
 4209.00    1.08734   1.08232  168.617
 4210.00    1.07069   1.07935  169.248
 4211.00    1.09044   1.08353  168.736
 4212.00    1.09740   1.09138  167.782
 4213.00    1.08419   1.08227  169.414
 4214.00    1.04678   1.05690  175.468
 4215.00    1.01907   1.03687   -1.000
 4216.00    0.99375   1.03130   -1.000
 4217.00    1.01647   1.05234   -1.000
 4218.00    1.06145   1.08175   -1.000
 4219.00    1.09730   1.10030  161.033
 4220.00    1.10117   1.10731  156.998
 4221.00    1.09564   1.10218  155.797
 4222.00    1.07771   1.07917  157.941
 4223.00    1.04657   1.03614  165.243
 4224.00    0.99070   0.97214   -1.000
 4225.00    0.91417   0.91164  196.243
 4226.00    0.84701   0.87631   -1.000
 4227.00    0.85435   0.89392   -1.000
 4228.00    0.93969   0.95896   -1.000
 4229.00    1.02150   1.03492  188.086
 4230.00    1.07918   1.07681  170.283
 4231.00    1.09692   1.08305  162.650
 4232.00    1.08283   1.07243  162.260
 4233.00    1.04820   1.05594  166.215
 4234.00    1.06206   1.04134   -1.000
 4235.00    1.03822   1.03936  172.131
 4236.00    1.02811   1.04217  176.195
 4237.00    1.04723   1.04822  178.798
 4238.00    1.06132   1.06266  176.916
 4239.00    1.04593   1.07641   -1.000
 4240.00    1.04188   1.09207   -1.000
 4241.00    1.06322   1.10913   -1.000
 4242.00    1.08608   1.12403   -1.000
 4243.00    1.09642   1.13590   -1.000
 4244.00    1.11442   1.14053   -1.000
 4245.00    1.12668   1.13568  158.365
 4246.00    1.09596   1.11098  160.917
 4247.00    1.03617   1.07624   -1.000
 4248.00    1.02218   1.05234   -1.000
 4249.00    1.03497   1.04049  178.645
 4250.00    1.04223   1.04295  179.926
 4251.00    1.05919   1.05744  179.031
 4252.00    1.08380   1.07164  173.647
 4253.00    1.07124   1.07247  169.448
 4254.00    1.05955   1.06324  171.112
 4255.00    1.06662   1.06902  175.169
 4256.00    1.08064   1.09218  172.013
 4257.00    1.08671   1.10651   -1.000
 4258.00    1.06404   1.09128   -1.000
 4259.00    1.02728   1.05649   -1.000
 4260.00    0.99432   1.04107   -1.000
 4261.00    1.00252   1.05766   -1.000
 4262.00    1.06883   1.09795   -1.000
 4263.00    1.11022   1.13609   -1.000
 4264.00    1.12807   1.15807   -1.000
 4265.00    1.14667   1.15841  155.432
 4266.00    1.15173   1.15069  155.534
 4267.00    1.12049   1.13648  158.522
 4268.00    1.07966   1.11142   -1.000
 4269.00    1.07267   1.07626  168.996
 4270.00    1.02793   1.03732  176.101
 4271.00    0.97519   1.00349   -1.000
 4272.00    0.95291   0.98977   -1.000
 4273.00    0.96101   0.99850   -1.000
 4274.00    0.97417   1.01982   -1.000
 4275.00    0.99654   1.04725   -1.000
 4276.00    1.06330   1.09031   -1.000
 4277.00    1.10374   1.12967   -1.000
 4278.00    1.09849   1.14374   -1.000
 4279.00    1.07853   1.13274   -1.000
 4280.00    1.05456   1.10950   -1.000
 4281.00    1.05238   1.09749   -1.000
 4282.00    1.05668   1.10001   -1.000
 4283.00    1.06659   1.10277   -1.000
 4284.00    1.06911   1.10274   -1.000
 4285.00    1.03807   1.09702   -1.000
 4286.00    1.01520   1.08344   -1.000
 4287.00    0.99451   1.06235   -1.000
 4288.00    0.96562   1.03348   -1.000
 4289.00    0.92982   1.00180   -1.000
 4290.00    0.92290   0.99124   -1.000
 4291.00    0.95681   1.01288   -1.000
 4292.00    1.00294   1.04628   -1.000
 4293.00    1.03829   1.06646   -1.000
 4294.00    1.03751   1.06195   -1.000
 4295.00    1.02123   1.05296   -1.000
 4296.00    1.01048   1.04235   -1.000
 4297.00    0.98093   1.01644   -1.000
 4298.00    0.92624   0.97678   -1.000
 4299.00    0.86922   0.93701   -1.000
 4300.00    0.81895   0.91269   -1.000
 4301.00    0.81686   0.91109   -1.000
 4302.00    0.84221   0.92330   -1.000
 4303.00    0.86454   0.93763   -1.000
 4304.00    0.89567   0.95265   -1.000
 4305.00    0.90679   0.95328   -1.000
 4306.00    0.88231   0.93445   -1.000
 4307.00    0.85958   0.90970   -1.000
 4308.00    0.82961   0.89546   -1.000
 4309.00    0.81476   0.90690   -1.000
 4310.00    0.86718   0.93641   -1.000
 4311.00    0.90501   0.96841   -1.000
 4312.00    0.92869   0.99705   -1.000
 4313.00    0.98221   1.02702   -1.000
 4314.00    1.02814   1.06940   -1.000
 4315.00    1.06477   1.12454   -1.000
 4316.00    1.15800   1.18323   -1.000
 4317.00    1.21347   1.22208  150.484
 4318.00    1.21168   1.22888  146.028
 4319.00    1.20924   1.21684  146.510
 4320.00    1.19466   1.20033  149.034
 4321.00    1.16324   1.17659  152.649
 4322.00    1.10963   1.13744   -1.000
 4323.00    1.04998   1.08742   -1.000
 4324.00    0.99944   1.03389   -1.000
 4325.00    0.96227   1.01211   -1.000
 4326.00    0.98030   1.03952   -1.000
 4327.00    1.07001   1.10556   -1.000
 4328.00    1.15146   1.16215  165.801
 4329.00    1.17372   1.19006  155.094
 4330.00    1.15510   1.19064   -1.000
 4331.00    1.15271   1.18793   -1.000
 4332.00    1.16755   1.19527   -1.000
 4333.00    1.15845   1.19931   -1.000
 4334.00    1.15918   1.19000   -1.000
 4335.00    1.17103   1.16026  148.482
 4336.00    1.12557   1.10366  151.884
 4337.00    1.06199   1.01852   -1.000
 4338.00    0.99682   0.92212   -1.000
 4339.00    0.89780   0.85475   -1.000
 4340.00    0.84595   0.83219  210.057
 4341.00    0.86638   0.87379  212.288
 4342.00    0.94976   0.96081   -1.000
 4343.00    1.02260   1.05204   -1.000
 4344.00    1.09218   1.10608  166.306
 4345.00    1.13486   1.14102  161.393
 4346.00    1.15982   1.16938  157.197
 4347.00    1.17186   1.19497   -1.000
 4348.00    1.18491   1.21167   -1.000
 4349.00    1.16278   1.20340   -1.000
 4350.00    1.12824   1.16688   -1.000
 4351.00    1.08540   1.12326   -1.000
 4352.00    1.03939   1.10535   -1.000
 4353.00    1.08453   1.12504   -1.000
 4354.00    1.14798   1.16703   -1.000
 4355.00    1.16436   1.20127   -1.000
 4356.00    1.19392   1.21674   -1.000
 4357.00    1.22233   1.22031  151.198
 4358.00    1.19238   1.21671   -1.000
 4359.00    1.16295   1.21379   -1.000
 4360.00    1.15286   1.22205   -1.000
 4361.00    1.18871   1.23899   -1.000
 4362.00    1.23910   1.25503  148.504
 4363.00    1.24077   1.26509   -1.000
 4364.00    1.24709   1.27102   -1.000
 4365.00    1.24507   1.26991   -1.000
 4366.00    1.23378   1.25321   -1.000
 4367.00    1.17994   1.22954   -1.000
 4368.00    1.17279   1.21409   -1.000
 4369.00    1.17559   1.20902   -1.000
 4370.00    1.18726   1.20766   -1.000
 4371.00    1.18702   1.20261  154.060
 4372.00    1.18303   1.18651  154.129
 4373.00    1.16179   1.16170  156.212
 4374.00    1.12429   1.13432  162.930
 4375.00    1.11584   1.12705  168.804
 4376.00    1.13665   1.15295  167.826
 4377.00    1.19792   1.19427  160.329
 4378.00    1.22529   1.22170  152.675
 4379.00    1.19129   1.22232   -1.000
 4380.00    1.19185   1.19913  151.886
 4381.00    1.18574   1.15307   -1.000
 4382.00    1.11210   1.08514   -1.000
 4383.00    1.00941   1.02853   -1.000
 4384.00    0.96525   1.01681   -1.000
 4385.00    1.04251   1.05865   -1.000
 4386.00    1.11576   1.11608  180.835
 4387.00    1.16871   1.15446  164.780
 4388.00    1.13840   1.16573   -1.000
 4389.00    1.13920   1.16742   -1.000
 4390.00    1.14650   1.16998   -1.000
 4391.00    1.16411   1.17800  162.921
 4392.00    1.19838   1.19092  159.483
 4393.00    1.19931   1.19355  156.275
 4394.00    1.18075   1.18297  157.850
 4395.00    1.16846   1.18455  161.163
 4396.00    1.18663   1.20782   -1.000
 4397.00    1.22364   1.23212  152.157
 4398.00    1.23472   1.23281  148.486
 4399.00    1.19302   1.21367   -1.000
 4400.00    1.17157   1.19635   -1.000
 4401.00    1.17768   1.19013  161.042
 4402.00    1.20560   1.18549  158.642
 4403.00    1.18835   1.16856  156.434
 4404.00    1.13297   1.13831  162.834
 4405.00    1.09501   1.12832   -1.000
 4406.00    1.12416   1.14247   -1.000
 4407.00    1.16803   1.16941  166.208
 4408.00    1.17308   1.18878  164.099
 4409.00    1.19147   1.21725   -1.000
 4410.00    1.22407   1.25648   -1.000
 4411.00    1.24254   1.28586   -1.000
 4412.00    1.27195   1.28400  144.374
 4413.00    1.27537   1.25795  143.344
 4414.00    1.20447   1.21382  147.961
 4415.00    1.14884   1.17676   -1.000
 4416.00    1.15741   1.17499   -1.000
 4417.00    1.17985   1.20826   -1.000
 4418.00    1.21109   1.25500   -1.000
 4419.00    1.25075   1.29028   -1.000
 4420.00    1.26930   1.30015   -1.000
 4421.00    1.25027   1.28484   -1.000
 4422.00    1.21299   1.26587   -1.000
 4423.00    1.21256   1.25696   -1.000
 4424.00    1.22750   1.25846   -1.000
 4425.00    1.21771   1.25603   -1.000
 4426.00    1.20677   1.24988   -1.000
 4427.00    1.18874   1.25286   -1.000
 4428.00    1.18942   1.26310   -1.000
 4429.00    1.20340   1.27221   -1.000
 4430.00    1.20369   1.27817   -1.000
 4431.00    1.21482   1.28039   -1.000
 4432.00    1.23198   1.27761   -1.000
 4433.00    1.20868   1.25945   -1.000
 4434.00    1.16259   1.22930   -1.000
 4435.00    1.13235   1.21102   -1.000
 4436.00    1.15391   1.23378   -1.000
 4437.00    1.22483   1.28375   -1.000
 4438.00    1.26548   1.32964   -1.000
 4439.00    1.29361   1.34295   -1.000
 4440.00    1.29011   1.31905   -1.000
 4441.00    1.24228   1.27810   -1.000
 4442.00    1.20700   1.24449   -1.000
 4443.00    1.18204   1.24251   -1.000
 4444.00    1.19938   1.27176   -1.000
 4445.00    1.25708   1.31351   -1.000
 4446.00    1.29431   1.33952   -1.000
 4447.00    1.28787   1.34323   -1.000
 4448.00    1.28921   1.34138   -1.000
 4449.00    1.29468   1.34106   -1.000
 4450.00    1.26448   1.33941   -1.000
 4451.00    1.24528   1.33395   -1.000
 4452.00    1.27125   1.32253   -1.000
 4453.00    1.25857   1.29267   -1.000
 4454.00    1.21403   1.25322   -1.000
 4455.00    1.18006   1.22647   -1.000
 4456.00    1.20063   1.22904   -1.000
 4457.00    1.24254   1.25058  159.127
 4458.00    1.22401   1.26239   -1.000
 4459.00    1.22336   1.26346   -1.000
 4460.00    1.21748   1.26151   -1.000
 4461.00    1.21792   1.26478   -1.000
 4462.00    1.22734   1.27908   -1.000
 4463.00    1.26636   1.30252   -1.000
 4464.00    1.29573   1.32175   -1.000
 4465.00    1.29476   1.32771   -1.000
 4466.00    1.30085   1.32132   -1.000
 4467.00    1.26792   1.30720   -1.000
 4468.00    1.23927   1.29486   -1.000
 4469.00    1.23224   1.29097   -1.000
 4470.00    1.23732   1.30458   -1.000
 4471.00    1.26897   1.33496   -1.000
 4472.00    1.31176   1.36852   -1.000
 4473.00    1.34171   1.39094   -1.000
 4474.00    1.35182   1.39675   -1.000
 4475.00    1.37274   1.39672   -1.000
 4476.00    1.36832   1.39766   -1.000
 4477.00    1.38859   1.40346  135.051
 4478.00    1.38982   1.39925  134.434
 4479.00    1.34789   1.37024   -1.000
 4480.00    1.30049   1.32967   -1.000
 4481.00    1.27762   1.30641   -1.000
 4482.00    1.29902   1.31458  151.396
 4483.00    1.31557   1.34718   -1.000
 4484.00    1.35070   1.39238   -1.000
 4485.00    1.39037   1.42292   -1.000
 4486.00    1.40701   1.42906   -1.000
 4487.00    1.38032   1.41087   -1.000
 4488.00    1.33614   1.38373   -1.000
 4489.00    1.29673   1.36153   -1.000
 4490.00    1.30060   1.36207   -1.000
 4491.00    1.33311   1.38154   -1.000
 4492.00    1.34701   1.39498   -1.000
 4493.00    1.35505   1.38612   -1.000
 4494.00    1.33538   1.36305   -1.000
 4495.00    1.30788   1.35397   -1.000
 4496.00    1.30619   1.36288   -1.000
 4497.00    1.32074   1.38199   -1.000
 4498.00    1.35884   1.39849   -1.000
 4499.00    1.38220   1.40330   -1.000
 4500.00    1.36320   1.39359   -1.000
 4501.00    1.35743   1.39132   -1.000
 4502.00    1.37614   1.40862   -1.000
 4503.00    1.40599   1.44367   -1.000
 4504.00    1.42692   1.46960   -1.000
 4505.00    1.41746   1.47946   -1.000
 4506.00    1.40871   1.47097   -1.000
 4507.00    1.40315   1.45695   -1.000
 4508.00    1.41021   1.45289   -1.000
 4509.00    1.43130   1.45619   -1.000
 4510.00    1.43195   1.46292   -1.000
 4511.00    1.42937   1.46109   -1.000
 4512.00    1.41078   1.44828   -1.000
 4513.00    1.39128   1.43507   -1.000
 4514.00    1.39322   1.42623   -1.000
 4515.00    1.39439   1.42528   -1.000
 4516.00    1.40781   1.42691   -1.000
 4517.00    1.39755   1.42453   -1.000
 4518.00    1.38338   1.41711   -1.000
 4519.00    1.37716   1.41728   -1.000
 4520.00    1.40049   1.42997   -1.000
 4521.00    1.40911   1.43867   -1.000
 4522.00    1.36996   1.43342   -1.000
 4523.00    1.34513   1.41418   -1.000
 4524.00    1.35166   1.39748   -1.000
 4525.00    1.35019   1.38540   -1.000
 4526.00    1.32032   1.36447   -1.000
 4527.00    1.28633   1.33640   -1.000
 4528.00    1.26415   1.31262   -1.000
 4529.00    1.27790   1.30807   -1.000
 4530.00    1.30390   1.32100   -1.000
 4531.00    1.32929   1.33940  151.366
 4532.00    1.32604   1.34359   -1.000
 4533.00    1.30371   1.32677   -1.000
 4534.00    1.26656   1.30690   -1.000
 4535.00    1.24999   1.30842   -1.000
 4536.00    1.32518   1.34033  154.833
 4537.00    1.40574   1.39301  145.580
 4538.00    1.46315   1.43910  137.247
 4539.00    1.43941   1.45435  134.107
 4540.00    1.41064   1.44454   -1.000
 4541.00    1.42215   1.43210  139.038
 4542.00    1.41602   1.43147  138.619
 4543.00    1.40571   1.43649   -1.000
 4544.00    1.38523   1.43488   -1.000
 4545.00    1.38682   1.42515   -2.000
 4546.00    1.38648   1.41839   -2.000
 4547.00    1.21154   1.41393   -2.000
 4548.00    0.33356   1.39876   -1.000
 4549.00    0.04010   1.37970   -1.000
 4550.00    0.20055   1.37943   -1.000
 4551.00    0.97649   1.40251   -1.000
 4552.00    0.51907   1.41633   -1.000
 4553.00    0.96882   1.40515   -1.000
 4554.00    1.34643   1.38640   -1.000
 4555.00    1.33498   1.38215   -1.000
 4556.00    1.36493   1.40538   -1.000
 4557.00    1.41986   1.44675   -1.000
 4558.00    1.46255   1.48211   -1.000
 4559.00    1.47103   1.49732   -1.000
 4560.00    1.45651   1.50672   -1.000
 4561.00    1.45606   1.50508   -1.000
 4562.00    1.43391   1.49015   -1.000
 4563.00    1.41910   1.46636   -1.000
 4564.00    1.39262   1.44745   -1.000
 4565.00    1.38514   1.44682   -1.000
 4566.00    1.42455   1.46592   -1.000
 4567.00    1.47541   1.49170  135.936
 4568.00    1.50485   1.51068  132.443
 4569.00    1.49643   1.50621  131.381
 4570.00    1.46351   1.48476   -1.000
 4571.00    1.40300   1.45668   -1.000
 4572.00    1.38987   1.44551   -1.000
 4573.00    1.42748   1.46760   -1.000
 4574.00    1.46372   1.49584   -1.000
 4575.00    1.47138   1.50849   -1.000
 4576.00    1.45643   1.50485   -1.000
 4577.00    1.46086   1.49700   -1.000
 4578.00    1.46013   1.48315   -1.000
 4579.00    1.44106   1.45830   -1.000
 4580.00    1.41120   1.43293   -1.000
 4581.00    1.40128   1.42368   -1.000
 4582.00    1.41412   1.42749  142.932
 4583.00    1.42240   1.43618  140.865
 4584.00    1.42510   1.44176   -1.000
 4585.00    1.42533   1.44371   -1.000
 4586.00    1.43025   1.44907   -1.000
 4587.00    1.44891   1.46236  139.053
 4588.00    1.47507   1.48381  135.331
 4589.00    1.49685   1.49698  132.618
 4590.00    1.48320   1.49759  132.667
 4591.00    1.44416   1.48829   -1.000
 4592.00    1.39819   1.46989   -1.000
 4593.00    1.40524   1.46186   -1.000
 4594.00    1.42552   1.46494   -1.000
 4595.00    1.42961   1.47128   -1.000
 4596.00    1.43636   1.47904   -1.000
 4597.00    1.46063   1.48796   -1.000
 4598.00    1.48569   1.49128  136.630
 4599.00    1.48060   1.48849  136.386
 4600.00    1.45355   1.47862   -1.000
 4601.00    1.42151   1.46871   -1.000
 4602.00    1.39926   1.46851   -1.000
 4603.00    1.42527   1.47347   -1.000
 4604.00    1.45377   1.47933   -1.000
 4605.00    1.47099   1.48441  136.390
 4606.00    1.47624   1.49136  136.079
 4607.00    1.49213   1.50583  134.473
 4608.00    1.52734   1.52556  131.733
 4609.00    1.54130   1.54948  128.951
 4610.00    1.54826   1.55562  127.588
 4611.00    1.53304   1.54564  128.326
 4612.00    1.51188   1.53344   -1.000
 4613.00    1.50374   1.52562   -1.000
 4614.00    1.48090   1.52772   -1.000
 4615.00    1.48256   1.53566   -1.000
 4616.00    1.52074   1.54033  130.371
 4617.00    1.51703   1.53950   -1.000
 4618.00    1.50594   1.53727   -1.000
 4619.00    1.51208   1.53524   -1.000
 4620.00    1.53523   1.54072  131.600
 4621.00    1.52348   1.55320   -1.000
 4622.00    1.53405   1.56296   -1.000
 4623.00    1.55854   1.56307  128.293
 4624.00    1.55441   1.55517  128.632
 4625.00    1.53536   1.54862  128.915
 4626.00    1.50859   1.54066   -1.000
 4627.00    1.51363   1.53950   -1.000
 4628.00    1.49450   1.54119   -1.000
 4629.00    1.47433   1.54191   -1.000
 4630.00    1.47394   1.54387   -1.000
 4631.00    1.52634   1.55188   -1.000
 4632.00    1.54726   1.55683  129.178
 4633.00    1.53044   1.55109   -1.000
 4634.00    1.52280   1.53954  131.898
 4635.00    1.51388   1.53467   -1.000
 4636.00    1.49483   1.53204   -1.000
 4637.00    1.49527   1.52408   -1.000
 4638.00    1.48991   1.51446   -1.000
 4639.00    1.46850   1.50927   -1.000
 4640.00    1.48131   1.51613   -1.000
 4641.00    1.52851   1.53338  133.729
 4642.00    1.55546   1.54850  130.438
 4643.00    1.55278   1.55531  128.812
 4644.00    1.54125   1.54148  129.536
 4645.00    1.49570   1.52214   -1.000
 4646.00    1.45972   1.49334   -1.000
 4647.00    1.45082   1.47423   -1.000
 4648.00    1.47455   1.48159  139.878
 4649.00    1.51271   1.50694  137.193
 4650.00    1.51542   1.53441   -1.000
 4651.00    1.51615   1.55009   -1.000
 4652.00    1.51582   1.55300   -1.000
 4653.00    1.50187   1.54805   -1.000
 4654.00    1.49689   1.53511   -1.000
 4655.00    1.48772   1.52340   -1.000
 4656.00    1.48273   1.52400   -1.000
 4657.00    1.49968   1.53981   -1.000
 4658.00    1.53967   1.57431   -1.000
 4659.00    1.59398   1.61119  127.107
 4660.00    1.62883   1.63160  124.459
 4661.00    1.59303   1.62261   -1.000
 4662.00    1.55488   1.60173   -1.000
 4663.00    1.52522   1.58078   -1.000
 4664.00    1.51474   1.56017   -1.000
 4665.00    1.52833   1.53838  132.090
 4666.00    1.48366   1.50799   -1.000
 4667.00    1.43638   1.47323   -1.000
 4668.00    1.40905   1.46056   -1.000
 4669.00    1.42495   1.47771   -1.000
 4670.00    1.45199   1.51326   -1.000
 4671.00    1.51152   1.54490   -1.000
 4672.00    1.53316   1.56219   -1.000
 4673.00    1.53268   1.56106   -1.000
 4674.00    1.51977   1.56209   -1.000
 4675.00    1.54067   1.57068   -1.000
 4676.00    1.58037   1.58317  129.202
 4677.00    1.58080   1.58576  127.305
 4678.00    1.56925   1.56889  128.164
 4679.00    1.52790   1.54753   -1.000
 4680.00    1.51238   1.53008   -1.000
 4681.00    1.50219   1.52082   -1.000
 4682.00    1.50338   1.52310   -1.000
 4683.00    1.53606   1.53717  135.051
 4684.00    1.54545   1.55422  131.571
 4685.00    1.55122   1.56091  130.002
 4686.00    1.56513   1.56111  130.570
 4687.00    1.55471   1.55845  130.607
 4688.00    1.54967   1.55762  131.385
 4689.00    1.54690   1.56064  131.342
 4690.00    1.55502   1.56277  131.379
 4691.00    1.55082   1.55925  132.375
 4692.00    1.54215   1.56062   -1.000
 4693.00    1.58291   1.57037  130.863
 4694.00    1.61271   1.58132   -1.000
 4695.00    1.60981   1.58860  125.957
 4696.00    1.61201   1.59276  124.476
 4697.00    1.60585   1.58326  125.294
 4698.00    1.57028   1.56151  129.116
 4699.00    1.55404   1.54029  132.981
 4700.00    1.56411   1.53025   -1.000
 4701.00    1.56375   1.52376   -1.000
 4702.00    1.54617   1.51336   -1.000
 4703.00    1.52618   1.50756  136.723
 4704.00    1.54759   1.51896   -1.000
 4705.00    1.57003   1.53907   -1.000
 4706.00    1.56399   1.54640  132.588
 4707.00    1.52988   1.53450  134.701
 4708.00    1.50746   1.51815  137.434
 4709.00    1.51856   1.51890  138.629
 4710.00    1.53397   1.53625  137.710
 4711.00    1.55628   1.55715  133.448
 4712.00    1.59413   1.57044  129.854
 4713.00    1.57788   1.56785  128.757
 4714.00    1.56919   1.55578  130.169
 4715.00    1.57133   1.55529  132.676
 4716.00    1.56077   1.57070  132.470
 4717.00    1.59048   1.59577  129.678
 4718.00    1.62391   1.61512  127.222
 4719.00    1.59517   1.62528   -1.000
 4720.00    1.61957   1.63047  126.116
 4721.00    1.61753   1.62983  125.709
 4722.00    1.59408   1.62485   -1.000
 4723.00    1.60341   1.62344   -1.000
 4724.00    1.61362   1.63130  126.876
 4725.00    1.60826   1.63415   -1.000
 4726.00    1.57846   1.62322   -1.000
 4727.00    1.53331   1.59579   -1.000
 4728.00    1.51781   1.56040   -1.000
 4729.00    1.51277   1.54688   -1.000
 4730.00    1.52674   1.54701   -1.000
 4731.00    1.54987   1.55458  134.750
 4732.00    1.56542   1.57105  133.705
 4733.00    1.56436   1.58829   -1.000
 4734.00    1.56587   1.59644   -1.000
 4735.00    1.56007   1.59751   -1.000
 4736.00    1.57826   1.59291  129.531
 4737.00    1.60249   1.59158  131.051
 4738.00    1.59908   1.59748  131.110
 4739.00    1.59544   1.60818  129.313
 4740.00    1.59497   1.61330  129.495
 4741.00    1.58171   1.60931   -1.000
 4742.00    1.57841   1.61041   -1.000
 4743.00    1.58835   1.61884   -1.000
 4744.00    1.60722   1.62524  127.858
 4745.00    1.60118   1.63106   -1.000
 4746.00    1.60794   1.63422   -1.000
 4747.00    1.63703   1.64417  127.280
 4748.00    1.65233   1.65571  125.979
 4749.00    1.64507   1.66030  125.785
 4750.00    1.63269   1.66498   -1.000
 4751.00    1.61136   1.66664   -1.000
 4752.00    1.60942   1.65863   -1.000
 4753.00    1.61943   1.64443   -1.000
 4754.00    1.60189   1.63030   -1.000
 4755.00    1.59101   1.62779   -1.000
 4756.00    1.61579   1.63177  130.164
 4757.00    1.61769   1.63844   -1.000
 4758.00    1.58753   1.64375   -1.000
 4759.00    1.58840   1.64681   -1.000
 4760.00    1.59701   1.64558   -1.000
 4761.00    1.57146   1.63494   -1.000
 4762.00    1.53453   1.61409   -1.000
 4763.00    1.51795   1.59125   -1.000
 4764.00    1.50143   1.57640   -1.000
 4765.00    1.52663   1.57318   -1.000
 4766.00    1.55083   1.57707   -1.000
 4767.00    1.57975   1.58983  136.476
 4768.00    1.58546   1.61221   -1.000
 4769.00    1.58371   1.63969   -1.000
 4770.00    1.60360   1.65161   -1.000
 4771.00    1.58114   1.64720   -1.000
 4772.00    1.58974   1.63631   -1.000
 4773.00    1.58433   1.63645   -1.000
 4774.00    1.60892   1.65522   -1.000
 4775.00    1.62323   1.67075   -1.000
 4776.00    1.60848   1.67594   -1.000
 4777.00    1.62887   1.67398   -1.000
 4778.00    1.62846   1.66981   -1.000
 4779.00    1.62169   1.66169   -1.000
 4780.00    1.58530   1.65359   -1.000
 4781.00    1.58672   1.64893   -1.000
 4782.00    1.60339   1.64311   -1.000
 4783.00    1.57783   1.63135   -1.000
 4784.00    1.57678   1.62503   -1.000
 4785.00    1.58222   1.62506   -1.000
 4786.00    1.58683   1.62536   -1.000
 4787.00    1.56735   1.62374   -1.000
 4788.00    1.58476   1.62623   -1.000
 4789.00    1.58309   1.63094   -1.000
 4790.00    1.59270   1.63836   -1.000
 4791.00    1.59673   1.65387   -1.000
 4792.00    1.63167   1.67503   -1.000
 4793.00    1.64510   1.69832   -1.000
 4794.00    1.66939   1.71967   -1.000
 4795.00    1.67502   1.73481   -1.000
 4796.00    1.68672   1.73239   -1.000
 4797.00    1.65081   1.71764   -1.000
 4798.00    1.60565   1.69387   -1.000
 4799.00    1.61378   1.67792   -1.000
 4800.00    1.63094   1.67701   -1.000
 4801.00    1.64146   1.69490   -1.000
 4802.00    1.65854   1.71671   -1.000
 4803.00    1.67937   1.73093   -1.000
 4804.00    1.65072   1.71663   -1.000
 4805.00    1.60406   1.69493   -1.000
 4806.00    1.60365   1.68308   -1.000
 4807.00    1.61526   1.67836   -1.000
 4808.00    1.61449   1.67905   -1.000
 4809.00    1.61127   1.68875   -1.000
 4810.00    1.62365   1.69914   -1.000
 4811.00    1.64595   1.70403   -1.000
 4812.00    1.65135   1.70829   -1.000
 4813.00    1.65744   1.71274   -1.000
 4814.00    1.67618   1.71957   -1.000
 4815.00    1.68419   1.72814   -1.000
 4816.00    1.68688   1.73699   -1.000
 4817.00    1.69111   1.74508   -1.000
 4818.00    1.69792   1.74952   -1.000
 4819.00    1.67761   1.75091   -1.000
 4820.00    1.65801   1.75148   -1.000
 4821.00    1.66891   1.74364   -1.000
 4822.00    1.64096   1.72072   -1.000
 4823.00    1.63537   1.68936   -1.000
 4824.00    1.62992   1.66867   -1.000
 4825.00    1.65234   1.67729   -1.000
 4826.00    1.67587   1.69967   -1.000
 4827.00    1.65892   1.71593   -1.000
 4828.00    1.65157   1.71261   -1.000
 4829.00    1.65652   1.70247   -1.000
 4830.00    1.65589   1.69795   -1.000
 4831.00    1.63288   1.69296   -1.000
 4832.00    1.63042   1.68288   -1.000
 4833.00    1.65638   1.68556   -1.000
 4834.00    1.66686   1.69737   -1.000
 4835.00    1.67720   1.71349   -1.000
 4836.00    1.67245   1.72070   -1.000
 4837.00    1.66171   1.72006   -1.000
 4838.00    1.65009   1.71475   -1.000
 4839.00    1.62909   1.70206   -1.000
 4840.00    1.64003   1.69136   -1.000
 4841.00    1.63890   1.68780   -1.000
 4842.00    1.64329   1.68815   -1.000
 4843.00    1.62983   1.68727   -1.000
 4844.00    1.64304   1.68978   -1.000
 4845.00    1.69447   1.70206  128.408
 4846.00    1.70658   1.71946  126.354
 4847.00    1.68445   1.71817   -1.000
 4848.00    1.63594   1.70397   -1.000
 4849.00    1.62637   1.69415   -1.000
 4850.00    1.63812   1.69809   -1.000
 4851.00    1.64947   1.70289   -1.000
 4852.00    1.65476   1.69998   -1.000
 4853.00    1.65258   1.68717   -1.000
 4854.00    1.62777   1.65683   -1.000
 4855.00    1.57802   1.61908   -1.000
 4856.00    1.56533   1.59342   -1.000
 4857.00    1.58373   1.58567  137.351
 4858.00    1.54973   1.56152  135.910
 4859.00    1.44063   1.47762   -1.000
 4860.00    1.29138   1.33145   -1.000
 4861.00    1.19720   1.21305   -1.000
 4862.00    1.23237   1.20592   -1.000
 4863.00    1.33773   1.32408  166.782
 4864.00    1.45498   1.45721  151.767
 4865.00    1.52082   1.54711   -1.000
 4866.00    1.55554   1.59731   -1.000
 4867.00    1.59606   1.62933   -1.000
 4868.00    1.61477   1.65310   -1.000
 4869.00    1.61155   1.65928   -1.000
 4870.00    1.59118   1.63712   -1.000
 4871.00    1.56518   1.59271   -1.000
 4872.00    1.53372   1.56830   -1.000
 4873.00    1.57263   1.59215   -1.000
 4874.00    1.61747   1.64027   -1.000
 4875.00    1.62807   1.67747   -1.000
 4876.00    1.61868   1.68938   -1.000
 4877.00    1.61888   1.69326   -1.000
 4878.00    1.64420   1.70403   -1.000
 4879.00    1.65740   1.72245   -1.000
 4880.00    1.64977   1.74037   -1.000
 4881.00    1.63949   1.74021   -1.000
 4882.00    1.62309   1.72282   -1.000
 4883.00    1.61914   1.71538   -1.000
 4884.00    1.63748   1.71169   -1.000
 4885.00    1.63801   1.70103   -1.000
 4886.00    1.63195   1.69005   -1.000
 4887.00    1.63581   1.68665   -1.000
 4888.00    1.64077   1.68881   -1.000
 4889.00    1.63288   1.67865   -1.000
 4890.00    1.57775   1.65120   -1.000
 4891.00    1.55337   1.62549   -1.000
 4892.00    1.61059   1.63909   -1.000
 4893.00    1.65894   1.70211   -1.000
 4894.00    1.73766   1.76931   -1.000
 4895.00    1.78573   1.81968   -1.000
 4896.00    1.78413   1.83875   -1.000
 4897.00    1.79427   1.84209   -1.000
 4898.00    1.77839   1.83393   -1.000
 4899.00    1.75123   1.81423   -1.000
 4900.00    1.70524   1.79161   -1.000
 4901.00    1.70187   1.78222   -1.000
 4902.00    1.70483   1.77913   -1.000
 4903.00    1.68208   1.76827   -1.000
 4904.00    1.69429   1.76211   -1.000
 4905.00    1.73342   1.78418   -1.000
 4906.00    1.76316   1.81596   -1.000
 4907.00    1.76906   1.82545   -1.000
 4908.00    1.75195   1.80918   -1.000
 4909.00    1.71545   1.78086   -1.000
 4910.00    1.69538   1.75425   -1.000
 4911.00    1.70624   1.74302   -1.000
 4912.00    1.74333   1.75723  131.613
 4913.00    1.74941   1.77879   -1.000
 4914.00    1.74071   1.79937   -1.000
 4915.00    1.75762   1.81602   -1.000
 4916.00    1.76972   1.81878   -1.000
 4917.00    1.72549   1.79139   -1.000
 4918.00    1.65092   1.72974   -1.000
 4919.00    1.57519   1.64875   -1.000
 4920.00    1.54525   1.59599   -1.000
 4921.00    1.59760   1.59365  145.083
 4922.00    1.65910   1.64234  140.289
 4923.00    1.69545   1.68832  135.170
 4924.00    1.69213   1.71211  133.194
 4925.00    1.69245   1.72650   -1.000
 4926.00    1.73521   1.75772   -1.000
 4927.00    1.78343   1.79519  127.907
 4928.00    1.80344   1.82646   -1.000
 4929.00    1.81542   1.85091   -1.000
 4930.00    1.82290   1.86102   -1.000
 4931.00    1.81750   1.85484   -1.000
 4932.00    1.78410   1.82576   -1.000
 4933.00    1.69879   1.78070   -1.000
 4934.00    1.66612   1.74561   -1.000
 4935.00    1.70255   1.74912   -1.000
 4936.00    1.73923   1.76947   -1.000
 4937.00    1.69619   1.75849   -1.000
 4938.00    1.65824   1.71788   -1.000
 4939.00    1.64983   1.69558   -1.000
 4940.00    1.69395   1.71514   -1.000
 4941.00    1.75791   1.76895  131.689
 4942.00    1.79476   1.81859   -1.000
 4943.00    1.82003   1.84715   -1.000
 4944.00    1.79319   1.85437   -1.000
 4945.00    1.78405   1.84815   -1.000
 4946.00    1.79923   1.83973   -1.000
 4947.00    1.80638   1.84286   -1.000
 4948.00    1.80914   1.85991   -1.000
 4949.00    1.83115   1.87796   -1.000
 4950.00    1.84258   1.88613   -1.000
 4951.00    1.82871   1.88578   -1.000
 4952.00    1.81394   1.88003   -1.000
 4953.00    1.79746   1.86788   -1.000
 4954.00    1.79011   1.85188   -1.000
 4955.00    1.75215   1.81576   -1.000
 4956.00    1.68043   1.74554   -1.000
 4957.00    1.61471   1.66406   -1.000
 4958.00    1.59549   1.62972   -1.000
 4959.00    1.67454   1.67925  138.997
 4960.00    1.75995   1.76388  130.996
 4961.00    1.78762   1.81881   -1.000
 4962.00    1.78242   1.83532   -1.000
 4963.00    1.76816   1.83288   -1.000
 4964.00    1.75441   1.81964   -1.000
 4965.00    1.72594   1.79350   -1.000
 4966.00    1.70657   1.77016   -1.000
 4967.00    1.72128   1.76214   -1.000
 4968.00    1.73167   1.76495   -1.000
 4969.00    1.72068   1.77383   -1.000
 4970.00    1.73344   1.79314   -1.000
 4971.00    1.75695   1.81387   -1.000
 4972.00    1.78634   1.83301   -1.000
 4973.00    1.79761   1.84653   -1.000
 4974.00    1.78941   1.85308   -1.000
 4975.00    1.79413   1.85141   -1.000
 4976.00    1.79003   1.84524   -1.000
 4977.00    1.77339   1.83080   -1.000
 4978.00    1.77363   1.81216   -1.000
 4979.00    1.77560   1.79763   -1.000
 4980.00    1.72246   1.77901   -1.000
 4981.00    1.67468   1.74320   -1.000
 4982.00    1.62242   1.69186   -1.000
 4983.00    1.61272   1.65656   -1.000
 4984.00    1.62699   1.65765   -1.000
 4985.00    1.67382   1.69569   -1.000
 4986.00    1.70458   1.74086   -1.000
 4987.00    1.74185   1.78697   -1.000
 4988.00    1.76288   1.81523   -1.000
 4989.00    1.75428   1.81355   -1.000
 4990.00    1.72778   1.79282   -1.000
 4991.00    1.72880   1.77758   -1.000
 4992.00    1.74780   1.78147   -1.000
 4993.00    1.76314   1.79420   -1.000
 4994.00    1.76125   1.80282   -1.000
 4995.00    1.76149   1.81155   -1.000
 4996.00    1.77782   1.82313   -1.000
 4997.00    1.77437   1.82893   -1.000
 4998.00    1.75384   1.81315   -1.000
 4999.00    1.72764   1.77255   -1.000
 5000.00    1.69621   1.72748   -1.000
 5001.00    1.68699   1.71659   -1.000
 5002.00    1.70489   1.72977   -1.000
 5003.00    1.72179   1.74554   -1.000
 5004.00    1.72589   1.74739   -1.000
 5005.00    1.70672   1.72272  136.946
 5006.00    1.67712   1.68748  140.441
 5007.00    1.69700   1.68301  141.274
 5008.00    1.75207   1.71991   -1.000
 5009.00    1.76946   1.76370  133.656
 5010.00    1.75095   1.78093   -1.000
 5011.00    1.72599   1.76559   -1.000
 5012.00    1.67045   1.72658   -1.000
 5013.00    1.63231   1.68637   -1.000
 5014.00    1.63165   1.66576   -1.000
 5015.00    1.67485   1.67466  145.797
 5016.00    1.68552   1.69800  142.594
 5017.00    1.69602   1.71181  139.601
 5018.00    1.68779   1.71385   -1.000
 5019.00    1.71711   1.72473  138.999
 5020.00    1.73534   1.74875  137.440
 5021.00    1.73032   1.75970   -1.000
 5022.00    1.72149   1.75699   -1.000
 5023.00    1.73876   1.75499  137.195
 5024.00    1.75218   1.77542   -1.000
 5025.00    1.77263   1.80214   -1.000
 5026.00    1.77433   1.81034   -1.000
 5027.00    1.76002   1.79824   -1.000
 5028.00    1.75881   1.78876   -1.000
 5029.00    1.77946   1.79667  134.132
 5030.00    1.80252   1.81624  131.617
 5031.00    1.82914   1.84095  129.728
 5032.00    1.84520   1.86463  127.622
 5033.00    1.83259   1.87960   -1.000
 5034.00    1.81617   1.86682   -1.000
 5035.00    1.78120   1.82855   -1.000
 5036.00    1.74574   1.78886   -1.000
 5037.00    1.75078   1.77502   -1.000
 5038.00    1.73753   1.77568   -1.000
 5039.00    1.67769   1.74848   -1.000
 5040.00    1.62615   1.68918   -1.000
 5041.00    1.61439   1.64831   -1.000
 5042.00    1.66119   1.66628  151.605
 5043.00    1.75310   1.73807  144.390
 5044.00    1.82318   1.81174  135.463
 5045.00    1.86915   1.87094  129.884
 5046.00    1.88146   1.89850  127.109
 5047.00    1.84284   1.89702   -1.000
 5048.00    1.84581   1.86326  125.889
 5049.00    1.26824   1.81532   -1.000
 5050.00    0.23977   1.77455   -1.000
 5051.00    0.01174   1.76115   -1.000
 5052.00    0.48886   1.77627   -1.000
 5053.00    1.61005   1.81266   -1.000
 5054.00    1.87138   1.85533  129.796
 5055.00    1.89475   1.87898  127.414
 5056.00    1.87267   1.88768  126.181
 5057.00    1.88138   1.89407  125.759
 5058.00    1.88179   1.90055  125.980
 5059.00    1.89312   1.90937  126.215
 5060.00    1.87124   1.91750   -1.000
 5061.00    1.88893   1.92457   -1.000
 5062.00    1.88880   1.92407   -1.000
 5063.00    1.84828   1.89803   -1.000
 5064.00    1.78480   1.85049   -1.000
 5065.00    1.75256   1.81104   -1.000
 5066.00    1.77375   1.80197   -1.000
 5067.00    1.79603   1.81520  135.403
 5068.00    1.81598   1.82274  133.349
 5069.00    1.82901   1.82797  132.894
 5070.00    1.86311   1.83803   -1.000
 5071.00    1.85190   1.84479  131.398
 5072.00    1.83893   1.83605  132.426
 5073.00    1.83942   1.83005  133.481
 5074.00    1.84835   1.83705  131.886
 5075.00    1.84833   1.84459  130.838
 5076.00    1.84719   1.84634  130.648
 5077.00    1.84250   1.83808  130.544
 5078.00    1.80750   1.81209  131.789
 5079.00    1.74327   1.76555   -1.000
 5080.00    1.69552   1.73739   -1.000
 5081.00    1.70752   1.74093   -1.000
 5082.00    1.76353   1.75927  141.631
 5083.00    1.79264   1.77430  138.597
 5084.00    1.79973   1.79426  136.714
 5085.00    1.83247   1.82495  134.143
 5086.00    1.87203   1.85513  131.836
 5087.00    1.88407   1.86853  130.868
 5088.00    1.87273   1.87214  130.675
 5089.00    1.86898   1.87609  130.026
 5090.00    1.87229   1.88234  129.089
 5091.00    1.87924   1.88971  128.372
 5092.00    1.90838   1.90353  127.707
 5093.00    1.93680   1.92083  126.246
 5094.00    1.92674   1.92759  125.103
 5095.00    1.89699   1.91351  126.200
 5096.00    1.89200   1.87535  128.817
 5097.00    1.86677   1.84159   -1.000
 5098.00    1.81474   1.81382  134.791
 5099.00    1.80139   1.79938  137.630
 5100.00    1.81965   1.81099  138.123
 5101.00    1.86341   1.84563  134.803
 5102.00    1.90031   1.87155   -1.000
 5103.00    1.89297   1.87772  129.688
 5104.00    1.85426   1.87078  130.414
 5105.00    1.84206   1.85893  132.122
 5106.00    1.82987   1.83953  133.798
 5107.00    1.79624   1.81256  135.437
 5108.00    1.78315   1.79721  137.138
 5109.00    1.80102   1.79854  136.973
 5110.00    1.82243   1.80986  136.104
 5111.00    1.85438   1.83090   -1.000
 5112.00    1.86841   1.85824  133.203
 5113.00    1.88115   1.87916  131.563
 5114.00    1.88513   1.89624  129.959
 5115.00    1.89803   1.91247  128.777
 5116.00    1.92178   1.92681  128.078
 5117.00    1.93183   1.93844  126.739
 5118.00    1.92958   1.94472  125.671
 5119.00    1.92937   1.93894  126.011
 5120.00    1.91307   1.91874  127.637
 5121.00    1.89532   1.89429  129.560
 5122.00    1.85766   1.86436  131.697
 5123.00    1.81326   1.83069  135.067
 5124.00    1.79489   1.80589  139.142
 5125.00    1.81253   1.79944  140.189
 5126.00    1.83053   1.80703   -1.000
 5127.00    1.82190   1.81370  138.290
 5128.00    1.80481   1.81299  137.467
 5129.00    1.81424   1.81294  137.642
 5130.00    1.84928   1.82095   -1.000
 5131.00    1.87986   1.84201   -1.000
 5132.00    1.89506   1.86857   -1.000
 5133.00    1.89733   1.88540  132.345
 5134.00    1.90457   1.89569  131.089
 5135.00    1.92493   1.90213   -1.000
 5136.00    1.91646   1.89963  129.577
 5137.00    1.86739   1.87891  131.852
 5138.00    1.83158   1.84660  135.059
 5139.00    1.83046   1.82336  137.245
 5140.00    1.83151   1.82430  137.481
 5141.00    1.81609   1.83625  136.273
 5142.00    1.81366   1.83999   -1.000
 5143.00    1.81085   1.83938   -1.000
 5144.00    1.83606   1.84842  138.717
 5145.00    1.85145   1.86040  136.404
 5146.00    1.85080   1.85429  135.882
 5147.00    1.84802   1.83983  137.119
 5148.00    1.85147   1.84231  137.486
 5149.00    1.88653   1.85444   -1.000
 5150.00    1.85798   1.85092  135.050
 5151.00    1.81625   1.83207  136.666
 5152.00    1.81142   1.81354  139.157
 5153.00    1.80362   1.80997  140.118
 5154.00    1.82356   1.81518  139.445
 5155.00    1.87878   1.83942   -1.000
 5156.00    1.93837   1.88309   -1.000
 5157.00    1.97570   1.92520   -1.000
 5158.00    1.98936   1.94773   -1.000
 5159.00    1.98739   1.95628   -1.000
 5160.00    1.97358   1.95627  126.491
 5161.00    1.97218   1.94801   -1.000
 5162.00    1.95437   1.92956   -1.000
 5163.00    1.93479   1.90665   -1.000
 5164.00    1.91064   1.87284   -1.000
 5165.00    1.80852   1.80474  135.977
 5166.00    1.65093   1.68182   -1.000
 5167.00    1.53032   1.55963   -1.000
 5168.00    1.51144   1.51041  173.572
 5169.00    1.60204   1.55767   -1.000
 5170.00    1.66445   1.61891   -1.000
 5171.00    1.61114   1.60573  158.378
 5172.00    1.51796   1.53757  168.269
 5173.00    1.51422   1.51284  179.811
 5174.00    1.65091   1.59447   -1.000
 5175.00    1.79322   1.72325   -1.000
 5176.00    1.85159   1.81941   -1.000
 5177.00    1.87562   1.85684  136.035
 5178.00    1.89786   1.86951   -1.000
 5179.00    1.90154   1.86572   -1.000
 5180.00    1.85621   1.84019  135.385
 5181.00    1.77163   1.77071  140.037
 5182.00    1.62333   1.66017   -1.000
 5183.00    1.50960   1.54594   -1.000
 5184.00    1.51731   1.51741  180.752
 5185.00    1.65521   1.60454   -1.000
 5186.00    1.81161   1.74443   -1.000
 5187.00    1.89429   1.83443   -1.000
 5188.00    1.89544   1.87140   -1.000
 5189.00    1.89683   1.88007  134.491
 5190.00    1.89663   1.87906  133.923
 5191.00    1.85141   1.84777  135.312
 5192.00    1.78618   1.80416  139.552
 5193.00    1.80118   1.78318  143.443
 5194.00    1.83658   1.80116   -1.000
 5195.00    1.85109   1.83095  140.059
 5196.00    1.87521   1.85557  137.976
 5197.00    1.92814   1.88469   -1.000
 5198.00    1.92706   1.91669  133.242
 5199.00    1.93801   1.93903  130.964
 5200.00    1.95025   1.94961  129.861
 5201.00    1.94848   1.94581  129.710
 5202.00    1.92042   1.92160  130.728
 5203.00    1.87800   1.87950  133.071
 5204.00    1.83490   1.82066  136.109
 5205.00    1.79477   1.75563   -1.000
 5206.00    1.75988   1.72380   -1.000
 5207.00    1.77218   1.71585   -1.000
 5208.00    1.77596   1.71467   -1.000
 5209.00    1.78947   1.71756   -1.000
 5210.00    1.82965   1.75870   -1.000
 5211.00    1.90288   1.83240   -1.000
 5212.00    1.99794   1.91471   -1.000
 5213.00    2.04945   1.96683   -1.000
 5214.00    2.02245   1.97532   -1.000
 5215.00    1.97898   1.94567   -1.000
 5216.00    1.96451   1.91644   -1.000
 5217.00    1.95970   1.91585   -1.000
 5218.00    1.98991   1.95028   -1.000
 5219.00    2.02786   1.99468   -1.000
 5220.00    2.04935   2.02512  126.728
 5221.00    2.06598   2.03918  125.729
 5222.00    2.04066   2.03588  125.213
 5223.00    2.00997   2.00902  126.775
 5224.00    1.95576   1.95500  130.597
 5225.00    1.86677   1.87694  135.965
 5226.00    1.80767   1.80085  142.334
 5227.00    1.82045   1.77038   -1.000
 5228.00    1.90255   1.81755   -1.000
 5229.00    1.99678   1.91384   -1.000
 5230.00    2.04245   1.97986   -1.000
 5231.00    2.04344   1.99304   -1.000
 5232.00    2.01224   1.96403   -1.000
 5233.00    1.98299   1.92439   -1.000
 5234.00    1.96584   1.91110   -1.000
 5235.00    1.98832   1.94562   -1.000
 5236.00    2.04580   1.99886   -1.000
 5237.00    2.06003   2.04435  125.892
 5238.00    2.06538   2.06310  124.430
 5239.00    2.07306   2.06053  124.284
 5240.00    2.06567   2.05447  124.669
 5241.00    2.07856   2.04791   -1.000
 5242.00    2.07647   2.04460   -1.000
 5243.00    2.07961   2.04916   -1.000
 5244.00    2.06910   2.06062  123.665
 5245.00    2.06311   2.05824  123.465
 5246.00    2.03279   2.02644  125.867
 5247.00    1.97393   1.98345  129.791
 5248.00    1.97977   1.95635  132.851
 5249.00    1.97419   1.95716  133.272
 5250.00    1.93376   1.95675   -1.000
 5251.00    1.93578   1.95505   -1.000
 5252.00    1.98066   1.96819  133.766
 5253.00    2.00518   1.98401  131.938
 5254.00    2.02326   1.98842   -1.000
 5255.00    2.03678   1.99132   -1.000
 5256.00    2.06487   2.01140   -1.000
 5257.00    2.10543   2.05122   -1.000
 5258.00    2.12611   2.08827   -1.000
 5259.00    2.11201   2.09391  122.131
 5260.00    2.06442   2.06876  123.212
 5261.00    2.00626   2.01362  126.534
 5262.00    1.93436   1.94651  131.856
 5263.00    1.87922   1.87793  138.130
 5264.00    1.85357   1.82642   -1.000
 5265.00    1.84024   1.79855   -1.000
 5266.00    1.86597   1.80106   -1.000
 5267.00    1.91697   1.81861   -1.000
 5268.00    1.89168   1.81516   -1.000
 5269.00    1.80734   1.75990   -1.000
 5270.00    1.80141   1.71484   -1.000
 5271.00    1.89167   1.75938   -1.000
 5272.00    1.99661   1.86162   -1.000
 5273.00    2.02578   1.94455   -1.000
 5274.00    2.04011   1.96434   -1.000
 5275.00    2.02414   1.97035   -1.000
 5276.00    2.03897   1.98767   -1.000
 5277.00    2.10734   2.02927   -1.000
 5278.00    2.15387   2.08061   -1.000
 5279.00    2.15973   2.10036   -1.000
 5280.00    2.12160   2.07662   -1.000
 5281.00    2.06821   2.03211   -1.000
 5282.00    2.02345   1.98911   -1.000
 5283.00    2.00786   1.96186   -1.000
 5284.00    2.05716   1.97488   -1.000
 5285.00    2.12131   2.03121   -1.000
 5286.00    2.17067   2.09577   -1.000
 5287.00    2.16123   2.14074  121.639
 5288.00    2.16072   2.14768  120.616
 5289.00    2.16684   2.14476  121.212
 5290.00    2.16613   2.14551  121.224
 5291.00    2.18136   2.14401   -1.000
 5292.00    2.19358   2.13928   -1.000
 5293.00    2.16678   2.13585   -1.000
 5294.00    2.14828   2.12807  122.069
 5295.00    2.11811   2.10526  123.676
 5296.00    2.06284   2.05646  126.977
 5297.00    2.01071   1.98968  131.824
 5298.00    1.99949   1.95903   -1.000
 5299.00    2.03977   1.97203   -1.000
 5300.00    2.07532   2.01296   -1.000
 5301.00    2.07692   2.04165   -1.000
 5302.00    2.09176   2.05858   -1.000
 5303.00    2.13549   2.08602   -1.000
 5304.00    2.18279   2.12800   -1.000
 5305.00    2.21546   2.15614   -1.000
 5306.00    2.20212   2.15738   -1.000
 5307.00    2.18056   2.14043   -1.000
 5308.00    2.17555   2.13456   -1.000
 5309.00    2.18195   2.14697   -1.000
 5310.00    2.20873   2.16528   -1.000
 5311.00    2.20369   2.17272   -1.000
 5312.00    2.18708   2.16621  119.936
 5313.00    2.18839   2.15672   -1.000
 5314.00    2.18808   2.14301   -1.000
 5315.00    2.17900   2.12709   -1.000
 5316.00    2.14099   2.10833   -1.000
 5317.00    2.13513   2.10043   -1.000
 5318.00    2.15514   2.11076   -1.000
 5319.00    2.18545   2.12659   -1.000
 5320.00    2.18057   2.13531   -1.000
 5321.00    2.17399   2.12990   -1.000
 5322.00    2.14538   2.10939   -1.000
 5323.00    2.11622   2.07317   -1.000
 5324.00    2.09260   2.03974   -1.000
 5325.00    2.08973   2.02615   -1.000
 5326.00    2.07711   2.00132   -1.000
 5327.00    1.98257   1.93025   -1.000
 5328.00    1.88339   1.84522   -1.000
 5329.00    1.92714   1.83305   -1.000
 5330.00    2.07254   1.91741   -1.000
 5331.00    2.12496   2.02820   -1.000
 5332.00    2.13700   2.07766   -1.000
 5333.00    2.16024   2.09590   -1.000
 5334.00    2.17498   2.11492   -1.000
 5335.00    2.18442   2.13312   -1.000
 5336.00    2.18082   2.14080   -1.000
 5337.00    2.16934   2.13259   -1.000
 5338.00    2.16425   2.11305   -1.000
 5339.00    2.14306   2.07694   -1.000
 5340.00    2.09704   2.03192   -1.000
 5341.00    2.07870   2.01103   -1.000
 5342.00    2.12551   2.04093   -1.000
 5343.00    2.17066   2.09206   -1.000
 5344.00    2.17657   2.11352   -1.000
 5345.00    2.16911   2.10955   -1.000
 5346.00    2.15578   2.09397   -1.000
 5347.00    2.13581   2.07917   -1.000
 5348.00    2.11297   2.06856   -1.000
 5349.00    2.12340   2.06191   -1.000
 5350.00    2.15609   2.07589   -1.000
 5351.00    2.18306   2.11358   -1.000
 5352.00    2.21027   2.15080   -1.000
 5353.00    2.20599   2.17534   -1.000
 5354.00    2.21640   2.18451   -1.000
 5355.00    2.24519   2.20345   -1.000
 5356.00    2.26199   2.22131   -1.000
 5357.00    2.27781   2.23119   -1.000
 5358.00    2.27426   2.23187   -1.000
 5359.00    2.26384   2.22758   -1.000
 5360.00    2.25708   2.21461   -1.000
 5361.00    2.22512   2.19347   -1.000
 5362.00    2.19615   2.17019   -1.000
 5363.00    2.18392   2.15210   -1.000
 5364.00    2.18097   2.13314   -1.000
 5365.00    2.16518   2.11808   -1.000
 5366.00    2.14793   2.11605   -1.000
 5367.00    2.17114   2.12074   -1.000
 5368.00    2.16644   2.11530   -1.000
 5369.00    2.11856   2.07993   -1.000
 5370.00    2.07388   2.01542   -1.000
 5371.00    2.07343   1.96777   -1.000
 5372.00    2.12222   1.97421   -1.000
 5373.00    2.19825   2.04680   -1.000
 5374.00    2.24188   2.13271   -1.000
 5375.00    2.25262   2.18725   -1.000
 5376.00    2.26624   2.19820   -1.000
 5377.00    2.26646   2.19420   -1.000
 5378.00    2.27428   2.19886   -1.000
 5379.00    2.26238   2.20340   -1.000
 5380.00    2.24510   2.19747   -1.000
 5381.00    2.21303   2.18144   -1.000
 5382.00    2.19464   2.16091   -1.000
 5383.00    2.18614   2.14987   -1.000
 5384.00    2.19048   2.14987   -1.000
 5385.00    2.23826   2.16793   -1.000
 5386.00    2.25594   2.19289   -1.000
 5387.00    2.23133   2.20342   -1.000
 5388.00    2.21833   2.19386  122.410
 5389.00    2.20297   2.16844   -1.000
 5390.00    2.19122   2.14116   -1.000
 5391.00    2.18483   2.12268   -1.000
 5392.00    2.16866   2.11414   -1.000
 5393.00    2.17194   2.10823   -1.000
 5394.00    2.16352   2.10429   -1.000
 5395.00    2.13104   2.08887   -1.000
 5396.00    2.09989   2.05375   -1.000
 5397.00    2.10345   2.01889   -1.000
 5398.00    2.16114   2.02619   -1.000
 5399.00    2.21292   2.08124   -1.000
 5400.00    2.22523   2.12926   -1.000
 5401.00    2.21556   2.15445   -1.000
 5402.00    2.20979   2.15360   -1.000
 5403.00    2.17067   2.12315   -1.000
 5404.00    2.12315   2.05689   -1.000
 5405.00    2.08665   1.99499   -1.000
 5406.00    2.08729   1.97049   -1.000
 5407.00    2.10909   2.00902   -1.000
 5408.00    2.13858   2.05473   -1.000
 5409.00    2.13296   2.06321   -1.000
 5410.00    2.13654   2.05420   -1.000
 5411.00    2.16056   2.07343   -1.000
 5412.00    2.21973   2.12030   -1.000
 5413.00    2.24313   2.16141   -1.000
 5414.00    2.23775   2.17197   -1.000
 5415.00    2.23366   2.17510   -1.000
 5416.00    2.25860   2.19169   -1.000
 5417.00    2.27006   2.21236   -1.000
 5418.00    2.27750   2.22269   -1.000
 5419.00    2.26059   2.21717   -1.000
 5420.00    2.23572   2.20800   -1.000
 5421.00    2.24440   2.20002   -1.000
 5422.00    2.25710   2.19473   -1.000
 5423.00    2.23535   2.18346   -1.000
 5424.00    2.21873   2.16691   -1.000
 5425.00    2.24366   2.16982   -1.000
 5426.00    2.26197   2.20343   -1.000
 5427.00    2.27720   2.22706   -1.000
 5428.00    2.24901   2.19788   -1.000
 5429.00    2.17635   2.13282   -1.000
 5430.00    2.17311   2.08576   -1.000
 5431.00    2.22486   2.09813   -1.000
 5432.00    2.21815   2.12501   -1.000
 5433.00    2.17066   2.12027   -1.000
 5434.00    2.17431   2.08887   -1.000
 5435.00    2.17729   2.07288   -1.000
 5436.00    2.18082   2.10052   -1.000
 5437.00    2.22686   2.15536   -1.000
 5438.00    2.26575   2.21097   -1.000
 5439.00    2.29870   2.24580   -1.000
 5440.00    2.33316   2.26763   -1.000
 5441.00    2.34402   2.28089   -1.000
 5442.00    2.31238   2.28860  119.699
 5443.00    2.28828   2.28306  119.688
 5444.00    2.26174   2.24945  120.896
 5445.00    2.19397   2.17744  124.042
 5446.00    2.11091   2.09950  129.106
 5447.00    2.07975   2.05127   -1.000
 5448.00    2.13571   2.07360   -1.000
 5449.00    2.21223   2.13485   -1.000
 5450.00    2.24928   2.18870   -1.000
 5451.00    2.25466   2.20797   -1.000
 5452.00    2.23825   2.20094   -1.000
 5453.00    2.20171   2.17471   -1.000
 5454.00    2.14944   2.12549  127.441
 5455.00    2.10046   2.06663   -1.000
 5456.00    2.12853   2.05256   -1.000
 5457.00    2.22133   2.10360   -1.000
 5458.00    2.27533   2.17603   -1.000
 5459.00    2.26262   2.22164   -1.000
 5460.00    2.24515   2.22177  123.411
 5461.00    2.25268   2.19875   -1.000
 5462.00    2.24542   2.16697   -1.000
 5463.00    2.21203   2.14916   -1.000
 5464.00    2.22552   2.15357   -1.000
 5465.00    2.23827   2.17523   -1.000
 5466.00    2.24361   2.19952   -1.000
 5467.00    2.26218   2.21528   -1.000
 5468.00    2.27612   2.22379   -1.000
 5469.00    2.26939   2.22602   -1.000
 5470.00    2.26582   2.21815   -1.000
 5471.00    2.26633   2.20463   -1.000
 5472.00    2.24689   2.19635   -1.000
 5473.00    2.22269   2.18785   -1.000
 5474.00    2.20407   2.16933   -1.000
 5475.00    2.18346   2.13748   -1.000
 5476.00    2.15047   2.09935   -1.000
 5477.00    2.14379   2.08334   -1.000
 5478.00    2.19810   2.11465   -1.000
 5479.00    2.25138   2.16914   -1.000
 5480.00    2.24692   2.18788   -1.000
 5481.00    2.22027   2.17144   -1.000
 5482.00    2.20858   2.15892   -1.000
 5483.00    2.23674   2.17401   -1.000
 5484.00    2.28049   2.21451   -1.000
 5485.00    2.28991   2.24198   -1.000
 5486.00    2.28063   2.24495   -1.000
 5487.00    2.25266   2.22397   -1.000
 5488.00    2.23715   2.20176   -1.000
 5489.00    2.24387   2.19728   -1.000
 5490.00    2.24496   2.21026   -1.000
 5491.00    2.26898   2.22637   -1.000
 5492.00    2.27553   2.23601   -1.000
 5493.00    2.29749   2.23721   -1.000
 5494.00    2.30584   2.23550   -1.000
 5495.00    2.28987   2.22865   -1.000
 5496.00    2.27206   2.21306   -1.000
 5497.00    2.23369   2.19421   -1.000
 5498.00    2.24561   2.19117   -1.000
 5499.00    2.27927   2.20782   -1.000
 5500.00    2.27965   2.21462   -1.000
 5501.00    2.25218   2.19378   -1.000
 5502.00    2.22872   2.17270   -1.000
 5503.00    2.25875   2.17572   -1.000
 5504.00    2.27268   2.19067   -1.000
 5505.00    2.25869   2.18441   -1.000
 5506.00    2.23416   2.15804   -1.000
 5507.00    2.22573   2.14808   -1.000
 5508.00    2.25070   2.17369   -1.000
 5509.00    2.28427   2.20941   -1.000
 5510.00    2.27032   2.22172   -1.000
 5511.00    2.23839   2.19945   -1.000
 5512.00    2.22247   2.16585   -1.000
 5513.00    2.21023   2.13862   -1.000
 5514.00    2.20927   2.13635   -1.000
 5515.00    2.23837   2.15350   -1.000
 5516.00    2.28295   2.17958   -1.000
 5517.00    2.32244   2.21251   -1.000
 5518.00    2.35186   2.24740   -1.000
 5519.00    2.36411   2.27055   -1.000
 5520.00    2.36517   2.28027   -1.000
 5521.00    2.35911   2.27613   -1.000
 5522.00    2.35810   2.27412   -1.000
 5523.00    2.36566   2.27744   -1.000
 5524.00    2.35429   2.27625   -1.000
 5525.00    2.31147   2.26117   -1.000
 5526.00    2.26287   2.22269   -1.000
 5527.00    2.21493   2.17321   -1.000
 5528.00    2.19789   2.14159   -1.000
 5529.00    2.22247   2.15072   -1.000
 5530.00    2.28327   2.20352   -1.000
 5531.00    2.30904   2.24761   -1.000
 5532.00    2.31776   2.26149   -1.000
 5533.00    2.30533   2.25077   -1.000
 5534.00    2.28614   2.23700   -1.000
 5535.00    2.29310   2.23004   -1.000
 5536.00    2.30661   2.23571   -1.000
 5537.00    2.32464   2.24721   -1.000
 5538.00    2.33679   2.25764   -1.000
 5539.00    2.32928   2.26942   -1.000
 5540.00    2.35921   2.28508   -1.000
 5541.00    2.37603   2.29627   -1.000
 5542.00    2.35981   2.29228   -1.000
 5543.00    2.33694   2.27783   -1.000
 5544.00    2.32343   2.26560   -1.000
 5545.00    2.32982   2.26617   -1.000
 5546.00    2.32094   2.27182   -1.000
 5547.00    2.33317   2.27820   -1.000
 5548.00    2.35047   2.29469   -1.000
 5549.00    2.37667   2.31825   -1.000
 5550.00    2.39651   2.32627   -1.000
 5551.00    2.39180   2.32423   -1.000
 5552.00    2.37407   2.31411   -1.000
 5553.00    2.34790   2.30212   -1.000
 5554.00    2.34832   2.28999   -1.000
 5555.00    2.35460   2.28699   -1.000
 5556.00    2.35354   2.28825   -1.000
 5557.00    2.36329   2.28955   -1.000
 5558.00    2.37345   2.29052   -1.000
 5559.00    2.37888   2.29520   -1.000
 5560.00    2.36363   2.29914   -1.000
 5561.00    2.35084   2.29358   -1.000
 5562.00    2.35627   2.27879   -1.000
 5563.00    2.34331   2.26754   -1.000
 5564.00    2.31717   2.26455   -1.000
 5565.00    2.32337   2.26231   -1.000
 5566.00    2.32929   2.25433   -1.000
 5567.00    2.29952   2.24960   -1.000
 5568.00    2.30299   2.24794   -1.000
 5569.00    2.31088   2.24507   -1.000
 5570.00    2.31832   2.24750   -1.000
 5571.00    2.31634   2.24974   -1.000
 5572.00    2.31581   2.24146   -1.000
 5573.00    2.31047   2.23721   -1.000
 5574.00    2.35530   2.24638   -1.000
 5575.00    2.45920   2.26695   -1.000
 5576.00    2.56663   2.28009   -1.000
 5577.00    2.56939   2.28761   -1.000
 5578.00    2.30450   2.29992  121.648
 5579.00    1.93274   2.31261   -1.000
 5580.00    1.63121   2.31408   -1.000
 5581.00    1.79012   2.30552   -1.000
 5582.00    2.16871   2.29870   -1.000
 5583.00    2.34550   2.29321   -1.000
 5584.00    2.37733   2.28964   -1.000
 5585.00    2.34329   2.26510   -1.000
 5586.00    2.28132   2.21640   -1.000
 5587.00    2.23009   2.16389   -1.000
 5588.00    2.19714   2.13245   -1.000
 5589.00    2.22054   2.13745   -1.000
 5590.00    2.26925   2.16630   -1.000
 5591.00    2.29382   2.20515   -1.000
 5592.00    2.30858   2.23071   -1.000
 5593.00    2.29408   2.23647   -1.000
 5594.00    2.30589   2.23812   -1.000
 5595.00    2.32087   2.25540   -1.000
 5596.00    2.34307   2.27903   -1.000
 5597.00    2.33971   2.28015   -1.000
 5598.00    2.29702   2.24667   -1.000
 5599.00    2.26945   2.22011   -1.000
 5600.00    2.27069   2.20668   -1.000
 5601.00    2.27118   2.19568   -1.000
 5602.00    2.27284   2.19051   -1.000
 5603.00    2.28845   2.20851   -1.000
 5604.00    2.31976   2.25030   -1.000
 5605.00    2.37073   2.30420   -1.000
 5606.00    2.41071   2.33896   -1.000
 5607.00    2.41700   2.35638   -1.000
 5608.00    2.41046   2.36002   -1.000
 5609.00    2.40326   2.35839   -1.000
 5610.00    2.40672   2.36035   -1.000
 5611.00    2.42598   2.36791   -1.000
 5612.00    2.43478   2.36888   -1.000
 5613.00    2.40380   2.34315   -1.000
 5614.00    2.33054   2.28477   -1.000
 5615.00    2.26113   2.21629   -1.000
 5616.00    2.26691   2.19554   -1.000
 5617.00    2.32109   2.22887   -1.000
 5618.00    2.36195   2.27037   -1.000
 5619.00    2.36661   2.29378   -1.000
 5620.00    2.38042   2.30224   -1.000
 5621.00    2.40487   2.31301   -1.000
 5622.00    2.39699   2.32228   -1.000
 5623.00    2.37232   2.30657   -1.000
 5624.00    2.34288   2.27427   -1.000
 5625.00    2.34753   2.25641   -1.000
 5626.00    2.35119   2.26666   -1.000
 5627.00    2.37223   2.29726   -1.000
 5628.00    2.38817   2.31810   -1.000
 5629.00    2.41691   2.33093   -1.000
 5630.00    2.43118   2.33884   -1.000
 5631.00    2.42943   2.34492   -1.000
 5632.00    2.41770   2.34756   -1.000
 5633.00    2.41833   2.34445   -1.000
 5634.00    2.41755   2.34066   -1.000
 5635.00    2.40898   2.33013   -1.000
 5636.00    2.38986   2.31345   -1.000
 5637.00    2.37923   2.30248   -1.000
 5638.00    2.37649   2.30037   -1.000
 5639.00    2.36266   2.30385   -1.000
 5640.00    2.36899   2.30241   -1.000
 5641.00    2.37428   2.29400   -1.000
 5642.00    2.38023   2.29255   -1.000
 5643.00    2.38199   2.30214   -1.000
 5644.00    2.37908   2.31226   -1.000
 5645.00    2.38472   2.31852   -1.000
 5646.00    2.40112   2.32577   -1.000
 5647.00    2.40676   2.32870   -1.000
 5648.00    2.41068   2.32900   -1.000
 5649.00    2.42929   2.32733   -1.000
 5650.00    2.42449   2.32979   -1.000
 5651.00    2.43195   2.34427   -1.000
 5652.00    2.46094   2.35574   -1.000
 5653.00    2.44808   2.35844   -1.000
 5654.00    2.41428   2.34969   -1.000
 5655.00    2.39973   2.33619   -1.000
 5656.00    2.38687   2.31583   -1.000
 5657.00    2.33281   2.27509   -1.000
 5658.00    2.27886   2.23254   -1.000
 5659.00    2.29958   2.22911   -1.000
 5660.00    2.35067   2.25660   -1.000
 5661.00    2.36418   2.28294   -1.000
 5662.00    2.37050   2.28452   -1.000
 5663.00    2.35804   2.28851   -1.000
 5664.00    2.36816   2.31522   -1.000
 5665.00    2.39277   2.34145   -1.000
 5666.00    2.38604   2.34517   -1.000
 5667.00    2.39299   2.32857   -1.000
 5668.00    2.37311   2.31449   -1.000
 5669.00    2.38420   2.31514   -1.000
 5670.00    2.40548   2.32267   -1.000
 5671.00    2.41142   2.33409   -1.000
 5672.00    2.41544   2.35017   -1.000
 5673.00    2.45032   2.36739   -1.000
 5674.00    2.46029   2.37616   -1.000
 5675.00    2.44157   2.37748   -1.000
 5676.00    2.44685   2.37944   -1.000
 5677.00    2.46056   2.38528   -1.000
 5678.00    2.45843   2.38785   -1.000
 5679.00    2.45232   2.38136   -1.000
 5680.00    2.45876   2.36737   -1.000
 5681.00    2.43601   2.34931   -1.000
 5682.00    2.39966   2.32558   -1.000
 5683.00    2.38886   2.31064   -1.000
 5684.00    2.40321   2.31622   -1.000
 5685.00    2.44277   2.33610   -1.000
 5686.00    2.41784   2.34122   -1.000
 5687.00    2.37955   2.32782   -1.000
 5688.00    2.39814   2.31425   -1.000
 5689.00    2.41628   2.31539   -1.000
 5690.00    2.44090   2.33718   -1.000
 5691.00    2.44857   2.36511   -1.000
 5692.00    2.46957   2.39029   -1.000
 5693.00    2.49901   2.39944   -1.000
 5694.00    2.49853   2.39830   -1.000
 5695.00    2.49510   2.39457   -1.000
 5696.00    2.49464   2.38880   -1.000
 5697.00    2.48540   2.37976   -1.000
 5698.00    2.46079   2.36576   -1.000
 5699.00    2.42421   2.34765   -1.000
 5700.00    2.38940   2.33570   -1.000
 5701.00    2.36195   2.32428   -1.000
 5702.00    2.36907   2.31993   -1.000
 5703.00    2.39378   2.33228   -1.000
 5704.00    2.40316   2.34978   -1.000
 5705.00    2.40746   2.35310   -1.000
 5706.00    2.38001   2.33797   -1.000
 5707.00    2.34679   2.31052   -1.000
 5708.00    2.32477   2.28433   -1.000
 5709.00    2.30393   2.26036   -1.000
 5710.00    2.32239   2.25453   -1.000
 5711.00    2.33782   2.26571   -1.000
 5712.00    2.37224   2.29084   -1.000
 5713.00    2.42697   2.32759   -1.000
 5714.00    2.45612   2.36471   -1.000
 5715.00    2.46401   2.38151   -1.000
 5716.00    2.46781   2.39182   -1.000
 5717.00    2.46837   2.39780   -1.000
 5718.00    2.47389   2.40271   -1.000
 5719.00    2.49256   2.40995   -1.000
 5720.00    2.49763   2.42073   -1.000
 5721.00    2.51215   2.43319   -1.000
 5722.00    2.51520   2.44049   -1.000
 5723.00    2.51588   2.44652   -1.000
 5724.00    2.50018   2.44766   -1.000
 5725.00    2.50816   2.43769   -1.000
 5726.00    2.48993   2.41100   -1.000
 5727.00    2.46267   2.39301   -1.000
 5728.00    2.48542   2.39118   -1.000
 5729.00    2.50154   2.40335   -1.000
 5730.00    2.47923   2.41445   -1.000
 5731.00    2.47786   2.41125   -1.000
 5732.00    2.47991   2.40897   -1.000
 5733.00    2.51063   2.42027   -1.000
 5734.00    2.51592   2.44134   -1.000
 5735.00    2.51050   2.45061   -1.000
 5736.00    2.51255   2.44543   -1.000
 5737.00    2.51153   2.44021   -1.000
 5738.00    2.51041   2.43408   -1.000
 5739.00    2.50572   2.43563   -1.000
 5740.00    2.50624   2.43882   -1.000
 5741.00    2.49897   2.43992   -1.000
 5742.00    2.48329   2.43530   -1.000
 5743.00    2.49475   2.43476   -1.000
 5744.00    2.52400   2.44496   -1.000
 5745.00    2.53928   2.46042   -1.000
 5746.00    2.53431   2.46211   -1.000
 5747.00    2.51819   2.44821   -1.000
 5748.00    2.50702   2.43314   -1.000
 5749.00    2.51498   2.44160   -1.000
 5750.00    2.52074   2.45600   -1.000
 5751.00    2.49999   2.45520   -1.000
 5752.00    2.48212   2.43191   -1.000
 5753.00    2.47918   2.39916   -1.000
 5754.00    2.47878   2.39087   -1.000
 5755.00    2.49642   2.41458   -1.000
 5756.00    2.52818   2.45074   -1.000
 5757.00    2.54756   2.47995   -1.000
 5758.00    2.54187   2.48942   -1.000
 5759.00    2.53050   2.47756   -1.000
 5760.00    2.50472   2.44769   -1.000
 5761.00    2.48536   2.41815   -1.000
 5762.00    2.47481   2.39402   -1.000
 5763.00    2.48204   2.39888   -1.000
 5764.00    2.50974   2.43134   -1.000
 5765.00    2.52583   2.47042   -1.000
 5766.00    2.53092   2.48504   -1.000
 5767.00    2.53797   2.48917   -1.000
 5768.00    2.55897   2.48882   -1.000
 5769.00    2.53955   2.48607   -1.000
 5770.00    2.53280   2.48028   -1.000
 5771.00    2.50690   2.47503   -1.000
 5772.00    2.50130   2.46779   -1.000
 5773.00    2.48487   2.46088  123.920
 5774.00    2.46894   2.45394  124.270
 5775.00    2.48099   2.44686   -1.000
 5776.00    2.49501   2.44966   -1.000
 5777.00    2.50589   2.45593   -1.000
 5778.00    2.47501   2.45254  123.438
 5779.00    2.42441   2.43499  123.790
 5780.00    2.35290   2.40505   -1.000
 5781.00    2.28906   2.37358   -1.000
 5782.00    2.30322   2.35764   -1.000
 5783.00    2.37530   2.36100  129.977
 5784.00    2.42468   2.36755   -1.000
 5785.00    2.44287   2.37024   -1.000
 5786.00    2.45868   2.38066   -1.000
 5787.00    2.49227   2.40616   -1.000
 5788.00    2.51183   2.42815   -1.000
 5789.00    2.51741   2.44133   -1.000
 5790.00    2.50829   2.43912   -1.000
 5791.00    2.50569   2.43214   -1.000
 5792.00    2.51673   2.44188   -1.000
 5793.00    2.54222   2.46724   -1.000
 5794.00    2.54673   2.49701   -1.000
 5795.00    2.53703   2.50917   -1.000
 5796.00    2.51026   2.50374  122.206
 5797.00    2.47027   2.48290  122.869
 5798.00    2.47691   2.47064  123.663
 5799.00    2.51927   2.48475   -1.000
 5800.00    2.55256   2.51049   -1.000
 5801.00    2.58227   2.53374   -1.000
 5802.00    2.59999   2.53741   -1.000
 5803.00    2.58703   2.52385   -1.000
 5804.00    2.57107   2.50322   -1.000
 5805.00    2.56775   2.49335   -1.000
 5806.00    2.56186   2.49478   -1.000
 5807.00    2.56121   2.50369   -1.000
 5808.00    2.56713   2.51228   -1.000
 5809.00    2.55886   2.51507   -1.000
 5810.00    2.56141   2.51777   -1.000
 5811.00    2.58285   2.51832   -1.000
 5812.00    2.58517   2.51550   -1.000
 5813.00    2.58334   2.50945   -1.000
 5814.00    2.56543   2.49746   -1.000
 5815.00    2.56365   2.47978   -1.000
 5816.00    2.56690   2.46851   -1.000
 5817.00    2.57475   2.47979   -1.000
 5818.00    2.58073   2.50678   -1.000
 5819.00    2.57693   2.52306   -1.000
 5820.00    2.57734   2.52870   -1.000
 5821.00    2.58288   2.52813   -1.000
 5822.00    2.58211   2.52527   -1.000
 5823.00    2.58043   2.51895   -1.000
 5824.00    2.59345   2.51710   -1.000
 5825.00    2.61030   2.51819   -1.000
 5826.00    2.62342   2.52528   -1.000
 5827.00    2.60622   2.53143   -1.000
 5828.00    2.61644   2.53700   -1.000
 5829.00    2.62268   2.54120   -1.000
 5830.00    2.62495   2.54252   -1.000
 5831.00    2.62880   2.54125   -1.000
 5832.00    2.61103   2.53913   -1.000
 5833.00    2.61761   2.53321   -1.000
 5834.00    2.61569   2.52477   -1.000
 5835.00    2.59664   2.51803   -1.000
 5836.00    2.57540   2.52275   -1.000
 5837.00    2.60134   2.52846   -1.000
 5838.00    2.61219   2.52842   -1.000
 5839.00    2.60754   2.53056   -1.000
 5840.00    2.61172   2.53867   -1.000
 5841.00    2.63029   2.54826   -1.000
 5842.00    2.61795   2.55600   -1.000
 5843.00    2.61036   2.55129   -1.000
 5844.00    2.62595   2.54222   -1.000
 5845.00    2.61175   2.53065   -1.000
 5846.00    2.57158   2.51939   -1.000
 5847.00    2.57035   2.50792   -1.000
 5848.00    2.57895   2.50393   -1.000
 5849.00    2.56731   2.50294   -1.000
 5850.00    2.56043   2.50075   -1.000
 5851.00    2.56214   2.48883   -1.000
 5852.00    2.52431   2.46428   -1.000
 5853.00    2.49594   2.44876   -1.000
 5854.00    2.51049   2.44832   -1.000
 5855.00    2.51240   2.45088   -1.000
 5856.00    2.50231   2.43244   -1.000
 5857.00    2.48028   2.39662   -1.000
 5858.00    2.48178   2.38489   -1.000
 5859.00    2.51736   2.40666   -1.000
 5860.00    2.55954   2.44221   -1.000
 5861.00    2.56570   2.46471   -1.000
 5862.00    2.55504   2.46974   -1.000
 5863.00    2.56747   2.47106   -1.000
 5864.00    2.56990   2.47300   -1.000
 5865.00    2.55894   2.46856   -1.000
 5866.00    2.54492   2.45599   -1.000
 5867.00    2.53010   2.45030   -1.000
 5868.00    2.55172   2.46495   -1.000
 5869.00    2.58567   2.49060   -1.000
 5870.00    2.59374   2.50634   -1.000
 5871.00    2.59018   2.51060   -1.000
 5872.00    2.61360   2.50273   -1.000
 5873.00    2.62295   2.49455   -1.000
 5874.00    2.59328   2.48906   -1.000
 5875.00    2.57731   2.48766   -1.000
 5876.00    2.58287   2.48564   -1.000
 5877.00    2.58077   2.47817   -1.000
 5878.00    2.57253   2.46414   -1.000
 5879.00    2.56521   2.44718   -1.000
 5880.00    2.55128   2.43588   -1.000
 5881.00    2.55845   2.43209   -1.000
 5882.00    2.55478   2.43408   -1.000
 5883.00    2.53580   2.42947   -1.000
 5884.00    2.54231   2.41677   -1.000
 5885.00    2.53464   2.40503   -1.000
 5886.00    2.49402   2.38563   -1.000
 5887.00    2.37054   2.32070   -1.000
 5888.00    2.20320   2.18119   -1.000
 5889.00    1.92228   2.02065   -1.000
 5890.00    1.50693   1.94502   -1.000
 5891.00    1.29884   2.00280   -1.000
 5892.00    1.43210   2.10936   -1.000
 5893.00    1.81609   2.17133   -1.000
 5894.00    2.06111   2.13737   -1.000
 5895.00    2.00786   2.06012   -1.000
 5896.00    1.82250   2.02284   -1.000
 5897.00    1.71656   2.08509   -1.000
 5898.00    1.85223   2.19427   -1.000
 5899.00    2.11945   2.26928   -1.000
 5900.00    2.36564   2.32635   -1.000
 5901.00    2.50199   2.37248   -1.000
 5902.00    2.53409   2.40433   -1.000
 5903.00    2.54753   2.42481   -1.000
 5904.00    2.55027   2.43173   -1.000
 5905.00    2.55561   2.43360   -1.000
 5906.00    2.57006   2.43660   -1.000
 5907.00    2.56462   2.44169   -1.000
 5908.00    2.55542   2.45160   -1.000
 5909.00    2.55829   2.46044   -1.000
 5910.00    2.56496   2.46807   -1.000
 5911.00    2.56014   2.46861   -1.000
 5912.00    2.53874   2.45960   -1.000
 5913.00    2.52196   2.43712   -1.000
 5914.00    2.51907   2.41429   -1.000
 5915.00    2.51261   2.40264   -1.000
 5916.00    2.50019   2.40738   -1.000
 5917.00    2.51246   2.42229   -1.000
 5918.00    2.54616   2.44247   -1.000
 5919.00    2.56285   2.45819   -1.000
 5920.00    2.55037   2.46413   -1.000
 5921.00    2.54065   2.46288   -1.000
 5922.00    2.54549   2.45797   -1.000
 5923.00    2.55482   2.45661   -1.000
 5924.00    2.57202   2.46424   -1.000
 5925.00    2.58385   2.47793   -1.000
 5926.00    2.57664   2.48806   -1.000
 5927.00    2.57316   2.49076   -1.000
 5928.00    2.55556   2.47912   -1.000
 5929.00    2.53275   2.46190   -1.000
 5930.00    2.53709   2.45594   -1.000
 5931.00    2.55726   2.46772   -1.000
 5932.00    2.56932   2.48334   -1.000
 5933.00    2.57543   2.48330   -1.000
 5934.00    2.56878   2.47264   -1.000
 5935.00    2.55869   2.46805   -1.000
 5936.00    2.56099   2.47745   -1.000
 5937.00    2.57645   2.49301   -1.000
 5938.00    2.57859   2.49984   -1.000
 5939.00    2.58569   2.49529   -1.000
 5940.00    2.57535   2.48056   -1.000
 5941.00    2.56175   2.46535   -1.000
 5942.00    2.55386   2.46018   -1.000
 5943.00    2.57090   2.46991   -1.000
 5944.00    2.60173   2.49074   -1.000
 5945.00    2.61460   2.50285   -1.000
 5946.00    2.60587   2.50555   -1.000
 5947.00    2.57633   2.49626   -1.000
 5948.00    2.54498   2.48053   -1.000
 5949.00    2.54261   2.47304   -1.000
 5950.00    2.55795   2.48060   -1.000
 5951.00    2.56428   2.48459   -1.000
 5952.00    2.56520   2.48059   -1.000
 5953.00    2.55998   2.47558   -1.000
 5954.00    2.57126   2.47967   -1.000
 5955.00    2.54855   2.47872   -1.000
 5956.00    2.52225   2.46804   -1.000
 5957.00    2.53869   2.46222   -1.000
 5958.00    2.56350   2.46975   -1.000
 5959.00    2.59226   2.49160   -1.000
 5960.00    2.60538   2.51176   -1.000
 5961.00    2.59945   2.52679   -1.000
 5962.00    2.60322   2.53042   -1.000
 5963.00    2.59601   2.52720   -1.000
 5964.00    2.59312   2.51824   -1.000
 5965.00    2.59632   2.50691   -1.000
 5966.00    2.60537   2.50116   -1.000
 5967.00    2.62182   2.50971   -1.000
 5968.00    2.61743   2.52322   -1.000
 5969.00    2.62540   2.53071   -1.000
 5970.00    2.64028   2.53743   -1.000
 5971.00    2.63044   2.54335   -1.000
 5972.00    2.61650   2.54234   -1.000
 5973.00    2.59349   2.53674   -1.000
 5974.00    2.58082   2.52944   -1.000
 5975.00    2.58341   2.51292   -1.000
 5976.00    2.57795   2.49528   -1.000
 5977.00    2.55314   2.48714   -1.000
 5978.00    2.53501   2.48845   -1.000
 5979.00    2.56131   2.50387   -1.000
 5980.00    2.58330   2.52064   -1.000
 5981.00    2.60137   2.52736   -1.000
 5982.00    2.59721   2.51610   -1.000
 5983.00    2.55612   2.49154   -1.000
 5984.00    2.53325   2.47500   -1.000
 5985.00    2.54714   2.47810   -1.000
 5986.00    2.56146   2.49931   -1.000
 5987.00    2.57257   2.51745   -1.000
 5988.00    2.59202   2.52726   -1.000
 5989.00    2.60645   2.53400   -1.000
 5990.00    2.61041   2.53433   -1.000
 5991.00    2.61095   2.53405   -1.000
 5992.00    2.62444   2.54344   -1.000
 5993.00    2.63926   2.56567   -1.000
 5994.00    2.62849   2.58109   -1.000
 5995.00    2.61650   2.57755   -1.000
 5996.00    2.62380   2.55966   -1.000
 5997.00    2.61632   2.54173   -1.000
 5998.00    2.61530   2.53725   -1.000
 5999.00    2.61419   2.54188   -1.000
 6000.00    2.60055   2.54419   -1.000
 6001.00    2.60696   2.54150   -1.000
 6002.00    2.61764   2.53384   -1.000
 6003.00    2.61156   2.52831   -1.000
 6004.00    2.58440   2.53416   -1.000
 6005.00    2.58694   2.53854   -1.000
 6006.00    2.57674   2.52292   -1.000
 6007.00    2.54542   2.49712   -1.000
 6008.00    2.54990   2.48917   -1.000
 6009.00    2.58242   2.50838   -1.000
 6010.00    2.59678   2.54032   -1.000
 6011.00    2.60897   2.55078   -1.000
 6012.00    2.58903   2.54115   -1.000
 6013.00    2.57342   2.53243   -1.000
 6014.00    2.59528   2.53076   -1.000
 6015.00    2.58747   2.53717   -1.000
 6016.00    2.58858   2.53366   -1.000
 6017.00    2.60416   2.52596   -1.000
 6018.00    2.61441   2.52506   -1.000
 6019.00    2.59838   2.52183   -1.000
 6020.00    2.58358   2.51705   -1.000
 6021.00    2.58533   2.51816   -1.000
 6022.00    2.60079   2.52523   -1.000
 6023.00    2.60637   2.53110   -1.000
 6024.00    2.61989   2.53966   -1.000
 6025.00    2.64064   2.55445   -1.000
 6026.00    2.64227   2.57004   -1.000
 6027.00    2.61884   2.57919   -1.000
 6028.00    2.62576   2.58878   -1.000
 6029.00    2.65151   2.59846   -1.000
 6030.00    2.65606   2.60026   -1.000
 6031.00    2.65870   2.60069   -1.000
 6032.00    2.66624   2.60427   -1.000
 6033.00    2.67665   2.61117   -1.000
 6034.00    2.67167   2.61949   -1.000
 6035.00    2.66595   2.62235   -1.000
 6036.00    2.67725   2.62048   -1.000
 6037.00    2.68016   2.61465   -1.000
 6038.00    2.65794   2.60702   -1.000
 6039.00    2.63971   2.59845   -1.000
 6040.00    2.64464   2.59219   -1.000
 6041.00    2.66578   2.59390   -1.000
 6042.00    2.68106   2.59054   -1.000
 6043.00    2.66591   2.59039   -1.000
 6044.00    2.65968   2.61401   -1.000
 6045.00    2.67075   2.63478   -1.000
 6046.00    2.67045   2.64212   -1.000
 6047.00    2.67497   2.64352   -1.000
 6048.00    2.68160   2.64481   -1.000
 6049.00    2.67216   2.64335   -1.000
 6050.00    2.68434   2.64315   -1.000
 6051.00    2.68935   2.64188   -1.000
 6052.00    2.67421   2.63387   -1.000
 6053.00    2.66130   2.62322   -1.000
 6054.00    2.66178   2.61410   -1.000
 6055.00    2.67397   2.60320   -1.000
 6056.00    2.65942   2.59306   -1.000
 6057.00    2.65891   2.59156   -1.000
 6058.00    2.65900   2.59793   -1.000
 6059.00    2.64813   2.61022   -1.000
 6060.00    2.64341   2.62413  124.929
 6061.00    2.65171   2.62497   -1.000
 6062.00    2.65544   2.61079   -1.000
 6063.00    2.61728   2.58093   -1.000
 6064.00    2.59882   2.55209   -1.000
 6065.00    2.59200   2.53624   -1.000
 6066.00    2.60360   2.55581   -1.000
 6067.00    2.25618   2.59709   -1.000
 6068.00    1.41728   2.63059   -1.000
 6069.00    2.21246   2.64740   -1.000
 6070.00    2.70613   2.65580   -1.000
 6071.00    2.69182   2.66001   -1.000
 6072.00    2.68458   2.66287   -1.000
 6073.00    2.35625   2.66342   -1.000
 6074.00    1.20877   2.66193   -1.000
 6075.00    1.90563   2.65735   -1.000
 6076.00    2.60869   2.64640   -1.000
 6077.00    2.67528   2.63088   -1.000
 6078.00    2.64660   2.61723   -1.000
 6079.00    2.63708   2.60911   -1.000
 6080.00    2.63202   2.60438   -1.000
 6081.00    2.63791   2.59545   -1.000
 6082.00    2.63547   2.58675   -1.000
 6083.00    2.65287   2.59170   -1.000
 6084.00    2.63951   2.59885   -1.000
 6085.00    2.63270   2.60312   -1.000
 6086.00    2.65075   2.61023   -1.000
 6087.00    2.65612   2.61988   -1.000
 6088.00    2.65117   2.62169   -1.000
 6089.00    2.64154   2.61205   -1.000
 6090.00    2.61136   2.59708  127.791
 6091.00    2.62474   2.58873   -1.000
 6092.00    2.65184   2.59431   -1.000
 6093.00    2.67544   2.60724   -1.000
 6094.00    2.70284   2.62520   -1.000
 6095.00    2.70143   2.63636   -1.000
 6096.00    2.68171   2.64154   -1.000
 6097.00    2.67413   2.64373   -1.000
 6098.00    2.66751   2.64884  125.966
 6099.00    2.65603   2.65121  126.088
 6100.00    2.64328   2.63068  126.102
 6101.00    2.60260   2.58295  127.369
 6102.00    2.54361   2.52497  130.283
 6103.00    2.54803   2.50891   -1.000
 6104.00    2.61189   2.54580   -1.000
 6105.00    2.65230   2.58666   -1.000
 6106.00    2.63793   2.61339   -1.000
 6107.00    2.63624   2.62527  127.022
 6108.00    2.64515   2.63425  127.391
 6109.00    2.64837   2.64559  127.752
 6110.00    2.65541   2.64740  127.752
 6111.00    2.66988   2.64040   -1.000
 6112.00    2.68182   2.64268   -1.000
 6113.00    2.69134   2.65403   -1.000
 6114.00    2.69856   2.66366   -1.000
 6115.00    2.68927   2.66397   -1.000
 6116.00    2.67055   2.65416  126.293
 6117.00    2.66051   2.65389  127.093
 6118.00    2.65857   2.64396  127.387
 6119.00    2.63051   2.60439   -1.000
 6120.00    2.59453   2.55933   -1.000
 6121.00    2.57602   2.50679   -1.000
 6122.00    2.56205   2.48878   -1.000
 6123.00    2.58144   2.52667   -1.000
 6124.00    2.62578   2.57115   -1.000
 6125.00    2.63522   2.60100   -1.000
 6126.00    2.62062   2.61092  129.018
 6127.00    2.63036   2.61243  129.678
 6128.00    2.64755   2.61159   -1.000
 6129.00    2.66612   2.62834   -1.000
 6130.00    2.68436   2.65596   -1.000
 6131.00    2.68622   2.67436  127.260
 6132.00    2.68477   2.67987  126.835
 6133.00    2.64897   2.66664  127.017
 6134.00    2.58534   2.62653   -1.000
 6135.00    2.54447   2.55068  130.704
 6136.00    2.50491   2.47605   -1.000
 6137.00    2.50577   2.45535   -1.000
 6138.00    2.54554   2.50845   -1.000
 6139.00    2.58346   2.56490  136.001
 6140.00    2.60852   2.59210  132.136
 6141.00    2.59859   2.58667  130.281
 6142.00    2.60012   2.59707  130.277
 6143.00    2.64439   2.63163  130.530
 6144.00    2.70229   2.65807   -1.000
 6145.00    2.70207   2.66661   -1.000
 6146.00    2.68107   2.66152  127.488
 6147.00    2.66133   2.64772  127.977
 6148.00    2.63786   2.62556  128.770
 6149.00    2.62225   2.61034  129.688
 6150.00    2.60782   2.60592  130.479
 6151.00    2.60758   2.61585  130.615
 6152.00    2.62731   2.63147  130.200
 6153.00    2.63359   2.63492  129.352
 6154.00    2.60960   2.62291  129.054
 6155.00    2.60337   2.60841  129.955
 6156.00    2.60781   2.60197  130.731
 6157.00    2.58071   2.59665  130.909
 6158.00    2.54567   2.58477   -1.000
 6159.00    2.51608   2.55207   -1.000
 6160.00    2.46428   2.48024  134.986
 6161.00    2.41545   2.39633  138.848
 6162.00    2.39532   2.33929   -1.000
 6163.00    2.41798   2.35285   -1.000
 6164.00    2.44787   2.40658   -1.000
 6165.00    2.47952   2.45649   -1.000
 6166.00    2.48107   2.48862  137.011
 6167.00    2.47025   2.49985   -1.000
 6168.00    2.45887   2.47917  136.432
 6169.00    2.43899   2.44657  137.987
 6170.00    2.44969   2.45028  139.492
 6171.00    2.46762   2.48757  138.876
 6172.00    2.49525   2.52655   -1.000
 6173.00    2.52869   2.54357  134.332
 6174.00    2.54680   2.55260  134.135
 6175.00    2.52916   2.56023   -1.000
 6176.00    2.53917   2.56208   -1.000
 6177.00    2.53884   2.56881   -1.000
 6178.00    2.55285   2.57865   -1.000
 6179.00    2.56478   2.58492  132.800
 6180.00    2.58186   2.58858  132.281
 6181.00    2.58360   2.59881  131.855
 6182.00    2.57620   2.60668   -1.000
 6183.00    2.58541   2.60684  130.888
 6184.00    2.59539   2.60080  131.057
 6185.00    2.59031   2.58891  131.500
 6186.00    2.55434   2.56641  132.454
 6187.00    2.51368   2.54716   -1.000
 6188.00    2.50293   2.53279   -1.000
 6189.00    2.50179   2.50948  136.565
 6190.00    2.47133   2.47342  137.603
 6191.00    2.43809   2.44472  139.265
 6192.00    2.45964   2.46334  140.343
 6193.00    2.50209   2.50904  139.172
 6194.00    2.52283   2.54634   -1.000
 6195.00    2.54390   2.56926   -1.000
 6196.00    2.56436   2.58608   -1.000
 6197.00    2.56519   2.58744   -1.000
 6198.00    2.53799   2.56955   -1.000
 6199.00    2.51260   2.54535   -1.000
 6200.00    2.51025   2.54448   -1.000
 6201.00    2.53404   2.56571   -1.000
 6202.00    2.55719   2.58581   -1.000
 6203.00    2.55119   2.60224   -1.000
 6204.00    2.52598   2.60915   -1.000
 6205.00    2.54423   2.61353   -1.000
 6206.00    2.58135   2.61761   -1.000
 6207.00    2.59417   2.62207   -1.000
 6208.00    2.59538   2.62392   -1.000
 6209.00    2.58910   2.61692   -1.000
 6210.00    2.57319   2.60359   -1.000
 6211.00    2.54999   2.58482   -1.000
 6212.00    2.51487   2.55528   -1.000
 6213.00    2.47939   2.51705   -1.000
 6214.00    2.46925   2.49448   -1.000
 6215.00    2.48142   2.48708  139.920
 6216.00    2.50070   2.49289  140.446
 6217.00    2.51176   2.49915  138.960
 6218.00    2.50903   2.49951  138.030
 6219.00    2.49734   2.49283  138.825
 6220.00    2.48393   2.49425  138.630
 6221.00    2.49736   2.50741  137.639
 6222.00    2.53638   2.51613  138.154
 6223.00    2.55349   2.51434   -1.000
 6224.00    2.53551   2.51840  144.995
 6225.00    2.53354   2.52513  138.097
 6226.00    2.55187   2.53150  136.662
 6227.00    2.52486   2.53050  136.848
 6228.00    2.50043   2.50941  137.481
 6229.00    2.48391   2.46860  139.185
 6230.00    2.46324   2.42718   -1.000
 6231.00    2.46446   2.42144   -1.000
 6232.00    2.47686   2.44764   -1.000
 6233.00    2.51130   2.48953  141.323
 6234.00    2.54365   2.52986  138.728
 6235.00    2.54576   2.55502  136.392
 6236.00    2.52433   2.55448   -1.000
 6237.00    2.51518   2.53879   -1.000
 6238.00    2.48976   2.51767   -1.000
 6239.00    2.46364   2.50000   -1.000
 6240.00    2.47181   2.49064   -1.000
 6241.00    2.48715   2.48982  141.115
 6242.00    2.48648   2.48393  141.154
 6243.00    2.46622   2.46970  141.971
 6244.00    2.47415   2.46038  142.963
 6245.00    2.49242   2.46057   -1.000
 6246.00    2.49990   2.47503   -1.000
 6247.00    2.52440   2.50923  140.934
 6248.00    2.54912   2.53822  139.199
 6249.00    2.53699   2.55359  137.677
 6250.00    2.52748   2.54684  137.299
 6251.00    2.50165   2.51825  138.336
 6252.00    2.47532   2.48193  140.694
 6253.00    2.46148   2.46671  142.634
 6254.00    2.46097   2.46839  143.730
 6255.00    2.45851   2.47204  144.225
 6256.00    2.44901   2.46513  144.242
 6257.00    2.43879   2.44656  145.273
 6258.00    2.41566   2.44536   -1.000
 6259.00    2.41349   2.46447   -1.000
 6260.00    2.45014   2.49581   -1.000
 6261.00    2.49068   2.53052   -1.000
 6262.00    2.53316   2.56157   -1.000
 6263.00    2.56139   2.57629  138.124
 6264.00    2.55746   2.57228  137.137
 6265.00    2.55480   2.56502  137.914
 6266.00    2.55326   2.56646  138.916
 6267.00    2.54185   2.57423   -1.000
 6268.00    2.54459   2.57412   -1.000
 6269.00    2.53505   2.56951   -1.000
 6270.00    2.54563   2.56996   -1.000
 6271.00    2.54569   2.57815   -1.000
 6272.00    2.55461   2.58279   -1.000
 6273.00    2.56416   2.57648  137.690
 6274.00    2.55134   2.55587  137.916
 6275.00    2.54672   2.53035  138.809
 6276.00    2.53837   2.50733   -1.000
 6277.00    2.51493   2.49084   -1.000
 6278.00    2.45114   2.48248   -1.000
 6279.00    2.39256   2.47724   -1.000
 6280.00    2.37179   2.48093   -1.000
 6281.00    2.37689   2.49795   -1.000
 6282.00    2.39732   2.52682   -1.000
 6283.00    2.40967   2.56000   -1.000
 6284.00    2.39660   2.58360   -1.000
 6285.00    2.40874   2.59882   -1.000
 6286.00    2.46544   2.61250   -1.000
 6287.00    2.51569   2.62270   -1.000
 6288.00    2.52804   2.62936   -1.000
 6289.00    2.54776   2.62090   -1.000
 6290.00    2.54638   2.60797   -1.000
 6291.00    2.52754   2.59538   -1.000
 6292.00    2.53421   2.58755   -1.000
 6293.00    2.54137   2.58098   -1.000
 6294.00    2.55335   2.57846   -1.000
 6295.00    2.53675   2.56758   -1.000
 6296.00    2.51772   2.54599   -1.000
 6297.00    2.49486   2.53518   -1.000
 6298.00    2.49470   2.54416   -1.000
 6299.00    2.50845   2.55404   -1.000
 6300.00    2.48392   2.55470   -1.000
 6301.00    2.43810   2.54400   -1.000
 6302.00    2.44326   2.54529   -1.000
 6303.00    2.47880   2.56433   -1.000
 6304.00    2.51665   2.58457   -1.000
 6305.00    2.55897   2.59917   -1.000
 6306.00    2.58823   2.61524   -1.000
 6307.00    2.58770   2.63451   -1.000
 6308.00    2.59159   2.64830   -1.000
 6309.00    2.59208   2.64974   -1.000
 6310.00    2.58490   2.64340   -1.000
 6311.00    2.58191   2.63535   -1.000
 6312.00    2.58089   2.62811   -1.000
 6313.00    2.57922   2.62206   -1.000
 6314.00    2.56938   2.60994   -1.000
 6315.00    2.57697   2.60014   -1.000
 6316.00    2.57157   2.59438   -1.000
 6317.00    2.56446   2.58435  140.405
 6318.00    2.56681   2.57899  140.264
 6319.00    2.57567   2.59553  140.387
 6320.00    2.58056   2.62385   -1.000
 6321.00    2.59209   2.63840   -1.000
 6322.00    2.60001   2.64647   -1.000
 6323.00    2.59833   2.66061   -1.000
 6324.00    2.60832   2.67626   -1.000
 6325.00    2.63118   2.68147   -1.000
 6326.00    2.65498   2.68208   -1.000
 6327.00    2.66394   2.68275  134.657
 6328.00    2.66778   2.68481  134.126
 6329.00    2.67085   2.68802  134.050
 6330.00    2.66532   2.68993   -1.000
 6331.00    2.67153   2.69969   -1.000
 6332.00    2.67233   2.71127   -1.000
 6333.00    2.64301   2.70071   -1.000
 6334.00    2.61297   2.67026   -1.000
 6335.00    2.59716   2.63479   -1.000
 6336.00    2.61453   2.62103  136.689
 6337.00    2.67355   2.63672   -1.000
 6338.00    2.70144   2.65814   -1.000
 6339.00    2.68162   2.68138  135.488
 6340.00    2.68028   2.69973  134.016
 6341.00    2.70138   2.70646  133.166
 6342.00    2.70583   2.69656  132.539
 6343.00    2.69626   2.67646  132.459
 6344.00    2.68721   2.66025   -1.000
 6345.00    2.67494   2.66891  133.891
 6346.00    2.68660   2.68827  133.619
 6347.00    2.70373   2.70928  132.966
 6348.00    2.72309   2.72750  132.072
 6349.00    2.72735   2.74114  131.463
 6350.00    2.71445   2.74512   -1.000
 6351.00    2.70711   2.74182   -1.000
 6352.00    2.69585   2.73158   -1.000
 6353.00    2.68497   2.71441   -1.000
 6354.00    2.67774   2.69271  132.275
 6355.00    2.67111   2.68329  133.579
 6356.00    2.65898   2.68081  134.857
 6357.00    2.64131   2.66805   -1.000
 6358.00    2.62391   2.64627   -1.000
 6359.00    2.62489   2.63315  136.735
 6360.00    2.64309   2.62762  137.595
 6361.00    2.65466   2.62069   -1.000
 6362.00    2.65358   2.61860   -1.000
 6363.00    2.64292   2.62768  136.590
 6364.00    2.66390   2.64553  136.210
 6365.00    2.69081   2.66543   -1.000
 6366.00    2.69031   2.68501  134.520
 6367.00    2.69181   2.70411  133.767
 6368.00    2.71233   2.72117  132.952
 6369.00    2.74358   2.72185   -1.000
 6370.00    2.74238   2.72056   -1.000
 6371.00    2.73389   2.72451  131.596
 6372.00    2.75769   2.73503   -1.000
 6373.00    2.77150   2.74693   -1.000
 6374.00    2.75967   2.75076  130.907
 6375.00    2.74471   2.74925  131.097
 6376.00    2.73221   2.74689  131.325
 6377.00    2.71727   2.73635  131.768
 6378.00    2.69269   2.71818  132.400
 6379.00    2.66714   2.70673   -1.000
 6380.00    2.67927   2.69995  133.869
 6381.00    2.69930   2.69978  134.052
 6382.00    2.71656   2.70401  134.257
 6383.00    2.74000   2.70951   -1.000
 6384.00    2.72499   2.71317  134.015
 6385.00    2.69573   2.71853  134.381
 6386.00    2.69244   2.72732   -1.000
 6387.00    2.69635   2.73096   -1.000
 6388.00    2.69466   2.73089   -1.000
 6389.00    2.67832   2.73052   -1.000
 6390.00    2.66024   2.72527   -1.000
 6391.00    2.64526   2.70351   -1.000
 6392.00    2.62003   2.66953   -1.000
 6393.00    2.59317   2.64877   -1.000
 6394.00    2.58796   2.66400   -1.000
 6395.00    2.61361   2.70491   -1.000
 6396.00    2.64645   2.73291   -1.000
 6397.00    2.64307   2.73833   -1.000
 6398.00    2.59196   2.70895   -1.000
 6399.00    2.54200   2.66912   -1.000
 6400.00    2.52466   2.65241   -1.000
 6401.00    2.54769   2.68018   -1.000
 6402.00    2.58272   2.72842   -1.000
 6403.00    2.59741   2.76031   -1.000
 6404.00    2.58863   2.77561   -1.000
 6405.00    2.56327   2.76842   -1.000
 6406.00    2.53367   2.74686   -1.000
 6407.00    2.51422   2.72258   -1.000
 6408.00    2.50675   2.71515   -1.000
 6409.00    2.50086   2.72652   -1.000
 6410.00    2.47626   2.73105   -1.000
 6411.00    2.44042   2.71944   -1.000
 6412.00    2.42867   2.71369   -1.000
 6413.00    2.43062   2.72255   -1.000
 6414.00    2.42384   2.73511   -1.000
 6415.00    2.42124   2.74619   -1.000
 6416.00    2.42183   2.75401   -1.000
 6417.00    2.39839   2.75043   -1.000
 6418.00    2.35486   2.73455   -1.000
 6419.00    2.30769   2.70556   -1.000
 6420.00    2.26653   2.68363   -1.000
 6421.00    2.26555   2.68628   -1.000
 6422.00    2.28518   2.71978   -1.000
 6423.00    2.29083   2.75441   -1.000
 6424.00    2.27863   2.77679   -1.000
 6425.00    2.25137   2.78970   -1.000
 6426.00    2.24071   2.79862   -1.000
 6427.00    2.23841   2.80021   -1.000
 6428.00    2.21698   2.78067   -1.000
