###################################################################
## OUTPUT of StarlightChains_v04.for    [Cid@UFSC - 01/Apr/2007] ##
###################################################################

## Some input info
NGC6723_a_1.cxt                          [arq_obs]
Base.BC03.S                              [arq_base]
NGC6723_a_1.msk                          [arq_masks]
StCv04.C99.config                        [arq_config]
  150                                    [N_base]
    0                                    [N_YAV_components = # of components with extra extinction!]
    0                                    [i_FitPowerLaw (1/0 = Yes/No)]
-9.99                                    [alpha_PowerLaw]
CCM                                      [red_law_option]
 1.458241                                [q_norm = A(l_norm)/A(V)]

## (Re)Sampling Parameters
 3359.00                                 [l_ini (A)]
 6428.00                                 [l_fin (A)]
    1.00                                 [dl    (A)]     (OBS: dl_cushion =    50.00 A)

## Normalization info
 4020.00                                 [l_norm (A) - for base]
 4010.00                                 [llow_norm (A) - window for f_obs]
 4060.00                                 [lupp_norm (A) - window for f_obs]
2.195815E-14                             [fobs_norm (in input units)]

## S/N
 4730.00                                 [llow_SN (A) - window for S/N]
 4780.00                                 [lupp_SN (A) - window for S/N]
  66.760                                 [S/N in S/N window]
  58.282                                 [S/N in norm. window]
  95.225                                 [S/N_err in S/N window]
  83.132                                 [S/N_err in norm. window]
  1.0000                                 [fscale_chi2]

## etc...
  2147483590                             [idum_orig]
  3062                                   [NOl_eff]
  1844                                   [Nl_eff]
  1218    NSIGMA                         [Ntot_cliped & clip_method]
  3805340                                [Nglobal_steps]
   7                                     [N_chains]
  25                                     [NEX0s_base = N_base in EX0s-fits]
 0   0   1      119   2.0   1.984E+02    [Clip-Bug, RC-Crash & Burn-In warning-flags, n_censored_weights, wei_nsig_threshold & wei_limit]
   123    123.011    122.995      0.016  [idt_all, wdt_TotTime, wdt_UsrTime & wdt_SysTime (sec)]

## Synthesis Results - Best model ##

 2.57977E+00                             [chi2/Nl_eff]
     1.73784                             [adev (%)]

   101.41238                             [sum-of-x (%)]
 2.52176E-14                             [Flux_tot (units of input spectrum!)]
 5.23150E-10                             [Mini_tot (???)]
 2.67456E-10                             [Mcor_tot (???)]

  -0.72                                  [v0_min  (km/s)]
  36.64                                  [vd_min  (km/s)]
 0.0926                                  [AV_min  (mag)]
 0.0000                                  [YAV_min (mag)]

# j     x_j(%)      Mini_j(%)     Mcor_j(%)     age_j(yr)     Z_j      (L/M)_j    YAV?  Mstars   component_j        a/Fe...       SSP_chi2r SSP_adev(%)   SSP_AV   SSP_x(%)
  1      0.0000     0.0000E+00    0.0000E+00    1.000000E+06  0.00010  8.160E-03    0   1.0000   age020_m22            0.0000     1.6063E+02    13.5203   3.7236    79.3701
  2      8.6578     8.6473E-03    1.6914E-02    3.160000E+06  0.00010  4.759E-02    0   1.0000   age045_m22            0.0000     3.5945E+01     6.0903   1.7430    97.8969
  3      0.0000     0.0000E+00    0.0000E+00    5.010000E+06  0.00010  1.932E-02    0   0.9582   age055_m22            0.0000     1.4963E+02    13.2344   2.0295    85.1991
  4      0.0000     0.0000E+00    0.0000E+00    6.610000E+06  0.00010  9.973E-03    0   0.9297   age061_m22            0.0000     1.6418E+02    13.7569   3.6919    81.8363
  5      0.0000     0.0000E+00    0.0000E+00    8.710000E+06  0.00010  7.690E-03    0   0.9030   age067_m22            0.0000     1.5592E+02    13.4195   3.6854    82.2433
  6      0.0000     0.0000E+00    0.0000E+00    1.000000E+07  0.00010  6.375E-03    0   0.8902   age070_m22            0.0000     1.4876E+02    13.1005   3.6996    82.4106
  7      0.0000     0.0000E+00    0.0000E+00    1.445000E+07  0.00010  4.874E-03    0   0.8589   age078_m22            0.0000     1.1441E+02    11.6062   3.5254    85.1404
  8      0.0000     0.0000E+00    0.0000E+00    2.512000E+07  0.00010  4.103E-03    0   0.8174   age090_m22            0.0000     6.3266E+01     8.5553   3.1285    91.2922
  9      0.0000     1.1167E-07    1.7103E-07    4.000000E+07  0.00010  3.654E-03    0   0.7830   age104_m22            0.0000     5.2071E+01     6.6215   2.8425    95.6795
 10      0.0000     0.0000E+00    0.0000E+00    5.500000E+07  0.00010  3.093E-03    0   0.7597   age110_m22            0.0000     5.2267E+01     6.1520   2.7429    97.1943
 11      0.0000     0.0000E+00    0.0000E+00    1.015200E+08  0.00010  2.431E-03    0   0.7138   age116_m22            0.0000     6.4557E+01     6.1885   2.3999    99.9902
 12      0.0000     0.0000E+00    0.0000E+00    1.609000E+08  0.00010  1.319E-03    0   0.6775   age120_m22            0.0000     6.3273E+01     6.0301   1.9253   102.1966
 13      0.0000     0.0000E+00    0.0000E+00    2.861200E+08  0.00010  1.075E-03    0   0.6412   age125_m22            0.0000     1.3967E+02     8.2160   2.0007   105.6203
 14      0.0000     0.0000E+00    0.0000E+00    5.088000E+08  0.00010  7.183E-04    0   0.6083   age130_m22            0.0000     1.6743E+02     9.0959   1.7709   107.3807
 15      0.0000     0.0000E+00    0.0000E+00    9.047900E+08  0.00010  4.524E-04    0   0.5785   age135_m22            0.0000     1.6801E+02     9.2525   1.5735   108.5673
 16      0.0000     0.0000E+00    0.0000E+00    1.278050E+09  0.00010  3.018E-04    0   0.5588   age138_m22            0.0000     8.2357E+01     6.6822   1.0309   106.7990
 17      0.0000     0.0000E+00    0.0000E+00    1.434000E+09  0.00010  2.691E-04    0   0.5532   age139_m22            0.0000     6.7355E+01     6.1334   0.8728   106.2269
 18      0.0000     0.0000E+00    0.0000E+00    2.500000E+09  0.00010  1.582E-04    0   0.5296   age150_m22            0.0000     5.9281E+01     5.9544   0.7605   106.8789
 19      0.0000     0.0000E+00    0.0000E+00    4.250000E+09  0.00010  1.007E-04    0   0.5110   age158_m22            0.0000     3.4113E+01     4.6672   0.6041   105.2146
 20      0.0000     0.0000E+00    0.0000E+00    6.250000E+09  0.00010  6.869E-05    0   0.4985   age166_m22            0.0000     1.8786E+01     3.6254   0.5417   102.5068
 21      0.0081     6.5738E-03    6.3406E-03    7.500000E+09  0.00010  5.873E-05    0   0.4931   age171_m22            0.0000     1.8392E+01     3.6709   0.5290   101.9704
 22      0.0000     0.0000E+00    0.0000E+00    1.000000E+10  0.00010  4.481E-05    0   0.4854   age181_m22            0.0000     1.7430E+01     3.5947   0.4900   101.6257
 23      0.0000     0.0000E+00    0.0000E+00    1.300000E+10  0.00010  3.489E-05    0   0.4791   age193_m22            0.0000     1.5445E+01     3.4137   0.4319   101.0987
 24      0.0027     4.1861E-03    3.9025E-03    1.500000E+10  0.00010  3.035E-05    0   0.4766   age201_m22            0.0000     1.4493E+01     3.3345   0.3920   100.9135
 25      0.0000     0.0000E+00    0.0000E+00    1.800000E+10  0.00010  2.510E-05    0   0.4735   age213_m22            0.0000     1.2689E+01     3.1917   0.3220   100.3080
 26      0.0000     0.0000E+00    0.0000E+00    1.000000E+06  0.00040  8.458E-03    0   1.0000   age020_m32            0.0000     1.5937E+02    13.4759   3.7406    79.9414
 27      0.0000     0.0000E+00    0.0000E+00    3.160000E+06  0.00040  3.973E-02    0   1.0000   age045_m32            0.0000     6.8254E+01     9.0043   3.0207    91.3621
 28      0.0000     0.0000E+00    0.0000E+00    5.010000E+06  0.00040  1.935E-02    0   0.9532   age055_m32            0.0000     1.2966E+02    12.5008   3.2431    85.5403
 29      0.0000     0.0000E+00    0.0000E+00    6.610000E+06  0.00040  1.204E-02    0   0.9243   age061_m32            0.0000     1.3981E+02    12.8066   3.5551    83.7454
 30      0.0000     0.0000E+00    0.0000E+00    8.710000E+06  0.00040  9.433E-03    0   0.9001   age067_m32            0.0000     1.2684E+02    12.2347   3.5300    84.5944
 31      0.0000     0.0000E+00    0.0000E+00    1.000000E+07  0.00040  8.053E-03    0   0.8877   age070_m32            0.0000     1.2192E+02    12.0100   3.4952    85.0336
 32      0.0000     0.0000E+00    0.0000E+00    1.445000E+07  0.00040  7.027E-03    0   0.8578   age078_m32            0.0000     8.3821E+01    10.0558   2.9800    89.9945
 33      0.0000     0.0000E+00    0.0000E+00    2.512000E+07  0.00040  4.707E-03    0   0.8166   age090_m32            0.0000     6.0293E+01     8.2157   2.6895    93.7544
 34      0.0000     0.0000E+00    0.0000E+00    4.000000E+07  0.00040  3.714E-03    0   0.7827   age104_m32            0.0000     5.0864E+01     6.7281   2.4930    96.9479
 35      0.0000     0.0000E+00    0.0000E+00    5.500000E+07  0.00040  2.982E-03    0   0.7593   age110_m32            0.0000     5.1985E+01     6.3755   2.4346    98.0740
 36      0.0000     0.0000E+00    0.0000E+00    1.015200E+08  0.00040  2.188E-03    0   0.7143   age116_m32            0.0000     8.2264E+01     6.5203   2.1774   102.2398
 37      0.0000     0.0000E+00    0.0000E+00    1.609000E+08  0.00040  1.690E-03    0   0.6856   age120_m32            0.0000     1.1513E+02     7.5238   1.9755   104.8000
 38      0.0000     0.0000E+00    0.0000E+00    2.861200E+08  0.00040  1.152E-03    0   0.6509   age125_m32            0.0000     1.4533E+02     8.4082   1.7517   106.7889
 39      0.0000     0.0000E+00    0.0000E+00    5.088000E+08  0.00040  7.331E-04    0   0.6182   age130_m32            0.0000     1.5597E+02     8.8010   1.5891   107.5469
 40      0.0000     0.0000E+00    0.0000E+00    9.047900E+08  0.00040  3.960E-04    0   0.5890   age135_m32            0.0000     8.4069E+01     6.7369   1.1241   106.1634
 41      0.0000     0.0000E+00    0.0000E+00    1.278050E+09  0.00040  2.854E-04    0   0.5687   age138_m32            0.0000     6.6891E+01     6.2264   0.8285   107.8672
 42      0.0000     0.0000E+00    0.0000E+00    1.434000E+09  0.00040  2.531E-04    0   0.5632   age139_m32            0.0000     6.5007E+01     6.1733   0.7664   107.8312
 43      4.8614     1.5529E+00    1.6360E+00    2.500000E+09  0.00040  1.488E-04    0   0.5386   age150_m32            0.0000     4.3780E+01     5.1654   0.5033   106.1394
 44     41.3139     2.1622E+01    2.1988E+01    4.250000E+09  0.00040  9.082E-05    0   0.5199   age158_m32            0.0000     1.5347E+01     3.1986   0.3969   102.8342
 45      4.5499     3.3993E+00    3.3751E+00    6.250000E+09  0.00040  6.362E-05    0   0.5076   age166_m32            0.0000     1.0610E+01     3.0683   0.3506    99.4401
 46      1.2551     1.1280E+00    1.1091E+00    7.500000E+09  0.00040  5.289E-05    0   0.5027   age171_m32            0.0000     1.0372E+01     3.1088   0.3126    98.2238
 47      0.0108     1.2956E-02    1.2539E-02    1.000000E+10  0.00040  3.972E-05    0   0.4948   age181_m32            0.0000     9.7953E+00     3.0272   0.2494    96.9147
 48      0.0040     5.7752E-03    5.5013E-03    1.300000E+10  0.00040  3.283E-05    0   0.4870   age193_m32            0.0000     7.6977E+00     2.5575   0.2075    99.6167
 49      0.0030     4.8530E-03    4.6077E-03    1.500000E+10  0.00040  2.925E-05    0   0.4854   age201_m32            0.0000     8.9428E+00     2.6159   0.1905   101.1914
 50      0.0000     0.0000E+00    0.0000E+00    1.800000E+10  0.00040  2.469E-05    0   0.4819   age213_m32            0.0000     9.5829E+00     2.6652   0.1499   101.7067
 51      0.0000     0.0000E+00    0.0000E+00    1.000000E+06  0.00400  1.114E-02    0   1.0000   age020_m42            0.0000     1.5352E+02    13.1866   3.6718    80.3539
 52      0.0000     0.0000E+00    0.0000E+00    3.160000E+06  0.00400  4.073E-02    0   0.9999   age045_m42            0.0000     4.8044E+01     7.3782   2.7192    93.9678
 53      0.0000     0.0000E+00    0.0000E+00    5.010000E+06  0.00400  2.534E-02    0   0.9488   age055_m42            0.0000     8.9298E+01    10.3858   3.1226    87.7969
 54      0.0000     0.0000E+00    0.0000E+00    6.610000E+06  0.00400  2.583E-02    0   0.9220   age061_m42            0.0000     4.5467E+01     6.8359   2.5410    94.6935
 55      0.0000     0.0000E+00    0.0000E+00    8.710000E+06  0.00400  1.706E-02    0   0.8983   age067_m42            0.0000     6.2458E+01     8.7101   2.3592    92.8130
 56      0.0000     0.0000E+00    0.0000E+00    1.000000E+07  0.00400  1.271E-02    0   0.8862   age070_m42            0.0000     8.4390E+01    10.3347   2.3423    91.2592
 57      0.0000     0.0000E+00    0.0000E+00    1.445000E+07  0.00400  7.666E-03    0   0.8571   age078_m42            0.0000     1.0421E+02    11.2622   2.7457    88.1524
 58      0.0000     0.0000E+00    0.0000E+00    2.512000E+07  0.00400  5.070E-03    0   0.8174   age090_m42            0.0000     7.3718E+01     9.7072   2.2085    92.9117
 59      0.0000     0.0000E+00    0.0000E+00    4.000000E+07  0.00400  3.505E-03    0   0.7851   age104_m42            0.0000     4.8651E+01     7.8333   1.8883    95.9202
 60      0.0000     0.0000E+00    0.0000E+00    5.500000E+07  0.00400  3.059E-03    0   0.7629   age110_m42            0.0000     4.1356E+01     5.5692   1.9549   100.4735
 61      0.0042     8.8765E-05    1.2513E-04    1.015200E+08  0.00400  2.268E-03    0   0.7207   age116_m42            0.0000     9.7009E+01     6.7035   1.8824   105.5139
 62      0.0000     0.0000E+00    0.0000E+00    1.609000E+08  0.00400  1.720E-03    0   0.6930   age120_m42            0.0000     1.0497E+02     6.9051   1.7449   107.1048
 63      0.0000     0.0000E+00    0.0000E+00    2.861200E+08  0.00400  1.079E-03    0   0.6613   age125_m42            0.0000     1.0457E+02     7.1792   1.3881   107.6774
 64      0.0000     0.0000E+00    0.0000E+00    5.088000E+08  0.00400  6.261E-04    0   0.6313   age130_m42            0.0000     1.1860E+02     7.8024   1.1972   110.5091
 65      0.0134     1.7960E-03    2.1163E-03    9.047900E+08  0.00400  3.535E-04    0   0.6024   age135_m42            0.0000     6.5937E+01     6.0354   0.7910   110.6628
 66      0.0001     1.5348E-05    1.7523E-05    1.278050E+09  0.00400  2.677E-04    0   0.5837   age138_m42            0.0000     1.9616E+01     4.0406   0.0898   108.0140
 67      0.0000     0.0000E+00    0.0000E+00    1.434000E+09  0.00400  1.910E-04    0   0.5716   age139_m42            0.0000     2.6478E+01     4.2846   0.2613   108.9545
 68      0.1729     8.3693E-02    8.9432E-02    2.500000E+09  0.00400  9.818E-05    0   0.5463   age150_m42            0.0000     7.8410E+00     2.8766  -0.0133   104.0044
 69      0.0000     0.0000E+00    0.0000E+00    4.250000E+09  0.00400  5.491E-05    0   0.5269   age158_m42            0.0000     1.0263E+01     3.0879  -0.1399   101.1406
 70      8.0822     9.9601E+00    1.0035E+01    6.250000E+09  0.00400  3.857E-05    0   0.5151   age166_m42            0.0000     1.7316E+01     3.7644  -0.2668    99.7519
 71     10.8256     1.5867E+01    1.5859E+01    7.500000E+09  0.00400  3.243E-05    0   0.5110   age171_m42            0.0000     2.2737E+01     4.2069  -0.3452    99.1576
 72     13.5991     2.6666E+01    2.6226E+01    1.000000E+10  0.00400  2.424E-05    0   0.5028   age181_m42            0.0000     3.1414E+01     4.8070  -0.4243    98.4714
 73      0.0007     1.8390E-03    1.7723E-03    1.300000E+10  0.00400  1.883E-05    0   0.4927   age193_m42            0.0000     3.9258E+01     5.2661  -0.4636    98.0993
 74      0.0035     9.7695E-03    9.3999E-03    1.500000E+10  0.00400  1.685E-05    0   0.4919   age201_m42            0.0000     3.7120E+01     5.1434  -0.4597    98.1371
 75      0.0000     0.0000E+00    0.0000E+00    1.800000E+10  0.00400  1.452E-05    0   0.4874   age213_m42            0.0000     3.3401E+01     4.9243  -0.4466    98.4424
 76      0.0000     0.0000E+00    0.0000E+00    1.000000E+06  0.00800  1.286E-02    0   1.0000   age020_m52            0.0000     1.3699E+02    12.5579   3.6529    82.0114
 77      0.0000     0.0000E+00    0.0000E+00    3.160000E+06  0.00800  3.147E-02    0   0.9966   age045_m52            0.0000     1.3444E+02    12.4784   3.5683    83.4137
 78      0.0000     0.0000E+00    0.0000E+00    5.010000E+06  0.00800  2.664E-02    0   0.9443   age055_m52            0.0000     1.0244E+02    11.0043   3.2431    86.8226
 79      0.0000     0.0000E+00    0.0000E+00    6.610000E+06  0.00800  2.151E-02    0   0.9177   age061_m52            0.0000     6.4614E+01     9.0851   1.9298    93.1465
 80      0.0000     0.0000E+00    0.0000E+00    8.710000E+06  0.00800  1.628E-02    0   0.8948   age067_m52            0.0000     6.9376E+01     9.3406   2.3104    93.2900
 81      0.0000     0.0000E+00    0.0000E+00    1.000000E+07  0.00800  1.215E-02    0   0.8827   age070_m52            0.0000     8.3625E+01    10.1968   2.6534    91.3877
 82      0.0000     0.0000E+00    0.0000E+00    1.445000E+07  0.00800  8.739E-03    0   0.8552   age078_m52            0.0000     7.2656E+01     9.3259   2.6977    92.6516
 83      0.0000     0.0000E+00    0.0000E+00    2.512000E+07  0.00800  5.676E-03    0   0.8162   age090_m52            0.0000     6.1316E+01     7.9463   2.2994    97.2321
 84      0.0000     0.0000E+00    0.0000E+00    4.000000E+07  0.00800  3.939E-03    0   0.7841   age104_m52            0.0000     5.6518E+01     6.8425   2.1427    99.6876
 85      0.0000     0.0000E+00    0.0000E+00    5.500000E+07  0.00800  3.155E-03    0   0.7627   age110_m52            0.0000     5.9576E+01     6.2464   2.1176   101.4212
 86      0.0000     0.0000E+00    0.0000E+00    1.015200E+08  0.00800  2.206E-03    0   0.7226   age116_m52            0.0000     7.7717E+01     6.1351   1.9394   105.2801
 87      0.0000     0.0000E+00    0.0000E+00    1.609000E+08  0.00800  1.596E-03    0   0.6963   age120_m52            0.0000     8.8723E+01     6.5035   1.7257   107.0252
 88      0.0000     0.0000E+00    0.0000E+00    2.861200E+08  0.00800  1.002E-03    0   0.6665   age125_m52            0.0000     1.2650E+02     7.9683   1.4324   109.9283
 89      0.0000     0.0000E+00    0.0000E+00    5.088000E+08  0.00800  5.759E-04    0   0.6377   age130_m52            0.0000     1.3074E+02     8.5049   1.0815   113.9633
 90      0.0000     0.0000E+00    0.0000E+00    9.047900E+08  0.00800  2.972E-04    0   0.6086   age135_m52            0.0000     6.7514E+01     6.6927   0.5394   112.6479
 91      0.0000     0.0000E+00    0.0000E+00    1.278050E+09  0.00800  2.242E-04    0   0.5907   age138_m52            0.0000     2.6438E+01     4.6307  -0.0790   110.7117
 92      0.0000     0.0000E+00    0.0000E+00    1.434000E+09  0.00800  1.645E-04    0   0.5787   age139_m52            0.0000     2.0628E+01     4.1174   0.0696   110.1267
 93      0.0000     0.0000E+00    0.0000E+00    2.500000E+09  0.00800  7.723E-05    0   0.5519   age150_m52            0.0000     1.9935E+01     4.1569  -0.2681   106.0936
 94      0.0000     0.0000E+00    0.0000E+00    4.250000E+09  0.00800  4.151E-05    0   0.5320   age158_m52            0.0000     2.2229E+01     4.3198  -0.3384   103.5139
 95      0.0010     1.6159E-03    1.6426E-03    6.250000E+09  0.00800  3.010E-05    0   0.5197   age166_m52            0.0000     3.6839E+01     5.2671  -0.5305   101.9992
 96      0.0000     0.0000E+00    0.0000E+00    7.500000E+09  0.00800  2.467E-05    0   0.5139   age171_m52            0.0000     4.1361E+01     5.5205  -0.5712   101.5651
 97      3.2453     8.2843E+00    8.1897E+00    1.000000E+10  0.00800  1.862E-05    0   0.5054   age181_m52            0.0000     5.6034E+01     6.3222  -0.7001   101.1019
 98      2.5785     8.5527E+00    8.3446E+00    1.300000E+10  0.00800  1.433E-05    0   0.4988   age193_m52            0.0000     7.4689E+01     7.1664  -0.7945   101.6134
 99      0.0000     0.0000E+00    0.0000E+00    1.500000E+10  0.00800  1.244E-05    0   0.4936   age201_m52            0.0000     8.2632E+01     7.4683  -0.8228   102.0070
100      0.0060     2.6697E-02    2.5525E-02    1.800000E+10  0.00800  1.070E-05    0   0.4888   age213_m52            0.0000     8.7974E+01     7.7079  -0.8591   101.8682
101      0.0000     0.0000E+00    0.0000E+00    1.000000E+06  0.02000  1.989E-02    0   1.0000   age020_m62            0.0000     1.5635E+02    13.1511   3.6375    80.9780
102      0.0000     0.0000E+00    0.0000E+00    3.160000E+06  0.02000  3.772E-02    0   0.9858   age045_m62            0.0000     1.4409E+02    12.7819   3.4989    83.0979
103      0.0000     0.0000E+00    0.0000E+00    5.010000E+06  0.02000  3.227E-02    0   0.9342   age055_m62            0.0000     6.8507E+01     8.9486   2.9823    90.6387
104      0.0000     0.0000E+00    0.0000E+00    6.610000E+06  0.02000  2.387E-02    0   0.9090   age061_m62            0.0000     9.9287E+01    11.0820   2.7274    89.9140
105      0.0000     0.0000E+00    0.0000E+00    8.710000E+06  0.02000  1.102E-02    0   0.8861   age067_m62            0.0000     2.3960E+02    17.0150   2.3482    84.9196
106      0.0000     0.0000E+00    0.0000E+00    1.000000E+07  0.02000  1.011E-02    0   0.8751   age070_m62            0.0000     1.7186E+02    14.5266   2.3674    87.5678
107      0.0000     0.0000E+00    0.0000E+00    1.445000E+07  0.02000  7.331E-03    0   0.8472   age078_m62            0.0000     1.2534E+02    12.4639   2.3843    89.1930
108      0.0000     0.0000E+00    0.0000E+00    2.512000E+07  0.02000  4.206E-03    0   0.8099   age090_m62            0.0000     1.2602E+02    12.5154   2.2934    88.7389
109      0.0000     0.0000E+00    0.0000E+00    4.000000E+07  0.02000  3.373E-03    0   0.7799   age104_m62            0.0000     5.3064E+01     7.6482   2.1006    97.6108
110      0.0000     0.0000E+00    0.0000E+00    5.500000E+07  0.02000  2.747E-03    0   0.7595   age110_m62            0.0000     5.3230E+01     6.4242   2.0391   101.1074
111      0.0000     0.0000E+00    0.0000E+00    1.015200E+08  0.02000  1.878E-03    0   0.7221   age116_m62            0.0000     9.0193E+01     6.7317   1.9075   105.9589
112      0.0000     0.0000E+00    0.0000E+00    1.609000E+08  0.02000  1.378E-03    0   0.6978   age120_m62            0.0000     1.2290E+02     7.6546   1.7590   108.5512
113      0.0000     0.0000E+00    0.0000E+00    2.861200E+08  0.02000  8.869E-04    0   0.6700   age125_m62            0.0000     1.7822E+02     9.2543   1.3895   112.9182
114      0.0000     0.0000E+00    0.0000E+00    5.088000E+08  0.02000  4.834E-04    0   0.6430   age130_m62            0.0000     1.4670E+02     8.9624   0.9491   115.4261
115      0.0000     0.0000E+00    0.0000E+00    9.047900E+08  0.02000  2.312E-04    0   0.6152   age135_m62            0.0000     5.8134E+01     6.1330   0.3416   114.3069
116      0.0000     0.0000E+00    0.0000E+00    1.278050E+09  0.02000  1.387E-04    0   0.5927   age138_m62            0.0000     2.1836E+01     4.2599  -0.0462   109.7080
117      0.0000     0.0000E+00    0.0000E+00    1.434000E+09  0.02000  1.168E-04    0   0.5865   age139_m62            0.0000     1.8677E+01     4.0516  -0.0719   108.0533
118      0.0000     0.0000E+00    0.0000E+00    2.500000E+09  0.02000  5.505E-05    0   0.5610   age150_m62            0.0000     2.9499E+01     5.0138  -0.4457   104.8393
119      0.0000     0.0000E+00    0.0000E+00    4.250000E+09  0.02000  3.070E-05    0   0.5407   age158_m62            0.0000     6.0914E+01     6.7495  -0.7376   104.5498
120      0.0000     0.0000E+00    0.0000E+00    6.250000E+09  0.02000  2.104E-05    0   0.5277   age166_m62            0.0000     8.2915E+01     7.6405  -0.8684   104.8751
121      0.0000     0.0000E+00    0.0000E+00    7.500000E+09  0.02000  1.770E-05    0   0.5223   age171_m62            0.0000     9.4084E+01     8.1103  -0.9567   105.2227
122      0.0000     0.0000E+00    0.0000E+00    1.000000E+10  0.02000  1.297E-05    0   0.5121   age181_m62            0.0000     1.2383E+02     8.6180  -1.0000   102.9836
123      0.0000     0.0000E+00    0.0000E+00    1.300000E+10  0.02000  9.691E-06    0   0.5047   age193_m62            0.0000     1.5039E+02     9.3108  -1.0000   101.2973
124      0.0000     0.0000E+00    0.0000E+00    1.500000E+10  0.02000  8.360E-06    0   0.4999   age201_m62            0.0000     1.7646E+02    10.0985  -1.0000    99.7781
125      0.0000     0.0000E+00    0.0000E+00    1.800000E+10  0.02000  6.911E-06    0   0.4946   age213_m62            0.0000     2.1019E+02    11.1224  -1.0000    98.1690
126      0.0000     0.0000E+00    0.0000E+00    1.000000E+06  0.05000  2.651E-02    0   0.9998   age020_m72            0.0000     1.4615E+02    12.6196   3.6423    81.8376
127      0.0000     0.0000E+00    0.0000E+00    3.160000E+06  0.05000  4.817E-02    0   0.9577   age045_m72            0.0000     1.0810E+02    11.0779   3.3591    86.3602
128      0.0000     0.0000E+00    0.0000E+00    5.010000E+06  0.05000  3.101E-02    0   0.9147   age055_m72            0.0000     1.0121E+02    10.9387   3.0037    88.8729
129      0.0000     0.0000E+00    0.0000E+00    6.610000E+06  0.05000  1.472E-02    0   0.8877   age061_m72            0.0000     1.8937E+02    14.8770   2.5661    86.5568
130      0.0000     0.0000E+00    0.0000E+00    8.710000E+06  0.05000  1.050E-02    0   0.8638   age067_m72            0.0000     1.3600E+02    12.5059   2.9608    87.2859
131      0.0000     0.0000E+00    0.0000E+00    1.000000E+07  0.05000  8.954E-03    0   0.8524   age070_m72            0.0000     1.0270E+02    10.6781   3.2417    87.5498
132      0.0000     0.0000E+00    0.0000E+00    1.445000E+07  0.05000  6.392E-03    0   0.8262   age078_m72            0.0000     8.8986E+01     9.9265   3.1869    88.6516
133      0.0000     0.0000E+00    0.0000E+00    2.512000E+07  0.05000  4.207E-03    0   0.7902   age090_m72            0.0000     5.8478E+01     8.0396   2.8019    93.2648
134      0.0000     0.0000E+00    0.0000E+00    4.000000E+07  0.05000  3.198E-03    0   0.7618   age104_m72            0.0000     5.8363E+01     5.7300   2.2802   101.6321
135      0.0000     0.0000E+00    0.0000E+00    5.500000E+07  0.05000  2.593E-03    0   0.7432   age110_m72            0.0000     7.3839E+01     6.0996   2.1870   103.4893
136      0.0000     0.0000E+00    0.0000E+00    1.015200E+08  0.05000  1.716E-03    0   0.7092   age116_m72            0.0000     1.0666E+02     7.0777   1.9956   106.1702
137      0.0000     0.0000E+00    0.0000E+00    1.609000E+08  0.05000  1.218E-03    0   0.6876   age120_m72            0.0000     1.4152E+02     8.0137   1.7280   109.0691
138      0.0000     0.0000E+00    0.0000E+00    2.861200E+08  0.05000  7.047E-04    0   0.6618   age125_m72            0.0000     1.6653E+02     9.1697   1.1797   113.3028
139      0.0000     0.0000E+00    0.0000E+00    5.088000E+08  0.05000  3.590E-04    0   0.6356   age130_m72            0.0000     1.1812E+02     8.3741   0.5959   115.9710
140      0.0000     0.0000E+00    0.0000E+00    9.047900E+08  0.05000  1.484E-04    0   0.6088   age135_m72            0.0000     3.3738E+01     5.3891  -0.1481   109.2137
141      0.0000     0.0000E+00    0.0000E+00    1.278050E+09  0.05000  9.435E-05    0   0.5924   age138_m72            0.0000     4.4690E+01     6.2431  -0.5523   105.9746
142      0.0000     0.0000E+00    0.0000E+00    1.434000E+09  0.05000  7.827E-05    0   0.5847   age139_m72            0.0000     4.4209E+01     6.1078  -0.5382   105.3121
143      2.2132     2.7986E+00    3.0562E+00    2.500000E+09  0.05000  3.759E-05    0   0.5583   age150_m72            0.0000     7.7331E+01     7.5538  -0.8642   104.3638
144      0.0000     0.0000E+00    0.0000E+00    4.250000E+09  0.05000  1.842E-05    0   0.5374   age158_m72            0.0000     1.2492E+02     8.8471  -1.0000    99.6043
145      0.0000     0.0000E+00    0.0000E+00    6.250000E+09  0.05000  1.207E-05    0   0.5242   age166_m72            0.0000     2.0976E+02    11.6724  -1.0000    93.4645
146      0.0000     0.0000E+00    0.0000E+00    7.500000E+09  0.05000  9.993E-06    0   0.5183   age171_m72            0.0000     2.2775E+02    12.2792  -1.0000    92.3161
147      0.0000     0.0000E+00    0.0000E+00    1.000000E+10  0.05000  7.291E-06    0   0.5081   age181_m72            0.0000     2.9440E+02    14.2148  -1.0000    89.1173
148      0.0000     0.0000E+00    0.0000E+00    1.300000E+10  0.05000  5.316E-06    0   0.5018   age193_m72            0.0000     4.1171E+02    17.0411  -1.0000    84.3156
149      0.0000     0.0000E+00    0.0000E+00    1.500000E+10  0.05000  4.497E-06    0   0.4972   age201_m72            0.0000     4.6658E+02    18.1713  -1.0000    82.6401
150      0.0000     0.0000E+00    0.0000E+00    1.800000E+10  0.05000  3.739E-06    0   0.4924   age213_m72            0.0000     5.4621E+02    19.6611  -1.0000    80.0675


## Synthesis Results - Average & Chains ##

# j      x_j: min, <> & last-chain-values for 1 ...  7 chains
  1      0.0000      0.0017      0.0000      0.0000      0.0000      0.0000      0.0000      0.0000      0.0000
  2      8.6578      2.0531      3.7567      3.0164      3.5105      3.4065      3.2337      2.3051      2.8386
  3      0.0000      0.0055      0.0000      0.0000      0.0000      0.0000      0.0000      0.0000      0.0000
  4      0.0000      0.0011      0.0000      0.0000      0.0000      0.0000      0.0000      0.0000      0.0000
  5      0.0000      0.0011      0.0011      0.0000      0.0000      0.0000      0.0000      0.0000      0.0000
  6      0.0000      0.0012      0.0000      0.0000      0.0000      0.0000      0.0000      0.0000      0.0000
  7      0.0000      0.0023      0.0000      0.0000      0.0000      0.0000      0.0000      0.0000      0.0000
  8      0.0000      0.0079      0.0000      0.0000      0.0000      0.0000      0.0301      0.0000      0.0000
  9      0.0000      0.1952      0.3747      0.0000      0.2009      0.0000      0.2598      0.3267      0.0000
 10      0.0000      0.0827      0.0000      0.0000      0.0000      0.0000      0.2286      0.0000      0.2775
 11      0.0000      0.1413      0.1639      0.2062      0.3737      0.0000      0.0000      0.4081      0.0000
 12      0.0000      0.0225      0.0000      0.0000      0.0000      0.0000      0.0000      0.0000      0.0000
 13      0.0000      0.0164      0.0000      0.0000      0.0000      0.0000      0.0000      0.0000      0.0000
 14      0.0000      0.0111      0.0000      0.0000      0.0000      0.0000      0.0000      0.0000      0.0000
 15      0.0000      0.0099      0.0000      0.0000      0.0000      0.0000      0.0000      0.0000      0.0000
 16      0.0000      0.0206      0.0000      0.0000      0.0000      0.0000      0.0000      0.0000      0.0000
 17      0.0000      0.0203      0.0000      0.0000      0.0000      0.0000      0.0000      0.0000      0.0000
 18      0.0000      0.0321      0.0000      0.0000      0.0000      0.0000      0.0122      0.0000      0.0000
 19      0.0000      0.0716      0.0000      0.0000      0.0000      0.0000      0.1241      0.0165      0.0000
 20      0.0000      0.1679      0.0000      0.1418      0.2671      0.4465      0.0000      0.0000      0.8933
 21      0.0081      0.2322      0.2743      0.0000      0.1251      0.5549      0.1247      0.1019      0.0193
 22      0.0000      0.1835      0.0439      0.0000      0.2828      0.3774      0.4213      0.5418      0.0000
 23      0.0000      0.2820      0.0833      0.9102      0.1839      0.2860      0.0245      0.1653      0.3868
 24      0.0027      0.4474      0.2158      1.0187      0.6334      0.4996      1.1994      0.0000      0.1785
 25      0.0000      0.5515      0.0000      1.0640      0.1837      0.0000      0.3512      0.5844      0.4862
 26      0.0000      0.0014      0.0000      0.0000      0.0000      0.0000      0.0000      0.0000      0.0052
 27      0.0000      0.0099      0.0000      0.0000      0.0000      0.0000      0.0000      0.0360      0.0000
 28      0.0000      0.0026      0.0000      0.0000      0.0000      0.0000      0.0000      0.0000      0.0043
 29      0.0000      0.0021      0.0000      0.0000      0.0000      0.0000      0.0000      0.0004      0.0000
 30      0.0000      0.0026      0.0000      0.0000      0.0000      0.0000      0.0000      0.0000      0.0000
 31      0.0000      0.0023      0.0000      0.0000      0.0000      0.0000      0.0000      0.0000      0.0000
 32      0.0000      0.0075      0.0000      0.0000      0.0000      0.0000      0.0000      0.0000      0.0000
 33      0.0000      0.0125      0.0000      0.0000      0.0000      0.0000      0.0000      0.0000      0.0000
 34      0.0000      0.0482      0.0000      0.0366      0.0000      0.0000      0.0406      0.1758      0.0000
 35      0.0000      0.0461      0.0000      0.0000      0.0000      0.0000      0.0000      0.1339      0.0000
 36      0.0000      0.1022      0.0772      0.6846      0.1494      0.6346      0.0000      0.0000      0.0000
 37      0.0000      0.0625      0.1551      0.0000      0.2745      0.0000      0.0400      0.0957      0.0000
 38      0.0000      0.0239      0.0000      0.0000      0.0000      0.2209      0.0000      0.0000      0.0000
 39      0.0000      0.0163      0.0000      0.0000      0.0797      0.2462      0.0000      0.0000      0.0229
 40      0.0000      0.0140      0.0000      0.0000      0.0000      0.0000      0.0000      0.0000      0.0000
 41      0.0000      0.0416      0.0000      0.0000      0.0000      0.0000      0.0000      0.0000      0.0000
 42      0.0000      0.0503      0.0000      0.0000      0.0000      0.0000      0.0000      0.0000      0.0000
 43      4.8614      3.7301      4.1570      3.6234      3.0968      3.5305      3.5295      4.1379      3.8629
 44     41.3139     35.5663     36.3437     36.6737     36.1835     34.5494     36.7997     37.7692     37.2631
 45      4.5499      6.1648      7.0310      5.3821      6.4762      6.3931      6.1789      6.3800      5.8555
 46      1.2551      1.8507      1.9578      2.0701      0.2288      1.8266      0.3096      1.5911      1.4831
 47      0.0108      6.1864      5.5050      5.1785      6.9788      6.1083      6.3330      5.7190      5.7550
 48      0.0040      0.7924      0.2518      0.3629      0.6369      0.1193      0.5094      0.4059      0.6502
 49      0.0030      0.9149      0.9433      0.8139      0.8195      0.4262      0.9330      0.0000      0.0000
 50      0.0000      0.7463      0.1467      0.0000      0.7416      0.5526      0.6589      0.3679      0.2161
 51      0.0000      0.0014      0.0000      0.0000      0.0000      0.0000      0.0000      0.0000      0.0000
 52      0.0000      0.0589      0.0000      0.0000      0.0000      0.0000      0.0000      0.0000      0.0000
 53      0.0000      0.0069      0.0000      0.0000      0.0000      0.0048      0.0000      0.0000      0.0000
 54      0.0000      0.3390      0.0000      0.3391      0.2013      0.3426      0.1872      0.2371      0.3495
 55      0.0000      0.0365      0.0000      0.1435      0.0000      0.0000      0.0000      0.0000      0.2091
 56      0.0000      0.0172      0.0000      0.0000      0.0000      0.0039      0.0000      0.0000      0.0000
 57      0.0000      0.0040      0.0000      0.0000      0.0000      0.0000      0.0000      0.0000      0.0000
 58      0.0000      0.0112      0.0000      0.0000      0.0000      0.0000      0.0000      0.0000      0.0000
 59      0.0000      0.0086      0.0000      0.0000      0.0000      0.0000      0.0000      0.0000      0.0000
 60      0.0000      0.0195      0.0002      0.0000      0.0000      0.0000      0.0000      0.0000      0.0000
 61      0.0042      0.0747      0.2210      0.1487      0.0000      0.1694      0.0618      0.0000      0.1241
 62      0.0000      0.0871      0.0000      0.0000      0.0000      0.4848      0.0000      0.0524      0.6081
 63      0.0000      0.0221      0.1705      0.0000      0.0000      0.0000      0.0000      0.0000      0.1215
 64      0.0000      0.0377      0.0000      0.0000      0.3726      0.2949      0.2716      0.0000      0.0000
 65      0.0134      0.0750      0.2755      0.0000      0.0834      0.0000      0.1152      0.0030      0.0564
 66      0.0001      0.0527      0.3865      0.0000      0.2183      0.0000      0.0000      0.0000      0.0000
 67      0.0000      0.1225      0.0000      0.4178      0.0000      0.0000      0.0000      0.0000      0.0656
 68      0.1729      0.3785      0.5512      0.3571      0.1428      1.0592      0.4700      0.0000      0.3166
 69      0.0000      0.3140      0.0000      0.0000      0.0000      0.0000      0.0020      0.1712      0.0391
 70      8.0822      7.1485      7.4065      6.8482      7.3745      6.7933      7.0412      7.9646      7.4365
 71     10.8256      9.1064      9.2294      9.3665      9.1907      9.6296      9.1228      9.5636      9.2043
 72     13.5991     14.7225     14.4956     15.3141     15.2209     15.3020     15.2778     15.3950     15.6367
 73      0.0007      0.2794      0.3247      0.4103      0.0000      0.1547      0.1874      0.0000      0.0256
 74      0.0035      0.1108      0.3454      0.1922      0.3408      0.0000      0.0000      0.0000      0.2099
 75      0.0000      0.0919      0.0000      0.0000      0.0181      0.4535      0.2420      0.0412      0.0872
 76      0.0000      0.0012      0.0000      0.0000      0.0000      0.0000      0.0000      0.0000      0.0000
 77      0.0000      0.0018      0.0000      0.0000      0.0000      0.0000      0.0000      0.0000      0.0000
 78      0.0000      0.0031      0.0000      0.0000      0.0000      0.0000      0.0000      0.0000      0.0000
 79      0.0000      0.0093      0.0000      0.0000      0.0000      0.0000      0.0000      0.0000      0.0000
 80      0.0000      0.0110      0.0000      0.0000      0.0000      0.0000      0.0000      0.0000      0.0000
 81      0.0000      0.0062      0.0000      0.0000      0.0000      0.0000      0.0000      0.0000      0.0000
 82      0.0000      0.0097      0.0000      0.0000      0.0000      0.0000      0.0000      0.0000      0.0000
 83      0.0000      0.0357      0.0000      0.0000      0.0036      0.0000      0.0000      0.0419      0.0004
 84      0.0000      0.0178      0.0000      0.0000      0.0845      0.0000      0.0000      0.0000      0.0000
 85      0.0000      0.0396      0.0000      0.0000      0.0000      0.1210      0.0000      0.0000      0.0000
 86      0.0000      0.0768      0.0000      0.0199      0.0000      0.0000      0.0000      0.2113      0.2289
 87      0.0000      0.0293      0.0000      0.0000      0.0000      0.1697      0.0000      0.0000      0.0000
 88      0.0000      0.0145      0.0000      0.0000      0.0000      0.0000      0.0000      0.0000      0.0000
 89      0.0000      0.0136      0.0000      0.0000      0.0000      0.0000      0.0000      0.0000      0.0000
 90      0.0000      0.0115      0.0000      0.0000      0.0000      0.0000      0.0000      0.0000      0.0000
 91      0.0000      0.0144      0.0000      0.0000      0.0000      0.0000      0.0000      0.0000      0.0000
 92      0.0000      0.0163      0.0000      0.0000      0.0000      0.0000      0.0000      0.0208      0.0000
 93      0.0000      0.0893      0.0830      0.0000      0.0000      0.0000      0.0898      0.0000      0.0000
 94      0.0000      0.2232      0.0000      0.0000      0.0000      0.2715      0.1176      0.2046      0.0000
 95      0.0010      0.7281      1.0315      1.1356      0.5876      0.6761      1.1182      1.1632      0.8464
 96      0.0000      0.2891      0.1606      0.0000      0.3263      0.0789      0.1607      0.0000      0.1866
 97      3.2453      2.0669      2.0484      2.3339      1.9042      2.0270      2.4986      2.4525      1.9371
 98      2.5785      0.7676      1.4343      0.5469      1.0649      0.7726      0.9413      0.6238      0.7960
 99      0.0000      0.2226      0.0000      0.5172      0.1535      0.4203      0.3992      0.2900      0.0000
100      0.0060      0.2683      0.2563      0.2365      0.0000      0.2144      0.2884      0.1813      0.4073
101      0.0000      0.0012      0.0000      0.0000      0.0000      0.0000      0.0000      0.0000      0.0000
102      0.0000      0.0014      0.0000      0.0000      0.0000      0.0000      0.0000      0.0000      0.0000
103      0.0000      0.0112      0.0000      0.0000      0.0000      0.0000      0.0000      0.0000      0.0000
104      0.0000      0.0105      0.0000      0.0000      0.0000      0.0000      0.0026      0.1004      0.0000
105      0.0000      0.0023      0.0464      0.0000      0.0000      0.0000      0.0000      0.0000      0.0000
106      0.0000      0.0024      0.0000      0.0000      0.0000      0.0000      0.0000      0.0000      0.0000
107      0.0000      0.0033      0.0000      0.0000      0.0000      0.0000      0.0000      0.0000      0.0000
108      0.0000      0.0021      0.0000      0.0000      0.0000      0.0000      0.0000      0.0000      0.0000
109      0.0000      0.0059      0.0000      0.0000      0.0000      0.0000      0.0047      0.0057      0.0000
110      0.0000      0.0094      0.0000      0.0000      0.0000      0.0000      0.0000      0.0000      0.0000
111      0.0000      0.0140      0.0000      0.0000      0.0000      0.0000      0.0000      0.0000      0.0000
112      0.0000      0.0147      0.0000      0.0000      0.0000      0.0000      0.2781      0.0000      0.0000
113      0.0000      0.0106      0.0000      0.0000      0.0000      0.0000      0.0000      0.0000      0.0072
114      0.0000      0.0105      0.0000      0.0000      0.0000      0.0000      0.0000      0.0000      0.0000
115      0.0000      0.0170      0.0000      0.0102      0.0000      0.0000      0.0000      0.0000      0.0000
116      0.0000      0.0192      0.0000      0.0000      0.1114      0.0000      0.0000      0.0000      0.0000
117      0.0000      0.0234      0.0000      0.0078      0.0000      0.0000      0.0618      0.0000      0.0000
118      0.0000      0.0469      0.0862      0.0000      0.0000      0.0000      0.0000      0.0000      0.0000
119      0.0000      0.0334      0.0000      0.0000      0.0000      0.0940      0.0000      0.0791      0.0000
120      0.0000      0.0341      0.0000      0.0000      0.0000      0.0000      0.2795      0.0000      0.0000
121      0.0000      0.0250      0.0000      0.0000      0.0000      0.0000      0.0000      0.0000      0.0000
122      0.0000      0.0200      0.0000      0.0000      0.0000      0.0000      0.0000      0.0000      0.0019
123      0.0000      0.0105      0.0000      0.0000      0.0000      0.0000      0.0000      0.0000      0.0000
124      0.0000      0.0118      0.0000      0.0000      0.0000      0.0327      0.0000      0.0000      0.0000
125      0.0000      0.0095      0.0000      0.0000      0.0000      0.0000      0.0000      0.0000      0.0000
126      0.0000      0.0009      0.0000      0.0000      0.0000      0.0000      0.0000      0.0000      0.0000
127      0.0000      0.0040      0.0000      0.0000      0.0000      0.0000      0.0000      0.0000      0.0000
128      0.0000      0.0060      0.0000      0.0000      0.0000      0.0000      0.0000      0.0000      0.0000
129      0.0000      0.0031      0.0000      0.0000      0.0000      0.0000      0.0000      0.0000      0.0000
130      0.0000      0.0016      0.0000      0.0000      0.0000      0.0000      0.0000      0.0000      0.0000
131      0.0000      0.0020      0.0000      0.0000      0.0000      0.0000      0.0000      0.0000      0.0000
132      0.0000      0.0024      0.0000      0.0000      0.0000      0.0000      0.0000      0.0000      0.0000
133      0.0000      0.0033      0.0000      0.0105      0.0000      0.0000      0.0000      0.0000      0.0000
134      0.0000      0.0095      0.0000      0.0000      0.0000      0.0000      0.0000      0.0000      0.0000
135      0.0000      0.0111      0.0000      0.0000      0.0000      0.0000      0.0000      0.0000      0.0000
136      0.0000      0.0161      0.0000      0.0505      0.0000      0.0000      0.0000      0.0000      0.0000
137      0.0000      0.0161      0.0000      0.0000      0.0000      0.0000      0.0000      0.0000      0.0000
138      0.0000      0.0131      0.0000      0.0000      0.0000      0.0000      0.0000      0.0000      0.0000
139      0.0000      0.0196      0.0000      0.0000      0.0000      0.0000      0.0000      0.0000      0.0000
140      0.0000      0.0272      0.0000      0.0000      0.0000      0.0000      0.0000      0.1813      0.0000
141      0.0000      0.1463      0.0877      0.0000      0.8614      0.0110      0.0063      0.0000      0.0448
142      0.0000      0.2585      0.0000      0.4130      0.0368      0.0000      0.1574      0.0724      0.0277
143      2.2132      0.3135      0.3792      0.5068      0.6777      0.7296      0.0000      0.1765      1.1250
144      0.0000      0.1531      0.0000      0.0000      0.0000      0.0000      0.0822      0.0748      0.4000
145      0.0000      0.1130      0.0454      0.0000      0.0214      0.3060      0.0000      0.0708      0.0000
146      0.0000      0.0820      0.0000      0.0504      0.0981      0.0000      0.0000      0.0000      0.0000
147      0.0000      0.0726      0.1871      0.1026      0.3746      0.0000      0.1184      0.0000      0.1163
148      0.0000      0.0702      0.1686      0.0000      0.0000      0.0182      0.0000      0.0000      0.0000
149      0.0000      0.2118      0.1803      0.2952      0.2884      0.2379      0.2671      0.2698      0.2149
150      0.0000      0.2276      0.1071      0.2179      0.0000      0.1676      0.0000      0.2607      0.1969

# j      m_j: min, <> & last-chain-values for 1 ...  7 chains
  1  0.0000E+00  1.7359E-05  0.0000E+00  0.0000E+00  0.0000E+00  0.0000E+00  0.0000E+00  0.0000E+00  0.0000E+00
  2  1.6914E-02  3.5593E-03  6.7159E-03  5.2362E-03  6.2381E-03  6.0263E-03  5.6773E-03  4.0798E-03  5.0413E-03
  3  0.0000E+00  2.2448E-05  0.0000E+00  0.0000E+00  0.0000E+00  0.0000E+00  0.0000E+00  0.0000E+00  0.0000E+00
  4  0.0000E+00  8.6719E-06  0.0000E+00  0.0000E+00  0.0000E+00  0.0000E+00  0.0000E+00  0.0000E+00  0.0000E+00
  5  0.0000E+00  1.0423E-05  1.1091E-05  0.0000E+00  0.0000E+00  0.0000E+00  0.0000E+00  0.0000E+00  0.0000E+00
  6  0.0000E+00  1.3521E-05  0.0000E+00  0.0000E+00  0.0000E+00  0.0000E+00  0.0000E+00  0.0000E+00  0.0000E+00
  7  0.0000E+00  3.3767E-05  0.0000E+00  0.0000E+00  0.0000E+00  0.0000E+00  0.0000E+00  0.0000E+00  0.0000E+00
  8  0.0000E+00  1.3028E-04  0.0000E+00  0.0000E+00  0.0000E+00  0.0000E+00  5.0039E-04  0.0000E+00  0.0000E+00
  9  1.7103E-07  3.4508E-03  6.8309E-03  0.0000E+00  3.6412E-03  0.0000E+00  4.6507E-03  5.8960E-03  0.0000E+00
 10  0.0000E+00  1.6758E-03  0.0000E+00  0.0000E+00  0.0000E+00  0.0000E+00  4.6912E-03  0.0000E+00  5.7600E-03
 11  0.0000E+00  3.4222E-03  4.0953E-03  5.0007E-03  9.2804E-03  0.0000E+00  0.0000E+00  1.0093E-02  0.0000E+00
 12  0.0000E+00  9.5219E-04  0.0000E+00  0.0000E+00  0.0000E+00  0.0000E+00  0.0000E+00  0.0000E+00  0.0000E+00
 13  0.0000E+00  8.0809E-04  0.0000E+00  0.0000E+00  0.0000E+00  0.0000E+00  0.0000E+00  0.0000E+00  0.0000E+00
 14  0.0000E+00  7.7427E-04  0.0000E+00  0.0000E+00  0.0000E+00  0.0000E+00  0.0000E+00  0.0000E+00  0.0000E+00
 15  0.0000E+00  1.0479E-03  0.0000E+00  0.0000E+00  0.0000E+00  0.0000E+00  0.0000E+00  0.0000E+00  0.0000E+00
 16  0.0000E+00  3.1506E-03  0.0000E+00  0.0000E+00  0.0000E+00  0.0000E+00  0.0000E+00  0.0000E+00  0.0000E+00
 17  0.0000E+00  3.4510E-03  0.0000E+00  0.0000E+00  0.0000E+00  0.0000E+00  0.0000E+00  0.0000E+00  0.0000E+00
 18  0.0000E+00  8.8731E-03  0.0000E+00  0.0000E+00  0.0000E+00  0.0000E+00  3.4246E-03  0.0000E+00  0.0000E+00
 19  0.0000E+00  2.9965E-02  0.0000E+00  0.0000E+00  0.0000E+00  0.0000E+00  5.2617E-02  7.0399E-03  0.0000E+00
 20  0.0000E+00  1.0050E-01  0.0000E+00  8.5031E-02  1.6393E-01  2.7283E-01  0.0000E+00  0.0000E+00  5.4794E-01
 21  6.3406E-03  1.6085E-01  1.9590E-01  0.0000E+00  8.8805E-02  3.9224E-01  8.7463E-02  7.2075E-02  1.3714E-02
 22  0.0000E+00  1.6399E-01  4.0421E-02  0.0000E+00  2.5909E-01  3.4421E-01  3.8132E-01  4.9432E-01  0.0000E+00
 23  0.0000E+00  3.1949E-01  9.7372E-02  1.0325E+00  2.1352E-01  3.3062E-01  2.8160E-02  1.9115E-01  4.4896E-01
 24  3.9025E-03  5.7969E-01  2.8835E-01  1.3216E+00  8.4117E-01  6.6056E-01  1.5736E+00  0.0000E+00  2.3695E-01
 25  0.0000E+00  8.5833E-01  0.0000E+00  1.6581E+00  2.9309E-01  0.0000E+00  5.5362E-01  9.2864E-01  7.7513E-01
 26  0.0000E+00  1.3191E-05  0.0000E+00  0.0000E+00  0.0000E+00  0.0000E+00  0.0000E+00  0.0000E+00  5.1919E-05
 27  0.0000E+00  2.0643E-05  0.0000E+00  0.0000E+00  0.0000E+00  0.0000E+00  0.0000E+00  7.6428E-05  0.0000E+00
 28  0.0000E+00  1.0683E-05  0.0000E+00  0.0000E+00  0.0000E+00  0.0000E+00  0.0000E+00  0.0000E+00  1.8022E-05
 29  0.0000E+00  1.3112E-05  0.0000E+00  0.0000E+00  0.0000E+00  0.0000E+00  0.0000E+00  2.2680E-06  0.0000E+00
 30  0.0000E+00  2.0352E-05  0.0000E+00  0.0000E+00  0.0000E+00  0.0000E+00  0.0000E+00  0.0000E+00  0.0000E+00
 31  0.0000E+00  2.0776E-05  0.0000E+00  0.0000E+00  0.0000E+00  0.0000E+00  0.0000E+00  0.0000E+00  0.0000E+00
 32  0.0000E+00  7.5480E-05  0.0000E+00  0.0000E+00  0.0000E+00  0.0000E+00  0.0000E+00  0.0000E+00  0.0000E+00
 33  0.0000E+00  1.7868E-04  0.0000E+00  0.0000E+00  0.0000E+00  0.0000E+00  0.0000E+00  0.0000E+00  0.0000E+00
 34  0.0000E+00  8.3773E-04  0.0000E+00  6.3700E-04  0.0000E+00  0.0000E+00  7.1431E-04  3.1206E-03  0.0000E+00
 35  0.0000E+00  9.6883E-04  0.0000E+00  0.0000E+00  0.0000E+00  0.0000E+00  0.0000E+00  2.8718E-03  0.0000E+00
 36  0.0000E+00  2.7534E-03  2.1435E-03  1.8463E-02  4.1243E-03  1.7442E-02  0.0000E+00  0.0000E+00  0.0000E+00
 37  0.0000E+00  2.0907E-03  5.3520E-03  0.0000E+00  9.4170E-03  0.0000E+00  1.3549E-03  3.2717E-03  0.0000E+00
 38  0.0000E+00  1.1150E-03  0.0000E+00  0.0000E+00  0.0000E+00  1.0509E-02  0.0000E+00  0.0000E+00  0.0000E+00
 39  0.0000E+00  1.1337E-03  0.0000E+00  0.0000E+00  5.6868E-03  1.7478E-02  0.0000E+00  0.0000E+00  1.6333E-03
 40  0.0000E+00  1.7214E-03  0.0000E+00  0.0000E+00  0.0000E+00  0.0000E+00  0.0000E+00  0.0000E+00  0.0000E+00
 41  0.0000E+00  6.8354E-03  0.0000E+00  0.0000E+00  0.0000E+00  0.0000E+00  0.0000E+00  0.0000E+00  0.0000E+00
 42  0.0000E+00  9.2370E-03  0.0000E+00  0.0000E+00  0.0000E+00  0.0000E+00  0.0000E+00  0.0000E+00  0.0000E+00
 43  1.6360E+00  1.1139E+00  1.2801E+00  1.0835E+00  9.4794E-01  1.0759E+00  1.0674E+00  1.2616E+00  1.1818E+00
 44  2.1988E+01  1.6798E+01  1.7700E+01  1.7343E+01  1.7517E+01  1.6651E+01  1.7601E+01  1.8212E+01  1.8029E+01
 45  3.3751E+00  4.0581E+00  4.7727E+00  3.5474E+00  4.3697E+00  4.2944E+00  4.1191E+00  4.2876E+00  3.9486E+00
 46  1.1091E+00  1.4513E+00  1.5831E+00  1.6254E+00  1.8387E-01  1.4616E+00  2.4589E-01  1.2738E+00  1.1914E+00
 47  1.2539E-02  6.3581E+00  5.8344E+00  5.3291E+00  7.3519E+00  6.4062E+00  6.5915E+00  6.0008E+00  6.0592E+00
 48  5.5013E-03  9.6975E-01  3.1784E-01  4.4471E-01  7.9892E-01  1.4904E-01  6.3137E-01  5.0721E-01  8.1519E-01
 49  4.6077E-03  1.2527E+00  1.3318E+00  1.1158E+00  1.1501E+00  5.9550E-01  1.2937E+00  0.0000E+00  0.0000E+00
 50  0.0000E+00  1.2018E+00  2.4366E-01  0.0000E+00  1.2241E+00  9.0809E-01  1.0746E+00  6.0490E-01  3.5644E-01
 51  0.0000E+00  1.0367E-05  0.0000E+00  0.0000E+00  0.0000E+00  0.0000E+00  0.0000E+00  0.0000E+00  0.0000E+00
 52  0.0000E+00  1.1921E-04  0.0000E+00  0.0000E+00  0.0000E+00  0.0000E+00  0.0000E+00  0.0000E+00  0.0000E+00
 53  0.0000E+00  2.1291E-05  0.0000E+00  0.0000E+00  0.0000E+00  1.5227E-05  0.0000E+00  0.0000E+00  0.0000E+00
 54  0.0000E+00  9.9832E-04  0.0000E+00  1.0000E-03  6.0757E-04  1.0294E-03  5.5820E-04  7.1279E-04  1.0543E-03
 55  0.0000E+00  1.5858E-04  0.0000E+00  6.2402E-04  0.0000E+00  0.0000E+00  0.0000E+00  0.0000E+00  9.3069E-04
 56  0.0000E+00  9.9207E-05  0.0000E+00  0.0000E+00  0.0000E+00  2.2891E-05  0.0000E+00  0.0000E+00  0.0000E+00
 57  0.0000E+00  3.6486E-05  0.0000E+00  0.0000E+00  0.0000E+00  0.0000E+00  0.0000E+00  0.0000E+00  0.0000E+00
 58  0.0000E+00  1.4873E-04  0.0000E+00  0.0000E+00  0.0000E+00  0.0000E+00  0.0000E+00  0.0000E+00  0.0000E+00
 59  0.0000E+00  1.5909E-04  0.0000E+00  0.0000E+00  0.0000E+00  0.0000E+00  0.0000E+00  0.0000E+00  0.0000E+00
 60  0.0000E+00  4.0124E-04  4.7593E-06  0.0000E+00  0.0000E+00  0.0000E+00  0.0000E+00  0.0000E+00  0.0000E+00
 61  1.2513E-04  1.9585E-03  5.9758E-03  3.9022E-03  0.0000E+00  4.5329E-03  1.6415E-03  0.0000E+00  3.3326E-03
 62  0.0000E+00  2.8939E-03  0.0000E+00  0.0000E+00  0.0000E+00  1.6445E-02  0.0000E+00  1.7767E-03  2.0708E-02
 63  0.0000E+00  1.1167E-03  8.8899E-03  0.0000E+00  0.0000E+00  0.0000E+00  0.0000E+00  0.0000E+00  6.2930E-03
 64  0.0000E+00  3.1322E-03  0.0000E+00  0.0000E+00  3.1771E-02  2.5035E-02  2.2877E-02  0.0000E+00  0.0000E+00
 65  2.1163E-03  1.0550E-02  3.9935E-02  0.0000E+00  1.2013E-02  0.0000E+00  1.6396E-02  4.2356E-04  8.1204E-03
 66  1.7523E-05  9.4806E-03  7.1697E-02  0.0000E+00  4.0249E-02  0.0000E+00  0.0000E+00  0.0000E+00  0.0000E+00
 67  0.0000E+00  3.0248E-02  0.0000E+00  1.0330E-01  0.0000E+00  0.0000E+00  0.0000E+00  0.0000E+00  1.6580E-02
 68  8.9432E-02  1.7374E-01  2.6095E-01  1.6415E-01  6.7182E-02  4.9618E-01  2.1852E-01  0.0000E+00  1.4888E-01
 69  0.0000E+00  2.4858E-01  0.0000E+00  0.0000E+00  0.0000E+00  0.0000E+00  1.6324E-03  1.3835E-01  3.1671E-02
 70  1.0035E+01  7.8764E+00  8.4153E+00  7.5553E+00  8.3286E+00  7.6381E+00  7.8568E+00  8.9594E+00  8.3938E+00
 71  1.5859E+01  1.1838E+01  1.2373E+01  1.2192E+01  1.2247E+01  1.2775E+01  1.2010E+01  1.2693E+01  1.2258E+01
 72  2.6226E+01  2.5195E+01  2.5581E+01  2.6242E+01  2.6699E+01  2.6722E+01  2.6478E+01  2.6898E+01  2.7413E+01
 73  1.7723E-03  6.0308E-01  7.2288E-01  8.8689E-01  0.0000E+00  3.4080E-01  4.0975E-01  0.0000E+00  5.6624E-02
 74  9.3999E-03  2.6683E-01  8.5797E-01  4.6359E-01  8.4135E-01  0.0000E+00  0.0000E+00  0.0000E+00  5.1801E-01
 75  0.0000E+00  2.5465E-01  0.0000E+00  0.0000E+00  5.1371E-02  1.2816E+00  6.7865E-01  1.1653E-01  2.4730E-01
 76  0.0000E+00  7.7310E-06  0.0000E+00  0.0000E+00  0.0000E+00  0.0000E+00  0.0000E+00  0.0000E+00  0.0000E+00
 77  0.0000E+00  4.8201E-06  0.0000E+00  0.0000E+00  0.0000E+00  0.0000E+00  0.0000E+00  0.0000E+00  0.0000E+00
 78  0.0000E+00  9.1931E-06  0.0000E+00  0.0000E+00  0.0000E+00  0.0000E+00  0.0000E+00  0.0000E+00  0.0000E+00
 79  0.0000E+00  3.2595E-05  0.0000E+00  0.0000E+00  0.0000E+00  0.0000E+00  0.0000E+00  0.0000E+00  0.0000E+00
 80  0.0000E+00  4.9743E-05  0.0000E+00  0.0000E+00  0.0000E+00  0.0000E+00  0.0000E+00  0.0000E+00  0.0000E+00
 81  0.0000E+00  3.7337E-05  0.0000E+00  0.0000E+00  0.0000E+00  0.0000E+00  0.0000E+00  0.0000E+00  0.0000E+00
 82  0.0000E+00  7.8543E-05  0.0000E+00  0.0000E+00  0.0000E+00  0.0000E+00  0.0000E+00  0.0000E+00  0.0000E+00
 83  0.0000E+00  4.2300E-04  0.0000E+00  0.0000E+00  4.3470E-05  0.0000E+00  0.0000E+00  5.0740E-04  5.1331E-06
 84  0.0000E+00  2.9261E-04  0.0000E+00  0.0000E+00  1.4229E-03  0.0000E+00  0.0000E+00  0.0000E+00  0.0000E+00
 85  0.0000E+00  7.9074E-04  0.0000E+00  0.0000E+00  0.0000E+00  2.4618E-03  0.0000E+00  0.0000E+00  0.0000E+00
 86  0.0000E+00  2.0756E-03  0.0000E+00  5.3757E-04  0.0000E+00  0.0000E+00  0.0000E+00  5.8307E-03  6.3381E-03
 87  0.0000E+00  1.0531E-03  0.0000E+00  0.0000E+00  0.0000E+00  6.2320E-03  0.0000E+00  0.0000E+00  0.0000E+00
 88  0.0000E+00  7.9631E-04  0.0000E+00  0.0000E+00  0.0000E+00  0.0000E+00  0.0000E+00  0.0000E+00  0.0000E+00
 89  0.0000E+00  1.2424E-03  0.0000E+00  0.0000E+00  0.0000E+00  0.0000E+00  0.0000E+00  0.0000E+00  0.0000E+00
 90  0.0000E+00  1.9436E-03  0.0000E+00  0.0000E+00  0.0000E+00  0.0000E+00  0.0000E+00  0.0000E+00  0.0000E+00
 91  0.0000E+00  3.1321E-03  0.0000E+00  0.0000E+00  0.0000E+00  0.0000E+00  0.0000E+00  0.0000E+00  0.0000E+00
 92  0.0000E+00  4.7247E-03  0.0000E+00  0.0000E+00  0.0000E+00  0.0000E+00  0.0000E+00  6.1677E-03  0.0000E+00
 93  0.0000E+00  5.2655E-02  5.0462E-02  0.0000E+00  0.0000E+00  0.0000E+00  5.3638E-02  0.0000E+00  0.0000E+00
 94  0.0000E+00  2.3600E-01  0.0000E+00  0.0000E+00  0.0000E+00  2.9292E-01  1.2597E-01  2.2090E-01  0.0000E+00
 95  1.6426E-03  1.0372E+00  1.5151E+00  1.6198E+00  8.5790E-01  9.8285E-01  1.6130E+00  1.6916E+00  1.2351E+00
 96  0.0000E+00  4.9679E-01  2.8467E-01  0.0000E+00  5.7481E-01  1.3842E-01  2.7964E-01  0.0000E+00  3.2854E-01
 97  8.1897E+00  4.6287E+00  4.7302E+00  5.2332E+00  4.3709E+00  4.6321E+00  5.6664E+00  5.6070E+00  4.4439E+00
 98  8.3446E+00  2.2043E+00  4.2475E+00  1.5725E+00  3.1346E+00  2.2642E+00  2.7376E+00  1.8289E+00  2.3417E+00
 99  0.0000E+00  7.2855E-01  0.0000E+00  1.6952E+00  5.1499E-01  1.4040E+00  1.3234E+00  9.6918E-01  0.0000E+00
100  2.5525E-02  1.0112E+00  9.9630E-01  8.9237E-01  0.0000E+00  8.2457E-01  1.1007E+00  6.9757E-01  1.5725E+00
101  0.0000E+00  4.7895E-06  0.0000E+00  0.0000E+00  0.0000E+00  0.0000E+00  0.0000E+00  0.0000E+00  0.0000E+00
102  0.0000E+00  2.9599E-06  0.0000E+00  0.0000E+00  0.0000E+00  0.0000E+00  0.0000E+00  0.0000E+00  0.0000E+00
103  0.0000E+00  2.6830E-05  0.0000E+00  0.0000E+00  0.0000E+00  0.0000E+00  0.0000E+00  0.0000E+00  0.0000E+00
104  0.0000E+00  3.2909E-05  0.0000E+00  0.0000E+00  0.0000E+00  0.0000E+00  8.1844E-06  3.2206E-04  0.0000E+00
105  0.0000E+00  1.5276E-05  3.1757E-04  0.0000E+00  0.0000E+00  0.0000E+00  0.0000E+00  0.0000E+00  0.0000E+00
106  0.0000E+00  1.7188E-05  0.0000E+00  0.0000E+00  0.0000E+00  0.0000E+00  0.0000E+00  0.0000E+00  0.0000E+00
107  0.0000E+00  3.1261E-05  0.0000E+00  0.0000E+00  0.0000E+00  0.0000E+00  0.0000E+00  0.0000E+00  0.0000E+00
108  0.0000E+00  3.2990E-05  0.0000E+00  0.0000E+00  0.0000E+00  0.0000E+00  0.0000E+00  0.0000E+00  0.0000E+00
109  0.0000E+00  1.1349E-04  0.0000E+00  0.0000E+00  0.0000E+00  0.0000E+00  9.1081E-05  1.1022E-04  0.0000E+00
110  0.0000E+00  2.1455E-04  0.0000E+00  0.0000E+00  0.0000E+00  0.0000E+00  0.0000E+00  0.0000E+00  0.0000E+00
111  0.0000E+00  4.4441E-04  0.0000E+00  0.0000E+00  0.0000E+00  0.0000E+00  0.0000E+00  0.0000E+00  0.0000E+00
112  0.0000E+00  6.1590E-04  0.0000E+00  0.0000E+00  0.0000E+00  0.0000E+00  1.1767E-02  0.0000E+00  0.0000E+00
113  0.0000E+00  6.6272E-04  0.0000E+00  0.0000E+00  0.0000E+00  0.0000E+00  0.0000E+00  0.0000E+00  4.5859E-04
114  0.0000E+00  1.1575E-03  0.0000E+00  0.0000E+00  0.0000E+00  0.0000E+00  0.0000E+00  0.0000E+00  0.0000E+00
115  0.0000E+00  3.7321E-03  0.0000E+00  2.2417E-03  0.0000E+00  0.0000E+00  0.0000E+00  0.0000E+00  0.0000E+00
116  0.0000E+00  6.7622E-03  0.0000E+00  0.0000E+00  4.0260E-02  0.0000E+00  0.0000E+00  0.0000E+00  0.0000E+00
117  0.0000E+00  9.6808E-03  0.0000E+00  3.2522E-03  0.0000E+00  0.0000E+00  2.5924E-02  0.0000E+00  0.0000E+00
118  0.0000E+00  3.9400E-02  7.4699E-02  0.0000E+00  0.0000E+00  0.0000E+00  0.0000E+00  0.0000E+00  0.0000E+00
119  0.0000E+00  4.8494E-02  0.0000E+00  0.0000E+00  0.0000E+00  1.3934E-01  0.0000E+00  1.1732E-01  0.0000E+00
120  0.0000E+00  7.0595E-02  0.0000E+00  0.0000E+00  0.0000E+00  0.0000E+00  5.8565E-01  0.0000E+00  0.0000E+00
121  0.0000E+00  6.0806E-02  0.0000E+00  0.0000E+00  0.0000E+00  0.0000E+00  0.0000E+00  0.0000E+00  0.0000E+00
122  0.0000E+00  6.5101E-02  0.0000E+00  0.0000E+00  0.0000E+00  0.0000E+00  0.0000E+00  0.0000E+00  6.3886E-03
123  0.0000E+00  4.4964E-02  0.0000E+00  0.0000E+00  0.0000E+00  0.0000E+00  0.0000E+00  0.0000E+00  0.0000E+00
124  0.0000E+00  5.8434E-02  0.0000E+00  0.0000E+00  0.0000E+00  1.6457E-01  0.0000E+00  0.0000E+00  0.0000E+00
125  0.0000E+00  5.6378E-02  0.0000E+00  0.0000E+00  0.0000E+00  0.0000E+00  0.0000E+00  0.0000E+00  0.0000E+00
126  0.0000E+00  2.7743E-06  0.0000E+00  0.0000E+00  0.0000E+00  0.0000E+00  0.0000E+00  0.0000E+00  0.0000E+00
127  0.0000E+00  6.6146E-06  0.0000E+00  0.0000E+00  0.0000E+00  0.0000E+00  0.0000E+00  0.0000E+00  0.0000E+00
128  0.0000E+00  1.4686E-05  0.0000E+00  0.0000E+00  0.0000E+00  0.0000E+00  0.0000E+00  0.0000E+00  0.0000E+00
129  0.0000E+00  1.5499E-05  0.0000E+00  0.0000E+00  0.0000E+00  0.0000E+00  0.0000E+00  0.0000E+00  0.0000E+00
130  0.0000E+00  1.0625E-05  0.0000E+00  0.0000E+00  0.0000E+00  0.0000E+00  0.0000E+00  0.0000E+00  0.0000E+00
131  0.0000E+00  1.6031E-05  0.0000E+00  0.0000E+00  0.0000E+00  0.0000E+00  0.0000E+00  0.0000E+00  0.0000E+00
132  0.0000E+00  2.5760E-05  0.0000E+00  0.0000E+00  0.0000E+00  0.0000E+00  0.0000E+00  0.0000E+00  0.0000E+00
133  0.0000E+00  5.1389E-05  0.0000E+00  1.6284E-04  0.0000E+00  0.0000E+00  0.0000E+00  0.0000E+00  0.0000E+00
134  0.0000E+00  1.8726E-04  0.0000E+00  0.0000E+00  0.0000E+00  0.0000E+00  0.0000E+00  0.0000E+00  0.0000E+00
135  0.0000E+00  2.6284E-04  0.0000E+00  0.0000E+00  0.0000E+00  0.0000E+00  0.0000E+00  0.0000E+00  0.0000E+00
136  0.0000E+00  5.4805E-04  0.0000E+00  1.7246E-03  0.0000E+00  0.0000E+00  0.0000E+00  0.0000E+00  0.0000E+00
137  0.0000E+00  7.4790E-04  0.0000E+00  0.0000E+00  0.0000E+00  0.0000E+00  0.0000E+00  0.0000E+00  0.0000E+00
138  0.0000E+00  1.0141E-03  0.0000E+00  0.0000E+00  0.0000E+00  0.0000E+00  0.0000E+00  0.0000E+00  0.0000E+00
139  0.0000E+00  2.8657E-03  0.0000E+00  0.0000E+00  0.0000E+00  0.0000E+00  0.0000E+00  0.0000E+00  0.0000E+00
140  0.0000E+00  9.2144E-03  0.0000E+00  0.0000E+00  0.0000E+00  0.0000E+00  0.0000E+00  6.2654E-02  0.0000E+00
141  0.0000E+00  7.5761E-02  4.6851E-02  0.0000E+00  4.5738E-01  5.7932E-03  3.3154E-03  0.0000E+00  2.3757E-02
142  0.0000E+00  1.5935E-01  0.0000E+00  2.5486E-01  2.3245E-02  0.0000E+00  9.8269E-02  4.5526E-02  1.7505E-02
143  3.0562E+00  3.8414E-01  4.7915E-01  6.2180E-01  8.5125E-01  9.1228E-01  0.0000E+00  2.2080E-01  1.4122E+00
144  0.0000E+00  3.6852E-01  0.0000E+00  0.0000E+00  0.0000E+00  0.0000E+00  2.0029E-01  1.8379E-01  9.8625E-01
145  0.0000E+00  4.0477E-01  1.6791E-01  0.0000E+00  7.8455E-02  1.1188E+00  0.0000E+00  2.5886E-01  0.0000E+00
146  0.0000E+00  3.5088E-01  0.0000E+00  2.1584E-01  4.3031E-01  0.0000E+00  0.0000E+00  0.0000E+00  0.0000E+00
147  0.0000E+00  4.1753E-01  1.1091E+00  5.9092E-01  2.2074E+00  0.0000E+00  6.8924E-01  0.0000E+00  6.8521E-01
148  0.0000E+00  5.4662E-01  1.3543E+00  0.0000E+00  0.0000E+00  1.4425E-01  0.0000E+00  0.0000E+00  0.0000E+00
149  0.0000E+00  1.9317E+00  1.6960E+00  2.6962E+00  2.6966E+00  2.2142E+00  2.4677E+00  2.5124E+00  2.0085E+00
150  0.0000E+00  2.4731E+00  1.1995E+00  2.3710E+00  0.0000E+00  1.8584E+00  0.0000E+00  2.8921E+00  2.1911E+00

# AV, chi2 & Mass for <> & i_chain = 1 ...  7 solutions
AV       0.0926      0.0554      0.0672      0.0604      0.0626      0.0688      0.0634      0.0607      0.0576
chi2 2.5798E+00  2.6593E+00  2.6305E+00  2.6363E+00  2.6345E+00  2.6362E+00  2.6412E+00  2.6433E+00  2.6395E+00
Mass 2.6746E-10  2.8671E-10  2.8249E-10  2.8827E-10  2.8242E-10  2.8606E-10  2.8616E-10  2.8283E-10  2.8070E-10
  -1.32                                  [v0_min (km/s) before EX0s...]
  29.77                                  [vd_min (km/s) before EX0s...]


## Synthetic spectrum (Best Model) ##l_obs f_obs f_syn wei
 3070    [Nl_obs]
 3359.00    0.00000   0.43850   -2.000
 3360.00    0.00000   0.41038   -2.000
 3361.00    0.17466   0.41447   -1.000
 3362.00    0.27792   0.44504   -1.000
 3363.00    0.29886   0.48685   -1.000
 3364.00    0.31380   0.51662   -1.000
 3365.00    0.30912   0.52053   -1.000
 3366.00    0.31307   0.50775   -1.000
 3367.00    0.32348   0.48855   -1.000
 3368.00    0.32087   0.46996   -1.000
 3369.00    0.31352   0.45693   -1.000
 3370.00    0.29704   0.44056   -1.000
 3371.00    0.29629   0.42908   -1.000
 3372.00    0.30661   0.43103   -1.000
 3373.00    0.31900   0.45137   -1.000
 3374.00    0.33359   0.48206   -1.000
 3375.00    0.35461   0.51632   -1.000
 3376.00    0.37977   0.53762   -1.000
 3377.00    0.37667   0.53566   -1.000
 3378.00    0.36212   0.51538   -1.000
 3379.00    0.36792   0.49277   -1.000
 3380.00    0.38975   0.48210   -1.000
 3381.00    0.39461   0.48623   -1.000
 3382.00    0.39021   0.49985   -1.000
 3383.00    0.38014   0.51368   -1.000
 3384.00    0.41363   0.52317   -1.000
 3385.00    0.39555   0.53231   -1.000
 3386.00    0.39417   0.53260   -1.000
 3387.00    0.42470   0.52451   -1.000
 3388.00    0.44855   0.51950   -1.000
 3389.00    0.44738   0.52384   -1.000
 3390.00    0.44218   0.52879   -1.000
 3391.00    0.44121   0.52773   -1.000
 3392.00    0.43691   0.51394   -1.000
 3393.00    0.42455   0.50325   -1.000
 3394.00    0.40414   0.51028   -1.000
 3395.00    0.44948   0.53029   41.414
 3396.00    0.47291   0.55490   27.620
 3397.00    0.46976   0.57566   26.176
 3398.00    0.49561   0.58934   25.180
 3399.00    0.52511   0.59156   24.420
 3400.00    0.52164   0.58358   23.556
 3401.00    0.50082   0.56963   23.052
 3402.00    0.50724   0.54849   23.091
 3403.00    0.50837   0.53428   23.833
 3404.00    0.49032   0.52758   24.358
 3405.00    0.48533   0.52842   24.721
 3406.00    0.48738   0.52530   25.168
 3407.00    0.46490   0.51745   25.595
 3408.00    0.44748   0.51079   25.813
 3409.00    0.45464   0.51385   26.125
 3410.00    0.47096   0.52593   26.364
 3411.00    0.47410   0.52806   26.301
 3412.00    0.47996   0.51982   25.711
 3413.00    0.47412   0.50641   25.310
 3414.00    0.47449   0.50192   25.962
 3415.00    0.47875   0.51157   26.674
 3416.00    0.47869   0.52684   26.796
 3417.00    0.47628   0.54220   26.328
 3418.00    0.49165   0.55733   25.349
 3419.00    0.50332   0.57128   24.182
 3420.00    0.50617   0.58046   22.985
 3421.00    0.51726   0.57841   22.524
 3422.00    0.51947   0.56420   22.398
 3423.00    0.51415   0.54808   22.433
 3424.00    0.51950   0.54196   22.913
 3425.00    0.51593   0.54609   23.489
 3426.00    0.50687   0.55269   23.224
 3427.00    0.50733   0.56274   22.586
 3428.00    0.54407   0.58199   22.301
 3429.00    0.55718   0.60201   52.338
 3430.00    0.56174   0.60806   -1.000
 3431.00    0.54350   0.59062   -1.000
 3432.00    0.52030   0.56643   -1.000
 3433.00    0.51317   0.55319   -1.000
 3434.00    0.51805   0.56014   33.103
 3435.00    0.51978   0.57667   22.254
 3436.00    0.55160   0.58148   51.865
 3437.00    0.54942   0.57100  198.431
 3438.00    0.52023   0.54988   32.933
 3439.00    0.50196   0.52297   22.851
 3440.00    0.49121   0.49323   24.120
 3441.00    0.47871   0.46897   25.871
 3442.00    0.46266   0.46106   27.290
 3443.00    0.45011   0.46747   27.707
 3444.00    0.46337   0.48222   27.643
 3445.00    0.48404   0.50019   26.885
 3446.00    0.50108   0.52418   25.548
 3447.00    0.52358   0.55275   24.138
 3448.00    0.54883   0.57736   23.124
 3449.00    0.55305   0.59062   52.514
 3450.00    0.55931   0.58405   -1.000
 3451.00    0.56214   0.56320  198.431
 3452.00    0.55153   0.54259   -1.000
 3453.00    0.53636   0.53616  198.431
 3454.00    0.53304   0.54357  198.431
 3455.00    0.54316   0.55544  198.431
 3456.00    0.54094   0.56046  198.431
 3457.00    0.55543   0.55285  198.431
 3458.00    0.56273   0.53889   -1.000
 3459.00    0.54746   0.52490   -1.000
 3460.00    0.53463   0.51127   33.384
 3461.00    0.54311   0.50744   22.449
 3462.00    0.55733   0.52288   22.465
 3463.00    0.56072   0.54303   51.107
 3464.00    0.55843   0.55210   -1.000
 3465.00    0.57146   0.54761   -1.000
 3466.00    0.57317   0.54367   -1.000
 3467.00    0.56660   0.55232   -1.000
 3468.00    0.58062   0.57005   -1.000
 3469.00    0.59643   0.58716   -1.000
 3470.00    0.60501   0.59343   -1.000
 3471.00    0.60727   0.58607   -1.000
 3472.00    0.60159   0.56909   -1.000
 3473.00    0.56823   0.54403   -1.000
 3474.00    0.54767   0.51712   -1.000
 3475.00    0.51823   0.49945   -1.000
 3476.00    0.50603   0.49948   33.932
 3477.00    0.51654   0.51847   22.967
 3478.00    0.53319   0.54274   22.967
 3479.00    0.55281   0.56282   50.963
 3480.00    0.56669   0.57582  198.431
 3481.00    0.59573   0.57802   -1.000
 3482.00    0.61157   0.57110   -1.000
 3483.00    0.60001   0.56177   -1.000
 3484.00    0.59060   0.55804   -1.000
 3485.00    0.60477   0.56796   -1.000
 3486.00    0.61827   0.58635   -1.000
 3487.00    0.62103   0.59299   -1.000
 3488.00    0.61346   0.58146   -1.000
 3489.00    0.60068   0.55728   -1.000
 3490.00    0.57654   0.53678   -1.000
 3491.00    0.55551   0.53384   -1.000
 3492.00    0.54927   0.54309  198.431
 3493.00    0.55492   0.55022  198.431
 3494.00    0.56182   0.54880   -1.000
 3495.00    0.56275   0.53844   -1.000
 3496.00    0.54362   0.52696   -1.000
 3497.00    0.53675   0.53015  198.431
 3498.00    0.55320   0.54657  198.431
 3499.00    0.57009   0.56554  198.431
 3500.00    0.60576   0.57402   -1.000
 3501.00    0.62191   0.57629   -1.000
 3502.00    0.61886   0.58149   -1.000
 3503.00    0.62763   0.58690   -1.000
 3504.00    0.62390   0.58593   -1.000
 3505.00    0.61538   0.57642   -1.000
 3506.00    0.60699   0.56651   -1.000
 3507.00    0.59220   0.56230   -1.000
 3508.00    0.60064   0.56175   -1.000
 3509.00    0.61701   0.56050   -1.000
 3510.00    0.60677   0.55463   -1.000
 3511.00    0.59506   0.54747   -1.000
 3512.00    0.57251   0.53935   -1.000
 3513.00    0.56726   0.52880   -1.000
 3514.00    0.57296   0.52711   -1.000
 3515.00    0.58150   0.54197   -1.000
 3516.00    0.60277   0.57203   -1.000
 3517.00    0.61826   0.59904   -1.000
 3518.00    0.62713   0.60562   -1.000
 3519.00    0.61453   0.59002   -1.000
 3520.00    0.59639   0.56555   -1.000
 3521.00    0.59016   0.54579   -1.000
 3522.00    0.57667   0.53299   -1.000
 3523.00    0.56492   0.51909   -1.000
 3524.00    0.54168   0.50348   -1.000
 3525.00    0.51685   0.49430   34.591
 3526.00    0.51510   0.50278   22.729
 3527.00    0.53320   0.52635   22.960
 3528.00    0.57207   0.55570   49.418
 3529.00    0.61138   0.57886   -1.000
 3530.00    0.61933   0.58988   -1.000
 3531.00    0.61899   0.59086   -1.000
 3532.00    0.61620   0.58591   -1.000
 3533.00    0.61575   0.58041   -1.000
 3534.00    0.62672   0.58001   -1.000
 3535.00    0.63744   0.58376   -1.000
 3536.00    0.62450   0.59298   -1.000
 3537.00    0.61714   0.60586  179.037
 3538.00    0.63125   0.61890  178.574
 3539.00    0.62852   0.62793  177.813
 3540.00    0.63211   0.62628  175.642
 3541.00    0.64831   0.61902   -1.000
 3542.00    0.63573   0.61731   -1.000
 3543.00    0.62381   0.62322  180.603
 3544.00    0.63362   0.63111  180.507
 3545.00    0.63696   0.63201  178.372
 3546.00    0.62852   0.62648  176.962
 3547.00    0.62304   0.61953  178.730
 3548.00    0.61644   0.61640  182.553
 3549.00    0.60210   0.61904  184.667
 3550.00    0.60023   0.62433   -1.000
 3551.00    0.60420   0.62681   -1.000
 3552.00    0.60156   0.61842  184.724
 3553.00    0.58450   0.60435   -1.000
 3554.00    0.57113   0.59515   -1.000
 3555.00    0.59162   0.59675  198.431
 3556.00    0.60404   0.60482  198.431
 3557.00    0.59107   0.61140   -1.000
 3558.00    0.59038   0.61168   -1.000
 3559.00    0.59397   0.60931  196.495
 3560.00    0.60107   0.61113  198.431
 3561.00    0.60673   0.61950  198.431
 3562.00    0.61642   0.62495  195.891
 3563.00    0.60912   0.61471  193.899
 3564.00    0.58353   0.58182  193.861
 3565.00    0.55464   0.54675   -1.000
 3566.00    0.52139   0.53042   35.631
 3567.00    0.51272   0.53015   23.010
 3568.00    0.51920   0.53228   23.236
 3569.00    0.51490   0.52329   23.044
 3570.00    0.51004   0.50936   23.452
 3571.00    0.51569   0.50656   24.042
 3572.00    0.52175   0.51478   23.767
 3573.00    0.53809   0.52564   22.824
 3574.00    0.54563   0.53351   46.858
 3575.00    0.55262   0.54022   -1.000
 3576.00    0.55799   0.54829  198.431
 3577.00    0.55474   0.55382  198.431
 3578.00    0.55179   0.55082  198.431
 3579.00    0.55237   0.53417   -1.000
 3580.00    0.53703   0.51140   37.194
 3581.00    0.50044   0.49282   24.277
 3582.00    0.48936   0.48727   25.871
 3583.00    0.49578   0.49427   26.555
 3584.00    0.49453   0.49305   26.684
 3585.00    0.47716   0.47744   27.122
 3586.00    0.45792   0.46062   27.933
 3587.00    0.46620   0.45760   28.550
 3588.00    0.48338   0.47482   27.847
 3589.00    0.49467   0.50470   26.384
 3590.00    0.52484   0.53622   25.056
 3591.00    0.55935   0.55974   23.220
 3592.00    0.58347   0.56946   45.867
 3593.00    0.58991   0.57068   -1.000
 3594.00    0.58897   0.57469   -1.000
 3595.00    0.59868   0.58964  196.297
 3596.00    0.61349   0.60686  191.240
 3597.00    0.63015   0.61880  183.207
 3598.00    0.64366   0.62658   -1.000
 3599.00    0.65058   0.63080   -1.000
 3600.00    0.64653   0.62763   -1.000
 3601.00    0.63415   0.61009   -1.000
 3602.00    0.60138   0.58615   -1.000
 3603.00    0.57214   0.56626  182.827
 3604.00    0.56611   0.55984  192.021
 3605.00    0.57175   0.56332  197.625
 3606.00    0.57443   0.56422  198.431
 3607.00    0.57259   0.55765   -1.000
 3608.00    0.55992   0.54555   -1.000
 3609.00    0.55308   0.53774   -1.000
 3610.00    0.54909   0.54240  198.431
 3611.00    0.55545   0.55401  198.431
 3612.00    0.56566   0.56505  198.431
 3613.00    0.56699   0.57469  198.431
 3614.00    0.57164   0.58716  193.612
 3615.00    0.58704   0.60358   -1.000
 3616.00    0.59628   0.60447  184.186
 3617.00    0.58242   0.57878  181.531
 3618.00    0.56152   0.54615   -1.000
 3619.00    0.54662   0.53214   -1.000
 3620.00    0.54748   0.54690   36.361
 3621.00    0.56612   0.57490   44.627
 3622.00    0.58784   0.59882  197.156
 3623.00    0.61452   0.61230  183.311
 3624.00    0.63095   0.62338  176.389
 3625.00    0.63710   0.64394  173.380
 3626.00    0.65357   0.66868  168.759
 3627.00    0.66202   0.68786   -1.000
 3628.00    0.64369   0.68322   -1.000
 3629.00    0.60989   0.64775   -1.000
 3630.00    0.57783   0.59717  165.137
 3631.00    0.56039   0.56048  180.602
 3632.00    0.55743   0.55420  198.431
 3633.00    0.55911   0.57087  198.431
 3634.00    0.56405   0.58962   -1.000
 3635.00    0.58047   0.59889   -1.000
 3636.00    0.60556   0.60380  191.978
 3637.00    0.61780   0.61735  185.967
 3638.00    0.62684   0.63713  177.924
 3639.00    0.64530   0.65478  169.733
 3640.00    0.64854   0.66058  163.210
 3641.00    0.64789   0.65131  160.738
 3642.00    0.63311   0.63170  162.967
 3643.00    0.60439   0.61113  167.898
 3644.00    0.59345   0.59642  175.512
 3645.00    0.59067   0.58795  182.644
 3646.00    0.58261   0.58015  186.707
 3647.00    0.57249   0.57504  189.691
 3648.00    0.56868   0.57557  192.921
 3649.00    0.57432   0.58076  194.570
 3650.00    0.59841   0.59167  191.591
 3651.00    0.62419   0.60914   -1.000
 3652.00    0.63729   0.63013  176.521
 3653.00    0.64629   0.64816  168.604
 3654.00    0.65339   0.66088  163.198
 3655.00    0.65886   0.67017  160.191
 3656.00    0.66537   0.68016  158.925
 3657.00    0.67346   0.68849  157.666
 3658.00    0.67575   0.69202  155.938
 3659.00    0.67688   0.69259  153.729
 3660.00    0.67457   0.68978  152.654
 3661.00    0.66591   0.68109  152.744
 3662.00    0.65553   0.66970  153.681
 3663.00    0.64454   0.65991  155.374
 3664.00    0.63265   0.65730   -1.000
 3665.00    0.63711   0.66067   -1.000
 3666.00    0.65691   0.66311  158.911
 3667.00    0.65803   0.65996  158.081
 3668.00    0.64481   0.64858  159.999
 3669.00    0.62923   0.63935  162.517
 3670.00    0.62761   0.64111  165.529
 3671.00    0.64616   0.65389  166.783
 3672.00    0.65944   0.66883  162.714
 3673.00    0.66163   0.67626  158.137
 3674.00    0.66309   0.67438  156.441
 3675.00    0.65861   0.66403  156.199
 3676.00    0.64132   0.64638  156.387
 3677.00    0.63461   0.62701  159.213
 3678.00    0.62529   0.61100  164.219
 3679.00    0.61086   0.60543  169.262
 3680.00    0.62020   0.60869  173.945
 3681.00    0.62859   0.61664  175.656
 3682.00    0.63036   0.62678  172.824
 3683.00    0.63909   0.63215  167.990
 3684.00    0.63493   0.62810  164.948
 3685.00    0.61321   0.61142  166.477
 3686.00    0.60230   0.59402  172.113
 3687.00    0.60860   0.58967   -1.000
 3688.00    0.61751   0.60592  184.348
 3689.00    0.62800   0.63439  182.895
 3690.00    0.64429   0.66068  173.721
 3691.00    0.66619   0.67393  162.142
 3692.00    0.67458   0.67309  154.632
 3693.00    0.67011   0.66828  153.197
 3694.00    0.67049   0.66526  156.101
 3695.00    0.67751   0.66374  159.284
 3696.00    0.67743   0.66114  159.863
 3697.00    0.68021   0.66294   -1.000
 3698.00    0.69582   0.67923  157.022
 3699.00    0.71005   0.70371  153.298
 3700.00    0.72860   0.72260  148.857
 3701.00    0.73050   0.71632  146.071
 3702.00    0.69990   0.67831   -1.000
 3703.00    0.64894   0.62637   -1.000
 3704.00    0.60603   0.58092   -1.000
 3705.00    0.58403   0.55952   -1.000
 3706.00    0.57803   0.56373   -1.000
 3707.00    0.59520   0.58010   -1.000
 3708.00    0.60755   0.59529   -1.000
 3709.00    0.61267   0.60230  187.811
 3710.00    0.62372   0.60322   -1.000
 3711.00    0.63534   0.60805   -1.000
 3712.00    0.64991   0.62707   -1.000
 3713.00    0.66935   0.65865  159.629
 3714.00    0.69815   0.69340  151.313
 3715.00    0.72405   0.71715  145.987
 3716.00    0.72908   0.72230  144.110
 3717.00    0.71521   0.70884  145.961
 3718.00    0.67769   0.67342  151.318
 3719.00    0.61965   0.61101  162.120
 3720.00    0.55837   0.54390   -1.000
 3721.00    0.51840   0.50541   -1.000
 3722.00    0.53064   0.51027   39.413
 3723.00    0.57320   0.55269   42.401
 3724.00    0.62804   0.61543  197.181
 3725.00    0.68345   0.66224   -1.000
 3726.00    0.69696   0.67790   -1.000
 3727.00    0.68857   0.67924  161.229
 3728.00    0.69075   0.68232  164.690
 3729.00    0.69373   0.68737  168.014
 3730.00    0.68328   0.68321  167.123
 3731.00    0.65847   0.65252  166.690
 3732.00    0.61271   0.59237   -1.000
 3733.00    0.55063   0.52566   -1.000
 3734.00    0.49756   0.47234   38.644
 3735.00    0.47340   0.45277   23.496
 3736.00    0.49434   0.47507   25.338
 3737.00    0.54335   0.52746   25.089
 3738.00    0.59478   0.59225   23.216
 3739.00    0.64868   0.65603   40.918
 3740.00    0.69036   0.69729  185.054
 3741.00    0.69914   0.70837  170.706
 3742.00    0.68719   0.69304  165.558
 3743.00    0.66718   0.66437  168.555
 3744.00    0.64213   0.63365   -1.000
 3745.00    0.61806   0.60720   -1.000
 3746.00    0.59200   0.58032   -1.000
 3747.00    0.55778   0.54716  198.431
 3748.00    0.51753   0.50754   39.836
 3749.00    0.49387   0.47961   23.219
 3750.00    0.51284   0.48431   24.083
 3751.00    0.57201   0.52920   44.448
 3752.00    0.63752   0.59502   -1.000
 3753.00    0.68338   0.66292   -1.000
 3754.00    0.71825   0.71290  164.766
 3755.00    0.75022   0.73555  154.379
 3756.00    0.74664   0.72514   -1.000
 3757.00    0.69827   0.68939  151.848
 3758.00    0.65997   0.65165  166.271
 3759.00    0.65459   0.63566   -1.000
 3760.00    0.66388   0.64284   -1.000
 3761.00    0.69103   0.66018   -1.000
 3762.00    0.70942   0.67480   -1.000
 3763.00    0.70976   0.68272   -1.000
 3764.00    0.70874   0.68324   -1.000
 3765.00    0.69551   0.67493   -1.000
 3766.00    0.67204   0.65962  169.738
 3767.00    0.65462   0.63872   -1.000
 3768.00    0.64764   0.61154   -1.000
 3769.00    0.63110   0.58450   -1.000
 3770.00    0.61885   0.56513   -1.000
 3771.00    0.63045   0.57269   -1.000
 3772.00    0.65866   0.60897   -1.000
 3773.00    0.69961   0.65469   -1.000
 3774.00    0.71666   0.68710   -1.000
 3775.00    0.72465   0.70543   -1.000
 3776.00    0.74421   0.71725   -1.000
 3777.00    0.75392   0.73430   -1.000
 3778.00    0.77278   0.75831   -1.000
 3779.00    0.79857   0.78300   -1.000
 3780.00    0.82185   0.80475   -1.000
 3781.00    0.83127   0.81695  143.742
 3782.00    0.82389   0.82070  141.631
 3783.00    0.82879   0.81792  140.750
 3784.00    0.82970   0.80680   -1.000
 3785.00    0.80316   0.78250   -1.000
 3786.00    0.77435   0.75228   -1.000
 3787.00    0.74939   0.72379   -1.000
 3788.00    0.72825   0.70699   -1.000
 3789.00    0.72632   0.70382   -1.000
 3790.00    0.72937   0.70796   -1.000
 3791.00    0.73558   0.70978   -1.000
 3792.00    0.73292   0.69986   -1.000
 3793.00    0.70171   0.67680   -1.000
 3794.00    0.67004   0.64305   -1.000
 3795.00    0.64449   0.60501   -1.000
 3796.00    0.60792   0.56607   -1.000
 3797.00    0.56905   0.52580   -1.000
 3798.00    0.55211   0.50634   -1.000
 3799.00    0.57758   0.52926   -1.000
 3800.00    0.62891   0.58884   -1.000
 3801.00    0.67801   0.65845   -1.000
 3802.00    0.72663   0.71636  174.793
 3803.00    0.75632   0.74932  164.051
 3804.00    0.76972   0.76370  158.735
 3805.00    0.78107   0.76044   -1.000
 3806.00    0.77112   0.74933   -1.000
 3807.00    0.76029   0.74949  161.611
 3808.00    0.77070   0.76698  166.341
 3809.00    0.79064   0.79318  165.686
 3810.00    0.81395   0.81102  160.169
 3811.00    0.81963   0.80689  156.136
 3812.00    0.79275   0.77950  156.832
 3813.00    0.75949   0.74145  162.629
 3814.00    0.73458   0.70819   -1.000
 3815.00    0.72058   0.69640   -1.000
 3816.00    0.72674   0.70806   -1.000
 3817.00    0.74511   0.72592   -1.000
 3818.00    0.75224   0.72922   -1.000
 3819.00    0.73142   0.70858   -1.000
 3820.00    0.70348   0.68325   -1.000
 3821.00    0.69484   0.67722   -1.000
 3822.00    0.70796   0.68827   -1.000
 3823.00    0.71485   0.69061   -1.000
 3824.00    0.69116   0.66885   -1.000
 3825.00    0.65807   0.63903   -1.000
 3826.00    0.63774   0.61878   43.261
 3827.00    0.63000   0.60994   23.486
 3828.00    0.63168   0.60711   23.637
 3829.00    0.63123   0.60324   23.336
 3830.00    0.62049   0.59324   22.953
 3831.00    0.59802   0.57016   22.901
 3832.00    0.55619   0.53472   23.563
 3833.00    0.51024   0.48922   25.041
 3834.00    0.48646   0.45500   26.467
 3835.00    0.48478   0.44466   26.599
 3836.00    0.49419   0.45454   25.780
 3837.00    0.51123   0.47558   24.965
 3838.00    0.52845   0.50066   24.949
 3839.00    0.55348   0.52718   25.533
 3840.00    0.58538   0.56258   25.623
 3841.00    0.62001   0.60849   24.643
 3842.00    0.66383   0.65737   41.447
 3843.00    0.71374   0.70245  198.431
 3844.00    0.75013   0.73103   -1.000
 3845.00    0.76639   0.74655   -1.000
 3846.00    0.77205   0.75898  180.242
 3847.00    0.77594   0.77088  180.229
 3848.00    0.78327   0.77363  180.340
 3849.00    0.76886   0.76725  182.640
 3850.00    0.74482   0.76302   -1.000
 3851.00    0.74965   0.77140   -1.000
 3852.00    0.77081   0.78934   -1.000
 3853.00    0.78323   0.80149   -1.000
 3854.00    0.78302   0.79622   -1.000
 3855.00    0.76398   0.78056   -1.000
 3856.00    0.74723   0.76283   -1.000
 3857.00    0.74291   0.74487  198.431
 3858.00    0.72653   0.72596  198.431
 3859.00    0.70041   0.71412   41.862
 3860.00    0.69026   0.72175   22.656
 3861.00    0.71840   0.74804   23.157
 3862.00    0.76695   0.78132   39.140
 3863.00    0.79610   0.80097  194.353
 3864.00    0.80184   0.80217  179.915
 3865.00    0.79856   0.79703  176.362
 3866.00    0.80223   0.79385  178.788
 3867.00    0.80122   0.79546  181.981
 3868.00    0.78670   0.79819  185.099
 3869.00    0.76910   0.79160   -1.000
 3870.00    0.74549   0.77136   -1.000
 3871.00    0.71897   0.74346   -1.000
 3872.00    0.70974   0.72025   42.968
 3873.00    0.72367   0.71621   38.186
 3874.00    0.74977   0.73537   -1.000
 3875.00    0.76876   0.75694  186.978
 3876.00    0.76409   0.75561  174.844
 3877.00    0.73307   0.73154  174.012
 3878.00    0.69611   0.70767  183.867
 3879.00    0.68840   0.69963  198.137
 3880.00    0.69894   0.70537  198.431
 3881.00    0.69649   0.70916  198.431
 3882.00    0.68448   0.70333   -1.000
 3883.00    0.68178   0.69330  198.431
 3884.00    0.69082   0.67596   -1.000
 3885.00    0.66963   0.64312   -1.000
 3886.00    0.62019   0.59333   -1.000
 3887.00    0.58360   0.54368   -1.000
 3888.00    0.55413   0.51388   -1.000
 3889.00    0.55026   0.51685   -1.000
 3890.00    0.57519   0.55396   -1.000
 3891.00    0.63086   0.61302   -1.000
 3892.00    0.69138   0.66404   -1.000
 3893.00    0.71813   0.68880   -1.000
 3894.00    0.72844   0.69705   -1.000
 3895.00    0.73515   0.70547   -1.000
 3896.00    0.75222   0.72267   -1.000
 3897.00    0.77654   0.74048   -1.000
 3898.00    0.78651   0.75039   -1.000
 3899.00    0.77932   0.75234   -1.000
 3900.00    0.77835   0.75758   -1.000
 3901.00    0.79249   0.76856   -1.000
 3902.00    0.80392   0.77536   -1.000
 3903.00    0.78655   0.77267  146.320
 3904.00    0.76427   0.76105  150.011
 3905.00    0.75378   0.75369  155.274
 3906.00    0.76605   0.75929  159.430
 3907.00    0.79003   0.78214  161.428
 3908.00    0.80921   0.81730  156.099
 3909.00    0.83412   0.84645  146.156
 3910.00    0.84983   0.86153  139.251
 3911.00    0.85893   0.86786  136.979
 3912.00    0.85821   0.86712  135.739
 3913.00    0.83951   0.85838   -1.000
 3914.00    0.81550   0.84575   -1.000
 3915.00    0.80295   0.83635   -1.000
 3916.00    0.80973   0.83234   -1.000
 3917.00    0.81863   0.82718  142.832
 3918.00    0.82096   0.81523  144.664
 3919.00    0.80314   0.79887  147.645
 3920.00    0.77438   0.78363  153.015
 3921.00    0.76831   0.77609  160.097
 3922.00    0.77799   0.77893  165.804
 3923.00    0.78221   0.78665  166.890
 3924.00    0.77877   0.78741  164.576
 3925.00    0.75671   0.77461   -1.000
 3926.00    0.72033   0.74407   -1.000
 3927.00    0.68228   0.69860   -1.000
 3928.00    0.62707   0.64309  198.431
 3929.00    0.55517   0.58356   48.630
 3930.00    0.48596   0.51605   26.327
 3931.00    0.42354   0.43780   30.841
 3932.00    0.36334   0.35875   36.249
 3933.00    0.31046   0.30306   42.704
 3934.00    0.30514   0.29804   48.539
 3935.00    0.34695   0.34784   50.013
 3936.00    0.40898   0.42788   45.695
 3937.00    0.48250   0.51457   38.703
 3938.00    0.55735   0.59581   31.882
 3939.00    0.62624   0.65903   26.481
 3940.00    0.67468   0.70494   39.398
 3941.00    0.69680   0.73079   -1.000
 3942.00    0.71532   0.74094   -1.000
 3943.00    0.72425   0.74462   -1.000
 3944.00    0.73542   0.75272   -1.000
 3945.00    0.76213   0.77013  184.369
 3946.00    0.79233   0.79034  171.386
 3947.00    0.81116   0.80169  158.234
 3948.00    0.80358   0.80455  152.454
 3949.00    0.79979   0.80705  151.132
 3950.00    0.81812   0.81088  148.015
 3951.00    0.82878   0.81133  142.778
 3952.00    0.82006   0.81058  140.468
 3953.00    0.81796   0.81662  141.817
 3954.00    0.83610   0.82372  141.877
 3955.00    0.83358   0.82037  138.829
 3956.00    0.80746   0.80700  137.523
 3957.00    0.80220   0.79554  140.641
 3958.00    0.81465   0.79311   -1.000
 3959.00    0.80396   0.78551  144.736
 3960.00    0.75786   0.75633  144.681
 3961.00    0.70630   0.71058  153.188
 3962.00    0.67171   0.66388  171.276
 3963.00    0.63446   0.62500  191.962
 3964.00    0.57751   0.58369  198.431
 3965.00    0.50922   0.52278   47.297
 3966.00    0.43587   0.43769   24.728
 3967.00    0.35581   0.34621   29.610
 3968.00    0.29026   0.28282   36.439
 3969.00    0.27724   0.26713   42.805
 3970.00    0.31867   0.30495   43.846
 3971.00    0.39519   0.37968   38.464
 3972.00    0.48293   0.46675   31.627
 3973.00    0.56021   0.54630   26.209
 3974.00    0.62961   0.61699   37.977
 3975.00    0.69343   0.67443   -1.000
 3976.00    0.73954   0.72386  172.987
 3977.00    0.77289   0.76377  157.491
 3978.00    0.81106   0.79965  146.547
 3979.00    0.84151   0.82911  138.373
 3980.00    0.86001   0.84364  131.035
 3981.00    0.86979   0.84473   -1.000
 3982.00    0.86660   0.84123   -1.000
 3983.00    0.86974   0.84450   -1.000
 3984.00    0.88467   0.85893   -1.000
 3985.00    0.90242   0.87579   -1.000
 3986.00    0.90851   0.88894  124.214
 3987.00    0.91813   0.90042  121.958
 3988.00    0.93697   0.91147  119.831
 3989.00    0.94422   0.91840  118.019
 3990.00    0.94228   0.92361  117.578
 3991.00    0.95698   0.93264  117.532
 3992.00    0.96829   0.94522  115.899
 3993.00    0.96946   0.95454  113.115
 3994.00    0.95731   0.95141  112.112
 3995.00    0.94070   0.93523  114.116
 3996.00    0.93294   0.91397  116.851
 3997.00    0.91514   0.90291  119.351
 3998.00    0.91596   0.90922  121.087
 3999.00    0.93909   0.92726  120.461
 4000.00    0.96588   0.94823  116.435
 4001.00    0.98441   0.96412  111.634
 4002.00    0.99319   0.96838  108.733
 4003.00    0.98241   0.95811  107.107
 4004.00    0.95464   0.93387  107.112
 4005.00    0.92101   0.90675  111.435
 4006.00    0.91422   0.90291  118.414
 4007.00    0.94005   0.92447  121.513
 4008.00    0.98094   0.95495  117.768
 4009.00    0.99680   0.97588  111.766
 4010.00    0.99740   0.98454  108.635
 4011.00    1.00735   0.98594  107.365
 4012.00    1.00133   0.98432  106.547
 4013.00    0.98472   0.98401  106.678
 4014.00    0.97348   0.98698  107.391
 4015.00    0.99273   0.99114  107.385
 4016.00    1.02604   0.99337   -1.000
 4017.00    1.00096   0.99433  105.732
 4018.00    0.99528   0.99970  106.863
 4019.00    1.00206   1.00707  107.425
 4020.00    1.01105   1.01204  106.383
 4021.00    1.00502   1.00954  105.503
 4022.00    0.99453   1.00284  106.335
 4023.00    0.99402   0.99495  107.538
 4024.00    0.98726   0.98812  108.180
 4025.00    0.99563   0.99036  108.949
 4026.00    1.01619   1.00512  108.302
 4027.00    1.02860   1.02343  105.040
 4028.00    1.02688   1.02377  101.943
 4029.00    1.00195   1.00126  101.142
 4030.00    0.96830   0.96707  103.445
 4031.00    0.94981   0.93720  108.942
 4032.00    0.94354   0.92387  115.341
 4033.00    0.94351   0.92657  118.719
 4034.00    0.94699   0.94284  118.858
 4035.00    0.98315   0.96964  116.289
 4036.00    1.02445   1.00409  111.602
 4037.00    1.04517   1.03775  106.043
 4038.00    1.05604   1.05355  101.439
 4039.00    1.04365   1.04751   99.206
 4040.00    1.02019   1.03432   99.903
 4041.00    1.00961   1.02479  102.194
 4042.00    1.01317   1.01551  104.105
 4043.00    0.99899   0.99036  104.955
 4044.00    0.95235   0.94298  107.272
 4045.00    0.89808   0.90510  114.649
 4046.00    0.90006   0.90242  125.134
 4047.00    0.95171   0.93666  128.597
 4048.00    1.00457   0.98343  119.919
 4049.00    1.02546   1.01776  109.961
 4050.00    1.02448   1.03156  104.813
 4051.00    1.02973   1.03104  102.606
 4052.00    1.02412   1.02036  102.218
 4053.00    1.00567   1.00439  103.808
 4054.00    0.99291   0.99263  106.653
 4055.00    0.98568   0.98655  108.972
 4056.00    0.97836   0.98150  110.311
 4057.00    0.97336   0.97902  111.120
 4058.00    0.98083   0.98548  112.037
 4059.00    1.00000   1.00263  112.209
 4060.00    1.00811   1.01486  109.695
 4061.00    1.00042   1.00322  106.384
 4062.00    0.97158   0.96934  105.877
 4063.00    0.93438   0.93303  110.090
 4064.00    0.92784   0.91605  118.178
 4065.00    0.94988   0.92077   -1.000
 4066.00    0.96946   0.93734   -1.000
 4067.00    0.98584   0.95510   -1.000
 4068.00    1.00252   0.97047   -1.000
 4069.00    1.01249   0.97615   -1.000
 4070.00    1.00440   0.96356   -1.000
 4071.00    0.97123   0.94045  105.874
 4072.00    0.95702   0.92981  110.463
 4073.00    0.97747   0.93950   -1.000
 4074.00    0.98709   0.95030   -1.000
 4075.00    0.96185   0.94072  108.140
 4076.00    0.91539   0.91205  109.882
 4077.00    0.89296   0.88627  116.916
 4078.00    0.89581   0.88419  124.541
 4079.00    0.92714   0.91152  124.997
 4080.00    0.97579   0.95252  118.869
 4081.00    1.00248   0.97882  110.590
 4082.00    1.00466   0.97997  104.669
 4083.00    0.98505   0.96371  103.497
 4084.00    0.96626   0.94819  106.058
 4085.00    0.96706   0.94697  108.968
 4086.00    0.98732   0.96141  109.290
 4087.00    1.02218   0.98367   -1.000
 4088.00    1.03577   1.00099   -1.000
 4089.00    1.02949   1.00515   99.184
 4090.00    1.01471   0.99664   97.421
 4091.00    0.99986   0.98445   98.552
 4092.00    0.98667   0.97381  100.560
 4093.00    0.98114   0.96073  102.149
 4094.00    0.96987   0.94448  102.872
 4095.00    0.94189   0.92072  103.636
 4096.00    0.91433   0.89339  106.682
 4097.00    0.89327   0.86491   -1.000
 4098.00    0.87604   0.83115   -1.000
 4099.00    0.83564   0.78341   -1.000
 4100.00    0.75378   0.71777   -1.000
 4101.00    0.69251   0.66536   -1.000
 4102.00    0.68663   0.65491   -1.000
 4103.00    0.73666   0.69742   -1.000
 4104.00    0.81225   0.76967   -1.000
 4105.00    0.87457   0.83674   -1.000
 4106.00    0.91111   0.87777   -1.000
 4107.00    0.93001   0.90052   -1.000
 4108.00    0.94124   0.90971   -1.000
 4109.00    0.93528   0.91294  108.480
 4110.00    0.92708   0.91839  109.970
 4111.00    0.93549   0.92816  111.955
 4112.00    0.95390   0.94342  112.427
 4113.00    0.96919   0.96068  110.511
 4114.00    0.98248   0.97953  108.214
 4115.00    0.99016   0.99352  106.443
 4116.00    0.99527   0.99649  105.039
 4117.00    0.99198   0.98812  104.613
 4118.00    0.98708   0.97510  105.813
 4119.00    0.97520   0.96460  108.618
 4120.00    0.96914   0.96427  111.436
 4121.00    0.97572   0.97063  111.652
 4122.00    0.97276   0.97622  110.283
 4123.00    0.97426   0.98188  109.621
 4124.00    0.98826   0.99043  109.272
 4125.00    0.99894   0.99823  107.770
 4126.00    1.00331   0.99794  106.419
 4127.00    0.99189   0.98976  106.769
 4128.00    0.98004   0.98187  108.581
 4129.00    0.97402   0.97918  110.415
 4130.00    0.97182   0.97300  111.161
 4131.00    0.96750   0.95772  112.026
 4132.00    0.94239   0.94142  114.250
 4133.00    0.92815   0.93842  117.924
 4134.00    0.94339   0.95517  120.385
 4135.00    0.97683   0.98202  118.989
 4136.00    1.00354   1.00962  114.159
 4137.00    1.02008   1.03025  109.108
 4138.00    1.03211   1.04530  106.274
 4139.00    1.03771   1.05385  104.617
 4140.00    1.02558   1.04679  103.436
 4141.00    1.00648   1.01972  103.985
 4142.00    0.96468   0.98333  107.398
 4143.00    0.92710   0.95331   -1.000
 4144.00    0.92742   0.95047   -1.000
 4145.00    0.96189   0.97380  125.156
 4146.00    0.99686   1.00235  119.193
 4147.00    1.00737   1.01613  112.963
 4148.00    1.00933   1.01426  109.933
 4149.00    1.00084   1.00986  110.037
 4150.00    0.98787   1.01067   -1.000
 4151.00    0.98540   1.01276   -1.000
 4152.00    0.98973   1.00856  115.686
 4153.00    0.98614   0.99682  114.853
 4154.00    0.97124   0.98534  114.829
 4155.00    0.95875   0.98261   -1.000
 4156.00    0.96023   0.98999   -1.000
 4157.00    0.96673   1.00250   -1.000
 4158.00    1.00272   1.01767  114.041
 4159.00    1.16210   1.03060   -1.000
 4160.00    1.27952   1.03870   -1.000
 4161.00    0.97975   1.04272   -1.000
 4162.00    0.73395   1.04656   -1.000
 4163.00    0.98351   1.05212   -1.000
 4164.00    1.07944   1.05587  105.973
 4165.00    1.00914   1.05249   -1.000
 4166.00    0.99375   1.04088   -1.000
 4167.00    0.99278   1.03023   -1.000
 4168.00    0.99997   1.02663   -1.000
 4169.00    0.99752   1.02517   -1.000
 4170.00    0.98280   1.01263   -1.000
 4171.00    0.95038   0.98363   -1.000
 4172.00    0.91483   0.95061   -1.000
 4173.00    0.90385   0.93668   -1.000
 4174.00    0.92117   0.94803   -1.000
 4175.00    0.94236   0.97282   -1.000
 4176.00    0.95597   0.98746   -1.000
 4177.00    0.95325   0.99169   -1.000
 4178.00    0.95328   0.99586   -1.000
 4179.00    0.97386   1.00509   -1.000
 4180.00    0.98238   1.01333   -1.000
 4181.00    0.97421   1.01058   -1.000
 4182.00    0.97466   1.00446   -1.000
 4183.00    0.98351   1.00792   -1.000
 4184.00    0.99108   1.01648   -1.000
 4185.00    0.98777   1.01724   -1.000
 4186.00    0.97363   1.00617   -1.000
 4187.00    0.96110   0.99223   -1.000
 4188.00    0.96297   0.98886   -1.000
 4189.00    0.97953   0.99635  116.310
 4190.00    0.98994   1.00529  114.585
 4191.00    0.98753   1.01312   -1.000
 4192.00    0.99570   1.02232   -1.000
 4193.00    1.01020   1.03071  109.837
 4194.00    1.01430   1.03021  107.750
 4195.00    0.99024   1.01398   -1.000
 4196.00    0.95941   0.98857   -1.000
 4197.00    0.94637   0.96598   -1.000
 4198.00    0.93693   0.95107  120.539
 4199.00    0.92799   0.94368  121.962
 4200.00    0.93593   0.94511  121.609
 4201.00    0.94245   0.95015  120.007
 4202.00    0.94852   0.95473  118.618
 4203.00    0.96129   0.96419  118.190
 4204.00    0.96948   0.98000  117.022
 4205.00    0.96848   0.99612   -1.000
 4206.00    0.97655   1.01105   -1.000
 4207.00    0.98925   1.02403   -1.000
 4208.00    0.99621   1.03038   -1.000
 4209.00    0.99705   1.02975   -1.000
 4210.00    0.98577   1.02823   -1.000
 4211.00    0.99023   1.03194   -1.000
 4212.00    0.99683   1.03865   -1.000
 4213.00    0.99138   1.03345   -1.000
 4214.00    0.96942   1.01230   -1.000
 4215.00    0.94402   0.98995   -1.000
 4216.00    0.92901   0.97916   -1.000
 4217.00    0.95867   0.99060   -1.000
 4218.00    0.98827   1.01540   -1.000
 4219.00    1.00985   1.03640  105.910
 4220.00    1.02024   1.04703  101.885
 4221.00    1.02994   1.04521   99.693
 4222.00    1.01308   1.02695   99.339
 4223.00    0.97597   0.98851  101.366
 4224.00    0.93508   0.93360  106.631
 4225.00    0.87515   0.87854  115.234
 4226.00    0.81772   0.84470   -1.000
 4227.00    0.81997   0.85456   -1.000
 4228.00    0.88369   0.90957   -1.000
 4229.00    0.96790   0.97427  133.792
 4230.00    1.02213   1.01365  117.035
 4231.00    1.01894   1.02025  107.206
 4232.00    0.99852   1.00887  103.374
 4233.00    0.98059   0.99297  103.749
 4234.00    0.96981   0.97975  106.327
 4235.00    0.97221   0.97335  108.559
 4236.00    0.96303   0.97122  110.065
 4237.00    0.95463   0.97308  112.519
 4238.00    0.96087   0.98345   -1.000
 4239.00    0.96859   0.99755   -1.000
 4240.00    0.98520   1.01260   -1.000
 4241.00    0.99122   1.02494   -1.000
 4242.00    0.99599   1.03311   -1.000
 4243.00    1.00039   1.03858   -1.000
 4244.00    1.00966   1.04163   -1.000
 4245.00    1.00039   1.03765   -1.000
 4246.00    0.97674   1.01835   -1.000
 4247.00    0.94882   0.99133   -1.000
 4248.00    0.93955   0.97123   -1.000
 4249.00    0.94022   0.96369  111.662
 4250.00    0.94024   0.96877   -1.000
 4251.00    0.95239   0.98195   -1.000
 4252.00    0.97978   0.99479  113.215
 4253.00    0.98846   0.99553  109.859
 4254.00    0.97786   0.98766  107.983
 4255.00    0.96730   0.98821  109.494
 4256.00    0.99202   1.00194  111.125
 4257.00    1.00306   1.01213  108.543
 4258.00    0.98167   1.00088  105.288
 4259.00    0.94276   0.97450   -1.000
 4260.00    0.92226   0.95810   -1.000
 4261.00    0.93970   0.96737   -1.000
 4262.00    0.97585   0.99888   -1.000
 4263.00    1.00460   1.03170   -1.000
 4264.00    1.02284   1.05182  104.533
 4265.00    1.02991   1.05448  100.461
 4266.00    1.03029   1.04809   98.878
 4267.00    1.01357   1.03606   99.306
 4268.00    0.99791   1.01670  101.540
 4269.00    0.98228   0.98849  104.896
 4270.00    0.93823   0.95437  108.343
 4271.00    0.90592   0.92351  113.483
 4272.00    0.89715   0.90745  120.983
 4273.00    0.90621   0.91151  126.467
 4274.00    0.91450   0.92894  126.210
 4275.00    0.93401   0.95383  123.121
 4276.00    0.96846   0.98720  119.217
 4277.00    0.99932   1.01916  112.973
 4278.00    1.00294   1.03230   -1.000
 4279.00    0.97689   1.02277   -1.000
 4280.00    0.95735   1.00434   -1.000
 4281.00    0.94848   0.99270   -1.000
 4282.00    0.94899   0.99316   -1.000
 4283.00    0.96476   0.99469   -1.000
 4284.00    0.96372   0.99042   -1.000
 4285.00    0.94431   0.98186   -1.000
 4286.00    0.92885   0.96813   -1.000
 4287.00    0.91934   0.94992   -1.000
 4288.00    0.89432   0.92575   -1.000
 4289.00    0.87196   0.89818   -1.000
 4290.00    0.86597   0.88720  125.008
 4291.00    0.87684   0.90252   -1.000
 4292.00    0.91478   0.93041  127.293
 4293.00    0.93236   0.94915  120.088
 4294.00    0.93123   0.94780  114.059
 4295.00    0.92259   0.93798  113.084
 4296.00    0.91194   0.92389  114.504
 4297.00    0.88639   0.90029  116.655
 4298.00    0.84835   0.86493  120.334
 4299.00    0.80283   0.82745   -1.000
 4300.00    0.77916   0.80229   -1.000
 4301.00    0.78542   0.79556  146.399
 4302.00    0.79487   0.80257  145.945
 4303.00    0.80779   0.81627  142.042
 4304.00    0.82244   0.83183  139.967
 4305.00    0.83081   0.83761  137.972
 4306.00    0.82060   0.82597  137.015
 4307.00    0.80197   0.80519  138.954
 4308.00    0.77995   0.78909  144.770
 4309.00    0.77780   0.79265  151.465
 4310.00    0.80734   0.81432  152.956
 4311.00    0.83289   0.84219  147.996
 4312.00    0.84504   0.86614  139.269
 4313.00    0.86298   0.89200   -1.000
 4314.00    0.89337   0.92756   -1.000
 4315.00    0.94594   0.97567   -1.000
 4316.00    1.00036   1.02783   -1.000
 4317.00    1.03770   1.06469  101.477
 4318.00    1.04545   1.07658   95.148
 4319.00    1.03590   1.07005   -1.000
 4320.00    1.01452   1.05470   -1.000
 4321.00    0.99426   1.03120   -1.000
 4322.00    0.97755   0.99611   97.751
 4323.00    0.93708   0.95135  101.562
 4324.00    0.89188   0.90814  107.376
 4325.00    0.86703   0.88679  115.952
 4326.00    0.88492   0.90310  124.827
 4327.00    0.94123   0.94976  125.497
 4328.00    0.99099   0.99586  115.243
 4329.00    1.01157   1.01946  104.059
 4330.00    1.00161   1.02149   98.390
 4331.00    0.98907   1.01893   97.401
 4332.00    0.99072   1.02069   97.624
 4333.00    0.99466   1.02141   96.680
 4334.00    0.98731   1.01331   95.142
 4335.00    0.96651   0.98871   94.433
 4336.00    0.93241   0.94176   94.800
 4337.00    0.87288   0.86940   97.800
 4338.00    0.80455   0.78815  105.241
 4339.00    0.74092   0.72431  115.552
 4340.00    0.69596   0.69730  125.933
 4341.00    0.71303   0.72107  134.167
 4342.00    0.78096   0.78836  133.005
 4343.00    0.85324   0.86191  121.634
 4344.00    0.90856   0.91593  110.879
 4345.00    0.94140   0.95280  105.235
 4346.00    0.96316   0.98028  102.181
 4347.00    0.97980   1.00480   99.727
 4348.00    0.99250   1.02135   98.272
 4349.00    0.99973   1.02012   97.091
 4350.00    0.97518   0.99467   96.007
 4351.00    0.93238   0.96093   -1.000
 4352.00    0.91807   0.94388  104.040
 4353.00    0.93950   0.95635  110.143
 4354.00    0.98211   0.99032  109.562
 4355.00    1.01006   1.02120  104.676
 4356.00    1.01369   1.03807  100.360
 4357.00    1.02146   1.04333   97.633
 4358.00    1.02056   1.04115   96.242
 4359.00    1.00741   1.03837   96.972
 4360.00    1.01793   1.04442   98.931
 4361.00    1.03543   1.05925   99.184
 4362.00    1.05189   1.07388   96.796
 4363.00    1.06060   1.08387   94.330
 4364.00    1.05277   1.09017   -1.000
 4365.00    1.05911   1.08865   93.020
 4366.00    1.04615   1.07503   92.211
 4367.00    1.01298   1.05568   -1.000
 4368.00    1.00589   1.04130   -1.000
 4369.00    1.00940   1.03413   99.056
 4370.00    1.01351   1.03097   99.432
 4371.00    1.01564   1.02668   98.460
 4372.00    1.01183   1.01514   98.022
 4373.00    0.99638   0.99510   98.262
 4374.00    0.95790   0.97236  100.141
 4375.00    0.94872   0.96496  104.383
 4376.00    0.97185   0.98341  107.376
 4377.00    1.01544   1.01537  105.932
 4378.00    1.03414   1.04067  101.068
 4379.00    1.04033   1.04714   96.882
 4380.00    1.03276   1.03420   95.964
 4381.00    1.02366   0.99951   96.963
 4382.00    0.97039   0.94614   99.531
 4383.00    0.90077   0.89311  106.061
 4384.00    0.87467   0.87349  118.317
 4385.00    0.90758   0.89820  128.391
 4386.00    0.95987   0.94514  125.188
 4387.00    0.99173   0.98074  113.024
 4388.00    0.99644   0.99470  104.320
 4389.00    1.00193   0.99651  102.192
 4390.00    0.99452   0.99667  102.702
 4391.00    1.00250   1.00209  103.656
 4392.00    1.01757   1.01094  103.287
 4393.00    1.02383   1.01193  101.074
 4394.00    1.00621   1.00317   99.593
 4395.00    0.99373   1.00069  100.844
 4396.00    1.01658   1.01582  102.451
 4397.00    1.04028   1.03387  100.705
 4398.00    1.04343   1.03642   96.345
 4399.00    1.01871   1.02356   94.759
 4400.00    0.99130   1.00989   96.889
 4401.00    1.00465   1.00759  100.417
 4402.00    1.02005   1.00972  102.215
 4403.00    1.01404   1.00172  100.622
 4404.00    0.98887   0.98333  100.193
 4405.00    0.98202   0.97150  104.644
 4406.00    0.99894   0.97639  109.505
 4407.00    1.00213   0.99017  108.840
 4408.00    0.99729   1.00191  105.523
 4409.00    1.01042   1.01945  104.266
 4410.00    1.02490   1.04849  102.511
 4411.00    1.05276   1.07391   98.293
 4412.00    1.07934   1.07989   94.300
 4413.00    1.06543   1.06392   91.707
 4414.00    1.04034   1.03223   91.665
 4415.00    1.00641   0.99970   95.074
 4416.00    0.98807   0.98960  100.209
 4417.00    1.01548   1.00735  102.583
 4418.00    1.04417   1.04005  100.960
 4419.00    1.06976   1.07172   97.099
 4420.00    1.07036   1.08670   93.380
 4421.00    1.05564   1.08130   91.648
 4422.00    1.05447   1.06872   92.844
 4423.00    1.05774   1.06213   95.210
 4424.00    1.05845   1.06156   96.285
 4425.00    1.04807   1.05938   95.642
 4426.00    1.04044   1.05424   95.399
 4427.00    1.03957   1.05429   95.828
 4428.00    1.04800   1.05960   95.988
 4429.00    1.04705   1.06564   95.335
 4430.00    1.03444   1.06976   -1.000
 4431.00    1.03723   1.07126   -1.000
 4432.00    1.04999   1.06878   96.090
 4433.00    1.03579   1.05580   94.977
 4434.00    1.00838   1.03300   95.244
 4435.00    1.00063   1.01852   99.023
 4436.00    1.01703   1.03006  103.013
 4437.00    1.05589   1.06468  102.548
 4438.00    1.09280   1.09835   97.588
 4439.00    1.09651   1.11211   91.968
 4440.00    1.07782   1.09897   89.123
 4441.00    1.04041   1.06735   89.829
 4442.00    1.00635   1.03582   -1.000
 4443.00    0.99672   1.02470   -1.000
 4444.00    1.00818   1.04070   -1.000
 4445.00    1.03541   1.07114   -1.000
 4446.00    1.05652   1.09599   -1.000
 4447.00    1.06707   1.10489   -1.000
 4448.00    1.07062   1.10484   -1.000
 4449.00    1.07355   1.10301   91.236
 4450.00    1.06506   1.10000   -1.000
 4451.00    1.06336   1.09512   -1.000
 4452.00    1.06335   1.08695   93.163
 4453.00    1.04910   1.06750   92.700
 4454.00    1.01788   1.03818   94.094
 4455.00    0.99658   1.01652   97.959
 4456.00    1.00984   1.01451  101.927
 4457.00    1.02393   1.02644  102.924
 4458.00    1.02652   1.03687  100.961
 4459.00    1.02151   1.03966   99.627
 4460.00    1.02343   1.03916   99.903
 4461.00    1.01360   1.04073   -1.000
 4462.00    1.02374   1.04837   -1.000
 4463.00    1.04396   1.06242  101.789
 4464.00    1.05821   1.07632   99.109
 4465.00    1.06894   1.08297   95.490
 4466.00    1.06610   1.07943   93.846
 4467.00    1.05714   1.06819   93.868
 4468.00    1.04251   1.05605   94.182
 4469.00    1.02717   1.05230   -1.000
 4470.00    1.02875   1.06242   -1.000
 4471.00    1.05516   1.08540   -1.000
 4472.00    1.08136   1.11077   -1.000
 4473.00    1.10978   1.12995   92.073
 4474.00    1.11348   1.13780   89.042
 4475.00    1.11471   1.13842   87.063
 4476.00    1.11334   1.13816   86.628
 4477.00    1.11659   1.13876   86.612
 4478.00    1.12145   1.13363   85.860
 4479.00    1.09453   1.11461   85.679
 4480.00    1.06160   1.08482   87.086
 4481.00    1.03697   1.06236   90.635
 4482.00    1.03503   1.06112   94.442
 4483.00    1.06197   1.08184   96.125
 4484.00    1.09513   1.11308   94.117
 4485.00    1.11546   1.13871   90.090
 4486.00    1.11894   1.14731   87.066
 4487.00    1.10528   1.13740   -1.000
 4488.00    1.08391   1.11727   -1.000
 4489.00    1.05666   1.09949   -1.000
 4490.00    1.06040   1.09535   -1.000
 4491.00    1.07651   1.10611   -1.000
 4492.00    1.08658   1.11922   -1.000
 4493.00    1.08316   1.11987   -1.000
 4494.00    1.07123   1.10825   -1.000
 4495.00    1.07026   1.09917   -1.000
 4496.00    1.07306   1.10086   93.194
 4497.00    1.09028   1.11043   94.445
 4498.00    1.11917   1.12058   92.725
 4499.00    1.12289   1.12505   89.545
 4500.00    1.10838   1.12059   87.433
 4501.00    1.08959   1.11811   87.070
 4502.00    1.09310   1.12846   -1.000
 4503.00    1.11672   1.14831   87.878
 4504.00    1.13388   1.16759   85.280
 4505.00    1.13564   1.17573   -1.000
 4506.00    1.13646   1.17230   81.711
 4507.00    1.12913   1.16265   82.626
 4508.00    1.12569   1.15618   84.188
 4509.00    1.13275   1.15679   84.789
 4510.00    1.13875   1.16080   84.654
 4511.00    1.13976   1.16073   83.978
 4512.00    1.12310   1.15355   83.688
 4513.00    1.11090   1.14399   84.684
 4514.00    1.11221   1.13548   86.384
 4515.00    1.10904   1.13010   87.691
 4516.00    1.11028   1.12863   87.961
 4517.00    1.10384   1.12699   87.557
 4518.00    1.08683   1.12208   -1.000
 4519.00    1.09506   1.11966   88.781
 4520.00    1.11021   1.12320   88.810
 4521.00    1.09796   1.12656   87.137
 4522.00    1.08257   1.12252   -1.000
 4523.00    1.07287   1.11172   -1.000
 4524.00    1.07079   1.10206   -1.000
 4525.00    1.07304   1.09386   90.242
 4526.00    1.05728   1.08137   91.119
 4527.00    1.04350   1.06276   92.967
 4528.00    1.04010   1.04442   95.848
 4529.00    1.03345   1.03862   98.205
 4530.00    1.03802   1.04511   98.883
 4531.00    1.05762   1.05651   97.841
 4532.00    1.06450   1.05873   96.054
 4533.00    1.04327   1.04622   94.574
 4534.00    1.01648   1.03103   94.837
 4535.00    1.02320   1.03050   97.796
 4536.00    1.06333   1.05372  100.155
 4537.00    1.09770   1.09084   97.617
 4538.00    1.12273   1.12451   91.793
 4539.00    1.12221   1.13903   87.010
 4540.00    1.11230   1.13627   85.484
 4541.00    1.10589   1.12858   86.736
 4542.00    1.10530   1.12595   88.437
 4543.00    1.10468   1.12743   88.107
 4544.00    1.08968   1.12417   -1.000
 4545.00    1.07523   1.11545   -1.000
 4546.00    1.09001   1.10826   -2.000
 4547.00    1.07554   1.10044   -2.000
 4548.00    0.72706   1.08520   -2.000
 4549.00    0.03157   1.06767   -1.000
 4550.00    0.02391   1.06314   -1.000
 4551.00    0.38742   1.07719   -1.000
 4552.00    0.84957   1.09093   -1.000
 4553.00    0.38281   1.08867   -1.000
 4554.00    0.97901   1.07785   -1.000
 4555.00    1.06837   1.07293   93.187
 4556.00    1.07588   1.08469   93.544
 4557.00    1.09879   1.10979   91.599
 4558.00    1.10481   1.13274   88.079
 4559.00    1.11386   1.14670   -1.000
 4560.00    1.13130   1.15419   83.933
 4561.00    1.13168   1.15549   84.391
 4562.00    1.11876   1.14741   84.326
 4563.00    1.10316   1.13085   84.750
 4564.00    1.09070   1.11517   86.857
 4565.00    1.08892   1.11101   88.898
 4566.00    1.10132   1.12092   89.876
 4567.00    1.11893   1.13839   88.498
 4568.00    1.13392   1.15034   86.168
 4569.00    1.13156   1.14973   84.169
 4570.00    1.11215   1.13614   83.744
 4571.00    1.08208   1.11732   -1.000
 4572.00    1.07743   1.10732   87.233
 4573.00    1.10354   1.11695   88.951
 4574.00    1.11887   1.13548   87.744
 4575.00    1.12082   1.14552   85.270
 4576.00    1.11452   1.14571   84.373
 4577.00    1.10839   1.14130   84.549
 4578.00    1.10382   1.13239   84.975
 4579.00    1.09308   1.11676   85.659
 4580.00    1.07776   1.09920   87.391
 4581.00    1.07176   1.08665   89.919
 4582.00    1.07568   1.08240   91.322
 4583.00    1.07590   1.08336   90.762
 4584.00    1.07921   1.08745   89.549
 4585.00    1.08477   1.09225   89.098
 4586.00    1.09467   1.09826   89.466
 4587.00    1.10772   1.10783   89.696
 4588.00    1.12339   1.11988   88.146
 4589.00    1.11888   1.12803   85.863
 4590.00    1.10953   1.12870   84.384
 4591.00    1.10035   1.12269   84.596
 4592.00    1.09246   1.11336   85.970
 4593.00    1.09482   1.10847   87.575
 4594.00    1.09078   1.11147   88.832
 4595.00    1.10819   1.11745   88.684
 4596.00    1.12488   1.12365   87.900
 4597.00    1.11945   1.12863   87.298
 4598.00    1.11975   1.12980   87.098
 4599.00    1.11675   1.12591   86.914
 4600.00    1.10990   1.11853   86.896
 4601.00    1.10225   1.11123   87.714
 4602.00    1.10048   1.10866   88.402
 4603.00    1.10542   1.11116   88.402
 4604.00    1.11422   1.11631   87.395
 4605.00    1.12013   1.12151   86.618
 4606.00    1.12078   1.12636   86.766
 4607.00    1.13860   1.13384   86.456
 4608.00    1.14025   1.14354   85.332
 4609.00    1.14358   1.15378   83.580
 4610.00    1.14655   1.15865   81.930
 4611.00    1.13970   1.15329   81.245
 4612.00    1.13235   1.14570   81.810
 4613.00    1.13142   1.14051   82.938
 4614.00    1.13717   1.13957   83.779
 4615.00    1.13488   1.14078   84.129
 4616.00    1.13060   1.14012   83.605
 4617.00    1.12193   1.13726   82.917
 4618.00    1.11845   1.13358   82.764
 4619.00    1.12098   1.13196   83.375
 4620.00    1.12890   1.13608   83.873
 4621.00    1.13608   1.14603   83.629
 4622.00    1.14428   1.15470   82.697
 4623.00    1.14362   1.15580   81.581
 4624.00    1.14158   1.15141   81.664
 4625.00    1.14186   1.14709   81.872
 4626.00    1.12838   1.14329   82.134
 4627.00    1.13600   1.14135   82.826
 4628.00    1.13411   1.14015   82.955
 4629.00    1.12288   1.13921   83.001
 4630.00    1.12942   1.14053   83.508
 4631.00    1.14014   1.14594   83.562
 4632.00    1.14490   1.15006   83.016
 4633.00    1.13645   1.14698   82.256
 4634.00    1.12891   1.14012   82.838
 4635.00    1.12542   1.13574   84.045
 4636.00    1.12278   1.13344   84.783
 4637.00    1.12352   1.12987   84.784
 4638.00    1.11664   1.12640   85.589
 4639.00    1.12125   1.12610   86.617
 4640.00    1.13308   1.13220   86.848
 4641.00    1.15426   1.14303   86.470
 4642.00    1.16113   1.15306   84.819
 4643.00    1.16017   1.15620   82.862
 4644.00    1.14556   1.14955   82.020
 4645.00    1.13616   1.13639   82.627
 4646.00    1.12341   1.11881   84.364
 4647.00    1.10573   1.10485   86.785
 4648.00    1.11382   1.10470   88.848
 4649.00    1.12345   1.11657   88.790
 4650.00    1.12901   1.13131   87.034
 4651.00    1.12820   1.14045   85.112
 4652.00    1.12629   1.14110   84.157
 4653.00    1.12578   1.13633   84.058
 4654.00    1.11243   1.12741   84.071
 4655.00    1.10019   1.11905   85.290
 4656.00    1.09647   1.11691   87.167
 4657.00    1.10725   1.12540   87.826
 4658.00    1.13433   1.14515   86.643
 4659.00    1.16289   1.16850   83.683
 4660.00    1.17627   1.18126   80.663
 4661.00    1.16793   1.17919   79.198
 4662.00    1.15264   1.16752   79.376
 4663.00    1.14544   1.15403   80.572
 4664.00    1.15056   1.14134   82.549
 4665.00    1.14045   1.12637   83.925
 4666.00    1.10490   1.10526   84.228
 4667.00    1.08180   1.08189   86.028
 4668.00    1.07797   1.06986   89.851
 4669.00    1.08330   1.07794   93.010
 4670.00    1.11019   1.09835   92.432
 4671.00    1.13751   1.11931   89.276
 4672.00    1.14336   1.13214   85.694
 4673.00    1.14529   1.13699   83.729
 4674.00    1.14063   1.14003   83.412
 4675.00    1.14600   1.14623   83.480
 4676.00    1.16240   1.15336   83.226
 4677.00    1.15949   1.15178   82.062
 4678.00    1.14310   1.13969   81.068
 4679.00    1.13337   1.12426   81.773
 4680.00    1.12759   1.11172   83.605
 4681.00    1.12504   1.10548   85.207
 4682.00    1.12630   1.10661   86.512
 4683.00    1.13160   1.11455   87.023
 4684.00    1.15037   1.12464   85.662
 4685.00    1.15238   1.13135   83.598
 4686.00    1.15585   1.13346   82.767
 4687.00    1.14930   1.13316   83.086
 4688.00    1.14064   1.13198   83.167
 4689.00    1.14212   1.13080   83.600
 4690.00    1.13444   1.12917   83.577
 4691.00    1.12754   1.12636   83.675
 4692.00    1.12849   1.12647   84.250
 4693.00    1.14915   1.13164   84.224
 4694.00    1.15892   1.13776   83.122
 4695.00    1.17382   1.14189   81.778
 4696.00    1.17346   1.14347   80.034
 4697.00    1.15578   1.13792   79.263
 4698.00    1.14474   1.12470   80.002
 4699.00    1.13720   1.11124   82.441
 4700.00    1.12834   1.10124   84.720
 4701.00    1.12382   1.09353   85.377
 4702.00    1.11412   1.08513   84.789
 4703.00    1.10767   1.07980   85.627
 4704.00    1.10542   1.08466   87.043
 4705.00    1.11967   1.09595   87.128
 4706.00    1.13116   1.10090   85.412
 4707.00    1.11927   1.09482   84.519
 4708.00    1.10574   1.08531   85.911
 4709.00    1.10497   1.08412   87.541
 4710.00    1.11652   1.09352   88.150
 4711.00    1.13907   1.10738   87.309
 4712.00    1.15969   1.11905   -1.000
 4713.00    1.14980   1.12026   82.546
 4714.00    1.13584   1.11373   82.030
 4715.00    1.13897   1.11104   83.010
 4716.00    1.14812   1.11801   84.413
 4717.00    1.16762   1.13132   -1.000
 4718.00    1.17076   1.14180   82.335
 4719.00    1.16367   1.14749   80.905
 4720.00    1.15949   1.14894   80.493
 4721.00    1.15241   1.14745   80.219
 4722.00    1.15400   1.14491   80.074
 4723.00    1.15615   1.14514   80.798
 4724.00    1.16441   1.14889   81.222
 4725.00    1.17049   1.15053   80.632
 4726.00    1.15370   1.14484   79.869
 4727.00    1.13310   1.13030   80.287
 4728.00    1.11825   1.11286   82.491
 4729.00    1.12497   1.10295   85.535
 4730.00    1.13273   1.10139   87.078
 4731.00    1.13177   1.10333   86.558
 4732.00    1.12835   1.10937   85.671
 4733.00    1.12875   1.11769   84.962
 4734.00    1.13500   1.12282   83.954
 4735.00    1.13976   1.12269   83.275
 4736.00    1.12833   1.11967   82.817
 4737.00    1.12968   1.11714   82.529
 4738.00    1.13774   1.11869   83.396
 4739.00    1.14407   1.12389   83.301
 4740.00    1.13852   1.12750   82.297
 4741.00    1.14523   1.12792   82.455
 4742.00    1.14175   1.12997   82.913
 4743.00    1.15612   1.13477   82.900
 4744.00    1.15980   1.13916   82.161
 4745.00    1.14914   1.14188   81.384
 4746.00    1.15857   1.14429   81.598
 4747.00    1.16674   1.14889   81.577
 4748.00    1.16793   1.15574   80.900
 4749.00    1.16989   1.15996   80.150
 4750.00    1.16730   1.16224   80.054
 4751.00    1.15729   1.16250   80.184
 4752.00    1.15800   1.15864   80.297
 4753.00    1.15363   1.15025   80.954
 4754.00    1.14710   1.14131   81.864
 4755.00    1.14551   1.13648   82.521
 4756.00    1.15245   1.13690   82.994
 4757.00    1.14082   1.14090   82.863
 4758.00    1.13451   1.14573   83.250
 4759.00    1.14896   1.14985   83.823
 4760.00    1.15584   1.15011   83.789
 4761.00    1.13469   1.14229   83.113
 4762.00    1.10836   1.12642   83.165
 4763.00    1.09792   1.10878   84.640
 4764.00    1.10356   1.09913   86.690
 4765.00    1.11311   1.09767   87.629
 4766.00    1.12417   1.10182   87.670
 4767.00    1.14001   1.11078   87.422
 4768.00    1.14965   1.12521   86.713
 4769.00    1.15890   1.14059   85.388
 4770.00    1.16035   1.14940   83.491
 4771.00    1.14820   1.14812   82.524
 4772.00    1.14490   1.14351   82.798
 4773.00    1.15394   1.14299   83.534
 4774.00    1.16582   1.15030   84.081
 4775.00    1.16846   1.15881   82.916
 4776.00    1.16900   1.16239   81.233
 4777.00    1.16857   1.16197   80.815
 4778.00    1.15757   1.15821   80.930
 4779.00    1.15318   1.15160   81.209
 4780.00    1.14702   1.14499   81.800
 4781.00    1.15085   1.14249   82.696
 4782.00    1.14909   1.14113   83.127
 4783.00    1.14245   1.13731   83.342
 4784.00    1.14008   1.13310   83.791
 4785.00    1.13831   1.12943   84.407
 4786.00    1.12167   1.12523   84.365
 4787.00    1.10733   1.12149   84.730
 4788.00    1.11881   1.12133   85.569
 4789.00    1.12188   1.12427   85.979
 4790.00    1.12888   1.12973   85.825
 4791.00    1.13983   1.13863   85.374
 4792.00    1.15428   1.14992   84.802
 4793.00    1.15864   1.16171   83.843
 4794.00    1.16724   1.17329   82.386
 4795.00    1.16815   1.18095   80.565
 4796.00    1.15946   1.18041   79.320
 4797.00    1.15322   1.17227   79.200
 4798.00    1.14731   1.16021   80.138
 4799.00    1.13390   1.14966   81.794
 4800.00    1.13480   1.14724   83.261
 4801.00    1.14627   1.15440   84.044
 4802.00    1.16384   1.16567   83.114
 4803.00    1.16999   1.17097   81.430
 4804.00    1.15582   1.16536   80.418
 4805.00    1.14559   1.15527   80.701
 4806.00    1.13723   1.14889   81.831
 4807.00    1.14267   1.14764   82.845
 4808.00    1.15117   1.14944   83.505
 4809.00    1.14897   1.15345   83.423
 4810.00    1.14867   1.15775   83.188
 4811.00    1.15899   1.16055   82.767
 4812.00    1.16050   1.16234   82.010
 4813.00    1.16261   1.16492   81.449
 4814.00    1.17626   1.16876   81.073
 4815.00    1.17383   1.17322   81.000
 4816.00    1.17128   1.17830   80.786
 4817.00    1.17894   1.18311   80.470
 4818.00    1.18100   1.18486   79.951
 4819.00    1.18080   1.18335   79.472
 4820.00    1.17130   1.18126   79.186
 4821.00    1.16390   1.17647   79.176
 4822.00    1.15832   1.16432   79.245
 4823.00    1.14009   1.14642   80.109
 4824.00    1.12733   1.13236   82.258
 4825.00    1.14024   1.13272   83.633
 4826.00    1.15851   1.14372   83.261
 4827.00    1.15245   1.15271   81.736
 4828.00    1.15668   1.15405   80.628
 4829.00    1.16324   1.14992   81.104
 4830.00    1.15260   1.14615   82.057
 4831.00    1.14501   1.14159   82.495
 4832.00    1.14161   1.13602   82.514
 4833.00    1.15043   1.13470   83.270
 4834.00    1.16187   1.13830   83.244
 4835.00    1.16095   1.14390   81.853
 4836.00    1.16541   1.14691   80.848
 4837.00    1.15697   1.14598   80.627
 4838.00    1.14725   1.14254   80.803
 4839.00    1.14337   1.13552   81.264
 4840.00    1.14335   1.12762   82.445
 4841.00    1.13589   1.12326   83.824
 4842.00    1.13933   1.12308   83.778
 4843.00    1.14691   1.12416   83.570
 4844.00    1.14754   1.12590   83.120
 4845.00    1.15424   1.13067   82.471
 4846.00    1.15737   1.13666   81.596
 4847.00    1.14498   1.13507   80.359
 4848.00    1.12601   1.12562   80.155
 4849.00    1.12245   1.11905   81.859
 4850.00    1.13503   1.11963   82.957
 4851.00    1.13940   1.12185   82.793
 4852.00    1.13491   1.11936   81.649
 4853.00    1.11678   1.10968   81.561
 4854.00    1.09394   1.08988   82.077
 4855.00    1.07133   1.06395   82.922
 4856.00    1.05616   1.04371   85.493
 4857.00    1.05572   1.03092   87.708
 4858.00    1.03861   1.01125   87.326
 4859.00    0.96559   0.95899   86.651
 4860.00    0.86090   0.87240   89.556
 4861.00    0.78657   0.79705   97.777
 4862.00    0.80250   0.78001   -1.000
 4863.00    0.90763   0.83607   -1.000
 4864.00    0.99603   0.91750   -1.000
 4865.00    1.03470   0.98287   -1.000
 4866.00    1.05855   1.02442   90.662
 4867.00    1.07135   1.05151   87.646
 4868.00    1.08637   1.06923   85.922
 4869.00    1.09286   1.07566   85.215
 4870.00    1.07339   1.06615   84.945
 4871.00    1.05590   1.04566   85.853
 4872.00    1.05419   1.03136   88.342
 4873.00    1.07226   1.04059   90.285
 4874.00    1.09920   1.06579   89.253
 4875.00    1.11032   1.08755   86.691
 4876.00    1.10901   1.09636   85.291
 4877.00    1.10546   1.09790   84.679
 4878.00    1.11279   1.10357   84.237
 4879.00    1.11717   1.11626   83.899
 4880.00    1.12742   1.12969   82.652
 4881.00    1.12559   1.13468   81.894
 4882.00    1.11796   1.12775   82.736
 4883.00    1.11477   1.11985   84.081
 4884.00    1.11530   1.11458   84.491
 4885.00    1.11889   1.10937   84.217
 4886.00    1.10581   1.10441   84.760
 4887.00    1.09685   1.10173   86.060
 4888.00    1.10998   1.10014   86.422
 4889.00    1.10424   1.09314   85.942
 4890.00    1.08416   1.07800   85.926
 4891.00    1.07812   1.06522   87.302
 4892.00    1.10162   1.07261   89.119
 4893.00    1.13842   1.10429   -1.000
 4894.00    1.16203   1.14346   84.532
 4895.00    1.16976   1.17103   80.655
 4896.00    1.17993   1.18458   78.386
 4897.00    1.16792   1.18721   77.012
 4898.00    1.16220   1.18218   76.716
 4899.00    1.14918   1.17108   76.989
 4900.00    1.13657   1.15983   78.738
 4901.00    1.13316   1.15364   80.556
 4902.00    1.14544   1.15038   81.332
 4903.00    1.14177   1.14453   80.911
 4904.00    1.13014   1.14051   81.097
 4905.00    1.14998   1.14850   82.033
 4906.00    1.15492   1.16397   81.016
 4907.00    1.15382   1.17033   79.300
 4908.00    1.15464   1.16362   78.801
 4909.00    1.13267   1.14749   79.647
 4910.00    1.11696   1.13012   81.647
 4911.00    1.11521   1.12029   83.964
 4912.00    1.13788   1.12417   84.862
 4913.00    1.15370   1.13688   83.639
 4914.00    1.15258   1.15004   82.125
 4915.00    1.15513   1.16022   81.016
 4916.00    1.16131   1.16208   79.980
 4917.00    1.15050   1.14698   79.340
 4918.00    1.10506   1.11353   79.878
 4919.00    1.05720   1.07214   82.853
 4920.00    1.04571   1.04088   87.455
 4921.00    1.06644   1.03556   91.456
 4922.00    1.08756   1.05279   92.188
 4923.00    1.09625   1.07396   89.028
 4924.00    1.09785   1.08656   85.871
 4925.00    1.10695   1.09810   84.720
 4926.00    1.12386   1.11644   84.633
 4927.00    1.13894   1.13756   83.462
 4928.00    1.15621   1.15521   81.265
 4929.00    1.16457   1.16698   79.869
 4930.00    1.15483   1.17291   79.151
 4931.00    1.16600   1.17045   78.619
 4932.00    1.15062   1.15557   78.202
 4933.00    1.11403   1.13040   79.078
 4934.00    1.10195   1.10999   81.325
 4935.00    1.10373   1.10696   84.206
 4936.00    1.12177   1.11504   84.241
 4937.00    1.11954   1.11394   82.724
 4938.00    1.09644   1.09786   82.824
 4939.00    1.08538   1.08596   85.363
 4940.00    1.10588   1.09310   87.588
 4941.00    1.14096   1.11833   86.626
 4942.00    1.15676   1.14724   83.596
 4943.00    1.16169   1.16450   80.966
 4944.00    1.17070   1.16929   79.537
 4945.00    1.15679   1.16541   78.865
 4946.00    1.14413   1.15998   78.969
 4947.00    1.15611   1.15966   79.538
 4948.00    1.16914   1.16696   79.662
 4949.00    1.15879   1.17653   78.903
 4950.00    1.16285   1.18092   77.983
 4951.00    1.17129   1.17925   77.769
 4952.00    1.16530   1.17495   77.464
 4953.00    1.15546   1.17019   77.899
 4954.00    1.16436   1.16407   78.453
 4955.00    1.15633   1.14941   79.379
 4956.00    1.11425   1.11617   80.411
 4957.00    1.07035   1.07353   82.675
 4958.00    1.07716   1.05435   87.005
 4959.00    1.12557   1.07356   -1.000
 4960.00    1.15693   1.11422   -1.000
 4961.00    1.16496   1.14756   83.095
 4962.00    1.16376   1.16215   80.365
 4963.00    1.15675   1.16372   79.846
 4964.00    1.15169   1.15731   80.260
 4965.00    1.14740   1.14513   80.920
 4966.00    1.14502   1.13200   81.915
 4967.00    1.14139   1.12441   83.667
 4968.00    1.14250   1.12205   84.699
 4969.00    1.14940   1.12298   84.677
 4970.00    1.14582   1.12831   84.410
 4971.00    1.14601   1.13696   83.764
 4972.00    1.14896   1.14614   82.857
 4973.00    1.15947   1.15450   81.966
 4974.00    1.16812   1.16009   80.987
 4975.00    1.16685   1.16058   80.242
 4976.00    1.15908   1.15711   79.952
 4977.00    1.15418   1.14951   80.547
 4978.00    1.14793   1.13962   81.412
 4979.00    1.13443   1.13057   82.535
 4980.00    1.12465   1.11887   83.883
 4981.00    1.10723   1.09877   84.910
 4982.00    1.08274   1.07090   86.156
 4983.00    1.06416   1.04696   89.057
 4984.00    1.07394   1.04186   -1.000
 4985.00    1.09241   1.05741   -1.000
 4986.00    1.11672   1.08352   -1.000
 4987.00    1.13997   1.10934   87.392
 4988.00    1.14974   1.12754   84.618
 4989.00    1.14365   1.13008   82.584
 4990.00    1.12802   1.12054   82.745
 4991.00    1.11429   1.10997   83.999
 4992.00    1.11504   1.10768   84.836
 4993.00    1.12922   1.11261   84.832
 4994.00    1.13381   1.11846   84.055
 4995.00    1.12613   1.12446   83.719
 4996.00    1.13965   1.13091   83.683
 4997.00    1.14836   1.13352   83.238
 4998.00    1.12915   1.12661   82.840
 4999.00    1.11778   1.10784   83.384
 5000.00    1.11051   1.08527   84.532
 5001.00    1.11047   1.07498   -1.000
 5002.00    1.11701   1.07810   -1.000
 5003.00    1.12559   1.08579   -1.000
 5004.00    1.12180   1.08723   86.461
 5005.00    1.10142   1.07614   85.925
 5006.00    1.08331   1.05857   87.232
 5007.00    1.09184   1.05351   -1.000
 5008.00    1.12080   1.06917   -1.000
 5009.00    1.14482   1.09110   -1.000
 5010.00    1.14810   1.10304   -1.000
 5011.00    1.12132   1.09602   84.091
 5012.00    1.08403   1.07495   85.272
 5013.00    1.06443   1.05240   87.898
 5014.00    1.06391   1.04075   91.214
 5015.00    1.07904   1.04297   -1.000
 5016.00    1.10223   1.05149   -1.000
 5017.00    1.10863   1.05629   -1.000
 5018.00    1.09703   1.05517   -1.000
 5019.00    1.10503   1.05909   -1.000
 5020.00    1.11609   1.07196   -1.000
 5021.00    1.11309   1.08267   87.401
 5022.00    1.11634   1.08611   86.704
 5023.00    1.11867   1.08733   -1.000
 5024.00    1.12661   1.09522   -1.000
 5025.00    1.13234   1.10688   86.780
 5026.00    1.13101   1.11048   85.848
 5027.00    1.11561   1.10565   85.288
 5028.00    1.12532   1.10191   85.729
 5029.00    1.14343   1.10400   -1.000
 5030.00    1.15198   1.11114   -1.000
 5031.00    1.14688   1.12129   83.666
 5032.00    1.15335   1.13271   82.486
 5033.00    1.16271   1.14027   81.139
 5034.00    1.14523   1.13609   80.220
 5035.00    1.12392   1.11826   80.394
 5036.00    1.10147   1.09857   83.067
 5037.00    1.10112   1.08818   86.397
 5038.00    1.10249   1.08393   87.762
 5039.00    1.07824   1.07033   88.034
 5040.00    1.04134   1.04249   89.154
 5041.00    1.02954   1.01943   92.756
 5042.00    1.05445   1.02313   -1.000
 5043.00    1.09710   1.05416   -1.000
 5044.00    1.13234   1.09439   -1.000
 5045.00    1.15017   1.12557   85.925
 5046.00    1.16117   1.14303   82.480
 5047.00    1.15627   1.14521   80.799
 5048.00    1.13103   1.13225   77.646
 5049.00    1.17841   1.10921   -1.000
 5050.00    0.56381   1.08786   -1.000
 5051.00    0.10277   1.07592   -1.000
 5052.00    0.00713   1.07854   -1.000
 5053.00    0.60889   1.09604   -1.000
 5054.00    1.27043   1.11990   -1.000
 5055.00    1.16294   1.13566   82.489
 5056.00    1.17145   1.14272   81.004
 5057.00    1.16765   1.14623   80.255
 5058.00    1.16588   1.14860   80.012
 5059.00    1.16433   1.15084   80.171
 5060.00    1.16169   1.15270   80.320
 5061.00    1.16039   1.15400   80.283
 5062.00    1.15924   1.15260   79.719
 5063.00    1.14680   1.14148   79.782
 5064.00    1.12177   1.11985   80.891
 5065.00    1.10853   1.10055   83.294
 5066.00    1.11782   1.09352   86.292
 5067.00    1.13320   1.09724   -1.000
 5068.00    1.13213   1.10188   86.107
 5069.00    1.14101   1.10431   -1.000
 5070.00    1.14297   1.10753   -1.000
 5071.00    1.14401   1.10963   -1.000
 5072.00    1.13517   1.10588   83.586
 5073.00    1.13081   1.10013   -1.000
 5074.00    1.13805   1.09977   -1.000
 5075.00    1.14778   1.10427   -1.000
 5076.00    1.13666   1.10801   83.226
 5077.00    1.13630   1.10478   -1.000
 5078.00    1.12044   1.09048   83.065
 5079.00    1.07944   1.06696   83.898
 5080.00    1.05823   1.04958   86.892
 5081.00    1.08039   1.04959   -1.000
 5082.00    1.09723   1.05938   -1.000
 5083.00    1.10516   1.06996   -1.000
 5084.00    1.12426   1.08093   -1.000
 5085.00    1.14215   1.09549   -1.000
 5086.00    1.15362   1.10971   -1.000
 5087.00    1.14909   1.11772   83.828
 5088.00    1.14199   1.12038   83.250
 5089.00    1.14862   1.12236   83.147
 5090.00    1.15423   1.12594   82.720
 5091.00    1.16107   1.13016   -1.000
 5092.00    1.16442   1.13551   -1.000
 5093.00    1.17105   1.14188   -1.000
 5094.00    1.17789   1.14510   -1.000
 5095.00    1.17111   1.13953   -1.000
 5096.00    1.14092   1.12292   80.337
 5097.00    1.16982   1.10146   -1.000
 5098.00    1.16045   1.08244   -1.000
 5099.00    1.09454   1.07276   85.856
 5100.00    1.10681   1.07807   87.652
 5101.00    1.13951   1.09514   -1.000
 5102.00    1.16581   1.11187   -1.000
 5103.00    1.16835   1.11835   -1.000
 5104.00    1.15452   1.11644   -1.000
 5105.00    1.14761   1.10962   -1.000
 5106.00    1.12721   1.09821   84.117
 5107.00    1.11078   1.08357   85.181
 5108.00    1.11457   1.07335   -1.000
 5109.00    1.10248   1.07126   -1.000
 5110.00    1.10739   1.07659   -1.000
 5111.00    1.12545   1.08826   -1.000
 5112.00    1.14264   1.10398   -1.000
 5113.00    1.14846   1.11711   -1.000
 5114.00    1.15968   1.12603   -1.000
 5115.00    1.16234   1.13237   -1.000
 5116.00    1.15883   1.13814   81.916
 5117.00    1.16300   1.14296   81.483
 5118.00    1.17117   1.14481   80.613
 5119.00    1.16501   1.14211   79.942
 5120.00    1.15093   1.13400   80.194
 5121.00    1.14534   1.12171   81.259
 5122.00    1.12248   1.10714   82.487
 5123.00    1.10624   1.09141   83.853
 5124.00    1.09841   1.07724   86.027
 5125.00    1.10029   1.07100   88.636
 5126.00    1.10744   1.07200   -1.000
 5127.00    1.12178   1.07422   -1.000
 5128.00    1.11644   1.07414   -1.000
 5129.00    1.10746   1.07411   -1.000
 5130.00    1.11124   1.07732   -1.000
 5131.00    1.12181   1.08473   -1.000
 5132.00    1.12588   1.09392   -1.000
 5133.00    1.13044   1.10181   84.871
 5134.00    1.13432   1.10772   84.192
 5135.00    1.14042   1.11081   -1.000
 5136.00    1.13650   1.10858   82.654
 5137.00    1.11367   1.09832   82.446
 5138.00    1.08595   1.08330   83.954
 5139.00    1.08101   1.07069   86.011
 5140.00    1.09674   1.06696   -1.000
 5141.00    1.09457   1.06993   87.484
 5142.00    1.09442   1.07223   86.686
 5143.00    1.10244   1.07391   87.346
 5144.00    1.10923   1.07951   -1.000
 5145.00    1.11815   1.08652   -1.000
 5146.00    1.11300   1.08748   86.748
 5147.00    1.11509   1.08278   -1.000
 5148.00    1.11969   1.08119   -1.000
 5149.00    1.12792   1.08507   -1.000
 5150.00    1.12441   1.08471   -1.000
 5151.00    1.10440   1.07689   85.921
 5152.00    1.09343   1.06818   87.000
 5153.00    1.09574   1.06451   -1.000
 5154.00    1.10569   1.06694   -1.000
 5155.00    1.12466   1.07663   -1.000
 5156.00    1.14359   1.09388   -1.000
 5157.00    1.16553   1.11169   -1.000
 5158.00    1.15762   1.12422   -1.000
 5159.00    1.16854   1.13008   -1.000
 5160.00    1.16040   1.13083   80.498
 5161.00    1.15225   1.12726   80.489
 5162.00    1.14280   1.11939   80.761
 5163.00    1.14795   1.10808   -1.000
 5164.00    1.13905   1.09086   -1.000
 5165.00    1.08838   1.05666   83.425
 5166.00    1.02746   0.99841   86.622
 5167.00    0.96670   0.93507   -1.000
 5168.00    0.96364   0.90187   -1.000
 5169.00    1.00279   0.91602   -1.000
 5170.00    1.03762   0.94695   -1.000
 5171.00    1.01237   0.94749   -1.000
 5172.00    0.95209   0.92035   -1.000
 5173.00    0.95394   0.90640   -1.000
 5174.00    1.02362   0.93993   -1.000
 5175.00    1.09563   1.00538   -1.000
 5176.00    1.13550   1.06001   -1.000
 5177.00    1.15202   1.08913   -1.000
 5178.00    1.15879   1.09929   -1.000
 5179.00    1.16158   1.09950   -1.000
 5180.00    1.14332   1.08768   -1.000
 5181.00    1.10395   1.05293   -1.000
 5182.00    1.02510   0.99398   -1.000
 5183.00    0.94878   0.93114   95.657
 5184.00    0.95121   0.90368   -1.000
 5185.00    1.02513   0.93320   -1.000
 5186.00    1.09347   0.99512   -1.000
 5187.00    1.11848   1.04769   -1.000
 5188.00    1.12140   1.07086   -1.000
 5189.00    1.11309   1.07720   -1.000
 5190.00    1.11008   1.07733   -1.000
 5191.00    1.09637   1.06692   85.210
 5192.00    1.08081   1.04930   -1.000
 5193.00    1.08265   1.03973   -1.000
 5194.00    1.09862   1.04308   -1.000
 5195.00    1.10682   1.05302   -1.000
 5196.00    1.11425   1.06297   -1.000
 5197.00    1.12332   1.07404   -1.000
 5198.00    1.13031   1.08818   -1.000
 5199.00    1.13756   1.10235   -1.000
 5200.00    1.15276   1.11136   -1.000
 5201.00    1.15075   1.11248   -1.000
 5202.00    1.13443   1.10323   -1.000
 5203.00    1.11964   1.08370   -1.000
 5204.00    1.09692   1.05652   -1.000
 5205.00    1.07448   1.02966   -1.000
 5206.00    1.07683   1.01231   -1.000
 5207.00    1.08657   1.00683   -1.000
 5208.00    1.08527   1.00686   -1.000
 5209.00    1.08723   1.01062   -1.000
 5210.00    1.10091   1.02591   -1.000
 5211.00    1.13499   1.05452   -1.000
 5212.00    1.16851   1.08762   -1.000
 5213.00    1.17538   1.11193   -1.000
 5214.00    1.16602   1.11759   -1.000
 5215.00    1.14060   1.10540   -1.000
 5216.00    1.11933   1.08901   81.402
 5217.00    1.13022   1.08447   -1.000
 5218.00    1.14825   1.09628   -1.000
 5219.00    1.15924   1.11666   -1.000
 5220.00    1.17123   1.13425   -1.000
 5221.00    1.17547   1.14469   80.617
 5222.00    1.16979   1.14608   79.994
 5223.00    1.15548   1.13661   79.670
 5224.00    1.13596   1.11403   80.690
 5225.00    1.10092   1.07647   83.146
 5226.00    1.06175   1.03436   86.581
 5227.00    1.05900   1.01279   -1.000
 5228.00    1.09069   1.02562   -1.000
 5229.00    1.12741   1.06272   -1.000
 5230.00    1.14711   1.09611   -1.000
 5231.00    1.14626   1.10803   -1.000
 5232.00    1.13574   1.10020   -1.000
 5233.00    1.12234   1.08409   -1.000
 5234.00    1.11605   1.07621   -1.000
 5235.00    1.12261   1.08595   -1.000
 5236.00    1.14968   1.10776   -1.000
 5237.00    1.16638   1.12930   -1.000
 5238.00    1.16923   1.14216   80.080
 5239.00    1.16919   1.14576   79.165
 5240.00    1.17964   1.14515   -1.000
 5241.00    1.18490   1.14322   -1.000
 5242.00    1.17980   1.14078   -1.000
 5243.00    1.17607   1.14033   -1.000
 5244.00    1.18095   1.14349   -1.000
 5245.00    1.17371   1.14467   78.688
 5246.00    1.15414   1.13567   78.561
 5247.00    1.13818   1.11931   80.114
 5248.00    1.13800   1.10549   -1.000
 5249.00    1.12947   1.09916   84.560
 5250.00    1.12620   1.09655   84.805
 5251.00    1.12555   1.09639   84.960
 5252.00    1.13190   1.10056   -1.000
 5253.00    1.14678   1.10599   -1.000
 5254.00    1.13567   1.10763   83.941
 5255.00    1.14726   1.10865   -1.000
 5256.00    1.16585   1.11715   -1.000
 5257.00    1.17450   1.13320   -1.000
 5258.00    1.18923   1.14815   -1.000
 5259.00    1.18722   1.15244   -1.000
 5260.00    1.16155   1.14189   77.708
 5261.00    1.13967   1.11707   78.411
 5262.00    1.09915   1.08334   80.540
 5263.00    1.06656   1.04954   83.942
 5264.00    1.06013   1.02196   -1.000
 5265.00    1.05194   1.00678   -1.000
 5266.00    1.06237   1.00729   -1.000
 5267.00    1.08854   1.01588   -1.000
 5268.00    1.08097   1.01454   -1.000
 5269.00    1.04642   0.99629   -1.000
 5270.00    1.04431   0.97895   -1.000
 5271.00    1.08301   0.99077   -1.000
 5272.00    1.11982   1.02850   -1.000
 5273.00    1.12831   1.06134   -1.000
 5274.00    1.12060   1.07591   -1.000
 5275.00    1.12449   1.07996   -1.000
 5276.00    1.13888   1.08780   -1.000
 5277.00    1.16791   1.10681   -1.000
 5278.00    1.18816   1.12974   -1.000
 5279.00    1.17965   1.14256   -1.000
 5280.00    1.16418   1.13629   77.731
 5281.00    1.15311   1.11775   -1.000
 5282.00    1.13319   1.09794   -1.000
 5283.00    1.11973   1.08444   -1.000
 5284.00    1.13331   1.08489   -1.000
 5285.00    1.15685   1.10322   -1.000
 5286.00    1.18210   1.13110   -1.000
 5287.00    1.18695   1.15343   -1.000
 5288.00    1.19104   1.16308   77.387
 5289.00    1.21859   1.16558   -1.000
 5290.00    1.19970   1.16687   -1.000
 5291.00    1.18120   1.16607   77.137
 5292.00    1.18575   1.16305   76.696
 5293.00    1.18656   1.16035   76.523
 5294.00    1.18373   1.15598   76.955
 5295.00    1.17643   1.14504   77.678
 5296.00    1.15216   1.12419   78.702
 5297.00    1.12212   1.09789   80.807
 5298.00    1.10869   1.08073   83.894
 5299.00    1.12611   1.08260   -1.000
 5300.00    1.15126   1.09615   -1.000
 5301.00    1.15105   1.10907   -1.000
 5302.00    1.15229   1.11732   -1.000
 5303.00    1.16052   1.12769   -1.000
 5304.00    1.17684   1.14285   -1.000
 5305.00    1.18948   1.15397   -1.000
 5306.00    1.18193   1.15551   76.883
 5307.00    1.17093   1.15100   76.642
 5308.00    1.17312   1.14839   77.362
 5309.00    1.18337   1.15334   -1.000
 5310.00    1.18777   1.16181   77.575
 5311.00    1.18986   1.16706   76.765
 5312.00    1.18974   1.16640   76.262
 5313.00    1.18929   1.16113   76.318
 5314.00    1.18818   1.15281   -1.000
 5315.00    1.16893   1.14155   77.074
 5316.00    1.15044   1.12930   77.626
 5317.00    1.15518   1.12350   -1.000
 5318.00    1.16758   1.12892   -1.000
 5319.00    1.17183   1.14022   79.140
 5320.00    1.17387   1.14733   78.574
 5321.00    1.17052   1.14524   78.227
 5322.00    1.16237   1.13498   78.491
 5323.00    1.15129   1.11841   -1.000
 5324.00    1.13954   1.10261   -1.000
 5325.00    1.13911   1.09224   -1.000
 5326.00    1.12490   1.07953   -1.000
 5327.00    1.08525   1.05225   82.122
 5328.00    1.05146   1.01896   -1.000
 5329.00    1.06589   1.01026   -1.000
 5330.00    1.12448   1.03792   -1.000
 5331.00    1.15966   1.08063   -1.000
 5332.00    1.16392   1.10991   -1.000
 5333.00    1.16901   1.12114   -1.000
 5334.00    1.17323   1.12723   -1.000
 5335.00    1.17844   1.13285   -1.000
 5336.00    1.17294   1.13457   -1.000
 5337.00    1.15535   1.13143   78.221
 5338.00    1.15278   1.12390   78.689
 5339.00    1.14404   1.11032   -1.000
 5340.00    1.13988   1.09325   -1.000
 5341.00    1.13268   1.08461   -1.000
 5342.00    1.15334   1.09319   -1.000
 5343.00    1.17113   1.11232   -1.000
 5344.00    1.17283   1.12532   -1.000
 5345.00    1.16645   1.12590   -1.000
 5346.00    1.16389   1.11902   -1.000
 5347.00    1.16170   1.11117   -1.000
 5348.00    1.15505   1.10603   -1.000
 5349.00    1.15209   1.10430   -1.000
 5350.00    1.16417   1.10939   -1.000
 5351.00    1.17297   1.12174   -1.000
 5352.00    1.17851   1.13558   -1.000
 5353.00    1.17943   1.14442   -1.000
 5354.00    1.18098   1.14938   -1.000
 5355.00    1.18503   1.15646   -1.000
 5356.00    1.18907   1.16475   76.597
 5357.00    1.19692   1.17022   75.632
 5358.00    1.20004   1.17115   -1.000
 5359.00    1.20281   1.16891   -1.000
 5360.00    1.19536   1.16400   -1.000
 5361.00    1.17839   1.15523   75.462
 5362.00    1.16372   1.14377   76.318
 5363.00    1.15801   1.13241   77.584
 5364.00    1.14818   1.12220   78.733
 5365.00    1.14365   1.11545   79.317
 5366.00    1.14456   1.11390   -1.000
 5367.00    1.15547   1.11526   -1.000
 5368.00    1.15468   1.11257   -1.000
 5369.00    1.13222   1.09974   -1.000
 5370.00    1.10990   1.07724   -1.000
 5371.00    1.10555   1.05699   -1.000
 5372.00    1.12978   1.05634   -1.000
 5373.00    1.16904   1.07981   -1.000
 5374.00    1.18775   1.11412   -1.000
 5375.00    1.20033   1.14020   -1.000
 5376.00    1.19636   1.15177   -1.000
 5377.00    1.19106   1.15364   -1.000
 5378.00    1.18701   1.15216   -1.000
 5379.00    1.18559   1.14900   -1.000
 5380.00    1.17415   1.14348   -1.000
 5381.00    1.15564   1.13609   77.041
 5382.00    1.16403   1.12853   -1.000
 5383.00    1.16656   1.12367   -1.000
 5384.00    1.16449   1.12486   -1.000
 5385.00    1.17723   1.13309   -1.000
 5386.00    1.18292   1.14410   -1.000
 5387.00    1.18344   1.15036   -1.000
 5388.00    1.17220   1.14897   77.561
 5389.00    1.17171   1.14087   77.887
 5390.00    1.16991   1.12976   -1.000
 5391.00    1.15916   1.12001   -1.000
 5392.00    1.15559   1.11225   -1.000
 5393.00    1.15055   1.10669   -1.000
 5394.00    1.14438   1.10388   -1.000
 5395.00    1.13786   1.09858   -1.000
 5396.00    1.12289   1.08539   -1.000
 5397.00    1.11319   1.07139   -1.000
 5398.00    1.12856   1.06994   -1.000
 5399.00    1.15219   1.08542   -1.000
 5400.00    1.16587   1.10597   -1.000
 5401.00    1.16754   1.11860   -1.000
 5402.00    1.15563   1.11981   -1.000
 5403.00    1.14009   1.10759   -1.000
 5404.00    1.11978   1.08253   -1.000
 5405.00    1.10124   1.05715   -1.000
 5406.00    1.10180   1.04802   -1.000
 5407.00    1.12496   1.05840   -1.000
 5408.00    1.14393   1.07498   -1.000
 5409.00    1.12977   1.08134   -1.000
 5410.00    1.12885   1.07933   -1.000
 5411.00    1.13812   1.08477   -1.000
 5412.00    1.16061   1.10059   -1.000
 5413.00    1.16650   1.11592   -1.000
 5414.00    1.15714   1.12170   -1.000
 5415.00    1.15656   1.12168   -1.000
 5416.00    1.15955   1.12591   -1.000
 5417.00    1.17014   1.13384   -1.000
 5418.00    1.16439   1.13904   78.143
 5419.00    1.16447   1.13949   77.637
 5420.00    1.16346   1.13718   77.904
 5421.00    1.16188   1.13446   78.657
 5422.00    1.16721   1.13053   -1.000
 5423.00    1.15296   1.12287   -1.000
 5424.00    1.14276   1.11468   78.560
 5425.00    1.14530   1.11404   -1.000
 5426.00    1.16299   1.12490   -1.000
 5427.00    1.16216   1.13517   79.581
 5428.00    1.15019   1.12730   78.251
 5429.00    1.14522   1.10495   -1.000
 5430.00    1.12992   1.08779   -1.000
 5431.00    1.13014   1.08839   -1.000
 5432.00    1.14156   1.09698   -1.000
 5433.00    1.12854   1.09626   -1.000
 5434.00    1.11380   1.08594   81.789
 5435.00    1.11768   1.07996   -1.000
 5436.00    1.13626   1.08870   -1.000
 5437.00    1.16008   1.11034   -1.000
 5438.00    1.17491   1.13378   -1.000
 5439.00    1.18808   1.14980   -1.000
 5440.00    1.18968   1.15702   -1.000
 5441.00    1.18124   1.16086   76.999
 5442.00    1.17596   1.16274   76.332
 5443.00    1.17602   1.15910   76.169
 5444.00    1.16630   1.14487   76.160
 5445.00    1.13144   1.11815   76.907
 5446.00    1.10906   1.08813   78.876
 5447.00    1.10816   1.07119   -1.000
 5448.00    1.13637   1.07754   -1.000
 5449.00    1.17587   1.10135   -1.000
 5450.00    1.19352   1.12489   -1.000
 5451.00    1.18134   1.13807   -1.000
 5452.00    1.17307   1.13905   -1.000
 5453.00    1.16473   1.12828   -1.000
 5454.00    1.13939   1.10702   -1.000
 5455.00    1.11865   1.08336   -1.000
 5456.00    1.12655   1.07386   -1.000
 5457.00    1.15605   1.08916   -1.000
 5458.00    1.17791   1.11710   -1.000
 5459.00    1.17943   1.13766   -1.000
 5460.00    1.17265   1.14218   -1.000
 5461.00    1.16067   1.13364   78.537
 5462.00    1.15155   1.11912   -1.000
 5463.00    1.14508   1.10719   -1.000
 5464.00    1.15757   1.10558   -1.000
 5465.00    1.16865   1.11360   -1.000
 5466.00    1.16714   1.12400   -1.000
 5467.00    1.16615   1.13129   -1.000
 5468.00    1.17884   1.13584   -1.000
 5469.00    1.18077   1.13871   -1.000
 5470.00    1.17128   1.13834   -1.000
 5471.00    1.16465   1.13436   -1.000
 5472.00    1.16976   1.12886   -1.000
 5473.00    1.16403   1.12233   -1.000
 5474.00    1.15248   1.11302   -1.000
 5475.00    1.13724   1.09812   -1.000
 5476.00    1.11570   1.08013   -1.000
 5477.00    1.10813   1.07067   -1.000
 5478.00    1.12739   1.07895   -1.000
 5479.00    1.15167   1.09829   -1.000
 5480.00    1.15309   1.11199   -1.000
 5481.00    1.14760   1.11267   -1.000
 5482.00    1.15007   1.10998   -1.000
 5483.00    1.15216   1.11346   -1.000
 5484.00    1.15837   1.12449   -1.000
 5485.00    1.17143   1.13544   -1.000
 5486.00    1.17115   1.13782   -1.000
 5487.00    1.16174   1.13187   -1.000
 5488.00    1.15455   1.12407   -1.000
 5489.00    1.15276   1.12101   -1.000
 5490.00    1.16435   1.12379   -1.000
 5491.00    1.16078   1.12858   -1.000
 5492.00    1.15561   1.13252   80.868
 5493.00    1.16350   1.13387   -1.000
 5494.00    1.17169   1.13361   -1.000
 5495.00    1.16693   1.13144   -1.000
 5496.00    1.15459   1.12529   -1.000
 5497.00    1.14287   1.11706   80.130
 5498.00    1.14192   1.11347   -1.000
 5499.00    1.15788   1.11643   -1.000
 5500.00    1.16253   1.11811   -1.000
 5501.00    1.14446   1.11158   -1.000
 5502.00    1.13892   1.10324   -1.000
 5503.00    1.14682   1.10357   -1.000
 5504.00    1.15703   1.10851   -1.000
 5505.00    1.15063   1.10772   -1.000
 5506.00    1.13310   1.09965   -1.000
 5507.00    1.13685   1.09298   -1.000
 5508.00    1.15646   1.09718   -1.000
 5509.00    1.16601   1.10838   -1.000
 5510.00    1.16105   1.11522   -1.000
 5511.00    1.15171   1.11194   -1.000
 5512.00    1.13192   1.10134   -1.000
 5513.00    1.12444   1.09138   -1.000
 5514.00    1.13298   1.08894   -1.000
 5515.00    1.14170   1.09536   -1.000
 5516.00    1.15584   1.10660   -1.000
 5517.00    1.17171   1.11882   -1.000
 5518.00    1.17995   1.12972   -1.000
 5519.00    1.18258   1.13738   -1.000
 5520.00    1.18508   1.14020   -1.000
 5521.00    1.19441   1.13942   -1.000
 5522.00    1.19606   1.13837   -1.000
 5523.00    1.18892   1.13842   -1.000
 5524.00    1.17282   1.13651   -1.000
 5525.00    1.15889   1.12799   -1.000
 5526.00    1.15472   1.11093   -1.000
 5527.00    1.13049   1.08973   -1.000
 5528.00    1.10834   1.07540   -1.000
 5529.00    1.12883   1.07732   -1.000
 5530.00    1.15575   1.09535   -1.000
 5531.00    1.16562   1.11627   -1.000
 5532.00    1.17692   1.12645   -1.000
 5533.00    1.17303   1.12472   -1.000
 5534.00    1.15723   1.11750   -1.000
 5535.00    1.15947   1.11257   -1.000
 5536.00    1.15914   1.11449   -1.000
 5537.00    1.16416   1.12094   -1.000
 5538.00    1.17525   1.12654   -1.000
 5539.00    1.18287   1.12999   -1.000
 5540.00    1.18694   1.13401   -1.000
 5541.00    1.18375   1.13768   -1.000
 5542.00    1.17339   1.13644   -1.000
 5543.00    1.17067   1.13077   -1.000
 5544.00    1.17585   1.12553   -1.000
 5545.00    1.17629   1.12493   -1.000
 5546.00    1.16649   1.12783   -1.000
 5547.00    1.17054   1.13153   -1.000
 5548.00    1.18325   1.13728   -1.000
 5549.00    1.18845   1.14443   -1.000
 5550.00    1.18265   1.14846   -1.000
 5551.00    1.18701   1.14809   -1.000
 5552.00    1.18009   1.14452   -1.000
 5553.00    1.17213   1.13923   -1.000
 5554.00    1.16775   1.13432   -1.000
 5555.00    1.17228   1.13259   -1.000
 5556.00    1.18067   1.13403   -1.000
 5557.00    1.18335   1.13587   -1.000
 5558.00    1.18271   1.13708   -1.000
 5559.00    1.18686   1.13873   -1.000
 5560.00    1.18543   1.13986   -1.000
 5561.00    1.17796   1.13728   -1.000
 5562.00    1.16711   1.13084   -1.000
 5563.00    1.16037   1.12466   -1.000
 5564.00    1.14811   1.12125   80.498
 5565.00    1.14543   1.11943   81.097
 5566.00    1.15131   1.11720   -1.000
 5567.00    1.15468   1.11462   -1.000
 5568.00    1.15354   1.11239   -1.000
 5569.00    1.15077   1.11062   -1.000
 5570.00    1.14986   1.11002   -1.000
 5571.00    1.14394   1.10843   -1.000
 5572.00    1.13581   1.10465   -1.000
 5573.00    1.13943   1.10209   -1.000
 5574.00    1.15452   1.10468   -1.000
 5575.00    1.12856   1.11098   81.408
 5576.00    0.96115   1.11601   -1.000
 5577.00    0.37670   1.11994   -1.000
 5578.00   -0.81632   1.12487    0.000
 5579.00   -1.81775   1.12941    0.000
 5580.00   -1.42430   1.13090    0.000
 5581.00    0.10451   1.12928   -1.000
 5582.00    1.15411   1.12742   -1.000
 5583.00    1.18515   1.12668   -1.000
 5584.00    1.15729   1.12470   -1.000
 5585.00    1.13329   1.11608   80.277
 5586.00    1.11693   1.09704   80.674
 5587.00    1.10549   1.07367   -1.000
 5588.00    1.08884   1.05815   -1.000
 5589.00    1.08994   1.05566   -1.000
 5590.00    1.10350   1.06557   -1.000
 5591.00    1.12442   1.08146   -1.000
 5592.00    1.13829   1.09397   -1.000
 5593.00    1.13922   1.09788   -1.000
 5594.00    1.13414   1.09738   -1.000
 5595.00    1.13553   1.10070   -1.000
 5596.00    1.15219   1.10800   -1.000
 5597.00    1.14798   1.11039   -1.000
 5598.00    1.13263   1.10356   -1.000
 5599.00    1.13170   1.09462   -1.000
 5600.00    1.13155   1.08879   -1.000
 5601.00    1.11908   1.08223   -1.000
 5602.00    1.11076   1.07725   -1.000
 5603.00    1.12817   1.08234   -1.000
 5604.00    1.14860   1.09893   -1.000
 5605.00    1.16479   1.12056   -1.000
 5606.00    1.17930   1.13817   -1.000
 5607.00    1.18760   1.14723   -1.000
 5608.00    1.18181   1.15012   -1.000
 5609.00    1.18563   1.15049   -1.000
 5610.00    1.18037   1.15118   -1.000
 5611.00    1.16946   1.15252   78.640
 5612.00    1.17813   1.15097   -1.000
 5613.00    1.17569   1.13997   -1.000
 5614.00    1.14510   1.11728   78.651
 5615.00    1.11450   1.09163   80.125
 5616.00    1.11373   1.07939   -1.000
 5617.00    1.13921   1.08850   -1.000
 5618.00    1.16372   1.10647   -1.000
 5619.00    1.16905   1.11954   -1.000
 5620.00    1.16627   1.12645   -1.000
 5621.00    1.16379   1.13032   -1.000
 5622.00    1.15935   1.13085   -1.000
 5623.00    1.15337   1.12511   80.307
 5624.00    1.13603   1.11445   80.552
 5625.00    1.13361   1.10743   81.998
 5626.00    1.14862   1.11001   -1.000
 5627.00    1.15805   1.11947   -1.000
 5628.00    1.15988   1.12935   -1.000
 5629.00    1.16535   1.13600   -1.000
 5630.00    1.16666   1.13990   79.950
 5631.00    1.17905   1.14195   -1.000
 5632.00    1.17731   1.14161   -1.000
 5633.00    1.17411   1.13925   -1.000
 5634.00    1.17127   1.13591   -1.000
 5635.00    1.16273   1.13123   -1.000
 5636.00    1.15566   1.12592   -1.000
 5637.00    1.14960   1.12142   80.432
 5638.00    1.14084   1.11917   81.012
 5639.00    1.14466   1.11939   81.571
 5640.00    1.15012   1.11949   -1.000
 5641.00    1.15052   1.11758   -1.000
 5642.00    1.15300   1.11684   -1.000
 5643.00    1.15184   1.11926   -1.000
 5644.00    1.15806   1.12238   -1.000
 5645.00    1.15917   1.12498   -1.000
 5646.00    1.15478   1.12734   -1.000
 5647.00    1.15672   1.12877   -1.000
 5648.00    1.16454   1.12876   -1.000
 5649.00    1.17625   1.12730   -1.000
 5650.00    1.17032   1.12601   -1.000
 5651.00    1.17340   1.12743   -1.000
 5652.00    1.16837   1.12988   -1.000
 5653.00    1.16669   1.13021   -1.000
 5654.00    1.16831   1.12750   -1.000
 5655.00    1.15059   1.12193   79.520
 5656.00    1.13721   1.11203   80.124
 5657.00    1.11637   1.09600   80.884
 5658.00    1.10198   1.08048   82.330
 5659.00    1.10050   1.07653   84.757
 5660.00    1.11664   1.08491   -1.000
 5661.00    1.13739   1.09506   -1.000
 5662.00    1.13703   1.10031   -1.000
 5663.00    1.13408   1.10433   -1.000
 5664.00    1.14256   1.11215   -1.000
 5665.00    1.15375   1.12065   -1.000
 5666.00    1.15624   1.12274   -1.000
 5667.00    1.14717   1.11858   -1.000
 5668.00    1.14128   1.11431   81.125
 5669.00    1.14521   1.11407   -1.000
 5670.00    1.14768   1.11764   -1.000
 5671.00    1.15386   1.12283   -1.000
 5672.00    1.16254   1.12821   -1.000
 5673.00    1.16126   1.13256   -1.000
 5674.00    1.15902   1.13518   79.632
 5675.00    1.15839   1.13554   78.858
 5676.00    1.15594   1.13552   78.763
 5677.00    1.16161   1.13632   79.009
 5678.00    1.16213   1.13655   78.839
 5679.00    1.15412   1.13437   78.683
 5680.00    1.15723   1.12950   -1.000
 5681.00    1.15546   1.12161   -1.000
 5682.00    1.15334   1.11137   -1.000
 5683.00    1.14683   1.10269   -1.000
 5684.00    1.13643   1.10020   -1.000
 5685.00    1.13990   1.10421   -1.000
 5686.00    1.13399   1.10879   81.547
 5687.00    1.13027   1.10826   81.153
 5688.00    1.13044   1.10485   81.428
 5689.00    1.13872   1.10379   -1.000
 5690.00    1.14364   1.10854   -1.000
 5691.00    1.14707   1.11766   -1.000
 5692.00    1.15406   1.12610   -1.000
 5693.00    1.15890   1.13116   -1.000
 5694.00    1.15929   1.13304   -1.000
 5695.00    1.15696   1.13335   78.892
 5696.00    1.15046   1.13253   78.961
 5697.00    1.14771   1.13073   79.032
 5698.00    1.14488   1.12661   79.232
 5699.00    1.14284   1.11997   79.935
 5700.00    1.13664   1.11305   80.857
 5701.00    1.13154   1.10771   81.607
 5702.00    1.13326   1.10641   82.455
 5703.00    1.13969   1.10934   -1.000
 5704.00    1.14394   1.11352   -1.000
 5705.00    1.13760   1.11407   81.591
 5706.00    1.12549   1.10931   81.286
 5707.00    1.11115   1.10044   81.733
 5708.00    1.10547   1.08894   82.815
 5709.00    1.09815   1.07762   84.320
 5710.00    1.09365   1.07160   85.685
 5711.00    1.10743   1.07380   -1.000
 5712.00    1.11539   1.08348   -1.000
 5713.00    1.12682   1.09823   -1.000
 5714.00    1.14268   1.11269   -1.000
 5715.00    1.14481   1.12213   81.717
 5716.00    1.14995   1.12644   80.338
 5717.00    1.14665   1.12897   79.920
 5718.00    1.14388   1.13114   79.749
 5719.00    1.15884   1.13395   79.511
 5720.00    1.16768   1.13769   -1.000
 5721.00    1.16595   1.14144   78.644
 5722.00    1.16932   1.14399   -1.000
 5723.00    1.17182   1.14556   -1.000
 5724.00    1.16828   1.14611   77.912
 5725.00    1.16270   1.14411   77.815
 5726.00    1.15625   1.13821   77.957
 5727.00    1.15054   1.13187   78.546
 5728.00    1.14828   1.12934   79.364
 5729.00    1.15662   1.13050   -1.000
 5730.00    1.15089   1.13264   79.770
 5731.00    1.15276   1.13269   79.272
 5732.00    1.14782   1.13206   79.377
 5733.00    1.15109   1.13431   79.772
 5734.00    1.15868   1.13958   79.591
 5735.00    1.16369   1.14356   78.872
 5736.00    1.15896   1.14360   78.318
 5737.00    1.15657   1.14176   78.303
 5738.00    1.16005   1.14006   78.406
 5739.00    1.15861   1.13965   78.619
 5740.00    1.15128   1.14013   78.711
 5741.00    1.15359   1.13979   78.859
 5742.00    1.15641   1.13825   78.989
 5743.00    1.16377   1.13774   -1.000
 5744.00    1.16445   1.13935   -1.000
 5745.00    1.15981   1.14174   78.928
 5746.00    1.15709   1.14140   78.434
 5747.00    1.15283   1.13793   77.971
 5748.00    1.14561   1.13529   78.258
 5749.00    1.14739   1.13673   79.004
 5750.00    1.15393   1.13939   79.396
 5751.00    1.15443   1.13726   79.045
 5752.00    1.14195   1.12885   78.745
 5753.00    1.12831   1.11890   79.225
 5754.00    1.12637   1.11450   80.156
 5755.00    1.13759   1.11972   80.997
 5756.00    1.14949   1.13066   81.119
 5757.00    1.15649   1.14119   80.237
 5758.00    1.15924   1.14693   78.799
 5759.00    1.15522   1.14629   77.766
 5760.00    1.15258   1.14031   77.814
 5761.00    1.15366   1.13128   78.607
 5762.00    1.14442   1.12225   79.628
 5763.00    1.13826   1.11928   80.714
 5764.00    1.14920   1.12554   81.243
 5765.00    1.15518   1.13689   80.575
 5766.00    1.15151   1.14570   79.201
 5767.00    1.15440   1.14896   78.141
 5768.00    1.16452   1.14865   77.783
 5769.00    1.16420   1.14740   77.692
 5770.00    1.15790   1.14601   77.571
 5771.00    1.15515   1.14406   77.675
 5772.00    1.14986   1.14091   77.924
 5773.00    1.14966   1.13688   78.328
 5774.00    1.15063   1.13360   78.811
 5775.00    1.15243   1.13195   79.062
 5776.00    1.15928   1.13307   -1.000
 5777.00    1.15136   1.13497   79.051
 5778.00    1.13933   1.13330   78.688
 5779.00    1.12767   1.12649   78.548
 5780.00    1.11537   1.11640   78.745
 5781.00    1.11267   1.10646   79.730
 5782.00    1.11498   1.10096   81.442
 5783.00    1.11777   1.10081   82.670
 5784.00    1.13199   1.10325   82.734
 5785.00    1.13799   1.10552   -1.000
 5786.00    1.13601   1.10854   82.113
 5787.00    1.14719   1.11485   -1.000
 5788.00    1.15105   1.12203   -1.000
 5789.00    1.15374   1.12597   -1.000
 5790.00    1.14839   1.12548   79.252
 5791.00    1.14531   1.12307   79.216
 5792.00    1.14116   1.12408   79.540
 5793.00    1.13624   1.12969   79.521
 5794.00    1.14052   1.13681   78.954
 5795.00    1.14548   1.14224   78.379
 5796.00    1.14530   1.14321   77.898
 5797.00    1.14302   1.13962   77.762
 5798.00    1.13588   1.13614   78.135
 5799.00    1.14237   1.13769   78.644
 5800.00    1.16092   1.14280   78.446
 5801.00    1.17207   1.14750   -1.000
 5802.00    1.16259   1.14942   76.478
 5803.00    1.14645   1.14725   76.121
 5804.00    1.13883   1.14215   76.618
 5805.00    1.14435   1.13785   77.246
 5806.00    1.14495   1.13698   77.868
 5807.00    1.13595   1.13910   78.276
 5808.00    1.14061   1.14175   78.197
 5809.00    1.15091   1.14335   77.912
 5810.00    1.15567   1.14466   77.665
 5811.00    1.15566   1.14594   77.616
 5812.00    1.15541   1.14633   77.562
 5813.00    1.16132   1.14503   77.311
 5814.00    1.15754   1.14146   77.064
 5815.00    1.14934   1.13630   77.141
 5816.00    1.15463   1.13252   77.693
 5817.00    1.15799   1.13403   78.126
 5818.00    1.15820   1.14021   77.876
 5819.00    1.16225   1.14583   77.347
 5820.00    1.16349   1.14813   76.900
 5821.00    1.16400   1.14812   76.515
 5822.00    1.15967   1.14764   76.235
 5823.00    1.15659   1.14727   76.281
 5824.00    1.15904   1.14664   76.532
 5825.00    1.16080   1.14606   76.485
 5826.00    1.16803   1.14659   76.355
 5827.00    1.16892   1.14802   76.220
 5828.00    1.16718   1.14963   76.132
 5829.00    1.16685   1.15058   76.135
 5830.00    1.15730   1.15048   76.263
 5831.00    1.15678   1.14985   76.180
 5832.00    1.15961   1.14900   76.154
 5833.00    1.16237   1.14720   76.082
 5834.00    1.16517   1.14461   76.175
 5835.00    1.15973   1.14305   76.618
 5836.00    1.15440   1.14389   76.838
 5837.00    1.15441   1.14608   76.651
 5838.00    1.15682   1.14759   76.468
 5839.00    1.16283   1.14850   76.634
 5840.00    1.16625   1.14970   76.837
 5841.00    1.16601   1.15077   76.680
 5842.00    1.16461   1.15062   76.169
 5843.00    1.17066   1.14897   75.728
 5844.00    1.16615   1.14663   75.661
 5845.00    1.16033   1.14372   75.874
 5846.00    1.15826   1.14012   76.166
 5847.00    1.16086   1.13690   76.630
 5848.00    1.15916   1.13567   77.048
 5849.00    1.15428   1.13580   77.425
 5850.00    1.15294   1.13458   77.442
 5851.00    1.14872   1.13011   77.506
 5852.00    1.14145   1.12244   77.888
 5853.00    1.14086   1.11543   78.376
 5854.00    1.13004   1.11204   79.089
 5855.00    1.12301   1.11001   79.567
 5856.00    1.12605   1.10384   79.744
 5857.00    1.12260   1.09269   -1.000
 5858.00    1.12623   1.08613   -1.000
 5859.00    1.13658   1.09082   -1.000
 5860.00    1.14668   1.10195   -1.000
 5861.00    1.15093   1.11180   -1.000
 5862.00    1.14831   1.11748   -1.000
 5863.00    1.14339   1.12071   78.967
 5864.00    1.14307   1.12329   78.657
 5865.00    1.14690   1.12266   78.494
 5866.00    1.14358   1.11850   -1.000
 5867.00    1.14302   1.11532   -1.000
 5868.00    1.15367   1.11680   -1.000
 5869.00    1.16531   1.12274   -1.000
 5870.00    1.17097   1.12938   -1.000
 5871.00    1.16872   1.13303   -1.000
 5872.00    1.17087   1.13261   -1.000
 5873.00    1.16899   1.13020   -1.000
 5874.00    1.15542   1.12786   -1.000
 5875.00    1.15617   1.12601   -1.000
 5876.00    1.15946   1.12446   -1.000
 5877.00    1.15226   1.12259   -1.000
 5878.00    1.14560   1.11927   -1.000
 5879.00    1.14438   1.11477   -1.000
 5880.00    1.14797   1.11064   -1.000
 5881.00    1.14408   1.10760   -1.000
 5882.00    1.14333   1.10430   -1.000
 5883.00    1.13629   1.09968   -1.000
 5884.00    1.13484   1.09446   -1.000
 5885.00    1.13963   1.08992   -1.000
 5886.00    1.13813   1.08319   -1.000
 5887.00    1.11411   1.06255   -1.000
 5888.00    1.03192   1.01913   80.643
 5889.00    0.89692   0.96482   -1.000
 5890.00    0.69226   0.93050   -1.000
 5891.00    0.46634   0.93748   -1.000
 5892.00    0.39922   0.96757   -1.000
 5893.00    0.57392   0.98932   -1.000
 5894.00    0.82627   0.98713   -1.000
 5895.00    0.92102   0.96774   -1.000
 5896.00    0.85186   0.95449   -1.000
 5897.00    0.74208   0.96538   -1.000
 5898.00    0.72187   0.99567   -1.000
 5899.00    0.83547   1.02671   -1.000
 5900.00    0.99935   1.05042   -1.000
 5901.00    1.10146   1.06934   -1.000
 5902.00    1.13325   1.08374   -1.000
 5903.00    1.13069   1.09263   -1.000
 5904.00    1.13407   1.09707   -1.000
 5905.00    1.13793   1.09924   -1.000
 5906.00    1.14234   1.10134   -1.000
 5907.00    1.14807   1.10344   -1.000
 5908.00    1.14709   1.10544   -1.000
 5909.00    1.14340   1.10749   -1.000
 5910.00    1.14011   1.10910   -1.000
 5911.00    1.13425   1.10911   -1.000
 5912.00    1.13069   1.10635   79.871
 5913.00    1.13071   1.09971   -1.000
 5914.00    1.12422   1.09173   -1.000
 5915.00    1.12160   1.08691   -1.000
 5916.00    1.12604   1.08680   -1.000
 5917.00    1.12573   1.09044   -1.000
 5918.00    1.13548   1.09661   -1.000
 5919.00    1.14733   1.10257   -1.000
 5920.00    1.14114   1.10553   -1.000
 5921.00    1.13070   1.10610   -1.000
 5922.00    1.12691   1.10554   80.353
 5923.00    1.12670   1.10536   80.296
 5924.00    1.13165   1.10668   -1.000
 5925.00    1.13644   1.10943   -1.000
 5926.00    1.13400   1.11228   79.862
 5927.00    1.13520   1.11307   79.697
 5928.00    1.14179   1.10966   -1.000
 5929.00    1.13576   1.10326   -1.000
 5930.00    1.12584   1.09926   -1.000
 5931.00    1.12796   1.10076   -1.000
 5932.00    1.13351   1.10506   -1.000
 5933.00    1.13795   1.10694   -1.000
 5934.00    1.13695   1.10546   -1.000
 5935.00    1.13093   1.10481   -1.000
 5936.00    1.12993   1.10725   80.770
 5937.00    1.13630   1.11112   -1.000
 5938.00    1.13518   1.11306   80.619
 5939.00    1.13543   1.11109   -1.000
 5940.00    1.13929   1.10660   -1.000
 5941.00    1.13077   1.10217   -1.000
 5942.00    1.12832   1.10000   -1.000
 5943.00    1.13369   1.10077   -1.000
 5944.00    1.12784   1.10408   81.043
 5945.00    1.12411   1.10750   80.652
 5946.00    1.13031   1.10828   80.164
 5947.00    1.12477   1.10518   79.813
 5948.00    1.11504   1.10069   79.911
 5949.00    1.11510   1.09948   80.530
 5950.00    1.12067   1.10163   81.371
 5951.00    1.12298   1.10345   81.724
 5952.00    1.11980   1.10235   81.426
 5953.00    1.11742   1.10032   81.075
 5954.00    1.11714   1.10059   81.165
 5955.00    1.12097   1.10081   81.188
 5956.00    1.12491   1.09879   -1.000
 5957.00    1.13205   1.09731   -1.000
 5958.00    1.13511   1.09894   -1.000
 5959.00    1.13221   1.10376   -1.000
 5960.00    1.13639   1.10947   -1.000
 5961.00    1.13383   1.11376   80.444
 5962.00    1.13402   1.11599   79.608
 5963.00    1.13515   1.11600   79.191
 5964.00    1.12992   1.11380   79.064
 5965.00    1.12977   1.11030   79.187
 5966.00    1.13093   1.10754   79.573
 5967.00    1.12860   1.10724   79.894
 5968.00    1.12995   1.10892   80.169
 5969.00    1.12940   1.11117   80.108
 5970.00    1.12837   1.11388   79.582
 5971.00    1.12780   1.11629   79.267
 5972.00    1.12908   1.11710   79.224
 5973.00    1.13092   1.11622   79.092
 5974.00    1.12829   1.11342   78.975
 5975.00    1.12372   1.10775   79.277
 5976.00    1.12039   1.10096   79.880
 5977.00    1.11573   1.09675   80.502
 5978.00    1.11046   1.09749   81.085
 5979.00    1.12013   1.10244   81.503
 5980.00    1.13549   1.10819   -1.000
 5981.00    1.13240   1.11074   80.676
 5982.00    1.12556   1.10790   80.260
 5983.00    1.11798   1.10079   80.341
 5984.00    1.11189   1.09397   80.896
 5985.00    1.11437   1.09225   81.614
 5986.00    1.11506   1.09555   82.099
 5987.00    1.11436   1.10051   81.976
 5988.00    1.11805   1.10461   81.235
 5989.00    1.12929   1.10720   80.631
 5990.00    1.13205   1.10782   -1.000
 5991.00    1.12041   1.10750   79.971
 5992.00    1.11762   1.10900   79.951
 5993.00    1.12492   1.11394   80.146
 5994.00    1.12735   1.11867   79.904
 5995.00    1.12396   1.11873   79.282
 5996.00    1.12007   1.11493   78.932
 5997.00    1.11766   1.11042   79.295
 5998.00    1.11775   1.10834   79.880
 5999.00    1.11948   1.10911   80.281
 6000.00    1.12309   1.11024   80.490
 6001.00    1.12287   1.10920   80.424
 6002.00    1.12012   1.10596   80.428
 6003.00    1.11539   1.10281   80.812
 6004.00    1.11495   1.10234   81.155
 6005.00    1.11477   1.10279   81.194
 6006.00    1.10437   1.09978   81.013
 6007.00    1.09986   1.09303   80.984
 6008.00    1.10415   1.08840   81.438
 6009.00    1.10745   1.09092   82.221
 6010.00    1.11061   1.09873   82.452
 6011.00    1.11501   1.10453   81.720
 6012.00    1.10930   1.10458   80.812
 6013.00    1.10447   1.10224   80.615
 6014.00    1.10696   1.10062   81.114
 6015.00    1.11202   1.10020   81.618
 6016.00    1.11231   1.09948   81.431
 6017.00    1.10822   1.09837   81.272
 6018.00    1.10400   1.09688   81.552
 6019.00    1.10159   1.09416   81.781
 6020.00    1.09069   1.09075   81.661
 6021.00    1.09067   1.08874   81.765
 6022.00    1.09696   1.08946   82.237
 6023.00    1.09660   1.09133   82.168
 6024.00    1.09432   1.09388   81.636
 6025.00    1.09836   1.09878   81.348
 6026.00    1.10791   1.10479   81.243
 6027.00    1.11277   1.10889   80.863
 6028.00    1.11366   1.11187   80.534
 6029.00    1.11407   1.11487   80.115
 6030.00    1.11296   1.11697   79.706
 6031.00    1.11583   1.11801   79.539
 6032.00    1.11816   1.11876   79.532
 6033.00    1.11874   1.11985   79.676
 6034.00    1.12069   1.12125   79.634
 6035.00    1.11908   1.12250   79.321
 6036.00    1.11830   1.12247   79.068
 6037.00    1.11163   1.12079   78.995
 6038.00    1.10451   1.11819   78.886
 6039.00    1.10371   1.11496   78.898
 6040.00    1.10635   1.11201   79.257
 6041.00    1.10690   1.11015   79.519
 6042.00    1.10385   1.10749   79.728
 6043.00    1.10907   1.10587   79.689
 6044.00    1.11675   1.11031   79.540
 6045.00    1.11603   1.11732   79.226
 6046.00    1.11414   1.12130   78.642
 6047.00    1.11591   1.12296   78.481
 6048.00    1.11760   1.12418   78.543
 6049.00    1.11770   1.12443   78.450
 6050.00    1.11450   1.12379   78.460
 6051.00    1.11301   1.12275   78.689
 6052.00    1.11098   1.12135   78.903
 6053.00    1.10609   1.11904   78.999
 6054.00    1.10468   1.11537   79.123
 6055.00    1.10176   1.11122   79.401
 6056.00    1.10037   1.10859   79.676
 6057.00    1.10091   1.10870   80.054
 6058.00    1.09738   1.11097   80.369
 6059.00    1.10249   1.11388   80.335
 6060.00    1.11340   1.11639   79.978
 6061.00    1.11046   1.11699   79.551
 6062.00    1.10025   1.11378   79.495
 6063.00    1.09299   1.10602   79.675
 6064.00    1.08659   1.09579   80.523
 6065.00    1.07352   1.08845   82.025
 6066.00    1.06125   1.09008   80.611
 6067.00    1.10637   1.09980  106.481
 6068.00    0.90690   1.11026   -1.000
 6069.00    0.63855   1.11731   -1.000
 6070.00    0.94026   1.12103   -1.000
 6071.00    1.12706   1.12256   79.661
 6072.00    1.07116   1.12306   78.254
 6073.00    1.08600   1.12330   76.785
 6074.00    0.88402   1.12373   -1.000
 6075.00    0.48948   1.12282   -1.000
 6076.00    0.79025   1.11928   -1.000
 6077.00    1.10297   1.11400   79.032
 6078.00    1.08847   1.10922   79.410
 6079.00    1.08744   1.10666   79.857
 6080.00    1.08787   1.10558   80.428
 6081.00    1.08760   1.10385   80.971
 6082.00    1.08923   1.10149   81.150
 6083.00    1.08970   1.10016   81.193
 6084.00    1.09106   1.10000   81.381
 6085.00    1.08968   1.10074   81.460
 6086.00    1.08767   1.10268   81.404
 6087.00    1.08886   1.10565   81.325
 6088.00    1.09006   1.10755   81.136
 6089.00    1.08669   1.10679   80.830
 6090.00    1.08031   1.10393   80.828
 6091.00    1.07822   1.10095   81.238
 6092.00    1.08689   1.10055   81.645
 6093.00    1.08882   1.10303   81.719
 6094.00    1.08776   1.10699   81.332
 6095.00    1.09051   1.11054   80.867
 6096.00    1.09582   1.11311   80.436
 6097.00    1.09487   1.11512   80.048
 6098.00    1.08947   1.11625   79.960
 6099.00    1.08856   1.11468   80.122
 6100.00    1.08468   1.10695   80.229
 6101.00    1.06823   1.09147   80.241
 6102.00    1.05167   1.07357   80.883
 6103.00    1.05152   1.06489   82.582
 6104.00    1.06597   1.07122   84.194
 6105.00    1.07922   1.08511   84.192
 6106.00    1.08886   1.09670   82.821
 6107.00    1.09600   1.10369   81.425
 6108.00    1.09180   1.10801   80.849
 6109.00    1.08286   1.11158   81.005
 6110.00    1.08435   1.11328   81.265
 6111.00    1.08132   1.11250   81.301
 6112.00    1.07574   1.11156   81.162
 6113.00    1.07909   1.11231   80.859
 6114.00    1.07926   1.11405   80.720
 6115.00    1.07347   1.11506   80.447
 6116.00    1.07426   1.11453   80.150
 6117.00    1.07386   1.11362   80.305
 6118.00    1.06868   1.11060   80.787
 6119.00    1.06535   1.10200   81.052
 6120.00    1.05681   1.08832   81.327
 6121.00    1.04529   1.07168   82.257
 6122.00    1.04674   1.05995   83.409
 6123.00    1.05787   1.06170   84.290
 6124.00    1.06516   1.07277   84.597
 6125.00    1.06945   1.08474   83.678
 6126.00    1.06784   1.09292   82.438
 6127.00    1.06083   1.09657   82.079
 6128.00    1.06280   1.09773   82.434
 6129.00    1.06908   1.10042   82.551
 6130.00    1.07192   1.10594   82.364
 6131.00    1.07246   1.11158   81.861
 6132.00    1.07186   1.11507   81.097
 6133.00    1.06938   1.11433   80.720
 6134.00    1.05846   1.10485   80.794
 6135.00    1.03673   1.08404   81.360
 6136.00    1.01629   1.05885   82.858
 6137.00    1.01143   1.04464   85.171
 6138.00    1.02776   1.04958   87.475
 6139.00    1.04732   1.06372   88.390
 6140.00    1.05158   1.07278   86.931
 6141.00    1.04927   1.07548   84.455
 6142.00    1.04308   1.08001   83.010
 6143.00    1.04077   1.08983   -1.000
 6144.00    1.05378   1.09973   83.041
 6145.00    1.06308   1.10436   82.536
 6146.00    1.06215   1.10404   81.549
 6147.00    1.06383   1.10111   81.123
 6148.00    1.06107   1.09706   81.367
 6149.00    1.05669   1.09293   81.855
 6150.00    1.06097   1.08967   82.428
 6151.00    1.06546   1.08956   82.954
 6152.00    1.06127   1.09306   83.123
 6153.00    1.05727   1.09577   82.903
 6154.00    1.05939   1.09403   82.406
 6155.00    1.05778   1.09021   82.123
 6156.00    1.05273   1.08761   82.565
 6157.00    1.05284   1.08643   83.129
 6158.00    1.05580   1.08427   83.298
 6159.00    1.05266   1.07599   83.526
 6160.00    1.03532   1.05648   84.239
 6161.00    1.01081   1.02985   85.620
 6162.00    1.00112   1.00966   87.909
 6163.00    1.01252   1.00652   90.558
 6164.00    1.02668   1.01773   92.052
 6165.00    1.03702   1.03294   91.395
 6166.00    1.04096   1.04477   89.174
 6167.00    1.03944   1.04956   87.368
 6168.00    1.03356   1.04572   86.713
 6169.00    1.02593   1.03791   86.766
 6170.00    1.02882   1.03715   87.599
 6171.00    1.03982   1.04606   88.629
 6172.00    1.04692   1.05764   88.512
 6173.00    1.05244   1.06687   87.090
 6174.00    1.05293   1.07334   85.656
 6175.00    1.05077   1.07729   85.309
 6176.00    1.04861   1.07884   85.449
 6177.00    1.05004   1.08006   85.328
 6178.00    1.05414   1.08170   85.134
 6179.00    1.05643   1.08271   84.933
 6180.00    1.04852   1.08384   84.576
 6181.00    1.04911   1.08667   84.219
 6182.00    1.05795   1.08993   83.946
 6183.00    1.06050   1.09131   83.599
 6184.00    1.05449   1.09033   83.316
 6185.00    1.05158   1.08748   83.358
 6186.00    1.05228   1.08286   83.626
 6187.00    1.05093   1.07764   84.163
 6188.00    1.04685   1.07241   85.018
 6189.00    1.03871   1.06458   85.928
 6190.00    1.02871   1.05299   86.766
 6191.00    1.01914   1.04365   87.462
 6192.00    1.02539   1.04540   88.410
 6193.00    1.04136   1.05690   89.229
 6194.00    1.05391   1.06921   88.761
 6195.00    1.05935   1.07797   86.904
 6196.00    1.05474   1.08304   85.158
 6197.00    1.04840   1.08426   84.372
 6198.00    1.04435   1.08099   84.145
 6199.00    1.04157   1.07507   84.463
 6200.00    1.03988   1.07187   85.328
 6201.00    1.04372   1.07442   86.155
 6202.00    1.04628   1.08018   86.340
 6203.00    1.04386   1.08588   85.710
 6204.00    1.04550   1.08983   84.667
 6205.00    1.04330   1.09190   84.119
 6206.00    1.04400   1.09295   84.089
 6207.00    1.04662   1.09378   84.007
 6208.00    1.04670   1.09410   83.942
 6209.00    1.04573   1.09279   84.158
 6210.00    1.04448   1.08892   84.293
 6211.00    1.04161   1.08216   84.500
 6212.00    1.03140   1.07237   85.156
 6213.00    1.02222   1.06210   85.886
 6214.00    1.01714   1.05542   86.652
 6215.00    1.01867   1.05372   87.814
 6216.00    1.02435   1.05487   88.899
 6217.00    1.02300   1.05538   89.345
 6218.00    1.01897   1.05315   88.658
 6219.00    1.01801   1.05032   87.875
 6220.00    1.01651   1.05057   88.196
 6221.00    1.02119   1.05522   88.303
 6222.00    1.03094   1.06085   87.697
 6223.00    1.04038   1.06390   87.782
 6224.00    1.04461   1.06527   92.054
 6225.00    1.04697   1.06617   93.103
 6226.00    1.03617   1.06638   88.577
 6227.00    1.01922   1.06416   86.890
 6228.00    1.02077   1.05659   87.081
 6229.00    1.02156   1.04373   87.383
 6230.00    1.00994   1.03124   88.341
 6231.00    1.00408   1.02643   89.752
 6232.00    1.00905   1.03169   91.042
 6233.00    1.01955   1.04327   91.224
 6234.00    1.03169   1.05524   90.171
 6235.00    1.04032   1.06280   88.576
 6236.00    1.03297   1.06432   87.028
 6237.00    1.01752   1.06106   86.252
 6238.00    1.01184   1.05605   86.512
 6239.00    1.01102   1.05181   87.326
 6240.00    1.01757   1.04923   88.224
 6241.00    1.02168   1.04752   89.146
 6242.00    1.01388   1.04447   89.747
 6243.00    1.01163   1.03913   89.834
 6244.00    1.01276   1.03290   90.202
 6245.00    1.00912   1.02825   90.872
 6246.00    1.00815   1.02889   91.059
 6247.00    1.00930   1.03678   90.643
 6248.00    1.01012   1.04831   89.843
 6249.00    1.01321   1.05716   88.781
 6250.00    1.01109   1.05801   -1.000
 6251.00    0.99900   1.05010   -1.000
 6252.00    0.98684   1.03831   -1.000
 6253.00    0.98304   1.02936   -1.000
 6254.00    0.98671   1.02622   90.584
 6255.00    0.98681   1.02674   91.359
 6256.00    0.98272   1.02746   -1.000
 6257.00    0.98569   1.02694   91.797
 6258.00    0.98740   1.02734   92.266
 6259.00    0.98404   1.03090   -1.000
 6260.00    0.98868   1.03777   -1.000
 6261.00    0.99973   1.04633   -1.000
 6262.00    1.01034   1.05467   90.728
 6263.00    1.01562   1.05992   89.453
 6264.00    1.01090   1.06089   -1.000
 6265.00    1.00318   1.06051   -1.000
 6266.00    1.00163   1.06219   -1.000
 6267.00    1.00733   1.06522   -1.000
 6268.00    1.01087   1.06588   -1.000
 6269.00    1.01304   1.06332   -1.000
 6270.00    1.01390   1.06065   -1.000
 6271.00    1.01074   1.06040   -1.000
 6272.00    1.01144   1.06161   -1.000
 6273.00    1.01239   1.06083   -1.000
 6274.00    1.01057   1.05498   87.649
 6275.00    1.01110   1.04486   87.706
 6276.00    1.01022   1.03383   88.202
 6277.00    1.00711   1.02484   88.907
 6278.00    0.99536   1.01931   90.039
 6279.00    0.97401   1.01659   92.019
 6280.00    0.95712   1.01782   -1.000
 6281.00    0.95144   1.02408   -1.000
 6282.00    0.96070   1.03412   -1.000
 6283.00    0.97114   1.04538   -1.000
 6284.00    0.97655   1.05485   -1.000
 6285.00    0.97728   1.06103   -1.000
 6286.00    0.98093   1.06443   -1.000
 6287.00    0.99579   1.06617   -1.000
 6288.00    1.00394   1.06596   -1.000
 6289.00    1.00715   1.06286   -1.000
 6290.00    1.01110   1.05861   86.922
 6291.00    1.00719   1.05556   -1.000
 6292.00    1.00147   1.05418   -1.000
 6293.00    0.99402   1.05377   -1.000
 6294.00    0.99157   1.05312   -1.000
 6295.00    0.98821   1.05045   -1.000
 6296.00    0.97821   1.04523   -1.000
 6297.00    0.97506   1.03995   -1.000
 6298.00    0.96362   1.03748   -1.000
 6299.00    0.92280   1.03707   -1.000
 6300.00    0.85638   1.03526   -1.000
 6301.00    0.76375   1.03221   -1.000
 6302.00    0.68171   1.03276   -1.000
 6303.00    0.69261   1.03963   -1.000
 6304.00    0.80436   1.04933   -1.000
 6305.00    0.93023   1.05704   -1.000
 6306.00    0.99562   1.06189   -1.000
 6307.00    1.01022   1.06495   -1.000
 6308.00    1.01152   1.06616   -1.000
 6309.00    1.00801   1.06633   -1.000
 6310.00    1.00358   1.06608   -1.000
 6311.00    0.99370   1.06495   -1.000
 6312.00    0.98477   1.06281   -1.000
 6313.00    0.98676   1.05907   -1.000
 6314.00    0.98264   1.05402   -1.000
 6315.00    0.97287   1.04963   -1.000
 6316.00    0.96874   1.04643   -1.000
 6317.00    0.96861   1.04364   -1.000
 6318.00    0.97238   1.04294   -1.000
 6319.00    0.97676   1.04721   -1.000
 6320.00    0.98014   1.05457   -1.000
 6321.00    0.98418   1.06034   -1.000
 6322.00    0.99304   1.06395   -1.000
 6323.00    0.99747   1.06828   -1.000
 6324.00    0.99883   1.07325   -1.000
 6325.00    1.00778   1.07624   -1.000
 6326.00    1.00394   1.07674   -1.000
 6327.00    0.99715   1.07597   -1.000
 6328.00    0.99733   1.07520   -1.000
 6329.00    0.99921   1.07483   -1.000
 6330.00    1.00043   1.07534   -1.000
 6331.00    1.00372   1.07703   -1.000
 6332.00    1.01321   1.07784   -1.000
 6333.00    1.01124   1.07427   -1.000
 6334.00    0.99425   1.06536   -1.000
 6335.00    0.97926   1.05499   -1.000
 6336.00    0.97117   1.04956   -1.000
 6337.00    0.97345   1.05148   -1.000
 6338.00    0.99326   1.05766   -1.000
 6339.00    1.00701   1.06462   -1.000
 6340.00    1.00294   1.07093   -1.000
 6341.00    0.99441   1.07477   -1.000
 6342.00    0.99345   1.07471   -1.000
 6343.00    1.00082   1.07168   -1.000
 6344.00    1.00270   1.06869   -1.000
 6345.00    1.00154   1.06790   -1.000
 6346.00    1.00739   1.06975   -1.000
 6347.00    1.01993   1.07399   -1.000
 6348.00    1.02453   1.07957   -1.000
 6349.00    1.01453   1.08457   -1.000
 6350.00    1.00892   1.08737   -1.000
 6351.00    1.00882   1.08758   -1.000
 6352.00    1.00542   1.08507   -1.000
 6353.00    0.99596   1.08025   -1.000
 6354.00    0.98816   1.07482   -1.000
 6355.00    0.99357   1.07112   -1.000
 6356.00    0.99986   1.06922   -1.000
 6357.00    1.00191   1.06656   -1.000
 6358.00    1.00455   1.06257   -1.000
 6359.00    1.00166   1.05944   -1.000
 6360.00    0.99731   1.05737   -1.000
 6361.00    0.99564   1.05498   -1.000
 6362.00    0.98602   1.05299   -1.000
 6363.00    0.96710   1.05343   -1.000
 6364.00    0.94045   1.05665   -1.000
 6365.00    0.91810   1.06098   -1.000
 6366.00    0.91053   1.06533   -1.000
 6367.00    0.93262   1.06932   -1.000
 6368.00    0.98206   1.07160   -1.000
 6369.00    1.00447   1.07145   -1.000
 6370.00    0.99600   1.07071   -1.000
 6371.00    0.99143   1.07140   -1.000
 6372.00    0.99575   1.07392   -1.000
 6373.00    1.00342   1.07710   -1.000
 6374.00    0.99997   1.07892   -1.000
 6375.00    0.99719   1.07849   -1.000
 6376.00    0.99556   1.07647   -1.000
 6377.00    0.99393   1.07380   -1.000
 6378.00    0.99050   1.07124   -1.000
 6379.00    0.98971   1.06861   -1.000
 6380.00    0.99228   1.06585   -1.000
 6381.00    0.98800   1.06366   -1.000
 6382.00    0.98261   1.06271   -1.000
 6383.00    0.97811   1.06290   -1.000
 6384.00    0.98057   1.06417   -1.000
 6385.00    0.98024   1.06650   -1.000
 6386.00    0.97746   1.06915   -1.000
 6387.00    0.97652   1.07060   -1.000
 6388.00    0.97701   1.07055   -1.000
 6389.00    0.97412   1.06966   -1.000
 6390.00    0.96117   1.06715   -1.000
 6391.00    0.95396   1.06095   -1.000
 6392.00    0.94494   1.05223   -1.000
 6393.00    0.93566   1.04655   -1.000
 6394.00    0.93381   1.04846   -1.000
 6395.00    0.93582   1.05636   -1.000
 6396.00    0.93530   1.06394   -1.000
 6397.00    0.93285   1.06530   -1.000
 6398.00    0.92519   1.05854   -1.000
 6399.00    0.90903   1.04853   -1.000
 6400.00    0.90132   1.04407   -1.000
 6401.00    0.90666   1.04895   -1.000
 6402.00    0.91767   1.05952   -1.000
 6403.00    0.92134   1.06960   -1.000
 6404.00    0.91665   1.07516   -1.000
 6405.00    0.91200   1.07456   -1.000
 6406.00    0.90513   1.06872   -1.000
 6407.00    0.89567   1.06137   -1.000
 6408.00    0.88958   1.05696   -1.000
 6409.00    0.88263   1.05778   -1.000
 6410.00    0.86842   1.05972   -1.000
 6411.00    0.86206   1.05935   -1.000
 6412.00    0.86749   1.05971   -1.000
 6413.00    0.86506   1.06219   -1.000
 6414.00    0.86187   1.06486   -1.000
 6415.00    0.86722   1.06655   -1.000
 6416.00    0.86341   1.06782   -1.000
 6417.00    0.85201   1.06799   -1.000
 6418.00    0.84355   1.06478   -1.000
 6419.00    0.83546   1.05796   -1.000
 6420.00    0.82834   1.05121   -1.000
 6421.00    0.82308   1.04977   -1.000
 6422.00    0.82596   1.05605   -1.000
 6423.00    0.82516   1.06596   -1.000
 6424.00    0.81763   1.07387   -1.000
 6425.00    0.80899   1.07910   -1.000
 6426.00    0.80338   1.08238   -1.000
 6427.00    0.80176   1.08253   -1.000
 6428.00    0.79243   1.07714   -1.000
