###################################################################
## OUTPUT of StarlightChains_v04.for    [Cid@UFSC - 01/Apr/2007] ##
###################################################################

## Some input info
NGC6626_a_1.cxt                          [arq_obs]
Base.BC03.S                              [arq_base]
NGC6626_a_1.msk                          [arq_masks]
StCv04.C99.config                        [arq_config]
  150                                    [N_base]
    0                                    [N_YAV_components = # of components with extra extinction!]
    0                                    [i_FitPowerLaw (1/0 = Yes/No)]
-9.99                                    [alpha_PowerLaw]
CCM                                      [red_law_option]
 1.458241                                [q_norm = A(l_norm)/A(V)]

## (Re)Sampling Parameters
 3359.00                                 [l_ini (A)]
 6428.00                                 [l_fin (A)]
    1.00                                 [dl    (A)]     (OBS: dl_cushion =    50.00 A)

## Normalization info
 4020.00                                 [l_norm (A) - for base]
 4010.00                                 [llow_norm (A) - window for f_obs]
 4060.00                                 [lupp_norm (A) - window for f_obs]
2.684846E-14                             [fobs_norm (in input units)]

## S/N
 4730.00                                 [llow_SN (A) - window for S/N]
 4780.00                                 [lupp_SN (A) - window for S/N]
  76.546                                 [S/N in S/N window]
  58.380                                 [S/N in norm. window]
 133.097                                 [S/N_err in S/N window]
 101.509                                 [S/N_err in norm. window]
  1.0000                                 [fscale_chi2]

## etc...
  2147483595                             [idum_orig]
  3066                                   [NOl_eff]
  1296                                   [Nl_eff]
  1770    NSIGMA                         [Ntot_cliped & clip_method]
  3048080                                [Nglobal_steps]
   7                                     [N_chains]
  16                                     [NEX0s_base = N_base in EX0s-fits]
 0   0   1      122   2.0   2.431E+02    [Clip-Bug, RC-Crash & Burn-In warning-flags, n_censored_weights, wei_nsig_threshold & wei_limit]
   138    137.975    137.963      0.012  [idt_all, wdt_TotTime, wdt_UsrTime & wdt_SysTime (sec)]

## Synthesis Results - Best model ##

 2.45826E+00                             [chi2/Nl_eff]
     1.33727                             [adev (%)]

    97.34528                             [sum-of-x (%)]
 1.31417E-13                             [Flux_tot (units of input spectrum!)]
 2.95143E-09                             [Mini_tot (???)]
 1.48507E-09                             [Mcor_tot (???)]

 -10.14                                  [v0_min  (km/s)]
  23.91                                  [vd_min  (km/s)]
 1.2025                                  [AV_min  (mag)]
 0.0000                                  [YAV_min (mag)]

# j     x_j(%)      Mini_j(%)     Mcor_j(%)     age_j(yr)     Z_j      (L/M)_j    YAV?  Mstars   component_j        a/Fe...       SSP_chi2r SSP_adev(%)   SSP_AV   SSP_x(%)
  1      0.0000     0.0000E+00    0.0000E+00    1.000000E+06  0.00010  8.160E-03    0   1.0000   age020_m22            0.0000     5.2964E+02    18.8562   4.0000    88.4476
  2      6.1410     5.9023E-03    1.1730E-02    3.160000E+06  0.00010  4.759E-02    0   1.0000   age045_m22            0.0000     2.6107E+01     4.2519   2.6113    95.2689
  3      0.9356     2.2152E-03    4.2184E-03    5.010000E+06  0.00010  1.932E-02    0   0.9582   age055_m22            0.0000     1.9439E+02    11.8977   2.8676    82.7670
  4      0.0000     0.0000E+00    0.0000E+00    6.610000E+06  0.00010  9.973E-03    0   0.9297   age061_m22            0.0000     4.8977E+02    17.9826   4.0000    90.8314
  5      0.0000     0.0000E+00    0.0000E+00    8.710000E+06  0.00010  7.690E-03    0   0.9030   age067_m22            0.0000     4.6959E+02    17.5653   4.0000    91.1647
  6      0.0000     0.0000E+00    0.0000E+00    1.000000E+07  0.00010  6.375E-03    0   0.8902   age070_m22            0.0000     4.7439E+02    17.5102   4.0000    91.6200
  7      0.0000     0.0000E+00    0.0000E+00    1.445000E+07  0.00010  4.874E-03    0   0.8589   age078_m22            0.0000     2.6341E+02    13.4642   4.0000    91.0580
  8      0.0000     0.0000E+00    0.0000E+00    2.512000E+07  0.00010  4.103E-03    0   0.8174   age090_m22            0.0000     6.0120E+01     6.8976   3.9689    88.8438
  9      0.0000     0.0000E+00    0.0000E+00    4.000000E+07  0.00010  3.654E-03    0   0.7830   age104_m22            0.0000     4.3110E+01     4.9375   3.6795    93.8493
 10      0.0000     0.0000E+00    0.0000E+00    5.500000E+07  0.00010  3.093E-03    0   0.7597   age110_m22            0.0000     4.4314E+01     4.5350   3.5861    95.2902
 11      0.0000     0.0000E+00    0.0000E+00    1.015200E+08  0.00010  2.431E-03    0   0.7138   age116_m22            0.0000     5.8706E+01     4.6494   3.2358    98.5158
 12      0.0000     0.0000E+00    0.0000E+00    1.609000E+08  0.00010  1.319E-03    0   0.6775   age120_m22            0.0000     5.5689E+01     4.3626   2.7598   100.6643
 13      0.0000     0.0000E+00    0.0000E+00    2.861200E+08  0.00010  1.075E-03    0   0.6412   age125_m22            0.0000     1.7903E+02     8.3243   2.8580   103.5352
 14      0.0000     0.0000E+00    0.0000E+00    5.088000E+08  0.00010  7.183E-04    0   0.6083   age130_m22            0.0000     2.2784E+02     9.7173   2.6438   104.7375
 15      0.0000     0.0000E+00    0.0000E+00    9.047900E+08  0.00010  4.524E-04    0   0.5785   age135_m22            0.0000     2.3054E+02     9.8953   2.4456   105.8335
 16      0.0000     0.0000E+00    0.0000E+00    1.278050E+09  0.00010  3.018E-04    0   0.5588   age138_m22            0.0000     1.0126E+02     6.4940   1.9010   104.2202
 17      0.0000     0.0000E+00    0.0000E+00    1.434000E+09  0.00010  2.691E-04    0   0.5532   age139_m22            0.0000     8.0247E+01     5.7965   1.7463   103.5479
 18      0.0000     0.0000E+00    0.0000E+00    2.500000E+09  0.00010  1.582E-04    0   0.5296   age150_m22            0.0000     6.3454E+01     5.0307   1.6201   104.6271
 19      0.0000     0.0000E+00    0.0000E+00    4.250000E+09  0.00010  1.007E-04    0   0.5110   age158_m22            0.0000     3.0203E+01     3.5009   1.4694   102.6965
 20      0.0013     8.6866E-04    8.6060E-04    6.250000E+09  0.00010  6.869E-05    0   0.4985   age166_m22            0.0000     1.0721E+01     2.2104   1.4132    99.6273
 21      0.0061     4.7185E-03    4.6241E-03    7.500000E+09  0.00010  5.873E-05    0   0.4931   age171_m22            0.0000     9.0753E+00     2.0535   1.3968    99.1770
 22      0.0000     0.0000E+00    0.0000E+00    1.000000E+10  0.00010  4.481E-05    0   0.4854   age181_m22            0.0000     8.5336E+00     2.0035   1.3593    98.7881
 23      0.0000     1.4624E-05    1.3924E-05    1.300000E+10  0.00010  3.489E-05    0   0.4791   age193_m22            0.0000     7.3299E+00     1.8887   1.3054    98.1406
 24      0.0013     1.9510E-03    1.8480E-03    1.500000E+10  0.00010  3.035E-05    0   0.4766   age201_m22            0.0000     6.5905E+00     1.8122   1.2670    97.9268
 25      0.0560     1.0204E-01    9.6023E-02    1.800000E+10  0.00010  2.510E-05    0   0.4735   age213_m22            0.0000     5.1768E+00     1.6398   1.1995    97.2668
 26      0.0000     0.0000E+00    0.0000E+00    1.000000E+06  0.00040  8.458E-03    0   1.0000   age020_m32            0.0000     5.4508E+02    18.9489   4.0000    89.4461
 27      0.0000     0.0000E+00    0.0000E+00    3.160000E+06  0.00040  3.973E-02    0   1.0000   age045_m32            0.0000     6.5727E+01     7.2828   3.8622    88.9564
 28      0.0000     0.0000E+00    0.0000E+00    5.010000E+06  0.00040  1.935E-02    0   0.9532   age055_m32            0.0000     1.6326E+02    11.2724   4.0000    84.9424
 29      0.0000     0.0000E+00    0.0000E+00    6.610000E+06  0.00040  1.204E-02    0   0.9243   age061_m32            0.0000     3.2228E+02    14.9536   4.0000    90.1847
 30      0.0000     0.0000E+00    0.0000E+00    8.710000E+06  0.00040  9.433E-03    0   0.9001   age067_m32            0.0000     2.8246E+02    14.0621   4.0000    90.5753
 31      0.0000     0.0000E+00    0.0000E+00    1.000000E+07  0.00040  8.053E-03    0   0.8877   age070_m32            0.0000     2.5101E+02    13.3535   4.0000    90.2786
 32      0.0000     0.0000E+00    0.0000E+00    1.445000E+07  0.00040  7.027E-03    0   0.8578   age078_m32            0.0000     8.9733E+01     8.5013   3.8041    87.8868
 33      0.0000     0.0000E+00    0.0000E+00    2.512000E+07  0.00040  4.707E-03    0   0.8166   age090_m32            0.0000     5.3372E+01     6.4993   3.5158    91.8606
 34      0.0000     0.0000E+00    0.0000E+00    4.000000E+07  0.00040  3.714E-03    0   0.7827   age104_m32            0.0000     3.7948E+01     4.8022   3.3230    95.2869
 35      0.0000     0.0000E+00    0.0000E+00    5.500000E+07  0.00040  2.982E-03    0   0.7593   age110_m32            0.0000     3.9150E+01     4.4470   3.2646    96.5112
 36      0.0000     0.0000E+00    0.0000E+00    1.015200E+08  0.00040  2.188E-03    0   0.7143   age116_m32            0.0000     8.7286E+01     5.3935   3.0203   100.6454
 37      0.0000     0.0000E+00    0.0000E+00    1.609000E+08  0.00040  1.690E-03    0   0.6856   age120_m32            0.0000     1.3606E+02     6.9234   2.8197   103.3120
 38      0.0000     0.0000E+00    0.0000E+00    2.861200E+08  0.00040  1.152E-03    0   0.6509   age125_m32            0.0000     1.9130E+02     8.7658   2.6201   104.3852
 39      0.0000     0.0000E+00    0.0000E+00    5.088000E+08  0.00040  7.331E-04    0   0.6182   age130_m32            0.0000     2.1404E+02     9.4901   2.4679   104.7239
 40      0.0000     0.0000E+00    0.0000E+00    9.047900E+08  0.00040  3.960E-04    0   0.5890   age135_m32            0.0000     1.1125E+02     7.0402   2.0075   103.0562
 41      0.0000     0.0000E+00    0.0000E+00    1.278050E+09  0.00040  2.854E-04    0   0.5687   age138_m32            0.0000     7.8263E+01     5.7207   1.6941   105.4290
 42      0.0000     0.0000E+00    0.0000E+00    1.434000E+09  0.00040  2.531E-04    0   0.5632   age139_m32            0.0000     7.4772E+01     5.5788   1.6311   105.4597
 43      3.8640     1.1878E+00    1.2714E+00    2.500000E+09  0.00040  1.488E-04    0   0.5386   age150_m32            0.0000     4.8749E+01     4.6109   1.3821   103.3496
 44     29.1618     1.4687E+01    1.5175E+01    4.250000E+09  0.00040  9.082E-05    0   0.5199   age158_m32            0.0000     1.0883E+01     2.2840   1.2862    99.5981
 45     45.8367     3.2955E+01    3.3245E+01    6.250000E+09  0.00040  6.362E-05    0   0.5076   age166_m32            0.0000     4.1928E+00     1.5938   1.2396    96.0878
 46      7.4557     6.4479E+00    6.4419E+00    7.500000E+09  0.00040  5.289E-05    0   0.5027   age171_m32            0.0000     5.1060E+00     1.7707   1.2063    94.7132
 47      0.0799     9.1993E-02    9.0463E-02    1.000000E+10  0.00040  3.972E-05    0   0.4948   age181_m32            0.0000     6.1139E+00     1.8856   1.1492    93.2131
 48      0.0000     0.0000E+00    0.0000E+00    1.300000E+10  0.00040  3.283E-05    0   0.4870   age193_m32            0.0000     3.5776E+00     1.5230   1.1058    96.0707
 49      0.0000     0.0000E+00    0.0000E+00    1.500000E+10  0.00040  2.925E-05    0   0.4854   age201_m32            0.0000     5.3872E+00     1.8440   1.0871    97.7600
 50      0.0000     0.0000E+00    0.0000E+00    1.800000E+10  0.00040  2.469E-05    0   0.4819   age213_m32            0.0000     6.9542E+00     2.0633   1.0479    98.2971
 51      0.0000     0.0000E+00    0.0000E+00    1.000000E+06  0.00400  1.114E-02    0   1.0000   age020_m42            0.0000     4.6067E+02    17.5625   4.0000    88.5916
 52      0.0000     0.0000E+00    0.0000E+00    3.160000E+06  0.00400  4.073E-02    0   0.9999   age045_m42            0.0000     4.0847E+01     5.6083   3.5861    91.2030
 53      0.0000     0.0000E+00    0.0000E+00    5.010000E+06  0.00400  2.534E-02    0   0.9488   age055_m42            0.0000     9.8865E+01     8.8265   3.9689    85.1361
 54      0.0000     8.7777E-09    1.6084E-08    6.610000E+06  0.00400  2.583E-02    0   0.9220   age061_m42            0.0000     3.4914E+01     5.0595   3.3961    92.3887
 55      0.0000     0.0000E+00    0.0000E+00    8.710000E+06  0.00400  1.706E-02    0   0.8983   age067_m42            0.0000     5.9135E+01     7.0064   3.1964    90.9576
 56      0.0000     2.0490E-08    3.6088E-08    1.000000E+07  0.00400  1.271E-02    0   0.8862   age070_m42            0.0000     9.6545E+01     8.9751   3.1705    89.6560
 57      0.0000     0.0000E+00    0.0000E+00    1.445000E+07  0.00400  7.666E-03    0   0.8571   age078_m42            0.0000     1.2568E+02     9.9442   3.5765    86.0140
 58      0.0000     0.0000E+00    0.0000E+00    2.512000E+07  0.00400  5.070E-03    0   0.8174   age090_m42            0.0000     8.0965E+01     8.3048   3.0433    91.2381
 59      0.0000     0.0000E+00    0.0000E+00    4.000000E+07  0.00400  3.505E-03    0   0.7851   age104_m42            0.0000     4.3299E+01     6.1644   2.7398    94.0505
 60      0.0000     0.0000E+00    0.0000E+00    5.500000E+07  0.00400  3.059E-03    0   0.7629   age110_m42            0.0000     2.6853E+01     3.5789   2.8146    98.6373
 61      0.0000     0.0000E+00    0.0000E+00    1.015200E+08  0.00400  2.268E-03    0   0.7207   age116_m42            0.0000     1.1565E+02     6.5249   2.7457   103.7032
 62      0.0000     0.0000E+00    0.0000E+00    1.609000E+08  0.00400  1.720E-03    0   0.6930   age120_m42            0.0000     1.3638E+02     7.4242   2.6201   104.7934
 63      0.0000     0.0000E+00    0.0000E+00    2.861200E+08  0.00400  1.079E-03    0   0.6613   age125_m42            0.0000     1.3712E+02     7.5432   2.2674   105.0636
 64      0.0000     0.0000E+00    0.0000E+00    5.088000E+08  0.00400  6.261E-04    0   0.6313   age130_m42            0.0000     1.5692E+02     8.1851   2.0673   108.2172
 65      0.0000     0.0000E+00    0.0000E+00    9.047900E+08  0.00400  3.535E-04    0   0.6024   age135_m42            0.0000     8.7484E+01     6.3634   1.6749   107.9639
 66      0.0000     0.0000E+00    0.0000E+00    1.278050E+09  0.00400  2.677E-04    0   0.5837   age138_m42            0.0000     5.6655E+01     5.6752   1.0400   103.3995
 67      0.0000     0.0000E+00    0.0000E+00    1.434000E+09  0.00400  1.910E-04    0   0.5716   age139_m42            0.0000     5.7462E+01     5.6035   1.2003   104.6511
 68      0.0000     0.0000E+00    0.0000E+00    2.500000E+09  0.00400  9.818E-05    0   0.5463   age150_m42            0.0000     4.2671E+01     4.8519   0.9615    98.5379
 69      0.0000     0.0000E+00    0.0000E+00    4.250000E+09  0.00400  5.491E-05    0   0.5269   age158_m42            0.0000     4.7819E+01     4.8563   0.8432    95.4953
 70      0.0000     0.0000E+00    0.0000E+00    6.250000E+09  0.00400  3.857E-05    0   0.5151   age166_m42            0.0000     6.5363E+01     5.5098   0.7334    93.6671
 71      0.0000     0.0000E+00    0.0000E+00    7.500000E+09  0.00400  3.243E-05    0   0.5110   age171_m42            0.0000     7.8647E+01     5.9501   0.6664    92.7942
 72      0.0000     0.0000E+00    0.0000E+00    1.000000E+10  0.00400  2.424E-05    0   0.5028   age181_m42            0.0000     9.7228E+01     6.5373   0.6007    91.7693
 73      0.0000     0.0000E+00    0.0000E+00    1.300000E+10  0.00400  1.883E-05    0   0.4927   age193_m42            0.0000     1.1221E+02     7.0081   0.5694    91.1943
 74      0.0000     0.0000E+00    0.0000E+00    1.500000E+10  0.00400  1.685E-05    0   0.4919   age201_m42            0.0000     1.0862E+02     6.9138   0.5713    91.3046
 75      0.0000     0.0000E+00    0.0000E+00    1.800000E+10  0.00400  1.452E-05    0   0.4874   age213_m42            0.0000     1.0215E+02     6.7400   0.5806    91.7503
 76      0.0000     0.0000E+00    0.0000E+00    1.000000E+06  0.00800  1.286E-02    0   1.0000   age020_m52            0.0000     4.1084E+02    16.4647   4.0000    90.1599
 77      0.0000     0.0000E+00    0.0000E+00    3.160000E+06  0.00800  3.147E-02    0   0.9966   age045_m52            0.0000     3.2806E+02    15.0259   4.0000    90.0781
 78      0.0000     0.0000E+00    0.0000E+00    5.010000E+06  0.00800  2.664E-02    0   0.9443   age055_m52            0.0000     1.2486E+02     9.8712   4.0000    86.2320
 79      0.0000     0.0000E+00    0.0000E+00    6.610000E+06  0.00800  2.151E-02    0   0.9177   age061_m52            0.0000     7.2455E+01     7.6606   2.7804    90.8589
 80      0.0000     0.0000E+00    0.0000E+00    8.710000E+06  0.00800  1.628E-02    0   0.8948   age067_m52            0.0000     6.9503E+01     7.7193   3.1438    91.6044
 81      0.0000     0.0000E+00    0.0000E+00    1.000000E+07  0.00800  1.215E-02    0   0.8827   age070_m52            0.0000     8.7399E+01     8.5857   3.4834    89.6600
 82      0.0000     0.0000E+00    0.0000E+00    1.445000E+07  0.00800  8.739E-03    0   0.8552   age078_m52            0.0000     6.7925E+01     7.5535   3.5254    91.0524
 83      0.0000     0.0000E+00    0.0000E+00    2.512000E+07  0.00800  5.676E-03    0   0.8162   age090_m52            0.0000     4.5719E+01     5.7178   3.1255    96.2912
 84      0.0000     0.0000E+00    0.0000E+00    4.000000E+07  0.00800  3.939E-03    0   0.7841   age104_m52            0.0000     3.8133E+01     4.4896   2.9786    98.5642
 85      0.0000     0.0000E+00    0.0000E+00    5.500000E+07  0.00800  3.155E-03    0   0.7627   age110_m52            0.0000     4.6097E+01     4.2283   2.9571   100.1562
 86      0.0000     0.0000E+00    0.0000E+00    1.015200E+08  0.00800  2.206E-03    0   0.7226   age116_m52            0.0000     8.4543E+01     5.3972   2.7945   103.6056
 87      0.0000     0.0000E+00    0.0000E+00    1.609000E+08  0.00800  1.596E-03    0   0.6963   age120_m52            0.0000     1.0633E+02     6.3558   2.5899   104.9975
 88      0.0000     0.0000E+00    0.0000E+00    2.861200E+08  0.00800  1.002E-03    0   0.6665   age125_m52            0.0000     1.7826E+02     8.9402   2.3268   106.9568
 89      0.0000     0.0000E+00    0.0000E+00    5.088000E+08  0.00800  5.759E-04    0   0.6377   age130_m52            0.0000     2.0092E+02     9.9240   2.0075   109.9805
 90      0.0000     0.0000E+00    0.0000E+00    9.047900E+08  0.00800  2.972E-04    0   0.6086   age135_m52            0.0000     1.2976E+02     8.2403   1.5046   107.2404
 91      0.0000     0.0000E+00    0.0000E+00    1.278050E+09  0.00800  2.242E-04    0   0.5907   age138_m52            0.0000     8.4673E+01     6.7558   0.9022   105.0970
 92      0.0000     0.0000E+00    0.0000E+00    1.434000E+09  0.00800  1.645E-04    0   0.5787   age139_m52            0.0000     6.8908E+01     6.1516   1.0445   104.6880
 93      0.0000     0.0000E+00    0.0000E+00    2.500000E+09  0.00800  7.723E-05    0   0.5519   age150_m52            0.0000     7.9960E+01     6.3069   0.7312    99.9671
 94      0.0000     0.0000E+00    0.0000E+00    4.250000E+09  0.00800  4.151E-05    0   0.5320   age158_m52            0.0000     8.3146E+01     6.3069   0.6682    97.1543
 95      0.0000     0.0000E+00    0.0000E+00    6.250000E+09  0.00800  3.010E-05    0   0.5197   age166_m52            0.0000     1.1545E+02     7.2147   0.4984    95.0621
 96      0.0000     0.0000E+00    0.0000E+00    7.500000E+09  0.00800  2.467E-05    0   0.5139   age171_m52            0.0000     1.2474E+02     7.4570   0.4635    94.4882
 97      0.0000     0.0000E+00    0.0000E+00    1.000000E+10  0.00800  1.862E-05    0   0.5054   age181_m52            0.0000     1.5658E+02     8.2617   0.3531    93.5784
 98      0.0000     0.0000E+00    0.0000E+00    1.300000E+10  0.00800  1.433E-05    0   0.4988   age193_m52            0.0000     1.9347E+02     9.1068   0.2760    93.6426
 99      0.0000     0.0000E+00    0.0000E+00    1.500000E+10  0.00800  1.244E-05    0   0.4936   age201_m52            0.0000     2.0873E+02     9.4202   0.2531    93.8958
100      0.0000     0.0000E+00    0.0000E+00    1.800000E+10  0.00800  1.070E-05    0   0.4888   age213_m52            0.0000     2.1977E+02     9.6512   0.2242    93.6050
101      0.0000     0.0000E+00    0.0000E+00    1.000000E+06  0.02000  1.989E-02    0   1.0000   age020_m62            0.0000     4.3024E+02    16.7940   4.0000    88.6286
102      0.0000     0.0000E+00    0.0000E+00    3.160000E+06  0.02000  3.772E-02    0   0.9858   age045_m62            0.0000     2.9492E+02    14.3743   4.0000    88.2352
103      0.0000     0.0000E+00    0.0000E+00    5.010000E+06  0.02000  3.227E-02    0   0.9342   age055_m62            0.0000     6.9302E+01     7.4582   3.8219    88.3585
104      0.0000     0.0000E+00    0.0000E+00    6.610000E+06  0.02000  2.387E-02    0   0.9090   age061_m62            0.0000     1.1726E+02     9.7686   3.5492    88.2261
105      0.0000     0.0000E+00    0.0000E+00    8.710000E+06  0.02000  1.102E-02    0   0.8861   age067_m62            0.0000     4.0075E+02    17.1224   3.1420    83.9110
106      0.0000     0.0000E+00    0.0000E+00    1.000000E+07  0.02000  1.011E-02    0   0.8751   age070_m62            0.0000     2.6257E+02    14.0779   3.1781    86.1874
107      0.0000     0.0000E+00    0.0000E+00    1.445000E+07  0.02000  7.331E-03    0   0.8472   age078_m62            0.0000     1.6927E+02    11.5138   3.2084    87.4910
108      0.0000     0.0000E+00    0.0000E+00    2.512000E+07  0.02000  4.206E-03    0   0.8099   age090_m62            0.0000     1.7200E+02    11.6688   3.1149    87.1273
109      0.0000     0.0000E+00    0.0000E+00    4.000000E+07  0.02000  3.373E-03    0   0.7799   age104_m62            0.0000     4.0773E+01     5.6175   2.9366    96.1777
110      0.0000     0.0000E+00    0.0000E+00    5.500000E+07  0.02000  2.747E-03    0   0.7595   age110_m62            0.0000     3.6645E+01     4.1843   2.8781    99.8326
111      0.0000     0.0000E+00    0.0000E+00    1.015200E+08  0.02000  1.878E-03    0   0.7221   age116_m62            0.0000     9.2096E+01     5.4956   2.7539   104.7923
112      0.0000     0.0000E+00    0.0000E+00    1.609000E+08  0.02000  1.378E-03    0   0.6978   age120_m62            0.0000     1.4712E+02     7.4065   2.6150   107.0719
113      0.0000     0.0000E+00    0.0000E+00    2.861200E+08  0.02000  8.869E-04    0   0.6700   age125_m62            0.0000     2.4212E+02    10.1355   2.2720   110.7410
114      0.0000     0.0000E+00    0.0000E+00    5.088000E+08  0.02000  4.834E-04    0   0.6430   age130_m62            0.0000     2.2320E+02    10.3793   1.8759   111.5223
115      0.0000     0.0000E+00    0.0000E+00    9.047900E+08  0.02000  2.312E-04    0   0.6152   age135_m62            0.0000     1.1439E+02     7.8731   1.2994   109.4406
116      0.0000     0.0000E+00    0.0000E+00    1.278050E+09  0.02000  1.387E-04    0   0.5927   age138_m62            0.0000     7.3538E+01     6.3838   0.9400   104.0414
117      0.0000     0.0000E+00    0.0000E+00    1.434000E+09  0.02000  1.168E-04    0   0.5865   age139_m62            0.0000     7.0929E+01     6.2316   0.9200   102.1924
118      0.0000     0.0000E+00    0.0000E+00    2.500000E+09  0.02000  5.505E-05    0   0.5610   age150_m62            0.0000     1.0808E+02     7.2064   0.5865    98.0249
119      0.0000     0.0000E+00    0.0000E+00    4.250000E+09  0.02000  3.070E-05    0   0.5407   age158_m62            0.0000     1.8132E+02     9.0303   0.3349    96.6832
120      0.0000     0.0000E+00    0.0000E+00    6.250000E+09  0.02000  2.104E-05    0   0.5277   age166_m62            0.0000     2.2559E+02     9.9149   0.2225    96.4817
121      0.0000     0.0000E+00    0.0000E+00    7.500000E+09  0.02000  1.770E-05    0   0.5223   age171_m62            0.0000     2.5009E+02    10.4210   0.1465    96.4905
122      0.0000     0.0000E+00    0.0000E+00    1.000000E+10  0.02000  1.297E-05    0   0.5121   age181_m62            0.0000     3.0321E+02    11.4306   0.0118    96.2532
123      0.0000     0.0000E+00    0.0000E+00    1.300000E+10  0.02000  9.691E-06    0   0.5047   age193_m62            0.0000     3.4039E+02    12.0915  -0.0564    96.1376
124      0.0000     0.0000E+00    0.0000E+00    1.500000E+10  0.02000  8.360E-06    0   0.4999   age201_m62            0.0000     3.7285E+02    12.6527  -0.1126    95.9438
125      0.0000     0.0000E+00    0.0000E+00    1.800000E+10  0.02000  6.911E-06    0   0.4946   age213_m62            0.0000     4.1427E+02    13.3530  -0.1692    95.6867
126      0.0000     0.0000E+00    0.0000E+00    1.000000E+06  0.05000  2.651E-02    0   0.9998   age020_m72            0.0000     4.2116E+02    16.4609   4.0000    89.6766
127      0.0000     0.0000E+00    0.0000E+00    3.160000E+06  0.05000  4.817E-02    0   0.9577   age045_m72            0.0000     1.6923E+02    11.1901   4.0000    88.5108
128      0.0000     0.0000E+00    0.0000E+00    5.010000E+06  0.05000  3.101E-02    0   0.9147   age055_m72            0.0000     1.2040E+02     9.5217   3.8351    86.5606
129      0.0000     0.0000E+00    0.0000E+00    6.610000E+06  0.05000  1.472E-02    0   0.8877   age061_m72            0.0000     3.0317E+02    14.3980   3.3651    85.1017
130      0.0000     0.0000E+00    0.0000E+00    8.710000E+06  0.05000  1.050E-02    0   0.8638   age067_m72            0.0000     1.8994E+02    11.4005   3.7775    85.2072
131      0.0000     0.0000E+00    0.0000E+00    1.000000E+07  0.05000  8.954E-03    0   0.8524   age070_m72            0.0000     1.3574E+02     9.7547   4.0000    86.7725
132      0.0000     0.0000E+00    0.0000E+00    1.445000E+07  0.05000  6.392E-03    0   0.8262   age078_m72            0.0000     1.0863E+02     8.7555   4.0000    86.5652
133      0.0000     0.0000E+00    0.0000E+00    2.512000E+07  0.05000  4.207E-03    0   0.7902   age090_m72            0.0000     5.6894E+01     6.4621   3.6470    90.7619
134      0.0000     0.0000E+00    0.0000E+00    4.000000E+07  0.05000  3.198E-03    0   0.7618   age104_m72            0.0000     5.3932E+01     4.4469   3.1486    99.4670
135      0.0000     0.0000E+00    0.0000E+00    5.500000E+07  0.05000  2.593E-03    0   0.7432   age110_m72            0.0000     7.3946E+01     4.9899   3.0510   101.7521
136      0.0000     0.0000E+00    0.0000E+00    1.015200E+08  0.05000  1.716E-03    0   0.7092   age116_m72            0.0000     1.2090E+02     6.3877   2.8558   104.6336
137      0.0000     0.0000E+00    0.0000E+00    1.609000E+08  0.05000  1.218E-03    0   0.6876   age120_m72            0.0000     1.8190E+02     8.4232   2.6045   107.0324
138      0.0000     0.0000E+00    0.0000E+00    2.861200E+08  0.05000  7.047E-04    0   0.6618   age125_m72            0.0000     2.4482E+02    10.5502   2.1020   109.9295
139      0.0000     0.0000E+00    0.0000E+00    5.088000E+08  0.05000  3.590E-04    0   0.6356   age130_m72            0.0000     2.0397E+02    10.1882   1.5662   110.9831
140      0.0000     0.0000E+00    0.0000E+00    9.047900E+08  0.05000  1.484E-04    0   0.6088   age135_m72            0.0000     1.1194E+02     7.8616   0.8779   102.4854
141      0.0000     0.0000E+00    0.0000E+00    1.278050E+09  0.05000  9.435E-05    0   0.5924   age138_m72            0.0000     1.5448E+02     8.7752   0.5236    97.9791
142      0.0000     0.0000E+00    0.0000E+00    1.434000E+09  0.05000  7.827E-05    0   0.5847   age139_m72            0.0000     1.5106E+02     8.5337   0.5347    97.3684
143      0.0000     0.0000E+00    0.0000E+00    2.500000E+09  0.05000  3.759E-05    0   0.5583   age150_m72            0.0000     2.1952E+02     9.8432   0.2404    95.6282
144      0.0000     0.0000E+00    0.0000E+00    4.250000E+09  0.05000  1.842E-05    0   0.5374   age158_m72            0.0000     3.0633E+02    11.4188  -0.0435    94.3078
145      0.0000     0.0000E+00    0.0000E+00    6.250000E+09  0.05000  1.207E-05    0   0.5242   age166_m72            0.0000     3.9077E+02    12.8678  -0.2478    93.0844
146      0.0000     0.0000E+00    0.0000E+00    7.500000E+09  0.05000  9.993E-06    0   0.5183   age171_m72            0.0000     4.0495E+02    13.1034  -0.2856    92.8790
147      0.0000     0.0000E+00    0.0000E+00    1.000000E+10  0.05000  7.291E-06    0   0.5081   age181_m72            0.0000     4.6526E+02    14.1281  -0.3815    92.0631
148      0.0000     0.0000E+00    0.0000E+00    1.300000E+10  0.05000  5.316E-06    0   0.5018   age193_m72            0.0000     5.6248E+02    15.7103  -0.5274    90.9309
149      0.9926     1.0096E+01    9.9759E+00    1.500000E+10  0.05000  4.497E-06    0   0.4972   age201_m72            0.0000     6.1089E+02    16.4928  -0.5809    90.6264
150      2.8134     3.4417E+01    3.3680E+01    1.800000E+10  0.05000  3.739E-06    0   0.4924   age213_m72            0.0000     6.7319E+02    17.4730  -0.6594    90.0208


## Synthesis Results - Average & Chains ##

# j      x_j: min, <> & last-chain-values for 1 ...  7 chains
  1      0.0000      0.0231      0.0000      0.1217      0.0000      0.0000      0.0000      0.0000      0.0000
  2      6.1410      1.0914      1.6416      1.2612      2.3245      1.7104      1.1192      1.4404      2.4729
  3      0.9356      0.2542      0.4377      0.3427      0.2002      0.4557      0.3064      0.2917      0.1276
  4      0.0000      0.0282      0.0000      0.0000      0.0000      0.0274      0.1448      0.0000      0.0000
  5      0.0000      0.0126      0.0000      0.0000      0.0226      0.0000      0.0000      0.0000      0.0000
  6      0.0000      0.0176      0.0000      0.0000      0.0000      0.0000      0.1062      0.0000      0.0217
  7      0.0000      0.0256      0.0000      0.0000      0.0000      0.0000      0.0000      0.0993      0.0043
  8      0.0000      0.0185      0.0000      0.0000      0.0000      0.0321      0.0000      0.1350      0.0758
  9      0.0000      0.0518      0.0000      0.0000      0.2001      0.0000      0.0000      0.0517      0.0000
 10      0.0000      0.0362      0.0000      0.3742      0.0075      0.0000      0.0000      0.0000      0.0000
 11      0.0000      0.0427      0.0000      0.1797      0.0526      0.0000      0.0000      0.0000      0.0000
 12      0.0000      0.0150      0.0000      0.0000      0.0000      0.0000      0.0000      0.0000      0.0019
 13      0.0000      0.0128      0.0000      0.0000      0.0000      0.0053      0.0000      0.0000      0.0979
 14      0.0000      0.0094      0.0000      0.0000      0.0000      0.0000      0.0000      0.0000      0.0000
 15      0.0000      0.0147      0.0000      0.0000      0.0000      0.0000      0.0000      0.0173      0.0000
 16      0.0000      0.0220      0.0402      0.0000      0.0000      0.1421      0.0062      0.0000      0.0164
 17      0.0000      0.0247      0.0000      0.0000      0.0000      0.0000      0.1460      0.0000      0.0000
 18      0.0000      0.0526      0.0000      0.0000      0.0000      0.0450      0.0000      0.2680      0.0000
 19      0.0000      0.1040      0.2306      0.1070      0.0000      0.0000      0.0000      0.0187      0.0916
 20      0.0013      0.2432      0.1454      0.0000      0.3604      0.0000      0.3910      0.0000      0.0000
 21      0.0061      0.2753      0.0000      0.4174      0.5713      0.8177      0.9117      0.6423      0.2651
 22      0.0000      0.4957      0.1952      0.8260      0.0000      0.5492      0.7307      0.3953      0.5873
 23      0.0000      0.5978      0.3853      0.4422      0.2954      0.0935      0.5280      0.7376      0.6915
 24      0.0013      0.5371      0.3436      0.6095      0.3799      1.0012      1.1476      0.3862      0.6156
 25      0.0560      0.6447      0.6078      0.5321      0.6531      1.6543      0.0000      0.3424      0.0000
 26      0.0000      0.0179      0.0000      0.0000      0.0000      0.0000      0.0000      0.0000      0.0000
 27      0.0000      0.0774      0.2862      0.0844      0.0000      0.0633      0.1628      0.4484      0.0000
 28      0.0000      0.0288      0.0358      0.0171      0.1321      0.0423      0.0000      0.0000      0.0843
 29      0.0000      0.0116      0.0002      0.0000      0.0000      0.0000      0.0000      0.0000      0.0000
 30      0.0000      0.0179      0.0198      0.0000      0.0000      0.0000      0.0000      0.0412      0.0000
 31      0.0000      0.0214      0.0000      0.0000      0.0000      0.0000      0.0756      0.0000      0.0000
 32      0.0000      0.0291      0.0000      0.0164      0.0000      0.0704      0.0311      0.0000      0.0000
 33      0.0000      0.0270      0.0000      0.0000      0.0000      0.0783      0.0376      0.0342      0.0085
 34      0.0000      0.0377      0.0646      0.0337      0.0000      0.0000      0.1570      0.0000      0.1098
 35      0.0000      0.0372      0.0000      0.0000      0.0000      0.1395      0.0000      0.0000      0.0000
 36      0.0000      0.0207      0.0000      0.0000      0.0000      0.0000      0.0000      0.0000      0.1132
 37      0.0000      0.0225      0.0000      0.0000      0.0000      0.0257      0.0000      0.0000      0.0000
 38      0.0000      0.0193      0.0723      0.0000      0.0005      0.0188      0.1618      0.0000      0.0000
 39      0.0000      0.0170      0.0000      0.0000      0.0000      0.0000      0.0000      0.0000      0.0000
 40      0.0000      0.0200      0.0000      0.0658      0.0000      0.0000      0.0000      0.0000      0.0000
 41      0.0000      0.0431      0.1084      0.0000      0.0000      0.0946      0.0000      0.0000      0.0627
 42      0.0000      0.0464      0.0000      0.1686      0.0000      0.0426      0.0000      0.0017      0.0821
 43      3.8640      2.1093      2.3967      2.8223      1.9958      1.7673      2.3392      2.4133      2.0603
 44     29.1618     27.9925     28.4266     26.1333     29.0256     27.6298     28.0765     28.1789     27.9794
 45     45.8367     43.9768     45.2378     43.5806     43.9735     43.7537     43.6370     45.2208     44.5276
 46      7.4557     11.5629     11.6577     13.2143     11.6356     11.2629     11.5427     10.1815     11.4922
 47      0.0799      0.2969      0.1295      0.2945      0.2521      0.0000      0.1613      0.5509      0.2972
 48      0.0000      0.2933      0.2009      0.4381      0.0000      0.0000      0.2841      0.2932      0.0000
 49      0.0000      0.2338      0.0000      0.1577      0.0421      0.2598      0.0000      0.0000      0.0724
 50      0.0000      0.2390      0.0000      0.0000      0.0879      0.4757      0.2094      0.0367      0.2072
 51      0.0000      0.0122      0.0000      0.0000      0.0000      0.0000      0.0000      0.0000      0.0000
 52      0.0000      0.0422      0.0267      0.1253      0.0000      0.0241      0.0000      0.0000      0.0825
 53      0.0000      0.0353      0.0000      0.2173      0.0000      0.0000      0.0361      0.1821      0.0000
 54      0.0000      0.1155      0.0000      0.1167      0.2284      0.2436      0.3716      0.0000      0.1817
 55      0.0000      0.1078      0.0000      0.1930      0.0689      0.1184      0.1845      0.4931      0.1104
 56      0.0000      0.0428      0.0030      0.0000      0.2259      0.0209      0.0626      0.0000      0.0000
 57      0.0000      0.0226      0.0000      0.0000      0.0000      0.0000      0.0000      0.0000      0.0372
 58      0.0000      0.0275      0.0000      0.0000      0.0000      0.1594      0.0000      0.0000      0.0000
 59      0.0000      0.0217      0.0000      0.0000      0.0000      0.0000      0.0000      0.0000      0.0000
 60      0.0000      0.0152      0.0000      0.0000      0.0000      0.0000      0.0000      0.0000      0.0000
 61      0.0000      0.0178      0.0000      0.0510      0.0734      0.0000      0.0000      0.0241      0.0582
 62      0.0000      0.0300      0.0000      0.0000      0.0000      0.2553      0.0240      0.0000      0.0000
 63      0.0000      0.0171      0.0000      0.0000      0.0000      0.0000      0.0000      0.0000      0.0000
 64      0.0000      0.0233      0.0000      0.0000      0.0089      0.0783      0.0000      0.0000      0.0000
 65      0.0000      0.0292      0.0445      0.0000      0.0092      0.0000      0.0000      0.0000      0.0000
 66      0.0000      0.0137      0.0031      0.0000      0.0000      0.0000      0.0000      0.0000      0.0000
 67      0.0000      0.0210      0.0000      0.0000      0.0194      0.0000      0.0000      0.0000      0.1102
 68      0.0000      0.0191      0.0000      0.0067      0.0000      0.0000      0.0000      0.0290      0.0000
 69      0.0000      0.0213      0.0000      0.0000      0.0000      0.0000      0.0000      0.0000      0.0000
 70      0.0000      0.0188      0.0000      0.0000      0.0000      0.0000      0.0000      0.0000      0.0000
 71      0.0000      0.0183      0.0000      0.0113      0.0000      0.0000      0.0000      0.0000      0.0000
 72      0.0000      0.0151      0.0000      0.0000      0.0000      0.0000      0.0000      0.0000      0.0000
 73      0.0000      0.0102      0.0000      0.0000      0.0000      0.0000      0.0000      0.0000      0.0000
 74      0.0000      0.0159      0.0000      0.0152      0.0000      0.0000      0.0000      0.0634      0.0000
 75      0.0000      0.0224      0.0000      0.0000      0.0000      0.0000      0.0000      0.0447      0.0000
 76      0.0000      0.0128      0.0000      0.0100      0.0000      0.0129      0.0000      0.0000      0.0000
 77      0.0000      0.0123      0.0040      0.0073      0.0000      0.0000      0.0000      0.0054      0.0000
 78      0.0000      0.0167      0.0522      0.0000      0.0000      0.0452      0.0000      0.0000      0.0161
 79      0.0000      0.0133      0.0000      0.0000      0.0000      0.0000      0.0000      0.0000      0.0000
 80      0.0000      0.0276      0.0000      0.0716      0.0000      0.0047      0.0000      0.0000      0.0000
 81      0.0000      0.0199      0.0000      0.0000      0.0000      0.0000      0.0039      0.0000      0.0000
 82      0.0000      0.0319      0.0000      0.0000      0.0000      0.0000      0.0000      0.0000      0.0000
 83      0.0000      0.0312      0.1047      0.0000      0.0355      0.0082      0.0000      0.0082      0.0000
 84      0.0000      0.0268      0.0000      0.0000      0.0000      0.0000      0.0000      0.0000      0.0000
 85      0.0000      0.0175      0.0000      0.0000      0.0000      0.0000      0.0108      0.0000      0.0000
 86      0.0000      0.0140      0.0000      0.0000      0.0000      0.0000      0.0000      0.0000      0.0000
 87      0.0000      0.0154      0.0000      0.0000      0.0092      0.0000      0.0000      0.0000      0.0385
 88      0.0000      0.0084      0.0000      0.0000      0.0316      0.0000      0.0000      0.0000      0.0000
 89      0.0000      0.0097      0.0000      0.0000      0.0000      0.0000      0.0000      0.0052      0.0642
 90      0.0000      0.0073      0.0000      0.0000      0.0000      0.0000      0.0000      0.0000      0.0000
 91      0.0000      0.0040      0.0000      0.0000      0.0000      0.0000      0.0000      0.0000      0.0000
 92      0.0000      0.0063      0.0063      0.0078      0.0000      0.0000      0.0000      0.0000      0.0000
 93      0.0000      0.0067      0.0000      0.0000      0.0000      0.0000      0.0000      0.0000      0.0000
 94      0.0000      0.0095      0.0000      0.0000      0.0000      0.0000      0.0000      0.0104      0.0000
 95      0.0000      0.0082      0.0000      0.0000      0.0000      0.0000      0.0000      0.0000      0.0000
 96      0.0000      0.0080      0.0000      0.0000      0.0000      0.0000      0.0000      0.0000      0.0000
 97      0.0000      0.0061      0.0000      0.0000      0.0000      0.0000      0.0000      0.0000      0.0000
 98      0.0000      0.0051      0.0000      0.0000      0.0000      0.0000      0.0000      0.0000      0.0000
 99      0.0000      0.0056      0.0000      0.0000      0.0000      0.0000      0.0000      0.0049      0.0000
100      0.0000      0.0071      0.0000      0.0000      0.0000      0.0000      0.0000      0.0000      0.0000
101      0.0000      0.0093      0.0268      0.0000      0.0000      0.0000      0.0000      0.0000      0.0000
102      0.0000      0.0148      0.0202      0.0000      0.0000      0.0000      0.0000      0.0000      0.0479
103      0.0000      0.0413      0.0000      0.0000      0.0822      0.0000      0.0000      0.1396      0.0000
104      0.0000      0.0344      0.0000      0.0000      0.0000      0.0113      0.2072      0.0000      0.0000
105      0.0000      0.0211      0.0000      0.0000      0.0000      0.0000      0.0070      0.0080      0.0484
106      0.0000      0.0214      0.0196      0.0000      0.0000      0.0000      0.0000      0.0000      0.2098
107      0.0000      0.0232      0.0000      0.0000      0.0000      0.0049      0.0000      0.0000      0.0000
108      0.0000      0.0127      0.0000      0.0000      0.0000      0.0000      0.0000      0.0000      0.0540
109      0.0000      0.0117      0.0000      0.0000      0.0000      0.0000      0.0000      0.0000      0.0000
110      0.0000      0.0125      0.0000      0.1373      0.0000      0.0000      0.0000      0.0000      0.0000
111      0.0000      0.0131      0.0000      0.0000      0.0000      0.0000      0.0000      0.0108      0.0000
112      0.0000      0.0121      0.0000      0.0007      0.0000      0.0000      0.0000      0.0000      0.0000
113      0.0000      0.0098      0.0000      0.0000      0.0000      0.0000      0.0000      0.1315      0.0000
114      0.0000      0.0083      0.0000      0.0000      0.0000      0.0000      0.0000      0.0000      0.0000
115      0.0000      0.0068      0.0000      0.0000      0.0000      0.0000      0.0000      0.0000      0.0000
116      0.0000      0.0072      0.0304      0.0000      0.0000      0.0000      0.0225      0.0061      0.0000
117      0.0000      0.0096      0.0000      0.0000      0.0417      0.0000      0.0000      0.0000      0.0000
118      0.0000      0.0084      0.0000      0.0000      0.0000      0.0000      0.0000      0.0000      0.0000
119      0.0000      0.0063      0.0000      0.0000      0.0000      0.0000      0.0000      0.0000      0.0000
120      0.0000      0.0046      0.0000      0.0000      0.0000      0.0000      0.0000      0.0027      0.0000
121      0.0000      0.0062      0.0054      0.0000      0.0000      0.0000      0.0000      0.0000      0.0000
122      0.0000      0.0042      0.0000      0.0000      0.0000      0.0000      0.0000      0.0000      0.0000
123      0.0000      0.0046      0.0000      0.0000      0.0000      0.0000      0.0000      0.0000      0.0000
124      0.0000      0.0030      0.0000      0.0000      0.0000      0.0000      0.0000      0.0000      0.0000
125      0.0000      0.0032      0.0000      0.0000      0.0000      0.0000      0.0000      0.0475      0.0000
126      0.0000      0.0131      0.0000      0.0000      0.0111      0.0000      0.0000      0.0000      0.0000
127      0.0000      0.0387      0.0000      0.0000      0.1658      0.0000      0.0000      0.0436      0.0000
128      0.0000      0.0557      0.0906      0.0000      0.0000      0.0000      0.0000      0.0768      0.0000
129      0.0000      0.1197      0.2512      0.1166      0.1640      0.1300      0.1694      0.0000      0.1596
130      0.0000      0.0249      0.0000      0.1209      0.0000      0.1075      0.0000      0.0000      0.0379
131      0.0000      0.0141      0.1479      0.0000      0.0000      0.0376      0.0000      0.0000      0.0000
132      0.0000      0.0114      0.0000      0.0000      0.0000      0.0295      0.0000      0.0000      0.0000
133      0.0000      0.0097      0.0000      0.0000      0.0000      0.0000      0.0073      0.0000      0.0000
134      0.0000      0.0100      0.0000      0.0000      0.0000      0.0000      0.0000      0.0000      0.0000
135      0.0000      0.0105      0.0000      0.0000      0.0000      0.0000      0.0000      0.0000      0.0000
136      0.0000      0.0191      0.0000      0.1457      0.0176      0.0000      0.0000      0.0065      0.0000
137      0.0000      0.0089      0.1482      0.0000      0.0000      0.0000      0.0143      0.0418      0.0000
138      0.0000      0.0070      0.0054      0.0000      0.0000      0.0000      0.0000      0.0307      0.0000
139      0.0000      0.0074      0.0000      0.0000      0.0000      0.0000      0.0000      0.0000      0.0484
140      0.0000      0.0097      0.0000      0.0000      0.0000      0.0000      0.0000      0.0178      0.0000
141      0.0000      0.0091      0.0000      0.0000      0.0000      0.0000      0.0000      0.0000      0.0000
142      0.0000      0.0121      0.0045      0.0208      0.0000      0.0000      0.0000      0.0000      0.0000
143      0.0000      0.0102      0.0000      0.0000      0.0000      0.0000      0.0000      0.0000      0.0000
144      0.0000      0.0262      0.0000      0.0000      0.0463      0.0000      0.0000      0.0000      0.2072
145      0.0000      0.0536      0.0141      0.1012      0.1563      0.1004      0.1043      0.0000      0.1462
146      0.0000      0.0524      0.0000      0.0000      0.0000      0.1421      0.0946      0.0000      0.0000
147      0.0000      0.1332      0.1212      0.0000      0.1266      0.1903      0.0648      0.1672      0.2191
148      0.0000      0.1805      0.1997      0.2599      0.1524      0.1853      0.1678      0.1960      0.1683
149      0.9926      0.8125      0.8566      0.8626      0.8754      0.8017      0.8106      0.8466      0.8438
150      2.8134      2.3630      2.3730      2.3545      2.4350      2.2861      2.4421      2.3709      2.2030

# j      m_j: min, <> & last-chain-values for 1 ...  7 chains
  1  0.0000E+00  2.5183E-04  0.0000E+00  1.3305E-03  0.0000E+00  0.0000E+00  0.0000E+00  0.0000E+00  0.0000E+00
  2  1.1730E-02  2.0403E-03  3.1068E-03  2.3648E-03  4.3632E-03  3.1845E-03  2.0946E-03  2.7106E-03  4.7351E-03
  3  4.2184E-03  1.1216E-03  1.9550E-03  1.5165E-03  8.8703E-04  2.0025E-03  1.3535E-03  1.2958E-03  5.7661E-04
  4  0.0000E+00  2.3382E-04  0.0000E+00  0.0000E+00  0.0000E+00  2.2607E-04  1.2025E-03  0.0000E+00  0.0000E+00
  5  0.0000E+00  1.3188E-04  0.0000E+00  0.0000E+00  2.3722E-04  0.0000E+00  0.0000E+00  0.0000E+00  0.0000E+00
  6  0.0000E+00  2.1822E-04  0.0000E+00  0.0000E+00  0.0000E+00  0.0000E+00  1.3202E-03  0.0000E+00  2.7613E-04
  7  0.0000E+00  4.0086E-04  0.0000E+00  0.0000E+00  0.0000E+00  0.0000E+00  0.0000E+00  1.5664E-03  6.9668E-05
  8  0.0000E+00  3.2712E-04  0.0000E+00  0.0000E+00  0.0000E+00  5.6650E-04  0.0000E+00  2.4094E-03  1.3756E-03
  9  0.0000E+00  9.8702E-04  0.0000E+00  0.0000E+00  3.8302E-03  0.0000E+00  0.0000E+00  9.9258E-04  0.0000E+00
 10  0.0000E+00  7.9078E-04  0.0000E+00  8.2008E-03  1.6490E-04  0.0000E+00  0.0000E+00  0.0000E+00  0.0000E+00
 11  0.0000E+00  1.1149E-03  0.0000E+00  4.7096E-03  1.3803E-03  0.0000E+00  0.0000E+00  0.0000E+00  0.0000E+00
 12  0.0000E+00  6.8336E-04  0.0000E+00  0.0000E+00  0.0000E+00  0.0000E+00  0.0000E+00  0.0000E+00  8.8114E-05
 13  0.0000E+00  6.8093E-04  0.0000E+00  0.0000E+00  0.0000E+00  2.7926E-04  0.0000E+00  0.0000E+00  5.3209E-03
 14  0.0000E+00  7.0516E-04  0.0000E+00  0.0000E+00  0.0000E+00  0.0000E+00  0.0000E+00  0.0000E+00  0.0000E+00
 15  0.0000E+00  1.6685E-03  0.0000E+00  0.0000E+00  0.0000E+00  0.0000E+00  0.0000E+00  1.9769E-03  0.0000E+00
 16  0.0000E+00  3.6243E-03  6.7102E-03  0.0000E+00  0.0000E+00  2.3311E-02  1.0165E-03  0.0000E+00  2.7741E-03
 17  0.0000E+00  4.5086E-03  0.0000E+00  0.0000E+00  0.0000E+00  0.0000E+00  2.6729E-02  0.0000E+00  0.0000E+00
 18  0.0000E+00  1.5668E-02  0.0000E+00  0.0000E+00  0.0000E+00  1.3347E-02  0.0000E+00  8.0362E-02  0.0000E+00
 19  0.0000E+00  4.6929E-02  1.0537E-01  4.8471E-02  0.0000E+00  0.0000E+00  0.0000E+00  8.4887E-03  4.2339E-02
 20  8.6060E-04  1.5701E-01  9.5062E-02  0.0000E+00  2.3361E-01  0.0000E+00  2.5270E-01  0.0000E+00  0.0000E+00
 21  4.6241E-03  2.0562E-01  0.0000E+00  3.1269E-01  4.2847E-01  6.0830E-01  6.8174E-01  4.8297E-01  2.0282E-01
 22  0.0000E+00  4.7773E-01  1.9043E-01  7.9847E-01  0.0000E+00  5.2713E-01  7.0494E-01  3.8350E-01  5.7977E-01
 23  1.3924E-05  7.3031E-01  4.7653E-01  5.4187E-01  3.6238E-01  1.1379E-01  6.4577E-01  9.0702E-01  8.6530E-01
 24  1.8480E-03  7.5033E-01  4.8595E-01  8.5405E-01  5.3292E-01  1.3931E+00  1.6051E+00  5.4310E-01  8.8088E-01
 25  9.6023E-02  1.0820E+00  1.0326E+00  8.9566E-01  1.1006E+00  2.7650E+00  0.0000E+00  5.7844E-01  0.0000E+00
 26  0.0000E+00  1.8834E-04  0.0000E+00  0.0000E+00  0.0000E+00  0.0000E+00  0.0000E+00  0.0000E+00  0.0000E+00
 27  0.0000E+00  1.7325E-04  6.4875E-04  1.8965E-04  0.0000E+00  1.4126E-04  3.6491E-04  1.0107E-03  0.0000E+00
 28  0.0000E+00  1.2608E-04  1.5904E-04  7.5204E-05  5.8129E-04  1.8478E-04  0.0000E+00  0.0000E+00  3.7864E-04
 29  0.0000E+00  7.9266E-05  1.2513E-06  0.0000E+00  0.0000E+00  0.0000E+00  0.0000E+00  0.0000E+00  0.0000E+00
 30  0.0000E+00  1.5208E-04  1.6977E-04  0.0000E+00  0.0000E+00  0.0000E+00  0.0000E+00  3.5235E-04  0.0000E+00
 31  0.0000E+00  2.1010E-04  0.0000E+00  0.0000E+00  0.0000E+00  0.0000E+00  7.4178E-04  0.0000E+00  0.0000E+00
 32  0.0000E+00  3.1644E-04  0.0000E+00  1.7890E-04  0.0000E+00  7.6119E-04  3.3781E-04  0.0000E+00  0.0000E+00
 33  0.0000E+00  4.1687E-04  0.0000E+00  0.0000E+00  0.0000E+00  1.2038E-03  5.8124E-04  5.3194E-04  1.3448E-04
 34  0.0000E+00  7.0600E-04  1.2267E-03  6.3425E-04  0.0000E+00  0.0000E+00  2.9474E-03  0.0000E+00  2.1088E-03
 35  0.0000E+00  8.4325E-04  0.0000E+00  0.0000E+00  0.0000E+00  3.1465E-03  0.0000E+00  0.0000E+00  0.0000E+00
 36  0.0000E+00  6.0251E-04  0.0000E+00  0.0000E+00  0.0000E+00  0.0000E+00  0.0000E+00  0.0000E+00  3.3671E-03
 37  0.0000E+00  8.1079E-04  0.0000E+00  0.0000E+00  0.0000E+00  9.2259E-04  0.0000E+00  0.0000E+00  0.0000E+00
 38  0.0000E+00  9.6977E-04  3.6784E-03  0.0000E+00  2.4360E-05  9.4239E-04  8.1428E-03  0.0000E+00  0.0000E+00
 39  0.0000E+00  1.2785E-03  0.0000E+00  0.0000E+00  0.0000E+00  0.0000E+00  0.0000E+00  0.0000E+00  0.0000E+00
 40  0.0000E+00  2.6522E-03  0.0000E+00  8.7279E-03  0.0000E+00  0.0000E+00  0.0000E+00  0.0000E+00  0.0000E+00
 41  0.0000E+00  7.6383E-03  1.9449E-02  0.0000E+00  0.0000E+00  1.6697E-02  0.0000E+00  0.0000E+00  1.1387E-02
 42  0.0000E+00  9.1755E-03  0.0000E+00  3.3469E-02  0.0000E+00  8.4078E-03  0.0000E+00  3.3892E-04  1.6640E-02
 43  1.2714E+00  6.7921E-01  7.8132E-01  9.1159E-01  6.4532E-01  5.6680E-01  7.5413E-01  7.8231E-01  6.7958E-01
 44  1.5175E+01  1.4256E+01  1.4656E+01  1.3349E+01  1.4843E+01  1.4014E+01  1.4315E+01  1.4446E+01  1.4596E+01
 45  3.3245E+01  3.1215E+01  3.2507E+01  3.1028E+01  3.1341E+01  3.0931E+01  3.1009E+01  3.2312E+01  3.2374E+01
 46  6.4419E+00  9.7771E+00  9.9792E+00  1.1208E+01  9.8791E+00  9.4850E+00  9.7713E+00  8.6665E+00  9.9536E+00
 47  9.0463E-02  3.2904E-01  1.4524E-01  3.2732E-01  2.8054E-01  0.0000E+00  1.7896E-01  6.1463E-01  3.3741E-01
 48  0.0000E+00  3.8701E-01  2.6834E-01  5.7988E-01  0.0000E+00  0.0000E+00  3.7540E-01  3.8951E-01  0.0000E+00
 49  0.0000E+00  3.4515E-01  0.0000E+00  2.3349E-01  6.2349E-02  3.8199E-01  0.0000E+00  0.0000E+00  1.0946E-01
 50  0.0000E+00  4.1507E-01  0.0000E+00  0.0000E+00  1.5319E-01  8.2269E-01  3.6401E-01  6.4117E-02  3.6861E-01
 51  0.0000E+00  9.7090E-05  0.0000E+00  0.0000E+00  0.0000E+00  0.0000E+00  0.0000E+00  0.0000E+00  0.0000E+00
 52  0.0000E+00  9.2102E-05  5.9017E-05  2.7440E-04  0.0000E+00  5.2507E-05  0.0000E+00  0.0000E+00  1.8466E-04
 53  0.0000E+00  1.1757E-04  0.0000E+00  7.2608E-04  0.0000E+00  0.0000E+00  1.2023E-04  6.1052E-04  0.0000E+00
 54  1.6084E-08  3.6683E-04  0.0000E+00  3.7162E-04  7.2817E-04  7.7051E-04  1.1813E-03  0.0000E+00  5.9114E-04
 55  0.0000E+00  5.0494E-04  0.0000E+00  9.0662E-04  3.2398E-04  5.5257E-04  8.6545E-04  2.3253E-03  5.2993E-04
 56  3.6088E-08  2.6563E-04  1.8803E-05  0.0000E+00  1.4068E-03  1.2922E-04  3.8869E-04  0.0000E+00  0.0000E+00
 57  0.0000E+00  2.2507E-04  0.0000E+00  0.0000E+00  0.0000E+00  0.0000E+00  0.0000E+00  0.0000E+00  3.7951E-04
 58  0.0000E+00  3.9402E-04  0.0000E+00  0.0000E+00  0.0000E+00  2.2770E-03  0.0000E+00  0.0000E+00  0.0000E+00
 59  0.0000E+00  4.3341E-04  0.0000E+00  0.0000E+00  0.0000E+00  0.0000E+00  0.0000E+00  0.0000E+00  0.0000E+00
 60  0.0000E+00  3.3776E-04  0.0000E+00  0.0000E+00  0.0000E+00  0.0000E+00  0.0000E+00  0.0000E+00  0.0000E+00
 61  0.0000E+00  5.0287E-04  0.0000E+00  1.4469E-03  2.0839E-03  0.0000E+00  0.0000E+00  6.8701E-04  1.6864E-03
 62  0.0000E+00  1.0758E-03  0.0000E+00  0.0000E+00  0.0000E+00  9.1126E-03  8.6171E-04  0.0000E+00  0.0000E+00
 63  0.0000E+00  9.3340E-04  0.0000E+00  0.0000E+00  0.0000E+00  0.0000E+00  0.0000E+00  0.0000E+00  0.0000E+00
 64  0.0000E+00  2.0858E-03  0.0000E+00  0.0000E+00  8.0358E-04  6.9931E-03  0.0000E+00  0.0000E+00  0.0000E+00
 65  0.0000E+00  4.4314E-03  6.8255E-03  0.0000E+00  1.4015E-03  0.0000E+00  0.0000E+00  0.0000E+00  0.0000E+00
 66  0.0000E+00  2.6568E-03  6.1579E-04  0.0000E+00  0.0000E+00  0.0000E+00  0.0000E+00  0.0000E+00  0.0000E+00
 67  0.0000E+00  5.5840E-03  0.0000E+00  0.0000E+00  5.1784E-03  0.0000E+00  0.0000E+00  0.0000E+00  3.0044E-02
 68  0.0000E+00  9.4477E-03  0.0000E+00  3.3375E-03  0.0000E+00  0.0000E+00  0.0000E+00  1.4431E-02  0.0000E+00
 69  0.0000E+00  1.8155E-02  0.0000E+00  0.0000E+00  0.0000E+00  0.0000E+00  0.0000E+00  0.0000E+00  0.0000E+00
 70  0.0000E+00  2.2388E-02  0.0000E+00  0.0000E+00  0.0000E+00  0.0000E+00  0.0000E+00  0.0000E+00  0.0000E+00
 71  0.0000E+00  2.5707E-02  0.0000E+00  1.5855E-02  0.0000E+00  0.0000E+00  0.0000E+00  0.0000E+00  0.0000E+00
 72  0.0000E+00  2.7845E-02  0.0000E+00  0.0000E+00  0.0000E+00  0.0000E+00  0.0000E+00  0.0000E+00  0.0000E+00
 73  0.0000E+00  2.3846E-02  0.0000E+00  0.0000E+00  0.0000E+00  0.0000E+00  0.0000E+00  0.0000E+00  0.0000E+00
 74  0.0000E+00  4.1168E-02  0.0000E+00  3.9623E-02  0.0000E+00  0.0000E+00  0.0000E+00  1.6573E-01  0.0000E+00
 75  0.0000E+00  6.6968E-02  0.0000E+00  0.0000E+00  0.0000E+00  0.0000E+00  0.0000E+00  1.3431E-01  0.0000E+00
 76  0.0000E+00  8.8246E-05  0.0000E+00  6.9323E-05  0.0000E+00  8.9214E-05  0.0000E+00  0.0000E+00  0.0000E+00
 77  0.0000E+00  3.4655E-05  1.1523E-05  2.0590E-05  0.0000E+00  0.0000E+00  0.0000E+00  1.5205E-05  0.0000E+00
 78  0.0000E+00  5.2568E-05  1.6673E-04  0.0000E+00  0.0000E+00  1.4206E-04  0.0000E+00  0.0000E+00  5.2162E-05
 79  0.0000E+00  5.0470E-05  0.0000E+00  0.0000E+00  0.0000E+00  0.0000E+00  0.0000E+00  0.0000E+00  0.0000E+00
 80  0.0000E+00  1.3478E-04  0.0000E+00  3.5120E-04  0.0000E+00  2.2980E-05  0.0000E+00  0.0000E+00  0.0000E+00
 81  0.0000E+00  1.2867E-04  0.0000E+00  0.0000E+00  0.0000E+00  0.0000E+00  2.5017E-05  0.0000E+00  0.0000E+00
 82  0.0000E+00  2.7734E-04  0.0000E+00  0.0000E+00  0.0000E+00  0.0000E+00  0.0000E+00  0.0000E+00  0.0000E+00
 83  0.0000E+00  3.9947E-04  1.3556E-03  0.0000E+00  4.5639E-04  1.0481E-04  0.0000E+00  1.0576E-04  0.0000E+00
 84  0.0000E+00  4.7540E-04  0.0000E+00  0.0000E+00  0.0000E+00  0.0000E+00  0.0000E+00  0.0000E+00  0.0000E+00
 85  0.0000E+00  3.7688E-04  0.0000E+00  0.0000E+00  0.0000E+00  0.0000E+00  2.3303E-04  0.0000E+00  0.0000E+00
 86  0.0000E+00  4.0914E-04  0.0000E+00  0.0000E+00  0.0000E+00  0.0000E+00  0.0000E+00  0.0000E+00  0.0000E+00
 87  0.0000E+00  5.9684E-04  0.0000E+00  0.0000E+00  3.5779E-04  0.0000E+00  0.0000E+00  0.0000E+00  1.5317E-03
 88  0.0000E+00  4.9629E-04  0.0000E+00  0.0000E+00  1.8791E-03  0.0000E+00  0.0000E+00  0.0000E+00  0.0000E+00
 89  0.0000E+00  9.5182E-04  0.0000E+00  0.0000E+00  0.0000E+00  0.0000E+00  0.0000E+00  5.1995E-04  6.4828E-03
 90  0.0000E+00  1.3259E-03  0.0000E+00  0.0000E+00  0.0000E+00  0.0000E+00  0.0000E+00  0.0000E+00  0.0000E+00
 91  0.0000E+00  9.4121E-04  0.0000E+00  0.0000E+00  0.0000E+00  0.0000E+00  0.0000E+00  0.0000E+00  0.0000E+00
 92  0.0000E+00  1.9851E-03  1.9833E-03  2.4448E-03  0.0000E+00  0.0000E+00  0.0000E+00  0.0000E+00  0.0000E+00
 93  0.0000E+00  4.2414E-03  0.0000E+00  0.0000E+00  0.0000E+00  0.0000E+00  0.0000E+00  0.0000E+00  0.0000E+00
 94  0.0000E+00  1.0807E-02  0.0000E+00  0.0000E+00  0.0000E+00  0.0000E+00  0.0000E+00  1.1893E-02  0.0000E+00
 95  0.0000E+00  1.2542E-02  0.0000E+00  0.0000E+00  0.0000E+00  0.0000E+00  0.0000E+00  0.0000E+00  0.0000E+00
 96  0.0000E+00  1.4816E-02  0.0000E+00  0.0000E+00  0.0000E+00  0.0000E+00  0.0000E+00  0.0000E+00  0.0000E+00
 97  0.0000E+00  1.4795E-02  0.0000E+00  0.0000E+00  0.0000E+00  0.0000E+00  0.0000E+00  0.0000E+00  0.0000E+00
 98  0.0000E+00  1.5856E-02  0.0000E+00  0.0000E+00  0.0000E+00  0.0000E+00  0.0000E+00  0.0000E+00  0.0000E+00
 99  0.0000E+00  1.9694E-02  0.0000E+00  0.0000E+00  0.0000E+00  0.0000E+00  0.0000E+00  1.7444E-02  0.0000E+00
100  0.0000E+00  2.8847E-02  0.0000E+00  0.0000E+00  0.0000E+00  0.0000E+00  0.0000E+00  0.0000E+00  0.0000E+00
101  0.0000E+00  4.1500E-05  1.2116E-04  0.0000E+00  0.0000E+00  0.0000E+00  0.0000E+00  0.0000E+00  0.0000E+00
102  0.0000E+00  3.4346E-05  4.7471E-05  0.0000E+00  0.0000E+00  0.0000E+00  0.0000E+00  0.0000E+00  1.1417E-04
103  0.0000E+00  1.0638E-04  0.0000E+00  0.0000E+00  2.1270E-04  0.0000E+00  0.0000E+00  3.6198E-04  0.0000E+00
104  0.0000E+00  1.1646E-04  0.0000E+00  0.0000E+00  0.0000E+00  3.8173E-05  7.0277E-04  0.0000E+00  0.0000E+00
105  0.0000E+00  1.5070E-04  0.0000E+00  0.0000E+00  0.0000E+00  0.0000E+00  5.0427E-05  5.7494E-05  3.5490E-04
106  0.0000E+00  1.6441E-04  1.5300E-04  0.0000E+00  0.0000E+00  0.0000E+00  0.0000E+00  0.0000E+00  1.6545E-03
107  0.0000E+00  2.3872E-04  0.0000E+00  0.0000E+00  0.0000E+00  5.0399E-05  0.0000E+00  0.0000E+00  0.0000E+00
108  0.0000E+00  2.1688E-04  0.0000E+00  0.0000E+00  0.0000E+00  0.0000E+00  0.0000E+00  0.0000E+00  9.4801E-04
109  0.0000E+00  2.3980E-04  0.0000E+00  0.0000E+00  0.0000E+00  0.0000E+00  0.0000E+00  0.0000E+00  0.0000E+00
110  0.0000E+00  3.0826E-04  0.0000E+00  3.3874E-03  0.0000E+00  0.0000E+00  0.0000E+00  0.0000E+00  0.0000E+00
111  0.0000E+00  4.4658E-04  0.0000E+00  0.0000E+00  0.0000E+00  0.0000E+00  0.0000E+00  3.7073E-04  0.0000E+00
112  0.0000E+00  5.4691E-04  0.0000E+00  2.9809E-05  0.0000E+00  0.0000E+00  0.0000E+00  0.0000E+00  0.0000E+00
113  0.0000E+00  6.5838E-04  0.0000E+00  0.0000E+00  0.0000E+00  0.0000E+00  0.0000E+00  8.8943E-03  0.0000E+00
114  0.0000E+00  9.7658E-04  0.0000E+00  0.0000E+00  0.0000E+00  0.0000E+00  0.0000E+00  0.0000E+00  0.0000E+00
115  0.0000E+00  1.6089E-03  0.0000E+00  0.0000E+00  0.0000E+00  0.0000E+00  0.0000E+00  0.0000E+00  0.0000E+00
116  0.0000E+00  2.7284E-03  1.1708E-02  0.0000E+00  0.0000E+00  0.0000E+00  8.5732E-03  2.3239E-03  0.0000E+00
117  0.0000E+00  4.2828E-03  0.0000E+00  0.0000E+00  1.8704E-02  0.0000E+00  0.0000E+00  0.0000E+00  0.0000E+00
118  0.0000E+00  7.6190E-03  0.0000E+00  0.0000E+00  0.0000E+00  0.0000E+00  0.0000E+00  0.0000E+00  0.0000E+00
119  0.0000E+00  9.9271E-03  0.0000E+00  0.0000E+00  0.0000E+00  0.0000E+00  0.0000E+00  0.0000E+00  0.0000E+00
120  0.0000E+00  1.0269E-02  0.0000E+00  0.0000E+00  0.0000E+00  0.0000E+00  0.0000E+00  5.9701E-03  0.0000E+00
121  0.0000E+00  1.6274E-02  1.4238E-02  0.0000E+00  0.0000E+00  0.0000E+00  0.0000E+00  0.0000E+00  0.0000E+00
122  0.0000E+00  1.4696E-02  0.0000E+00  0.0000E+00  0.0000E+00  0.0000E+00  0.0000E+00  0.0000E+00  0.0000E+00
123  0.0000E+00  2.1083E-02  0.0000E+00  0.0000E+00  0.0000E+00  0.0000E+00  0.0000E+00  0.0000E+00  0.0000E+00
124  0.0000E+00  1.6204E-02  0.0000E+00  0.0000E+00  0.0000E+00  0.0000E+00  0.0000E+00  0.0000E+00  0.0000E+00
125  0.0000E+00  2.0184E-02  0.0000E+00  0.0000E+00  0.0000E+00  0.0000E+00  0.0000E+00  3.0418E-01  0.0000E+00
126  0.0000E+00  4.4114E-05  0.0000E+00  0.0000E+00  3.7312E-05  0.0000E+00  0.0000E+00  0.0000E+00  0.0000E+00
127  0.0000E+00  6.8504E-05  0.0000E+00  0.0000E+00  2.9448E-04  0.0000E+00  0.0000E+00  7.7550E-05  0.0000E+00
128  0.0000E+00  1.4619E-04  2.4056E-04  0.0000E+00  0.0000E+00  0.0000E+00  0.0000E+00  2.0292E-04  0.0000E+00
129  0.0000E+00  6.4234E-04  1.3642E-03  6.2725E-04  8.8329E-04  6.9458E-04  9.0990E-04  0.0000E+00  8.7734E-04
130  0.0000E+00  1.8205E-04  0.0000E+00  8.8778E-04  0.0000E+00  7.8378E-04  0.0000E+00  0.0000E+00  2.8418E-04
131  0.0000E+00  1.1966E-04  1.2682E-03  0.0000E+00  0.0000E+00  3.1681E-04  0.0000E+00  0.0000E+00  0.0000E+00
132  0.0000E+00  1.3154E-04  0.0000E+00  0.0000E+00  0.0000E+00  3.3765E-04  0.0000E+00  0.0000E+00  0.0000E+00
133  0.0000E+00  1.6289E-04  0.0000E+00  0.0000E+00  0.0000E+00  0.0000E+00  1.2274E-04  0.0000E+00  0.0000E+00
134  0.0000E+00  2.1133E-04  0.0000E+00  0.0000E+00  0.0000E+00  0.0000E+00  0.0000E+00  0.0000E+00  0.0000E+00
135  0.0000E+00  2.6773E-04  0.0000E+00  0.0000E+00  0.0000E+00  0.0000E+00  0.0000E+00  0.0000E+00  0.0000E+00
136  0.0000E+00  7.0279E-04  0.0000E+00  5.3732E-03  6.5003E-04  0.0000E+00  0.0000E+00  2.4084E-04  0.0000E+00
137  0.0000E+00  4.4810E-04  7.5328E-03  0.0000E+00  0.0000E+00  0.0000E+00  7.1756E-04  2.1128E-03  0.0000E+00
138  0.0000E+00  5.8068E-04  4.5576E-04  0.0000E+00  0.0000E+00  0.0000E+00  0.0000E+00  2.5842E-03  0.0000E+00
139  0.0000E+00  1.1726E-03  0.0000E+00  0.0000E+00  0.0000E+00  0.0000E+00  0.0000E+00  0.0000E+00  7.8147E-03
140  0.0000E+00  3.5468E-03  0.0000E+00  0.0000E+00  0.0000E+00  0.0000E+00  0.0000E+00  6.5475E-03  0.0000E+00
141  0.0000E+00  5.0627E-03  0.0000E+00  0.0000E+00  0.0000E+00  0.0000E+00  0.0000E+00  0.0000E+00  0.0000E+00
142  0.0000E+00  8.0471E-03  3.0289E-03  1.3888E-02  0.0000E+00  0.0000E+00  0.0000E+00  0.0000E+00  0.0000E+00
143  0.0000E+00  1.3443E-02  0.0000E+00  0.0000E+00  0.0000E+00  0.0000E+00  0.0000E+00  0.0000E+00  0.0000E+00
144  0.0000E+00  6.8009E-02  0.0000E+00  0.0000E+00  1.2074E-01  0.0000E+00  0.0000E+00  0.0000E+00  5.5082E-01
145  0.0000E+00  2.0727E-01  5.5321E-02  3.9207E-01  6.0628E-01  3.8622E-01  4.0347E-01  0.0000E+00  5.7868E-01
146  0.0000E+00  2.4168E-01  0.0000E+00  0.0000E+00  0.0000E+00  6.5298E-01  4.3703E-01  0.0000E+00  0.0000E+00
147  0.0000E+00  8.2564E-01  7.6096E-01  0.0000E+00  7.8794E-01  1.1752E+00  4.0244E-01  1.0437E+00  1.3911E+00
148  0.0000E+00  1.5156E+00  1.6975E+00  2.1891E+00  1.2848E+00  1.5497E+00  1.4104E+00  1.6569E+00  1.4473E+00
149  9.9759E+00  7.9922E+00  8.5297E+00  8.5107E+00  8.6455E+00  7.8535E+00  7.9824E+00  8.3830E+00  8.5019E+00
150  3.3680E+01  2.7685E+01  2.8145E+01  2.7669E+01  2.8646E+01  2.6676E+01  2.8644E+01  2.7962E+01  2.6438E+01

# AV, chi2 & Mass for <> & i_chain = 1 ...  7 solutions
AV       1.2025      1.1745      1.1777      1.1816      1.1786      1.1786      1.1786      1.1810      1.1819
chi2 2.4583E+00  2.5564E+00  2.5323E+00  2.5371E+00  2.5206E+00  2.5316E+00  2.5352E+00  2.5358E+00  2.5224E+00
Mass 1.4851E-09  1.4614E-09  1.4498E-09  1.4711E-09  1.4636E-09  1.4756E-09  1.4679E-09  1.4644E-09  1.4409E-09
  -9.57                                  [v0_min (km/s) before EX0s...]
  20.92                                  [vd_min (km/s) before EX0s...]


## Synthetic spectrum (Best Model) ##l_obs f_obs f_syn wei
 3070    [Nl_obs]
 3359.00    0.00000   0.36108   -2.000
 3360.00    0.15197   0.34558   -1.000
 3361.00    0.22526   0.35899   -1.000
 3362.00    0.23290   0.38424   -1.000
 3363.00    0.24274   0.41494   -1.000
 3364.00    0.26546   0.43307   -1.000
 3365.00    0.27399   0.42885   -1.000
 3366.00    0.26498   0.42207   -1.000
 3367.00    0.25983   0.41784   -1.000
 3368.00    0.26247   0.41035   -1.000
 3369.00    0.25948   0.40072   -1.000
 3370.00    0.25677   0.37734   -1.000
 3371.00    0.25764   0.36213   -1.000
 3372.00    0.25397   0.36608   -1.000
 3373.00    0.25291   0.38655   -1.000
 3374.00    0.27073   0.41145   -1.000
 3375.00    0.28310   0.43448   -1.000
 3376.00    0.29084   0.44292   -1.000
 3377.00    0.29989   0.43832   -1.000
 3378.00    0.30175   0.42566   -1.000
 3379.00    0.29689   0.41732   -1.000
 3380.00    0.29667   0.42048   -1.000
 3381.00    0.29057   0.42701   -1.000
 3382.00    0.29599   0.43203   -1.000
 3383.00    0.30702   0.43556   -1.000
 3384.00    0.30888   0.44001   -1.000
 3385.00    0.30839   0.44577   -1.000
 3386.00    0.32150   0.43856   -1.000
 3387.00    0.32733   0.42360   -1.000
 3388.00    0.33079   0.41566   -1.000
 3389.00    0.33210   0.42567   -1.000
 3390.00    0.33764   0.44031   -1.000
 3391.00    0.34709   0.44995   -1.000
 3392.00    0.34698   0.44229   -1.000
 3393.00    0.34461   0.43313   -1.000
 3394.00    0.34954   0.43670   -1.000
 3395.00    0.35661   0.44744   -1.000
 3396.00    0.36481   0.46310   -1.000
 3397.00    0.36984   0.47441   -1.000
 3398.00    0.38154   0.48394   -1.000
 3399.00    0.38946   0.48773   28.754
 3400.00    0.39073   0.48367   28.171
 3401.00    0.39842   0.47260   28.245
 3402.00    0.40319   0.45210   29.198
 3403.00    0.39350   0.44252   29.796
 3404.00    0.38708   0.43736   30.250
 3405.00    0.38737   0.44434   30.799
 3406.00    0.38634   0.44723   31.318
 3407.00    0.39048   0.44186   31.568
 3408.00    0.39694   0.43303   31.967
 3409.00    0.38968   0.43413   32.243
 3410.00    0.38938   0.44619   32.149
 3411.00    0.38662   0.44542   31.391
 3412.00    0.39674   0.43809   30.936
 3413.00    0.40041   0.42670   31.810
 3414.00    0.40027   0.42662   32.642
 3415.00    0.39763   0.44222   32.759
 3416.00    0.39820   0.45817   32.151
 3417.00    0.40977   0.46796   30.928
 3418.00    0.41510   0.47435   29.498
 3419.00    0.41606   0.47912   28.033
 3420.00    0.42164   0.48387   27.537
 3421.00    0.42474   0.48192   27.376
 3422.00    0.42584   0.46527   27.438
 3423.00    0.43375   0.44655   28.057
 3424.00    0.43533   0.44136   28.753
 3425.00    0.43601   0.44819   28.353
 3426.00    0.43941   0.45725   27.578
 3427.00    0.44077   0.46975   27.260
 3428.00    0.45388   0.48730   71.885
 3429.00    0.46238   0.50227   -1.000
 3430.00    0.46362   0.50654   -1.000
 3431.00    0.46121   0.48817   -1.000
 3432.00    0.45489   0.46817  243.119
 3433.00    0.44866   0.46150   37.790
 3434.00    0.45031   0.47566   27.200
 3435.00    0.46052   0.49417   71.549
 3436.00    0.46430   0.49605   -1.000
 3437.00    0.45698   0.48295   37.523
 3438.00    0.44826   0.46706   28.012
 3439.00    0.43868   0.45221   29.589
 3440.00    0.42957   0.43831   31.770
 3441.00    0.41652   0.42351   33.441
 3442.00    0.41503   0.41600   33.880
 3443.00    0.42430   0.41751   33.791
 3444.00    0.42433   0.42624   32.797
 3445.00    0.43681   0.43953   31.138
 3446.00    0.44590   0.46067   29.418
 3447.00    0.46190   0.48446   28.217
 3448.00    0.47969   0.50137   72.921
 3449.00    0.48602   0.50727   -1.000
 3450.00    0.49214   0.49320  243.119
 3451.00    0.49480   0.47091   -1.000
 3452.00    0.48515   0.45593   -1.000
 3453.00    0.46650   0.45530   -1.000
 3454.00    0.47374   0.46385   -1.000
 3455.00    0.48935   0.47428   -1.000
 3456.00    0.48990   0.47775   -1.000
 3457.00    0.48460   0.47536   -1.000
 3458.00    0.47412   0.46890   -1.000
 3459.00    0.46967   0.45988   37.703
 3460.00    0.46917   0.44835   27.472
 3461.00    0.47877   0.44408   27.457
 3462.00    0.48405   0.45454   71.643
 3463.00    0.49229   0.46445   -1.000
 3464.00    0.49718   0.46896   -1.000
 3465.00    0.49972   0.46331   -1.000
 3466.00    0.48463   0.46470   -1.000
 3467.00    0.47783   0.47740  243.119
 3468.00    0.49098   0.49404  239.476
 3469.00    0.50149   0.50686  233.165
 3470.00    0.50322   0.51044  230.499
 3471.00    0.50276   0.50396  231.531
 3472.00    0.49744   0.49278  237.699
 3473.00    0.49118   0.47103   -1.000
 3474.00    0.48049   0.45238   -1.000
 3475.00    0.46657   0.44484   38.070
 3476.00    0.45976   0.44886   28.152
 3477.00    0.46329   0.46718   28.039
 3478.00    0.47980   0.48409   72.000
 3479.00    0.50387   0.49553   -1.000
 3480.00    0.51693   0.50535   -1.000
 3481.00    0.51675   0.50664   -1.000
 3482.00    0.51195   0.50189   -1.000
 3483.00    0.51125   0.49664   -1.000
 3484.00    0.51203   0.49427   -1.000
 3485.00    0.52159   0.50099   -1.000
 3486.00    0.52699   0.51018   -1.000
 3487.00    0.52809   0.51009   -1.000
 3488.00    0.51984   0.50121   -1.000
 3489.00    0.50779   0.48549   -1.000
 3490.00    0.49402   0.47333   -1.000
 3491.00    0.48656   0.47691   -1.000
 3492.00    0.48243   0.48880  243.119
 3493.00    0.49145   0.49228  243.119
 3494.00    0.49417   0.48808   -1.000
 3495.00    0.48449   0.47849   -1.000
 3496.00    0.48431   0.47012   -1.000
 3497.00    0.48544   0.47282   -1.000
 3498.00    0.49671   0.47601   -1.000
 3499.00    0.51523   0.48233   -1.000
 3500.00    0.52104   0.48422   -1.000
 3501.00    0.52216   0.48422   -1.000
 3502.00    0.52637   0.49117   -1.000
 3503.00    0.53489   0.49621   -1.000
 3504.00    0.53194   0.49683   -1.000
 3505.00    0.51803   0.48913   -1.000
 3506.00    0.51644   0.48022   -1.000
 3507.00    0.52472   0.47540   -1.000
 3508.00    0.52024   0.47349   -1.000
 3509.00    0.51731   0.47814   -1.000
 3510.00    0.51166   0.47990   -1.000
 3511.00    0.50889   0.47815   -1.000
 3512.00    0.50780   0.47117   -1.000
 3513.00    0.50380   0.46395   -1.000
 3514.00    0.49560   0.46558   -1.000
 3515.00    0.50514   0.47768   -1.000
 3516.00    0.51601   0.50171   -1.000
 3517.00    0.52748   0.52007  222.778
 3518.00    0.52930   0.52138  216.294
 3519.00    0.52118   0.50390   -1.000
 3520.00    0.51601   0.48668   -1.000
 3521.00    0.50744   0.47677   -1.000
 3522.00    0.49665   0.47080   -1.000
 3523.00    0.48863   0.46418   -1.000
 3524.00    0.48031   0.45264   37.978
 3525.00    0.46927   0.44536   27.873
 3526.00    0.46751   0.45312   28.058
 3527.00    0.48307   0.46737   71.815
 3528.00    0.49969   0.48519   -1.000
 3529.00    0.50875   0.50094   -1.000
 3530.00    0.52056   0.51105   -1.000
 3531.00    0.52575   0.51645   -1.000
 3532.00    0.52620   0.50869   -1.000
 3533.00    0.52652   0.48800   -1.000
 3534.00    0.52469   0.47522   -1.000
 3535.00    0.52370   0.47664   -1.000
 3536.00    0.53160   0.49755   -1.000
 3537.00    0.53818   0.52139   -1.000
 3538.00    0.54372   0.53345   -1.000
 3539.00    0.54640   0.53824  214.521
 3540.00    0.54258   0.53520  214.955
 3541.00    0.53646   0.53078  218.389
 3542.00    0.53599   0.53046  220.988
 3543.00    0.54021   0.53788  220.579
 3544.00    0.54416   0.54364  217.803
 3545.00    0.54374   0.54127  216.319
 3546.00    0.53747   0.53602  218.899
 3547.00    0.53366   0.52996  223.663
 3548.00    0.53157   0.52741  225.867
 3549.00    0.52589   0.53059  225.785
 3550.00    0.52807   0.53824  224.517
 3551.00    0.53022   0.54462  226.150
 3552.00    0.52733   0.53921  232.010
 3553.00    0.52095   0.52467  238.927
 3554.00    0.51743   0.51478  243.119
 3555.00    0.51972   0.51700  243.119
 3556.00    0.51831   0.52637  238.791
 3557.00    0.52261   0.53898  237.827
 3558.00    0.52279   0.54621   -1.000
 3559.00    0.51600   0.54634   -1.000
 3560.00    0.51728   0.54524   -1.000
 3561.00    0.52303   0.54486   -1.000
 3562.00    0.52680   0.54064  236.998
 3563.00    0.52218   0.52848  237.088
 3564.00    0.51148   0.51048  243.119
 3565.00    0.49408   0.49223   38.460
 3566.00    0.48345   0.48344   28.242
 3567.00    0.48805   0.48400   28.378
 3568.00    0.48636   0.48606   28.162
 3569.00    0.47836   0.48358   28.769
 3570.00    0.47474   0.47316   29.448
 3571.00    0.47696   0.46511   28.970
 3572.00    0.48698   0.46529   27.785
 3573.00    0.49707   0.46952   69.980
 3574.00    0.49744   0.47626   -1.000
 3575.00    0.49942   0.48577   -1.000
 3576.00    0.50776   0.49392   -1.000
 3577.00    0.50918   0.49997   -1.000
 3578.00    0.50538   0.50339  243.119
 3579.00    0.49041   0.49697   39.852
 3580.00    0.47008   0.48425   29.912
 3581.00    0.45982   0.47164   31.801
 3582.00    0.46103   0.46422   32.488
 3583.00    0.46222   0.46543   32.640
 3584.00    0.45716   0.46267   33.247
 3585.00    0.45201   0.44893   34.267
 3586.00    0.44527   0.43181   34.957
 3587.00    0.44276   0.42625   33.870
 3588.00    0.44911   0.43891   32.083
 3589.00    0.46936   0.46486   30.484
 3590.00    0.49121   0.48858   28.122
 3591.00    0.50958   0.50124   68.974
 3592.00    0.52249   0.50288   -1.000
 3593.00    0.52598   0.50262   -1.000
 3594.00    0.52785   0.50808   -1.000
 3595.00    0.52969   0.52063  233.044
 3596.00    0.54173   0.53205  222.856
 3597.00    0.55537   0.53793   -1.000
 3598.00    0.55905   0.53973   -1.000
 3599.00    0.55887   0.53979   -1.000
 3600.00    0.55696   0.53619   -1.000
 3601.00    0.54877   0.52265   -1.000
 3602.00    0.54015   0.51024   -1.000
 3603.00    0.53259   0.50460   -1.000
 3604.00    0.51925   0.50994   -1.000
 3605.00    0.52275   0.51552  243.119
 3606.00    0.52720   0.51249   -1.000
 3607.00    0.52068   0.50548   -1.000
 3608.00    0.50476   0.49813  243.119
 3609.00    0.49480   0.49556  243.119
 3610.00    0.49914   0.49591  243.119
 3611.00    0.50978   0.50027   -1.000
 3612.00    0.51700   0.50869   -1.000
 3613.00    0.52493   0.51692  236.119
 3614.00    0.53520   0.52834  231.442
 3615.00    0.54206   0.54375  224.287
 3616.00    0.53496   0.54395  222.030
 3617.00    0.52121   0.53148  235.136
 3618.00    0.50693   0.51260  243.119
 3619.00    0.49516   0.50026   38.223
 3620.00    0.50417   0.50784   68.179
 3621.00    0.52680   0.52315  238.608
 3622.00    0.54774   0.53547   -1.000
 3623.00    0.55562   0.54386   -1.000
 3624.00    0.55736   0.55217  211.704
 3625.00    0.56347   0.56775  205.463
 3626.00    0.57423   0.58807  197.102
 3627.00    0.57720   0.60348   -1.000
 3628.00    0.57720   0.59561   -1.000
 3629.00    0.56287   0.56785  203.322
 3630.00    0.53665   0.53099  223.757
 3631.00    0.50842   0.51026  243.119
 3632.00    0.49771   0.51385   -1.000
 3633.00    0.50954   0.53110   -1.000
 3634.00    0.52285   0.54283   -1.000
 3635.00    0.53672   0.54261  234.110
 3636.00    0.54647   0.54423  226.377
 3637.00    0.55142   0.55607  216.332
 3638.00    0.56580   0.56994  206.427
 3639.00    0.57427   0.57806  198.771
 3640.00    0.57418   0.57942  196.522
 3641.00    0.56832   0.57301  199.859
 3642.00    0.55479   0.56072  206.103
 3643.00    0.53377   0.54922   -1.000
 3644.00    0.52934   0.54083  224.076
 3645.00    0.53389   0.53563  228.745
 3646.00    0.53316   0.53208  232.356
 3647.00    0.52734   0.53039  236.403
 3648.00    0.52745   0.53012  237.917
 3649.00    0.53571   0.53001  233.474
 3650.00    0.53984   0.53294  224.932
 3651.00    0.55117   0.54034  214.548
 3652.00    0.56827   0.55421   -1.000
 3653.00    0.57725   0.56775  198.952
 3654.00    0.58031   0.58111  195.539
 3655.00    0.57700   0.59417   -1.000
 3656.00    0.58096   0.60337   -1.000
 3657.00    0.59094   0.60707   -1.000
 3658.00    0.59129   0.60572  187.565
 3659.00    0.59544   0.60370  186.685
 3660.00    0.60252   0.60009  186.758
 3661.00    0.59659   0.59204  188.172
 3662.00    0.57972   0.58297  190.229
 3663.00    0.57540   0.57761  193.111
 3664.00    0.58816   0.58024  195.181
 3665.00    0.58856   0.58638  193.995
 3666.00    0.58347   0.58929  193.310
 3667.00    0.57707   0.58796  196.159
 3668.00    0.57167   0.58022  198.979
 3669.00    0.57504   0.57174  203.032
 3670.00    0.57736   0.56956  203.744
 3671.00    0.58174   0.57531  197.973
 3672.00    0.58745   0.58565  192.869
 3673.00    0.58986   0.59241  191.205
 3674.00    0.59056   0.59129  190.982
 3675.00    0.58440   0.58461  191.273
 3676.00    0.57476   0.57162  195.457
 3677.00    0.57440   0.55596   -1.000
 3678.00    0.56657   0.54482   -1.000
 3679.00    0.55594   0.54489  213.375
 3680.00    0.55740   0.55103  214.683
 3681.00    0.56262   0.55630  210.575
 3682.00    0.56872   0.56085  204.620
 3683.00    0.57307   0.56148  201.451
 3684.00    0.57247   0.55996  204.218
 3685.00    0.56922   0.55364   -1.000
 3686.00    0.55883   0.54809  220.320
 3687.00    0.55152   0.55109  225.920
 3688.00    0.55616   0.56535  222.761
 3689.00    0.56612   0.58465   -1.000
 3690.00    0.57793   0.59496  196.474
 3691.00    0.59340   0.59738  188.321
 3692.00    0.60132   0.59542  187.525
 3693.00    0.60369   0.59365  191.583
 3694.00    0.60070   0.59486  195.104
 3695.00    0.59153   0.59733  195.341
 3696.00    0.59266   0.59404  193.852
 3697.00    0.59810   0.59031  191.674
 3698.00    0.60929   0.59982  186.585
 3699.00    0.62522   0.61815  181.384
 3700.00    0.63440   0.63608  178.284
 3701.00    0.63163   0.63025  179.855
 3702.00    0.60984   0.59928  186.614
 3703.00    0.58072   0.55872   -1.000
 3704.00    0.55130   0.52845   -1.000
 3705.00    0.53154   0.51926   -1.000
 3706.00    0.53457   0.52745  238.089
 3707.00    0.55864   0.54250   -1.000
 3708.00    0.56966   0.55646   -1.000
 3709.00    0.56380   0.55783  223.490
 3710.00    0.56393   0.54720   -1.000
 3711.00    0.57158   0.53874   -1.000
 3712.00    0.59481   0.54485   -1.000
 3713.00    0.61368   0.57060   -1.000
 3714.00    0.63182   0.60391   -1.000
 3715.00    0.65598   0.63052   -1.000
 3716.00    0.66497   0.64255   -1.000
 3717.00    0.64631   0.63904  186.189
 3718.00    0.61103   0.61498  200.854
 3719.00    0.56272   0.57007  227.036
 3720.00    0.51725   0.51072   -1.000
 3721.00    0.49812   0.47403   39.437
 3722.00    0.50985   0.47813   68.085
 3723.00    0.54433   0.51628   -1.000
 3724.00    0.58487   0.56985   -1.000
 3725.00    0.61974   0.60902  198.952
 3726.00    0.63326   0.62356  197.382
 3727.00    0.63480   0.62715  202.330
 3728.00    0.63550   0.63050  205.663
 3729.00    0.64372   0.63469  203.834
 3730.00    0.63887   0.63111  204.137
 3731.00    0.61452   0.60424   -1.000
 3732.00    0.57146   0.54593   -1.000
 3733.00    0.51367   0.48664   38.569
 3734.00    0.47152   0.44542   29.219
 3735.00    0.46161   0.43847   31.145
 3736.00    0.48039   0.46814   30.444
 3737.00    0.52105   0.52094   27.978
 3738.00    0.57172   0.57274   65.928
 3739.00    0.62161   0.62181  222.802
 3740.00    0.65501   0.65154  206.919
 3741.00    0.66318   0.65743  202.287
 3742.00    0.65552   0.64173   -1.000
 3743.00    0.63958   0.62173   -1.000
 3744.00    0.61780   0.60082   -1.000
 3745.00    0.59415   0.58037   -1.000
 3746.00    0.56921   0.55933   -1.000
 3747.00    0.54143   0.52844   39.351
 3748.00    0.50669   0.49456   28.663
 3749.00    0.47836   0.46536   29.491
 3750.00    0.48597   0.46006   72.117
 3751.00    0.52678   0.49357   -1.000
 3752.00    0.57891   0.55036   -1.000
 3753.00    0.63391   0.60762   -1.000
 3754.00    0.67299   0.64888   -1.000
 3755.00    0.69091   0.66940   -1.000
 3756.00    0.69314   0.66739   -1.000
 3757.00    0.66969   0.64575   -1.000
 3758.00    0.63991   0.62422   -1.000
 3759.00    0.63060   0.61466   -1.000
 3760.00    0.64295   0.61728   -1.000
 3761.00    0.66216   0.63232   -1.000
 3762.00    0.67823   0.64467   -1.000
 3763.00    0.67842   0.64850   -1.000
 3764.00    0.67398   0.64411   -1.000
 3765.00    0.67170   0.63369   -1.000
 3766.00    0.64993   0.61842   -1.000
 3767.00    0.62790   0.59408   -1.000
 3768.00    0.60301   0.55792   -1.000
 3769.00    0.58146   0.52177   -1.000
 3770.00    0.56855   0.50077   -1.000
 3771.00    0.57829   0.51321   -1.000
 3772.00    0.60014   0.55166   -1.000
 3773.00    0.62624   0.60031   -1.000
 3774.00    0.66136   0.63482   -1.000
 3775.00    0.68835   0.65064   -1.000
 3776.00    0.70832   0.65938   -1.000
 3777.00    0.72247   0.67454   -1.000
 3778.00    0.73771   0.69837   -1.000
 3779.00    0.75522   0.72268   -1.000
 3780.00    0.76813   0.74211   -1.000
 3781.00    0.78226   0.74961   -1.000
 3782.00    0.79316   0.74765   -1.000
 3783.00    0.78985   0.74035   -1.000
 3784.00    0.77913   0.73189   -1.000
 3785.00    0.76983   0.71885   -1.000
 3786.00    0.75353   0.70335   -1.000
 3787.00    0.72828   0.68630   -1.000
 3788.00    0.71021   0.67473   -1.000
 3789.00    0.70407   0.67299   -1.000
 3790.00    0.70266   0.67522   -1.000
 3791.00    0.69740   0.67409   -1.000
 3792.00    0.68362   0.66525   -1.000
 3793.00    0.66169   0.64255   -1.000
 3794.00    0.63127   0.60858   -1.000
 3795.00    0.60040   0.56678   -1.000
 3796.00    0.56369   0.52401   -1.000
 3797.00    0.52449   0.48734   -1.000
 3798.00    0.51223   0.47482   -1.000
 3799.00    0.54013   0.49989   -1.000
 3800.00    0.58721   0.56289   -1.000
 3801.00    0.63448   0.62565  210.789
 3802.00    0.67464   0.67378  199.124
 3803.00    0.70670   0.69745  193.378
 3804.00    0.72448   0.70725   -1.000
 3805.00    0.72665   0.70772   -1.000
 3806.00    0.72508   0.70687   -1.000
 3807.00    0.73480   0.71317   -1.000
 3808.00    0.75353   0.72873   -1.000
 3809.00    0.77072   0.74800   -1.000
 3810.00    0.78382   0.76206   -1.000
 3811.00    0.78161   0.75897   -1.000
 3812.00    0.76385   0.73480   -1.000
 3813.00    0.74664   0.70701   -1.000
 3814.00    0.73327   0.68702   -1.000
 3815.00    0.71509   0.68623   -1.000
 3816.00    0.71686   0.70030   -1.000
 3817.00    0.73183   0.71740   -1.000
 3818.00    0.73444   0.72049   -1.000
 3819.00    0.71585   0.70359   -1.000
 3820.00    0.69669   0.68549   -1.000
 3821.00    0.69851   0.67926   -1.000
 3822.00    0.70605   0.68854   -1.000
 3823.00    0.69799   0.69004  243.119
 3824.00    0.68006   0.67020   -1.000
 3825.00    0.65216   0.64786   41.022
 3826.00    0.63566   0.63286   28.822
 3827.00    0.62838   0.62289   28.854
 3828.00    0.62458   0.61515   28.451
 3829.00    0.61970   0.60645   27.984
 3830.00    0.60680   0.59421   28.066
 3831.00    0.57329   0.57189   29.044
 3832.00    0.53162   0.53567   31.046
 3833.00    0.49566   0.48713   32.527
 3834.00    0.47644   0.44699   32.402
 3835.00    0.47591   0.43347   31.288
 3836.00    0.47820   0.44562   30.409
 3837.00    0.49141   0.47622   30.627
 3838.00    0.51313   0.51305   31.354
 3839.00    0.54269   0.54808   31.223
 3840.00    0.57939   0.58060   29.811
 3841.00    0.62171   0.61698   70.015
 3842.00    0.66585   0.65391   -1.000
 3843.00    0.70456   0.69047   -1.000
 3844.00    0.72124   0.71604  221.684
 3845.00    0.73229   0.72985  220.400
 3846.00    0.74761   0.74135  220.344
 3847.00    0.75567   0.75159  220.582
 3848.00    0.75200   0.75528  224.319
 3849.00    0.75108   0.74988  232.100
 3850.00    0.75078   0.74545  237.602
 3851.00    0.75594   0.75557  235.005
 3852.00    0.76594   0.77388  228.911
 3853.00    0.77005   0.78790   -1.000
 3854.00    0.76411   0.78570   -1.000
 3855.00    0.75894   0.77335   -1.000
 3856.00    0.75046   0.75853  243.119
 3857.00    0.73287   0.74645   -1.000
 3858.00    0.71582   0.73469   38.990
 3859.00    0.70221   0.73072   28.021
 3860.00    0.70610   0.73810   28.186
 3861.00    0.73476   0.75636   66.605
 3862.00    0.76744   0.77508  232.966
 3863.00    0.78710   0.78572  218.162
 3864.00    0.79133   0.78526  215.962
 3865.00    0.78577   0.78144  219.431
 3866.00    0.78283   0.78213  223.126
 3867.00    0.78434   0.78671  227.152
 3868.00    0.77589   0.79172   -1.000
 3869.00    0.75882   0.78919   -1.000
 3870.00    0.73750   0.77568   -1.000
 3871.00    0.72082   0.75683   39.643
 3872.00    0.71256   0.73630   65.709
 3873.00    0.72470   0.72753  243.119
 3874.00    0.74673   0.73227   -1.000
 3875.00    0.76132   0.74234   -1.000
 3876.00    0.75586   0.73897   -1.000
 3877.00    0.73234   0.72081   -1.000
 3878.00    0.70449   0.70200  243.119
 3879.00    0.69075   0.69597  243.119
 3880.00    0.68367   0.70449   -1.000
 3881.00    0.67448   0.70755   -1.000
 3882.00    0.66289   0.69733   -1.000
 3883.00    0.65972   0.68203   -1.000
 3884.00    0.65985   0.66079  220.273
 3885.00    0.64482   0.62422   -1.000
 3886.00    0.61184   0.57492   -1.000
 3887.00    0.56775   0.52101   -1.000
 3888.00    0.53575   0.48758   -1.000
 3889.00    0.53864   0.48853   -1.000
 3890.00    0.57333   0.52593   -1.000
 3891.00    0.63382   0.58137   -1.000
 3892.00    0.68569   0.63233   -1.000
 3893.00    0.70190   0.65945   -1.000
 3894.00    0.71090   0.67127   -1.000
 3895.00    0.72717   0.68294   -1.000
 3896.00    0.74441   0.69769   -1.000
 3897.00    0.76288   0.71507   -1.000
 3898.00    0.77432   0.72765   -1.000
 3899.00    0.78192   0.73041   -1.000
 3900.00    0.79157   0.73619   -1.000
 3901.00    0.79582   0.74641   -1.000
 3902.00    0.79722   0.75100   -1.000
 3903.00    0.79819   0.75022   -1.000
 3904.00    0.79322   0.74284   -1.000
 3905.00    0.78389   0.74053   -1.000
 3906.00    0.78450   0.74746   -1.000
 3907.00    0.80897   0.76913   -1.000
 3908.00    0.83632   0.79735   -1.000
 3909.00    0.85583   0.82172   -1.000
 3910.00    0.86281   0.83325   -1.000
 3911.00    0.86333   0.83569   -1.000
 3912.00    0.85814   0.83374   -1.000
 3913.00    0.85179   0.82636   -1.000
 3914.00    0.84321   0.81344   -1.000
 3915.00    0.84666   0.80718   -1.000
 3916.00    0.85249   0.80737   -1.000
 3917.00    0.84088   0.80438   -1.000
 3918.00    0.83099   0.79611   -1.000
 3919.00    0.82354   0.78585   -1.000
 3920.00    0.81591   0.78034   -1.000
 3921.00    0.80280   0.77730   -1.000
 3922.00    0.79988   0.77919   -1.000
 3923.00    0.80515   0.78407   -1.000
 3924.00    0.80237   0.78461   -1.000
 3925.00    0.78743   0.77741  207.425
 3926.00    0.75579   0.75276  224.183
 3927.00    0.71472   0.71709  243.119
 3928.00    0.66256   0.67056   43.747
 3929.00    0.60754   0.61409   33.269
 3930.00    0.56163   0.54682   38.954
 3931.00    0.49704   0.45271   45.903
 3932.00    0.42469   0.35915   -1.000
 3933.00    0.37623   0.29761   -1.000
 3934.00    0.37605   0.30019   -1.000
 3935.00    0.42763   0.36557   -1.000
 3936.00    0.49965   0.46625   45.501
 3937.00    0.56673   0.55746   37.430
 3938.00    0.62768   0.64072   31.238
 3939.00    0.67957   0.69799   69.066
 3940.00    0.71531   0.73468   -1.000
 3941.00    0.73424   0.75607   -1.000
 3942.00    0.74340   0.76275   -1.000
 3943.00    0.74971   0.76284  230.785
 3944.00    0.76578   0.76791  222.940
 3945.00    0.78895   0.77900  205.324
 3946.00    0.81463   0.79455   -1.000
 3947.00    0.82530   0.80286   -1.000
 3948.00    0.82493   0.80073   -1.000
 3949.00    0.83570   0.79569   -1.000
 3950.00    0.84418   0.79263   -1.000
 3951.00    0.83524   0.79105   -1.000
 3952.00    0.83293   0.79193   -1.000
 3953.00    0.84960   0.80065   -1.000
 3954.00    0.85258   0.80581   -1.000
 3955.00    0.84277   0.80146   -1.000
 3956.00    0.82484   0.78972   -1.000
 3957.00    0.80752   0.77795   -1.000
 3958.00    0.80532   0.77653   -1.000
 3959.00    0.79712   0.77322   -1.000
 3960.00    0.77161   0.75104   -1.000
 3961.00    0.72650   0.71988  215.066
 3962.00    0.67874   0.68232  239.890
 3963.00    0.63832   0.64656  243.119
 3964.00    0.59033   0.60753   41.476
 3965.00    0.52827   0.53843   31.314
 3966.00    0.44741   0.45049   37.911
 3967.00    0.36407   0.35017   46.558
 3968.00    0.30960   0.28145   53.469
 3969.00    0.30299   0.26940   52.723
 3970.00    0.34189   0.32143   45.088
 3971.00    0.40680   0.40520   37.060
 3972.00    0.48329   0.50059   30.830
 3973.00    0.56167   0.57514   67.296
 3974.00    0.62860   0.63609  230.952
 3975.00    0.68337   0.68336  206.748
 3976.00    0.73011   0.72070  189.156
 3977.00    0.76898   0.75264   -1.000
 3978.00    0.80775   0.77895   -1.000
 3979.00    0.83549   0.80012   -1.000
 3980.00    0.85304   0.80873   -1.000
 3981.00    0.86475   0.80934   -1.000
 3982.00    0.86357   0.81160   -1.000
 3983.00    0.87074   0.81894   -1.000
 3984.00    0.88436   0.83348   -1.000
 3985.00    0.89552   0.84921   -1.000
 3986.00    0.90754   0.86072   -1.000
 3987.00    0.92225   0.87125   -1.000
 3988.00    0.93126   0.88048   -1.000
 3989.00    0.93897   0.88298   -1.000
 3990.00    0.94136   0.88533   -1.000
 3991.00    0.95264   0.89225   -1.000
 3992.00    0.95936   0.90298   -1.000
 3993.00    0.95776   0.91301   -1.000
 3994.00    0.95223   0.91332   -1.000
 3995.00    0.94127   0.90122   -1.000
 3996.00    0.92739   0.88150   -1.000
 3997.00    0.91535   0.87040   -1.000
 3998.00    0.91797   0.87459   -1.000
 3999.00    0.94390   0.89189   -1.000
 4000.00    0.96288   0.90746   -1.000
 4001.00    0.97397   0.91775   -1.000
 4002.00    0.98633   0.91946   -1.000
 4003.00    0.98629   0.91388   -1.000
 4004.00    0.96009   0.89883   -1.000
 4005.00    0.93035   0.88442   -1.000
 4006.00    0.93440   0.88568   -1.000
 4007.00    0.95430   0.90189   -1.000
 4008.00    0.97696   0.92398   -1.000
 4009.00    0.98871   0.93736   -1.000
 4010.00    0.99796   0.94228   -1.000
 4011.00    0.99549   0.94327   -1.000
 4012.00    0.98931   0.94184   -1.000
 4013.00    0.99026   0.94101   -1.000
 4014.00    0.99301   0.94427   -1.000
 4015.00    0.99640   0.95042   -1.000
 4016.00    0.99664   0.95568   -1.000
 4017.00    0.99311   0.95856   -1.000
 4018.00    0.99300   0.96316   -1.000
 4019.00    1.00304   0.96884   -1.000
 4020.00    1.00928   0.97231   -1.000
 4021.00    1.00695   0.96828   -1.000
 4022.00    1.00363   0.96051   -1.000
 4023.00    0.99497   0.95340   -1.000
 4024.00    0.98686   0.94893   -1.000
 4025.00    0.98336   0.95167   -1.000
 4026.00    1.00029   0.96358   -1.000
 4027.00    1.02237   0.97679   -1.000
 4028.00    1.01996   0.97679   -1.000
 4029.00    0.99689   0.96229   -1.000
 4030.00    0.96873   0.93681   -1.000
 4031.00    0.95260   0.91612   -1.000
 4032.00    0.94576   0.90842   -1.000
 4033.00    0.95282   0.91246   -1.000
 4034.00    0.96708   0.92513   -1.000
 4035.00    0.99035   0.94693   -1.000
 4036.00    1.01455   0.97266   -1.000
 4037.00    1.03697   0.99578   -1.000
 4038.00    1.04524   1.00450   -1.000
 4039.00    1.03195   1.00092   -1.000
 4040.00    1.01656   0.99134  125.669
 4041.00    1.01590   0.98390   -1.000
 4042.00    1.01542   0.97731   -1.000
 4043.00    1.00187   0.95936   -1.000
 4044.00    0.96191   0.93035   -1.000
 4045.00    0.93258   0.90440   -1.000
 4046.00    0.93451   0.90145   -1.000
 4047.00    0.97314   0.92780   -1.000
 4048.00    1.00617   0.96206   -1.000
 4049.00    1.02026   0.98518   -1.000
 4050.00    1.02858   0.99161   -1.000
 4051.00    1.03088   0.99166   -1.000
 4052.00    1.02266   0.98480   -1.000
 4053.00    1.01184   0.97510   -1.000
 4054.00    1.00617   0.96839   -1.000
 4055.00    1.00255   0.96450   -1.000
 4056.00    1.00000   0.96327   -1.000
 4057.00    0.99220   0.96345   -1.000
 4058.00    0.99402   0.96955  136.775
 4059.00    1.00675   0.98276  132.880
 4060.00    1.01776   0.98856   -1.000
 4061.00    1.01456   0.97736   -1.000
 4062.00    0.98768   0.94856   -1.000
 4063.00    0.96216   0.92418   -1.000
 4064.00    0.95572   0.91310   -1.000
 4065.00    0.97273   0.91714   -1.000
 4066.00    0.98488   0.92969   -1.000
 4067.00    0.99667   0.93931   -1.000
 4068.00    1.01022   0.94344   -1.000
 4069.00    1.01738   0.94358   -1.000
 4070.00    1.00338   0.93422   -1.000
 4071.00    0.98169   0.91692   -1.000
 4072.00    0.97843   0.90996   -1.000
 4073.00    0.99333   0.91735   -1.000
 4074.00    0.99731   0.92659   -1.000
 4075.00    0.97853   0.92089   -1.000
 4076.00    0.95162   0.89884   -1.000
 4077.00    0.92805   0.87841   -1.000
 4078.00    0.92862   0.87406   -1.000
 4079.00    0.95671   0.89595   -1.000
 4080.00    0.98673   0.92594   -1.000
 4081.00    1.00445   0.94737   -1.000
 4082.00    0.99788   0.94978   -1.000
 4083.00    0.98600   0.93888   -1.000
 4084.00    0.97273   0.92601   -1.000
 4085.00    0.97367   0.92091   -1.000
 4086.00    0.98952   0.92832   -1.000
 4087.00    1.00198   0.94149   -1.000
 4088.00    1.01370   0.95329   -1.000
 4089.00    1.01737   0.95587   -1.000
 4090.00    1.00726   0.95087   -1.000
 4091.00    0.98882   0.94281   -1.000
 4092.00    0.97253   0.93363   -1.000
 4093.00    0.96604   0.91893   -1.000
 4094.00    0.95676   0.90238   -1.000
 4095.00    0.92955   0.88141   -1.000
 4096.00    0.90236   0.85597   -1.000
 4097.00    0.87178   0.82799   -1.000
 4098.00    0.84280   0.79172   -1.000
 4099.00    0.80129   0.74209   -1.000
 4100.00    0.73445   0.67705   -1.000
 4101.00    0.67541   0.62797   -1.000
 4102.00    0.66961   0.62199   -1.000
 4103.00    0.72264   0.67499   -1.000
 4104.00    0.79558   0.74676   -1.000
 4105.00    0.85312   0.81076   -1.000
 4106.00    0.88410   0.84828   -1.000
 4107.00    0.90196   0.86858   -1.000
 4108.00    0.91409   0.88003   -1.000
 4109.00    0.92218   0.88715   -1.000
 4110.00    0.93007   0.89557   -1.000
 4111.00    0.93944   0.90612   -1.000
 4112.00    0.95247   0.92004   -1.000
 4113.00    0.97081   0.93558   -1.000
 4114.00    0.98694   0.95188   -1.000
 4115.00    0.99403   0.96473   -1.000
 4116.00    1.00058   0.96657   -1.000
 4117.00    0.99642   0.95946   -1.000
 4118.00    0.98414   0.94826   -1.000
 4119.00    0.97914   0.93945   -1.000
 4120.00    0.97795   0.94101   -1.000
 4121.00    0.98568   0.94831   -1.000
 4122.00    0.99372   0.95577   -1.000
 4123.00    1.00116   0.96174   -1.000
 4124.00    1.01662   0.96908   -1.000
 4125.00    1.01777   0.97680   -1.000
 4126.00    1.01460   0.97810   -1.000
 4127.00    1.00658   0.97343   -1.000
 4128.00    0.99675   0.96883  135.286
 4129.00    0.99416   0.96772  136.095
 4130.00    0.99067   0.96329  137.447
 4131.00    0.97788   0.95272  140.893
 4132.00    0.95684   0.94129  145.400
 4133.00    0.96023   0.94337  147.260
 4134.00    0.97929   0.95876  144.133
 4135.00    0.99919   0.97879  137.613
 4136.00    1.01961   0.99679  132.247
 4137.00    1.03714   1.01175  129.393
 4138.00    1.04637   1.02378  127.374
 4139.00    1.05223   1.03185  126.352
 4140.00    1.04677   1.02663  127.878
 4141.00    1.02033   1.00806  133.205
 4142.00    0.98451   0.98172  143.037
 4143.00    0.96029   0.96145  152.348
 4144.00    0.96900   0.96043  151.356
 4145.00    0.99829   0.97705  143.248
 4146.00    1.01338   0.99744  136.728
 4147.00    1.01537   1.00526  134.069
 4148.00    1.00825   1.00465  135.281
 4149.00    1.00529   1.00410  138.716
 4150.00    1.00141   1.00500  141.231
 4151.00    1.00559   1.00564  141.139
 4152.00    1.00338   1.00102  140.212
 4153.00    0.99292   0.99385  140.786
 4154.00    0.98302   0.98749  142.795
 4155.00    0.98590   0.98668  141.265
 4156.00    0.99061   0.99400  139.173
 4157.00    0.99982   1.00479  139.973
 4158.00    1.01269   1.01623  136.599
 4159.00    1.05435   1.02367   -1.000
 4160.00    1.14757   1.02730   -1.000
 4161.00    1.09968   1.02876   -1.000
 4162.00    0.95747   1.03173   -1.000
 4163.00    0.96089   1.03802   -1.000
 4164.00    1.03614   1.04362  131.512
 4165.00    1.03391   1.04445  133.573
 4166.00    1.01360   1.03580   -1.000
 4167.00    1.01488   1.02897  138.691
 4168.00    1.02070   1.02580  138.730
 4169.00    1.01924   1.02390  136.733
 4170.00    1.01098   1.01562  136.798
 4171.00    0.98583   0.99148  142.608
 4172.00    0.95058   0.96768   -1.000
 4173.00    0.93353   0.95899   -1.000
 4174.00    0.94581   0.96789   -1.000
 4175.00    0.96886   0.98805   -1.000
 4176.00    0.97794   0.99750   -1.000
 4177.00    0.97426   0.99904   -1.000
 4178.00    0.98348   1.00107   -1.000
 4179.00    0.99662   1.00832   -1.000
 4180.00    0.99871   1.01975   -1.000
 4181.00    0.99947   1.01861   -1.000
 4182.00    1.00191   1.01407  139.553
 4183.00    1.00498   1.01926  137.166
 4184.00    1.01343   1.02552  134.600
 4185.00    1.01570   1.02571  133.897
 4186.00    0.99862   1.01629   -1.000
 4187.00    0.98340   1.00564   -1.000
 4188.00    0.98552   1.00482   -1.000
 4189.00    0.99500   1.01147   -1.000
 4190.00    1.00140   1.01771   -1.000
 4191.00    1.01086   1.02001  136.024
 4192.00    1.02191   1.02250  133.440
 4193.00    1.03074   1.02972  131.257
 4194.00    1.02683   1.03409  133.131
 4195.00    1.01060   1.02351  139.146
 4196.00    0.98880   1.00408   -1.000
 4197.00    0.96725   0.98475   -1.000
 4198.00    0.96072   0.97142  149.188
 4199.00    0.96269   0.96612  148.194
 4200.00    0.97116   0.97076  146.036
 4201.00    0.98371   0.97593  144.948
 4202.00    0.98718   0.97801  144.233
 4203.00    0.98432   0.98649  142.406
 4204.00    0.98722   0.99975  140.938
 4205.00    0.99403   1.01124   -1.000
 4206.00    1.00788   1.01985  135.561
 4207.00    1.02372   1.02785  132.646
 4208.00    1.02974   1.03191  131.330
 4209.00    1.02865   1.03222  131.492
 4210.00    1.02518   1.03317  131.521
 4211.00    1.02432   1.03756  130.801
 4212.00    1.02529   1.04568   -1.000
 4213.00    1.01970   1.04116   -1.000
 4214.00    0.99612   1.02275   -1.000
 4215.00    0.97319   1.00578   -1.000
 4216.00    0.97016   0.99796   -1.000
 4217.00    0.99650   1.00985  134.751
 4218.00    1.02643   1.02809  127.813
 4219.00    1.04120   1.04208  123.569
 4220.00    1.05485   1.04964  121.534
 4221.00    1.05881   1.05053  121.820
 4222.00    1.03644   1.04066  125.493
 4223.00    1.00393   1.01617  133.080
 4224.00    0.97013   0.97178  144.955
 4225.00    0.91879   0.92957  162.666
 4226.00    0.87630   0.90329   -1.000
 4227.00    0.88213   0.91568   -1.000
 4228.00    0.93812   0.95980   -1.000
 4229.00    1.00094   1.01734   -1.000
 4230.00    1.03830   1.04785  129.089
 4231.00    1.03840   1.04857  126.175
 4232.00    1.02157   1.03693   -1.000
 4233.00    1.01371   1.02098  131.033
 4234.00    1.01142   1.00855  133.094
 4235.00    1.00690   1.00928  135.550
 4236.00    0.99633   1.01297   -1.000
 4237.00    0.99330   1.01638   -1.000
 4238.00    1.00667   1.02458   -1.000
 4239.00    1.01649   1.03340   -1.000
 4240.00    1.02284   1.04684   -1.000
 4241.00    1.02831   1.06160   -1.000
 4242.00    1.03284   1.07076   -1.000
 4243.00    1.03965   1.07253   -1.000
 4244.00    1.04799   1.06744   -1.000
 4245.00    1.04738   1.05940  123.965
 4246.00    1.02665   1.04153  128.202
 4247.00    1.00109   1.02242   -1.000
 4248.00    0.98163   1.00997   -1.000
 4249.00    0.97616   1.00488   -1.000
 4250.00    0.98229   1.00641   -1.000
 4251.00    1.00033   1.01889   -1.000
 4252.00    1.02010   1.03166  133.159
 4253.00    1.02013   1.03647   -1.000
 4254.00    1.00927   1.03496   -1.000
 4255.00    1.01020   1.03603   -1.000
 4256.00    1.02643   1.04617   -1.000
 4257.00    1.03449   1.05241   -1.000
 4258.00    1.02049   1.04228   -1.000
 4259.00    1.00235   1.02342   -1.000
 4260.00    0.98699   1.01324   -1.000
 4261.00    0.98749   1.02225   -1.000
 4262.00    1.01485   1.04424   -1.000
 4263.00    1.04663   1.06784   -1.000
 4264.00    1.06114   1.08113  121.987
 4265.00    1.06579   1.08074  120.847
 4266.00    1.06299   1.07676  122.071
 4267.00    1.04495   1.06922   -1.000
 4268.00    1.02666   1.05466   -1.000
 4269.00    1.01544   1.03459   -1.000
 4270.00    0.98771   1.00811   -1.000
 4271.00    0.95218   0.98681   -1.000
 4272.00    0.93958   0.97758   -1.000
 4273.00    0.94587   0.98304   -1.000
 4274.00    0.95441   0.99769   -1.000
 4275.00    0.97130   1.01688   -1.000
 4276.00    1.00523   1.04208   -1.000
 4277.00    1.03426   1.06746   -1.000
 4278.00    1.03802   1.07678   -1.000
 4279.00    1.01921   1.07049   -1.000
 4280.00    0.99935   1.05301   -1.000
 4281.00    0.99342   1.04038   -1.000
 4282.00    0.99600   1.03791   -1.000
 4283.00    1.00528   1.03983   -1.000
 4284.00    1.00921   1.04330   -1.000
 4285.00    0.99543   1.04026   -1.000
 4286.00    0.97532   1.02818   -1.000
 4287.00    0.96502   1.00715   -1.000
 4288.00    0.94901   0.98303   -1.000
 4289.00    0.92576   0.96062   -1.000
 4290.00    0.91761   0.95563   -1.000
 4291.00    0.93726   0.97020   -1.000
 4292.00    0.96218   0.99268   -1.000
 4293.00    0.97474   1.00345   -1.000
 4294.00    0.97659   0.99991   -1.000
 4295.00    0.97527   0.99679   -1.000
 4296.00    0.96854   0.99285   -1.000
 4297.00    0.93650   0.97506   -1.000
 4298.00    0.89495   0.94864   -1.000
 4299.00    0.86068   0.91689   -1.000
 4300.00    0.84321   0.89438   -1.000
 4301.00    0.84505   0.88798   -1.000
 4302.00    0.85710   0.89616   -1.000
 4303.00    0.87175   0.90913   -1.000
 4304.00    0.88649   0.92343   -1.000
 4305.00    0.89319   0.92613   -1.000
 4306.00    0.88070   0.91479   -1.000
 4307.00    0.85461   0.90011   -1.000
 4308.00    0.84028   0.89285   -1.000
 4309.00    0.84891   0.90169   -1.000
 4310.00    0.86444   0.91904   -1.000
 4311.00    0.88479   0.93714   -1.000
 4312.00    0.90490   0.94776   -1.000
 4313.00    0.92141   0.95580   -1.000
 4314.00    0.94992   0.97633   -1.000
 4315.00    0.99872   1.00830  131.506
 4316.00    1.04790   1.05292  120.984
 4317.00    1.07613   1.08361  115.070
 4318.00    1.08444   1.09304  113.723
 4319.00    1.08044   1.08694  114.955
 4320.00    1.06806   1.07646  117.320
 4321.00    1.04696   1.06311  120.854
 4322.00    1.01519   1.04385   -1.000
 4323.00    0.97567   1.01659   -1.000
 4324.00    0.93644   0.98372   -1.000
 4325.00    0.91875   0.96435   -1.000
 4326.00    0.93605   0.97726   -1.000
 4327.00    0.97652   1.00914   -1.000
 4328.00    1.01909   1.04104   -1.000
 4329.00    1.04276   1.05364  119.657
 4330.00    1.03994   1.04995  119.315
 4331.00    1.02644   1.04606  119.121
 4332.00    1.02131   1.04540   -1.000
 4333.00    1.02249   1.04136  115.958
 4334.00    1.01573   1.02581  115.400
 4335.00    0.99431   0.99699  116.615
 4336.00    0.95249   0.95078  122.188
 4337.00    0.88599   0.88590  132.774
 4338.00    0.80842   0.80331  145.471
 4339.00    0.74322   0.73830  158.052
 4340.00    0.71502   0.70797  165.173
 4341.00    0.73597   0.73487  158.206
 4342.00    0.80621   0.80754  143.561
 4343.00    0.88259   0.89366  132.837
 4344.00    0.92796   0.94972   -1.000
 4345.00    0.96308   0.98704   -1.000
 4346.00    0.99426   1.01495  121.269
 4347.00    1.01539   1.03874   -1.000
 4348.00    1.02899   1.05342   -1.000
 4349.00    1.03038   1.05153  117.549
 4350.00    1.00984   1.03045   -1.000
 4351.00    0.98320   1.00801   -1.000
 4352.00    0.97045   0.99960   -1.000
 4353.00    0.99062   1.01735   -1.000
 4354.00    1.02742   1.04936   -1.000
 4355.00    1.04993   1.07648   -1.000
 4356.00    1.06639   1.08936   -1.000
 4357.00    1.06730   1.09208   -1.000
 4358.00    1.05866   1.08981   -1.000
 4359.00    1.05001   1.08809   -1.000
 4360.00    1.06425   1.09431   -1.000
 4361.00    1.08531   1.10565  117.081
 4362.00    1.09388   1.11768   -1.000
 4363.00    1.10417   1.12528  114.266
 4364.00    1.10951   1.12813  113.277
 4365.00    1.10374   1.12582  112.743
 4366.00    1.08961   1.11669   -1.000
 4367.00    1.07233   1.10163   -1.000
 4368.00    1.06684   1.09152   -1.000
 4369.00    1.07162   1.08793  121.110
 4370.00    1.07196   1.08728  120.146
 4371.00    1.07573   1.08549  119.831
 4372.00    1.07280   1.07538  120.586
 4373.00    1.05406   1.05874  124.228
 4374.00    1.03318   1.03792  129.341
 4375.00    1.02690   1.03233  131.200
 4376.00    1.04340   1.04991  127.531
 4377.00    1.07171   1.08324  121.375
 4378.00    1.08974   1.10656  117.824
 4379.00    1.09778   1.11128  117.638
 4380.00    1.09424   1.10041  119.314
 4381.00    1.06799   1.07464  123.736
 4382.00    1.01944   1.03253  134.649
 4383.00    0.96734   0.99590   -1.000
 4384.00    0.94832   0.98274   -1.000
 4385.00    0.97799   0.99901   -1.000
 4386.00    1.02090   1.03329  133.498
 4387.00    1.05050   1.05986  126.281
 4388.00    1.06386   1.07262  125.068
 4389.00    1.06071   1.07606  126.079
 4390.00    1.05870   1.07650   -1.000
 4391.00    1.07096   1.07968  125.362
 4392.00    1.08007   1.08383  122.598
 4393.00    1.08041   1.08056  122.150
 4394.00    1.06603   1.06720  124.301
 4395.00    1.06156   1.06220  125.024
 4396.00    1.07608   1.07599  120.992
 4397.00    1.10025   1.09177  116.647
 4398.00    1.10934   1.09493  116.552
 4399.00    1.08634   1.08448  120.054
 4400.00    1.06402   1.07411  124.020
 4401.00    1.06846   1.07335  124.336
 4402.00    1.08410   1.07710  122.229
 4403.00    1.07920   1.07620  124.172
 4404.00    1.05657   1.06690  130.610
 4405.00    1.04363   1.06186   -1.000
 4406.00    1.04877   1.06746   -1.000
 4407.00    1.05339   1.07811   -1.000
 4408.00    1.05575   1.08547   -1.000
 4409.00    1.06570   1.09793   -1.000
 4410.00    1.09192   1.11862   -1.000
 4411.00    1.11768   1.13555  113.924
 4412.00    1.12637   1.13677  111.723
 4413.00    1.11829   1.12231  113.256
 4414.00    1.09260   1.09677  118.675
 4415.00    1.06344   1.07035  124.005
 4416.00    1.05256   1.06226  125.046
 4417.00    1.06415   1.07431  121.797
 4418.00    1.08775   1.10345   -1.000
 4419.00    1.10933   1.12924   -1.000
 4420.00    1.11337   1.14321   -1.000
 4421.00    1.10570   1.14000   -1.000
 4422.00    1.08665   1.13159   -1.000
 4423.00    1.07262   1.12790   -1.000
 4424.00    1.07421   1.12681   -1.000
 4425.00    1.07011   1.12312   -1.000
 4426.00    1.05971   1.11899   -1.000
 4427.00    1.06245   1.12021   -1.000
 4428.00    1.07333   1.12873   -1.000
 4429.00    1.07445   1.13717   -1.000
 4430.00    1.07477   1.14206   -1.000
 4431.00    1.08390   1.14306   -1.000
 4432.00    1.08611   1.14013   -1.000
 4433.00    1.07649   1.12854   -1.000
 4434.00    1.05817   1.11101   -1.000
 4435.00    1.04472   1.09944   -1.000
 4436.00    1.06034   1.11153   -1.000
 4437.00    1.10217   1.14306   -1.000
 4438.00    1.13613   1.17130   -1.000
 4439.00    1.14124   1.18081   -1.000
 4440.00    1.12562   1.16338   -1.000
 4441.00    1.10238   1.13445   -1.000
 4442.00    1.07655   1.10573   -1.000
 4443.00    1.06052   1.09832   -1.000
 4444.00    1.07998   1.11278   -1.000
 4445.00    1.11080   1.13998   -1.000
 4446.00    1.12907   1.16107   -1.000
 4447.00    1.13991   1.16738   -1.000
 4448.00    1.14090   1.16849   -1.000
 4449.00    1.13841   1.16749   -1.000
 4450.00    1.13395   1.16580   -1.000
 4451.00    1.13282   1.16461   -1.000
 4452.00    1.13309   1.16180   -1.000
 4453.00    1.11884   1.15023   -1.000
 4454.00    1.09605   1.12881   -1.000
 4455.00    1.07670   1.11447   -1.000
 4456.00    1.08011   1.11727   -1.000
 4457.00    1.09303   1.13202   -1.000
 4458.00    1.09963   1.13967   -1.000
 4459.00    1.09915   1.13982   -1.000
 4460.00    1.09344   1.13750   -1.000
 4461.00    1.09415   1.13736   -1.000
 4462.00    1.10638   1.14417   -1.000
 4463.00    1.11955   1.15466   -1.000
 4464.00    1.13067   1.16340   -1.000
 4465.00    1.13488   1.16499   -1.000
 4466.00    1.13470   1.15851   -1.000
 4467.00    1.12966   1.14557  115.678
 4468.00    1.11876   1.13447   -1.000
 4469.00    1.10987   1.13284   -1.000
 4470.00    1.11469   1.14507   -1.000
 4471.00    1.13555   1.16835   -1.000
 4472.00    1.16168   1.18961   -1.000
 4473.00    1.18435   1.20389   -1.000
 4474.00    1.18716   1.20682  106.166
 4475.00    1.18884   1.20575  106.022
 4476.00    1.19621   1.20480  105.521
 4477.00    1.20243   1.20654  104.762
 4478.00    1.20309   1.20384  105.155
 4479.00    1.18463   1.18510  108.023
 4480.00    1.15539   1.16002  112.705
 4481.00    1.13465   1.14432  116.632
 4482.00    1.13283   1.14841  116.917
 4483.00    1.15051   1.17208   -1.000
 4484.00    1.17926   1.20137   -1.000
 4485.00    1.19558   1.22123   -1.000
 4486.00    1.20459   1.22562  104.966
 4487.00    1.20008   1.21684  106.611
 4488.00    1.17636   1.19918   -1.000
 4489.00    1.15900   1.18593   -1.000
 4490.00    1.15990   1.18635   -1.000
 4491.00    1.17200   1.19930   -1.000
 4492.00    1.18203   1.20853   -1.000
 4493.00    1.18334   1.20307   -1.000
 4494.00    1.17130   1.19253   -1.000
 4495.00    1.15863   1.18789   -1.000
 4496.00    1.15862   1.19085   -1.000
 4497.00    1.17830   1.19797   -1.000
 4498.00    1.19838   1.20401  108.322
 4499.00    1.20176   1.20206  106.542
 4500.00    1.18786   1.19065  107.003
 4501.00    1.17654   1.18680  107.897
 4502.00    1.18685   1.19746  106.287
 4503.00    1.20969   1.22021  102.857
 4504.00    1.23183   1.23796  100.399
 4505.00    1.23682   1.24286  100.232
 4506.00    1.23079   1.23695  101.854
 4507.00    1.22557   1.22804  103.291
 4508.00    1.22876   1.22541  103.680
 4509.00    1.23158   1.22878  103.177
 4510.00    1.22998   1.23455  102.408
 4511.00    1.22883   1.23413  102.704
 4512.00    1.21792   1.22886  104.362
 4513.00    1.20920   1.22389  106.337
 4514.00    1.20484   1.21929  107.444
 4515.00    1.20273   1.21685  107.314
 4516.00    1.20386   1.21516  107.040
 4517.00    1.19575   1.21263  107.856
 4518.00    1.18992   1.20705  108.778
 4519.00    1.19659   1.20356  107.804
 4520.00    1.20404   1.20724  105.715
 4521.00    1.20469   1.21029  105.148
 4522.00    1.19702   1.20606  106.909
 4523.00    1.18784   1.19608  109.278
 4524.00    1.18370   1.19087  110.672
 4525.00    1.17401   1.18884  112.163
 4526.00    1.15729   1.18222   -1.000
 4527.00    1.14333   1.16973   -1.000
 4528.00    1.13637   1.15672   -1.000
 4529.00    1.13631   1.15293   -1.000
 4530.00    1.14736   1.15788  118.771
 4531.00    1.16149   1.16495  116.599
 4532.00    1.15947   1.16215  115.456
 4533.00    1.14641   1.14670  117.321
 4534.00    1.12733   1.13326  121.166
 4535.00    1.12315   1.13847  121.679
 4536.00    1.15189   1.16190  116.485
 4537.00    1.19430   1.19428  109.567
 4538.00    1.21626   1.22216  105.340
 4539.00    1.21927   1.23349  105.016
 4540.00    1.21463   1.23100  107.092
 4541.00    1.21012   1.22460  108.016
 4542.00    1.21574   1.22223  107.403
 4543.00    1.21278   1.22392  106.846
 4544.00    1.19945   1.22215   -1.000
 4545.00    1.19122   1.21628   -2.000
 4546.00    1.18649   1.21223   -2.000
 4547.00    1.20029   1.20554   -2.000
 4548.00    1.08835   1.18861   -1.000
 4549.00    0.44951   1.16944   -1.000
 4550.00    0.00157   1.16713   -1.000
 4551.00    0.08562   1.18503   -1.000
 4552.00    0.64015   1.19783   -1.000
 4553.00    0.52879   1.19122   -1.000
 4554.00    0.70695   1.17722   -1.000
 4555.00    1.13859   1.17384   -1.000
 4556.00    1.19773   1.18879  110.281
 4557.00    1.21298   1.21457  105.926
 4558.00    1.23747   1.23591  103.170
 4559.00    1.24625   1.24638  102.912
 4560.00    1.24864   1.25316  103.142
 4561.00    1.24130   1.25335  103.126
 4562.00    1.22894   1.24276  104.644
 4563.00    1.21396   1.22642  107.258
 4564.00    1.20059   1.21670  109.415
 4565.00    1.20314   1.22067  109.329
 4566.00    1.22513   1.23489  107.054
 4567.00    1.24957   1.24919  104.224
 4568.00    1.25741   1.25654  102.540
 4569.00    1.24568   1.25128  102.901
 4570.00    1.22264   1.23638  105.013
 4571.00    1.20172   1.21821  107.783
 4572.00    1.19809   1.21093  108.351
 4573.00    1.21587   1.22520  105.896
 4574.00    1.23440   1.24439  103.700
 4575.00    1.23994   1.25198  103.225
 4576.00    1.24105   1.24854  103.581
 4577.00    1.23612   1.24355  104.146
 4578.00    1.22637   1.23693  105.489
 4579.00    1.21447   1.22512  108.175
 4580.00    1.20558   1.21125  110.833
 4581.00    1.20023   1.20353  111.471
 4582.00    1.20143   1.20167  110.304
 4583.00    1.19981   1.20122  109.182
 4584.00    1.19459   1.20397  109.101
 4585.00    1.20186   1.21139  109.681
 4586.00    1.21685   1.21950  108.995
 4587.00    1.22954   1.22725  106.577
 4588.00    1.23996   1.23422  104.081
 4589.00    1.24639   1.23710  103.165
 4590.00    1.23662   1.23810  104.095
 4591.00    1.21864   1.23699  105.924
 4592.00    1.21292   1.23155  107.840
 4593.00    1.21863   1.23012  108.614
 4594.00    1.22398   1.23472  108.030
 4595.00    1.22552   1.24191  107.130
 4596.00    1.23396   1.24907  106.638
 4597.00    1.24314   1.25368  106.404
 4598.00    1.24421   1.25276  106.171
 4599.00    1.23763   1.24851  106.662
 4600.00    1.22587   1.24101  107.645
 4601.00    1.21532   1.23373  108.199
 4602.00    1.21484   1.23180  107.578
 4603.00    1.22854   1.23516  106.360
 4604.00    1.24349   1.24140  106.016
 4605.00    1.24778   1.24621  106.006
 4606.00    1.24961   1.24875  105.208
 4607.00    1.25729   1.25471  103.451
 4608.00    1.26827   1.26255  101.275
 4609.00    1.27520   1.27204   99.710
 4610.00    1.27801   1.27428   99.564
 4611.00    1.27461   1.26894  100.624
 4612.00    1.26468   1.26391  101.869
 4613.00    1.25793   1.26157  102.701
 4614.00    1.26002   1.26203  102.625
 4615.00    1.25830   1.26320  101.834
 4616.00    1.26455   1.26253  101.227
 4617.00    1.26657   1.26069  101.507
 4618.00    1.25917   1.25872  102.261
 4619.00    1.25924   1.25791  102.490
 4620.00    1.26816   1.26307  101.821
 4621.00    1.27546   1.27313  100.420
 4622.00    1.28313   1.28065   99.779
 4623.00    1.28200   1.28138   99.963
 4624.00    1.27359   1.27574  100.186
 4625.00    1.27119   1.27060  100.833
 4626.00    1.27302   1.26696  101.357
 4627.00    1.27440   1.26680  101.400
 4628.00    1.26950   1.26639  101.781
 4629.00    1.26278   1.26508  102.185
 4630.00    1.26269   1.26743  101.937
 4631.00    1.26979   1.27412  100.990
 4632.00    1.26930   1.27797  100.808
 4633.00    1.26664   1.27587  101.936
 4634.00    1.26830   1.27062  103.229
 4635.00    1.26863   1.26959  103.592
 4636.00    1.26038   1.27058  104.047
 4637.00    1.25426   1.26856  105.251
 4638.00    1.25432   1.26564  106.065
 4639.00    1.25954   1.26587  106.112
 4640.00    1.26789   1.27212  104.918
 4641.00    1.28111   1.28187  102.598
 4642.00    1.28901   1.28838  100.752
 4643.00    1.28770   1.29061  100.506
 4644.00    1.28407   1.28481  101.865
 4645.00    1.27014   1.27644  104.407
 4646.00    1.25094   1.26282  107.349
 4647.00    1.24779   1.25189  108.766
 4648.00    1.25341   1.25458  107.676
 4649.00    1.25773   1.26735  105.327
 4650.00    1.26432   1.27911  103.482
 4651.00    1.27099   1.28483  102.856
 4652.00    1.26872   1.28439  102.685
 4653.00    1.26002   1.28039  103.356
 4654.00    1.25583   1.27244  105.349
 4655.00    1.24814   1.26646  107.068
 4656.00    1.24302   1.26571   -1.000
 4657.00    1.25979   1.27068  104.402
 4658.00    1.28787   1.28711  100.588
 4659.00    1.30490   1.30817   97.709
 4660.00    1.31003   1.32128   96.849
 4661.00    1.30563   1.31960   97.606
 4662.00    1.29172   1.30976   99.584
 4663.00    1.28201   1.29945  101.770
 4664.00    1.28082   1.28997  102.670
 4665.00    1.27322   1.27891  103.756
 4666.00    1.24730   1.26332  107.192
 4667.00    1.22028   1.24324   -1.000
 4668.00    1.20908   1.23401   -1.000
 4669.00    1.22054   1.24183   -1.000
 4670.00    1.24642   1.25892  107.107
 4671.00    1.26911   1.27608  103.580
 4672.00    1.28024   1.28642  102.170
 4673.00    1.28265   1.28774  102.040
 4674.00    1.28768   1.29043  102.020
 4675.00    1.29627   1.29619  101.148
 4676.00    1.30799   1.30217   99.669
 4677.00    1.30667   1.30159   99.397
 4678.00    1.29089   1.29086  100.972
 4679.00    1.27979   1.27981  103.093
 4680.00    1.27087   1.27034  104.920
 4681.00    1.26094   1.26448  106.205
 4682.00    1.25938   1.26649  105.756
 4683.00    1.27180   1.27474  103.532
 4684.00    1.29042   1.28454  101.663
 4685.00    1.29908   1.28888  101.397
 4686.00    1.29754   1.28912  101.596
 4687.00    1.29463   1.28803  101.961
 4688.00    1.29082   1.28759  102.203
 4689.00    1.29318   1.28906  102.196
 4690.00    1.29453   1.28876  102.655
 4691.00    1.28873   1.28544  103.091
 4692.00    1.29367   1.28516  102.400
 4693.00    1.30704   1.28894  100.954
 4694.00    1.31312   1.29270   98.976
 4695.00    1.31908   1.29624   97.333
 4696.00    1.32807   1.29907   97.175
 4697.00    1.32017   1.29449   99.121
 4698.00    1.30300   1.28318  102.136
 4699.00    1.29548   1.27249  104.065
 4700.00    1.29688   1.26698  103.961
 4701.00    1.29398   1.26207  104.065
 4702.00    1.27928   1.25548  105.545
 4703.00    1.26697   1.25052  106.634
 4704.00    1.27534   1.25604  105.554
 4705.00    1.29101   1.26714  103.761
 4706.00    1.28851   1.27166  104.066
 4707.00    1.27244   1.26549  105.993
 4708.00    1.26004   1.25569  107.463
 4709.00    1.26318   1.25448  107.485
 4710.00    1.27964   1.26442  105.259
 4711.00    1.29731   1.27756  102.225
 4712.00    1.30881   1.28521  100.533
 4713.00    1.30867   1.28293  100.782
 4714.00    1.29926   1.27670  102.379
 4715.00    1.29000   1.27611  103.156
 4716.00    1.29344   1.28433  101.836
 4717.00    1.30883   1.29671   99.803
 4718.00    1.31765   1.30497   98.687
 4719.00    1.32013   1.30975   98.270
 4720.00    1.32291   1.31223   97.934
 4721.00    1.31866   1.31197   98.316
 4722.00    1.31204   1.30975   99.102
 4723.00    1.31299   1.31031   99.012
 4724.00    1.31532   1.31596   98.092
 4725.00    1.31187   1.31883   97.760
 4726.00    1.30055   1.31608   99.299
 4727.00    1.28741   1.30601  102.609
 4728.00    1.27662   1.29104  105.583
 4729.00    1.27790   1.28334  106.215
 4730.00    1.28535   1.27989  105.326
 4731.00    1.28871   1.27905  104.385
 4732.00    1.29130   1.28586  103.301
 4733.00    1.29609   1.29515  102.257
 4734.00    1.30652   1.30015  101.568
 4735.00    1.31085   1.30061  101.005
 4736.00    1.30520   1.29675  101.449
 4737.00    1.30584   1.29445  101.998
 4738.00    1.31323   1.29667  101.207
 4739.00    1.31719   1.30100  100.687
 4740.00    1.31265   1.30323  101.100
 4741.00    1.31241   1.30314  101.425
 4742.00    1.31775   1.30563  100.964
 4743.00    1.32429   1.31244   99.948
 4744.00    1.32463   1.31783   99.639
 4745.00    1.32590   1.32013   99.806
 4746.00    1.33068   1.32188   99.378
 4747.00    1.33257   1.32824   98.450
 4748.00    1.33263   1.33666   97.929
 4749.00    1.33320   1.33968   97.962
 4750.00    1.33282   1.34239   98.068
 4751.00    1.33355   1.34561   98.527
 4752.00    1.32780   1.34476   99.509
 4753.00    1.31847   1.33886  100.471
 4754.00    1.30889   1.33287   -1.000
 4755.00    1.30443   1.33085   -1.000
 4756.00    1.30900   1.33231   -1.000
 4757.00    1.31373   1.33556   -1.000
 4758.00    1.31039   1.33849   -1.000
 4759.00    1.30366   1.33874   -1.000
 4760.00    1.30472   1.33642   -1.000
 4761.00    1.30016   1.32895   -1.000
 4762.00    1.28100   1.31637   -1.000
 4763.00    1.26932   1.30498   -1.000
 4764.00    1.26912   1.29940   -1.000
 4765.00    1.27381   1.30136   -1.000
 4766.00    1.28532   1.30911   -1.000
 4767.00    1.29657   1.31935   -1.000
 4768.00    1.30866   1.33111   -1.000
 4769.00    1.31867   1.34291   -1.000
 4770.00    1.31598   1.34830   -1.000
 4771.00    1.30948   1.34548   -1.000
 4772.00    1.30994   1.33905   -1.000
 4773.00    1.31671   1.33805   -1.000
 4774.00    1.32554   1.34613   -1.000
 4775.00    1.33293   1.35432   -1.000
 4776.00    1.33576   1.35657   98.870
 4777.00    1.33219   1.35570   -1.000
 4778.00    1.32486   1.35270   -1.000
 4779.00    1.31522   1.34636   -1.000
 4780.00    1.31428   1.34113   -1.000
 4781.00    1.31896   1.34162   -1.000
 4782.00    1.31682   1.34417   -1.000
 4783.00    1.31175   1.34154   -1.000
 4784.00    1.31124   1.33776   -1.000
 4785.00    1.31007   1.33545   -1.000
 4786.00    1.30502   1.33200   -1.000
 4787.00    1.30012   1.32913   -1.000
 4788.00    1.29985   1.33041   -1.000
 4789.00    1.30389   1.33327   -1.000
 4790.00    1.30880   1.33675   -1.000
 4791.00    1.31400   1.34539   -1.000
 4792.00    1.32860   1.35809   -1.000
 4793.00    1.34499   1.36913   -1.000
 4794.00    1.35444   1.37933   -1.000
 4795.00    1.35350   1.38380   -1.000
 4796.00    1.34814   1.38115   -1.000
 4797.00    1.33787   1.37370   -1.000
 4798.00    1.32517   1.36290   -1.000
 4799.00    1.31835   1.35630   -1.000
 4800.00    1.32381   1.35889   -1.000
 4801.00    1.33372   1.36940   -1.000
 4802.00    1.34515   1.38009   -1.000
 4803.00    1.34817   1.38364   -1.000
 4804.00    1.33842   1.37056   -1.000
 4805.00    1.32359   1.35668   -1.000
 4806.00    1.31723   1.35184   -1.000
 4807.00    1.32592   1.35423   -1.000
 4808.00    1.33435   1.36093   -1.000
 4809.00    1.33611   1.36844   -1.000
 4810.00    1.33758   1.37081   -1.000
 4811.00    1.34138   1.37069   -1.000
 4812.00    1.34070   1.37274   -1.000
 4813.00    1.34317   1.37765   -1.000
 4814.00    1.35116   1.38447   -1.000
 4815.00    1.35179   1.38872   -1.000
 4816.00    1.35108   1.39091   -1.000
 4817.00    1.35560   1.39337   -1.000
 4818.00    1.36329   1.39411   -1.000
 4819.00    1.36678   1.39254   -1.000
 4820.00    1.36335   1.39119   -1.000
 4821.00    1.36293   1.38743   -1.000
 4822.00    1.35492   1.37647   -1.000
 4823.00    1.33434   1.35929   -1.000
 4824.00    1.32619   1.34684   -1.000
 4825.00    1.33452   1.34824  100.886
 4826.00    1.34774   1.35895   99.199
 4827.00    1.35360   1.36692   98.836
 4828.00    1.34873   1.36638   99.751
 4829.00    1.34122   1.36204   -1.000
 4830.00    1.33465   1.35944   -1.000
 4831.00    1.32952   1.35847   -1.000
 4832.00    1.33150   1.35624   -1.000
 4833.00    1.34097   1.35749  100.939
 4834.00    1.34750   1.36025   99.445
 4835.00    1.34854   1.36401   98.703
 4836.00    1.35016   1.36443   98.676
 4837.00    1.34945   1.36414   99.036
 4838.00    1.33888   1.36378   -1.000
 4839.00    1.32609   1.35936   -1.000
 4840.00    1.32328   1.35451   -1.000
 4841.00    1.32833   1.35404   -1.000
 4842.00    1.32471   1.35389   -1.000
 4843.00    1.32673   1.35135   -1.000
 4844.00    1.33395   1.34954  100.339
 4845.00    1.34213   1.35078   98.983
 4846.00    1.34737   1.35510   98.038
 4847.00    1.33896   1.35234   99.038
 4848.00    1.32074   1.34231   -1.000
 4849.00    1.31432   1.33529   -1.000
 4850.00    1.31692   1.33411  100.495
 4851.00    1.31209   1.33283   99.752
 4852.00    1.30246   1.32913   -1.000
 4853.00    1.29196   1.31954   -1.000
 4854.00    1.27312   1.29863   -1.000
 4855.00    1.24480   1.26997   -1.000
 4856.00    1.22738   1.24926   -1.000
 4857.00    1.21817   1.23540  106.218
 4858.00    1.18226   1.20489   -1.000
 4859.00    1.09904   1.13251   -1.000
 4860.00    0.99486   1.01112   -1.000
 4861.00    0.93011   0.91589  136.169
 4862.00    0.95313   0.90893   -1.000
 4863.00    1.04329   1.00324   -1.000
 4864.00    1.13062   1.11661  114.000
 4865.00    1.18417   1.19511  108.953
 4866.00    1.21721   1.23766   -1.000
 4867.00    1.24474   1.26549   -1.000
 4868.00    1.26616   1.28868   -1.000
 4869.00    1.26585   1.30079   -1.000
 4870.00    1.24939   1.29328   -1.000
 4871.00    1.23481   1.27415   -1.000
 4872.00    1.23744   1.26429   -1.000
 4873.00    1.26399   1.27761  107.509
 4874.00    1.28303   1.30409   -1.000
 4875.00    1.28560   1.32402   -1.000
 4876.00    1.29000   1.33219   -1.000
 4877.00    1.29726   1.33445   -1.000
 4878.00    1.29833   1.33931   -1.000
 4879.00    1.30525   1.35160   -1.000
 4880.00    1.31567   1.36780   -1.000
 4881.00    1.31249   1.37461   -1.000
 4882.00    1.30715   1.36540   -1.000
 4883.00    1.30793   1.35810   -1.000
 4884.00    1.31145   1.35595   -1.000
 4885.00    1.31207   1.35599   -1.000
 4886.00    1.30830   1.35655   -1.000
 4887.00    1.30984   1.35787   -1.000
 4888.00    1.31258   1.35728   -1.000
 4889.00    1.30325   1.34908   -1.000
 4890.00    1.29047   1.33459   -1.000
 4891.00    1.28811   1.32169   -1.000
 4892.00    1.30958   1.33106   -1.000
 4893.00    1.34716   1.36239  100.871
 4894.00    1.37788   1.39328   97.175
 4895.00    1.39422   1.41598   94.952
 4896.00    1.40129   1.42662   -1.000
 4897.00    1.40034   1.42996   -1.000
 4898.00    1.38797   1.42702   -1.000
 4899.00    1.37446   1.41706   -1.000
 4900.00    1.36653   1.40448   -1.000
 4901.00    1.36348   1.39887   -1.000
 4902.00    1.36463   1.39808   -1.000
 4903.00    1.36442   1.39400   -1.000
 4904.00    1.36635   1.39256   -1.000
 4905.00    1.38004   1.40433   -1.000
 4906.00    1.39300   1.42147   -1.000
 4907.00    1.39337   1.42540   -1.000
 4908.00    1.38167   1.41758   -1.000
 4909.00    1.36220   1.40601   -1.000
 4910.00    1.35235   1.39298   -1.000
 4911.00    1.35515   1.38603   -1.000
 4912.00    1.36726   1.39000   -1.000
 4913.00    1.38498   1.40043   99.721
 4914.00    1.39261   1.41108   98.400
 4915.00    1.39980   1.42006   97.358
 4916.00    1.40224   1.42057   97.271
 4917.00    1.37915   1.40705   -1.000
 4918.00    1.34370   1.37507   -1.000
 4919.00    1.30696   1.33695   -1.000
 4920.00    1.28513   1.30892   -1.000
 4921.00    1.29626   1.30617  110.724
 4922.00    1.32206   1.32534  106.791
 4923.00    1.33388   1.34231  104.238
 4924.00    1.33719   1.34893  103.565
 4925.00    1.35052   1.35839  102.779
 4926.00    1.37327   1.38009  100.635
 4927.00    1.39443   1.40338   98.462
 4928.00    1.40888   1.41970   97.200
 4929.00    1.41884   1.43149   96.442
 4930.00    1.42450   1.43689   95.831
 4931.00    1.41967   1.43271   96.131
 4932.00    1.39677   1.41572   98.067
 4933.00    1.36798   1.38844  101.296
 4934.00    1.35730   1.36704  103.027
 4935.00    1.36577   1.36962  101.998
 4936.00    1.37378   1.38277  101.147
 4937.00    1.36301   1.38260  102.855
 4938.00    1.34564   1.36638   -1.000
 4939.00    1.33674   1.35497  106.543
 4940.00    1.35156   1.36361  103.970
 4941.00    1.38327   1.38905  100.499
 4942.00    1.40679   1.41748   98.069
 4943.00    1.42078   1.43406   96.805
 4944.00    1.42121   1.43967   96.483
 4945.00    1.41271   1.43691   -1.000
 4946.00    1.41217   1.43251   97.352
 4947.00    1.41576   1.43245   96.925
 4948.00    1.42206   1.43883   95.872
 4949.00    1.42907   1.44690   95.218
 4950.00    1.43204   1.44999   94.877
 4951.00    1.42868   1.44935   94.990
 4952.00    1.42322   1.44656   95.591
 4953.00    1.42261   1.44265   96.510
 4954.00    1.41365   1.43744   -1.000
 4955.00    1.38825   1.42098   -1.000
 4956.00    1.34996   1.38560   -1.000
 4957.00    1.31262   1.34190   -1.000
 4958.00    1.31178   1.32532  109.137
 4959.00    1.35299   1.35332  104.447
 4960.00    1.39603   1.39653   99.784
 4961.00    1.40996   1.42678   97.911
 4962.00    1.40829   1.43742   -1.000
 4963.00    1.40477   1.43887   -1.000
 4964.00    1.38928   1.43333   -1.000
 4965.00    1.37517   1.42102   -1.000
 4966.00    1.37587   1.40757   -1.000
 4967.00    1.37833   1.40272   -1.000
 4968.00    1.37938   1.40360   -1.000
 4969.00    1.38710   1.40756   -1.000
 4970.00    1.39384   1.41617   -1.000
 4971.00    1.39832   1.42680   -1.000
 4972.00    1.40494   1.43456   -1.000
 4973.00    1.41272   1.43995   -1.000
 4974.00    1.42092   1.44128   97.911
 4975.00    1.42611   1.43901   98.136
 4976.00    1.42121   1.43598   99.037
 4977.00    1.41230   1.43027  100.260
 4978.00    1.40175   1.42275   -1.000
 4979.00    1.38307   1.41841   -1.000
 4980.00    1.36656   1.40825   -1.000
 4981.00    1.34665   1.38667   -1.000
 4982.00    1.32100   1.36042   -1.000
 4983.00    1.31117   1.34168   -1.000
 4984.00    1.32200   1.34332   -1.000
 4985.00    1.34130   1.36025   -1.000
 4986.00    1.36827   1.38225  105.020
 4987.00    1.39554   1.40635  102.097
 4988.00    1.40302   1.42409  101.066
 4989.00    1.39274   1.42330   -1.000
 4990.00    1.38027   1.41038   -1.000
 4991.00    1.38011   1.39860  103.737
 4992.00    1.38676   1.39819  103.212
 4993.00    1.39085   1.40536  102.552
 4994.00    1.39248   1.41202  102.346
 4995.00    1.39788   1.42027   -1.000
 4996.00    1.40300   1.42863   -1.000
 4997.00    1.40467   1.43028   -1.000
 4998.00    1.39466   1.41907   -1.000
 4999.00    1.37836   1.39562  104.481
 5000.00    1.36824   1.37152  106.154
 5001.00    1.36189   1.36954  106.761
 5002.00    1.36363   1.37970  106.197
 5003.00    1.36857   1.39006   -1.000
 5004.00    1.36434   1.39040   -1.000
 5005.00    1.35106   1.37465   -1.000
 5006.00    1.34218   1.35375  109.693
 5007.00    1.35051   1.35009  108.382
 5008.00    1.37400   1.37110  105.302
 5009.00    1.39552   1.39314  103.268
 5010.00    1.39494   1.40122  103.580
 5011.00    1.37302   1.39270   -1.000
 5012.00    1.34440   1.37289   -1.000
 5013.00    1.32106   1.35378   -1.000
 5014.00    1.31601   1.34472   -1.000
 5015.00    1.33241   1.35201   -1.000
 5016.00    1.35122   1.36350  109.541
 5017.00    1.35575   1.36543  108.289
 5018.00    1.35269   1.35692  108.130
 5019.00    1.36051   1.35752  107.445
 5020.00    1.37981   1.37565  106.398
 5021.00    1.38950   1.39031  106.292
 5022.00    1.38512   1.39526  106.650
 5023.00    1.38002   1.39845  106.402
 5024.00    1.38979   1.40939  105.484
 5025.00    1.39866   1.42215   -1.000
 5026.00    1.39841   1.42661   -1.000
 5027.00    1.39491   1.42131   -1.000
 5028.00    1.39111   1.41713   -1.000
 5029.00    1.39997   1.41952  103.202
 5030.00    1.41752   1.42500  101.510
 5031.00    1.42550   1.43236   99.952
 5032.00    1.43459   1.44290   98.593
 5033.00    1.44130   1.44961   98.197
 5034.00    1.42214   1.44310  100.052
 5035.00    1.39028   1.42551   -1.000
 5036.00    1.37092   1.40859   -1.000
 5037.00    1.36651   1.40513   -1.000
 5038.00    1.36323   1.40466   -1.000
 5039.00    1.34413   1.38880   -1.000
 5040.00    1.31496   1.35887   -1.000
 5041.00    1.30368   1.33518   -1.000
 5042.00    1.32339   1.34331   -1.000
 5043.00    1.36507   1.37666  108.113
 5044.00    1.40352   1.41390  102.710
 5045.00    1.43007   1.44415   99.711
 5046.00    1.44849   1.46200   96.642
 5047.00    1.44731   1.46388   96.649
 5048.00    1.41988   1.44904   41.104
 5049.00    1.43011   1.42392   52.213
 5050.00    1.09830   1.40198   -1.000
 5051.00    0.42453   1.39069   -1.000
 5052.00    0.03016   1.39555   -1.000
 5053.00    0.29152   1.41585   -1.000
 5054.00    1.03797   1.44225   -1.000
 5055.00    1.45084   1.45859   98.536
 5056.00    1.46470   1.46484   97.963
 5057.00    1.46423   1.46713   97.938
 5058.00    1.45977   1.46891   98.127
 5059.00    1.45653   1.47169   98.184
 5060.00    1.45849   1.47440   97.782
 5061.00    1.46223   1.47733   97.513
 5062.00    1.45958   1.47664   98.292
 5063.00    1.44226   1.46542   -1.000
 5064.00    1.41938   1.44442   -1.000
 5065.00    1.40470   1.42569   -1.000
 5066.00    1.40406   1.42149  105.899
 5067.00    1.41257   1.42668  104.387
 5068.00    1.42312   1.42964  103.507
 5069.00    1.43058   1.43166  103.108
 5070.00    1.43889   1.43641  102.505
 5071.00    1.43797   1.43980  102.676
 5072.00    1.43092   1.43616  103.527
 5073.00    1.43220   1.43120  103.152
 5074.00    1.43701   1.43054  102.106
 5075.00    1.43937   1.43195  101.692
 5076.00    1.44244   1.43317  101.599
 5077.00    1.43800   1.42957  102.123
 5078.00    1.41128   1.41539  104.579
 5079.00    1.37752   1.39262  109.038
 5080.00    1.36623   1.37952  112.054
 5081.00    1.38208   1.38550  111.183
 5082.00    1.39592   1.39667  108.756
 5083.00    1.40221   1.40357  106.924
 5084.00    1.42123   1.41387  105.167
 5085.00    1.44295   1.43107  103.272
 5086.00    1.44929   1.44522  102.092
 5087.00    1.45207   1.45063  101.715
 5088.00    1.46078   1.45133  101.374
 5089.00    1.46625   1.45402  100.728
 5090.00    1.46658   1.45901  100.094
 5091.00    1.46954   1.46277   99.564
 5092.00    1.47502   1.46829   98.686
 5093.00    1.48146   1.47591   97.677
 5094.00    1.48555   1.47984   97.804
 5095.00    1.47719   1.47608   99.382
 5096.00    1.45797   1.46205  101.526
 5097.00    1.45752   1.44484  103.873
 5098.00    1.45966   1.42818  106.209
 5099.00    1.42922   1.41775  107.363
 5100.00    1.42116   1.42515  105.961
 5101.00    1.44825   1.44318  103.029
 5102.00    1.46701   1.45774  101.215
 5103.00    1.46963   1.46243  101.207
 5104.00    1.46008   1.46084  102.250
 5105.00    1.44678   1.45506  103.585
 5106.00    1.42876   1.44201  104.871
 5107.00    1.41652   1.42251  106.173
 5108.00    1.40871   1.41231  106.661
 5109.00    1.40463   1.41254  106.171
 5110.00    1.41759   1.41890  105.434
 5111.00    1.43609   1.43128  104.241
 5112.00    1.45314   1.44921  102.851
 5113.00    1.46745   1.46389  101.600
 5114.00    1.47437   1.47276  100.544
 5115.00    1.48251   1.47756   99.853
 5116.00    1.49390   1.48255   99.029
 5117.00    1.50074   1.48854   98.094
 5118.00    1.50248   1.49196   97.907
 5119.00    1.50104   1.48980   98.780
 5120.00    1.48806   1.48182  100.207
 5121.00    1.46530   1.46977  101.804
 5122.00    1.44309   1.45418  104.019
 5123.00    1.41899   1.43661  106.984
 5124.00    1.40485   1.42474   -1.000
 5125.00    1.41183   1.42404  108.546
 5126.00    1.41945   1.42862  107.791
 5127.00    1.42243   1.42932  107.208
 5128.00    1.42471   1.42676  107.014
 5129.00    1.42825   1.42616  107.045
 5130.00    1.43254   1.43103  106.202
 5131.00    1.44026   1.44198  104.542
 5132.00    1.44907   1.45268  103.279
 5133.00    1.45621   1.46013  102.377
 5134.00    1.46884   1.46558  101.439
 5135.00    1.47650   1.46839  100.905
 5136.00    1.46662   1.46490  101.828
 5137.00    1.44333   1.45276  104.078
 5138.00    1.41967   1.43458  106.140
 5139.00    1.41307   1.42250  106.938
 5140.00    1.41988   1.42325  106.420
 5141.00    1.42165   1.43126  106.425
 5142.00    1.42013   1.43417  107.793
 5143.00    1.42091   1.43504  108.221
 5144.00    1.42945   1.44346  106.852
 5145.00    1.44110   1.45405  105.835
 5146.00    1.43889   1.45483  106.269
 5147.00    1.43509   1.45092  106.882
 5148.00    1.44138   1.45054  106.229
 5149.00    1.44667   1.45065  105.288
 5150.00    1.43778   1.44465  105.783
 5151.00    1.42127   1.43265  107.492
 5152.00    1.41218   1.42355  108.766
 5153.00    1.41878   1.42556  108.733
 5154.00    1.43590   1.43181  107.279
 5155.00    1.45665   1.44376  104.805
 5156.00    1.47870   1.46257  102.124
 5157.00    1.49238   1.48128   99.917
 5158.00    1.49692   1.49186   98.705
 5159.00    1.50144   1.49599   98.406
 5160.00    1.49942   1.49553   98.602
 5161.00    1.49570   1.49044   99.074
 5162.00    1.49248   1.48208   99.959
 5163.00    1.48233   1.47339  101.341
 5164.00    1.46138   1.45857  104.207
 5165.00    1.41279   1.42143  110.793
 5166.00    1.33132   1.35322   -1.000
 5167.00    1.26021   1.27860   -1.000
 5168.00    1.24684   1.24883  133.909
 5169.00    1.28693   1.27171  128.026
 5170.00    1.31779   1.31141  123.748
 5171.00    1.29555   1.31240   -1.000
 5172.00    1.25648   1.27909   -1.000
 5173.00    1.25812   1.27130   -1.000
 5174.00    1.32234   1.31883  125.586
 5175.00    1.40486   1.39323  113.677
 5176.00    1.45470   1.44485  107.297
 5177.00    1.47468   1.46536  104.972
 5178.00    1.48186   1.47266  104.393
 5179.00    1.47924   1.47271  104.906
 5180.00    1.46129   1.46248  107.448
 5181.00    1.41583   1.43026  113.498
 5182.00    1.33901   1.36682   -1.000
 5183.00    1.26996   1.30011   -1.000
 5184.00    1.26398   1.27442  137.391
 5185.00    1.32627   1.31882  125.252
 5186.00    1.40394   1.39038  112.921
 5187.00    1.44819   1.43340  106.790
 5188.00    1.46168   1.44680  104.945
 5189.00    1.46201   1.44770  104.354
 5190.00    1.45117   1.44511  104.809
 5191.00    1.42879   1.43055  107.217
 5192.00    1.40853   1.41046  110.447
 5193.00    1.40469   1.40288  111.278
 5194.00    1.41679   1.41318  109.718
 5195.00    1.43348   1.42611  107.956
 5196.00    1.45315   1.43692  106.379
 5197.00    1.47102   1.44914  104.488
 5198.00    1.48000   1.46170  102.555
 5199.00    1.48603   1.47333  101.334
 5200.00    1.49337   1.48086  100.941
 5201.00    1.48856   1.48111  101.377
 5202.00    1.47387   1.47009  102.797
 5203.00    1.45365   1.44880  104.968
 5204.00    1.42591   1.41807  107.894
 5205.00    1.40419   1.38922  111.281
 5206.00    1.39928   1.37705  112.997
 5207.00    1.39879   1.37846  113.431
 5208.00    1.40312   1.38043  114.093
 5209.00    1.41090   1.38229  113.443
 5210.00    1.43453   1.40139  110.545
 5211.00    1.47072   1.43795  106.396
 5212.00    1.50326   1.47173  102.162
 5213.00    1.52337   1.49242   99.239
 5214.00    1.51883   1.49113   99.012
 5215.00    1.49857   1.47447  100.903
 5216.00    1.48119   1.45859  102.678
 5217.00    1.48462   1.45848  102.699
 5218.00    1.50148   1.47688  101.004
 5219.00    1.52055   1.49930   99.154
 5220.00    1.53879   1.51552   98.091
 5221.00    1.54473   1.52322   97.561
 5222.00    1.54181   1.52393   98.112
 5223.00    1.52520   1.51364  100.401
 5224.00    1.48643   1.48862  104.129
 5225.00    1.43844   1.44711  108.796
 5226.00    1.40100   1.40162  112.754
 5227.00    1.40372   1.38037  112.662
 5228.00    1.44604   1.40416   -1.000
 5229.00    1.49300   1.45107   -1.000
 5230.00    1.52047   1.48640   99.865
 5231.00    1.52033   1.49224   99.071
 5232.00    1.50432   1.47765  100.177
 5233.00    1.49105   1.45720  102.140
 5234.00    1.48988   1.45094  102.793
 5235.00    1.50311   1.46755  101.286
 5236.00    1.52273   1.49374   98.845
 5237.00    1.54422   1.51594   97.193
 5238.00    1.55607   1.52544   96.706
 5239.00    1.55642   1.52599   96.871
 5240.00    1.55686   1.52481   96.918
 5241.00    1.54954   1.52340   96.502
 5242.00    1.54760   1.52209   96.326
 5243.00    1.55588   1.52320   96.301
 5244.00    1.56102   1.52690   96.116
 5245.00    1.55134   1.52732   97.136
 5246.00    1.52151   1.51564   99.774
 5247.00    1.49798   1.49647  102.490
 5248.00    1.49474   1.48442  103.647
 5249.00    1.49270   1.48226  103.805
 5250.00    1.48941   1.47984  104.268
 5251.00    1.49737   1.47937  104.293
 5252.00    1.50589   1.48658  103.217
 5253.00    1.50972   1.49366  101.989
 5254.00    1.51334   1.49570  101.574
 5255.00    1.52358   1.49744  101.198
 5256.00    1.54095   1.50625   99.507
 5257.00    1.56286   1.52425   -1.000
 5258.00    1.57910   1.53867   -1.000
 5259.00    1.57579   1.54100   95.483
 5260.00    1.55302   1.52921   97.399
 5261.00    1.51670   1.50311  100.946
 5262.00    1.47635   1.46966  105.577
 5263.00    1.44626   1.43908  109.861
 5264.00    1.42528   1.41485  112.757
 5265.00    1.41338   1.40327  113.896
 5266.00    1.42362   1.40425  112.837
 5267.00    1.43744   1.41253  110.776
 5268.00    1.42777   1.40732  111.259
 5269.00    1.40281   1.37636  114.988
 5270.00    1.39894   1.35510   -1.000
 5271.00    1.43677   1.37725   -1.000
 5272.00    1.48278   1.43039   -1.000
 5273.00    1.50454   1.46915  102.724
 5274.00    1.51160   1.47839  102.401
 5275.00    1.51860   1.47927   -1.000
 5276.00    1.53338   1.48579   -1.000
 5277.00    1.55736   1.50556   -1.000
 5278.00    1.58247   1.52976   -1.000
 5279.00    1.58849   1.54067   -1.000
 5280.00    1.56748   1.53186   96.894
 5281.00    1.54233   1.51160   99.395
 5282.00    1.52452   1.49117  101.557
 5283.00    1.51437   1.47732  102.625
 5284.00    1.52287   1.48231   -1.000
 5285.00    1.55449   1.50605   -1.000
 5286.00    1.59017   1.53791   -1.000
 5287.00    1.60190   1.55885   -1.000
 5288.00    1.59448   1.56502   94.091
 5289.00    1.58367   1.56646   94.338
 5290.00    1.58883   1.56649   93.999
 5291.00    1.60108   1.56420   93.629
 5292.00    1.59736   1.56149   93.865
 5293.00    1.59165   1.56028   94.632
 5294.00    1.58579   1.55740   95.743
 5295.00    1.56868   1.54725   97.770
 5296.00    1.53249   1.52588  101.093
 5297.00    1.49815   1.50007  104.369
 5298.00    1.49865   1.48584  105.174
 5299.00    1.51702   1.49106  103.257
 5300.00    1.53341   1.50776  100.972
 5301.00    1.54550   1.51982   99.816
 5302.00    1.55276   1.52772   98.883
 5303.00    1.57046   1.53920   96.814
 5304.00    1.59806   1.55405   -1.000
 5305.00    1.60956   1.56381   -1.000
 5306.00    1.60161   1.56279   -1.000
 5307.00    1.59266   1.55657   95.120
 5308.00    1.59498   1.55475   -1.000
 5309.00    1.60492   1.56001   -1.000
 5310.00    1.60934   1.56831   -1.000
 5311.00    1.61183   1.57151   -1.000
 5312.00    1.61502   1.56980   -1.000
 5313.00    1.61364   1.56636   -1.000
 5314.00    1.60548   1.55880   -1.000
 5315.00    1.59065   1.54666   -1.000
 5316.00    1.57934   1.53384   -1.000
 5317.00    1.57656   1.52842   -1.000
 5318.00    1.58245   1.53670   -1.000
 5319.00    1.58911   1.54920   -1.000
 5320.00    1.58926   1.55774   95.821
 5321.00    1.58784   1.55703   96.381
 5322.00    1.57800   1.54649   97.327
 5323.00    1.55876   1.52728   98.805
 5324.00    1.54868   1.51049   -1.000
 5325.00    1.54906   1.50413   -1.000
 5326.00    1.52665   1.49054  101.940
 5327.00    1.47639   1.45393  106.933
 5328.00    1.44096   1.41400  112.059
 5329.00    1.45454   1.41075   -1.000
 5330.00    1.50585   1.45771   -1.000
 5331.00    1.55061   1.50912   -1.000
 5332.00    1.56951   1.53291   -1.000
 5333.00    1.57672   1.54029   -1.000
 5334.00    1.58947   1.54552   -1.000
 5335.00    1.59622   1.54853   -1.000
 5336.00    1.58952   1.54792   -1.000
 5337.00    1.58480   1.54380   -1.000
 5338.00    1.57864   1.53650   -1.000
 5339.00    1.56157   1.52234   -1.000
 5340.00    1.53995   1.50464  101.491
 5341.00    1.53897   1.49791   -1.000
 5342.00    1.56317   1.51376   -1.000
 5343.00    1.58655   1.53600   -1.000
 5344.00    1.59447   1.54622   -1.000
 5345.00    1.58881   1.54441   -1.000
 5346.00    1.57994   1.53695   -1.000
 5347.00    1.57389   1.52973   -1.000
 5348.00    1.56953   1.52514   -1.000
 5349.00    1.56537   1.52184   -1.000
 5350.00    1.57201   1.52810   -1.000
 5351.00    1.59553   1.54407   -1.000
 5352.00    1.61312   1.55881   -1.000
 5353.00    1.61595   1.56819   -1.000
 5354.00    1.62094   1.57271   -1.000
 5355.00    1.63141   1.58021   -1.000
 5356.00    1.63700   1.58857   -1.000
 5357.00    1.63744   1.59291   -1.000
 5358.00    1.63989   1.59385   -1.000
 5359.00    1.63815   1.59232   -1.000
 5360.00    1.62824   1.58700   -1.000
 5361.00    1.61440   1.57847   94.289
 5362.00    1.59956   1.56782   95.778
 5363.00    1.58746   1.55759   96.764
 5364.00    1.57972   1.54772   97.350
 5365.00    1.57088   1.54148   97.924
 5366.00    1.56563   1.54191   98.013
 5367.00    1.57115   1.54492   97.845
 5368.00    1.57527   1.54196   98.415
 5369.00    1.55973   1.52487  100.267
 5370.00    1.53472   1.49644   -1.000
 5371.00    1.52723   1.47351   -1.000
 5372.00    1.54495   1.47847   -1.000
 5373.00    1.57991   1.51362   -1.000
 5374.00    1.61338   1.55152   -1.000
 5375.00    1.63040   1.57495   -1.000
 5376.00    1.63768   1.57986   -1.000
 5377.00    1.63805   1.58012   -1.000
 5378.00    1.63047   1.58260   -1.000
 5379.00    1.62244   1.58224   -1.000
 5380.00    1.61374   1.57620   -1.000
 5381.00    1.60692   1.56687   -1.000
 5382.00    1.60248   1.55844   -1.000
 5383.00    1.59969   1.55521   -1.000
 5384.00    1.60487   1.55707   -1.000
 5385.00    1.61816   1.56619   -1.000
 5386.00    1.63051   1.57853   -1.000
 5387.00    1.63289   1.58524   -1.000
 5388.00    1.62555   1.58308   -1.000
 5389.00    1.61562   1.57356   -1.000
 5390.00    1.60391   1.56114   -1.000
 5391.00    1.59111   1.55194   -1.000
 5392.00    1.58602   1.54553   -1.000
 5393.00    1.58725   1.54129   -1.000
 5394.00    1.58430   1.53837   -1.000
 5395.00    1.57200   1.53141   -1.000
 5396.00    1.55122   1.51286   -1.000
 5397.00    1.53855   1.49407   -1.000
 5398.00    1.55344   1.49939   -1.000
 5399.00    1.58347   1.52457   -1.000
 5400.00    1.60263   1.54889   -1.000
 5401.00    1.60543   1.56033   -1.000
 5402.00    1.59463   1.55899   97.813
 5403.00    1.57398   1.54229   99.841
 5404.00    1.54658   1.51082   -1.000
 5405.00    1.52488   1.48121   -1.000
 5406.00    1.53098   1.47448   -1.000
 5407.00    1.55511   1.49576   -1.000
 5408.00    1.56767   1.51748   -1.000
 5409.00    1.56492   1.52200   -1.000
 5410.00    1.56547   1.51745   -1.000
 5411.00    1.58493   1.52656   -1.000
 5412.00    1.61153   1.54879   -1.000
 5413.00    1.62095   1.56318   -1.000
 5414.00    1.61416   1.56486   -1.000
 5415.00    1.61155   1.56342   -1.000
 5416.00    1.61912   1.56783   -1.000
 5417.00    1.62525   1.57705   -1.000
 5418.00    1.62397   1.58239   -1.000
 5419.00    1.62110   1.58244   -1.000
 5420.00    1.61872   1.58150   -1.000
 5421.00    1.62135   1.57890   -1.000
 5422.00    1.61857   1.57420   -1.000
 5423.00    1.60424   1.56707   -1.000
 5424.00    1.59361   1.55838   97.945
 5425.00    1.59718   1.55971   -1.000
 5426.00    1.61611   1.57344   -1.000
 5427.00    1.62364   1.58378   -1.000
 5428.00    1.60198   1.57215   97.381
 5429.00    1.57583   1.54354  100.426
 5430.00    1.57051   1.52829   -1.000
 5431.00    1.58505   1.53617   -1.000
 5432.00    1.59518   1.54691   -1.000
 5433.00    1.58497   1.54235   -1.000
 5434.00    1.56865   1.52482   -1.000
 5435.00    1.56536   1.51982   -1.000
 5436.00    1.58351   1.53638   -1.000
 5437.00    1.61269   1.56257   -1.000
 5438.00    1.63625   1.58640   -1.000
 5439.00    1.64907   1.59951   -1.000
 5440.00    1.65504   1.60693   -1.000
 5441.00    1.65832   1.61173   -1.000
 5442.00    1.65713   1.61421   -1.000
 5443.00    1.64940   1.61112   -1.000
 5444.00    1.62695   1.59483   95.557
 5445.00    1.58985   1.56213   98.958
 5446.00    1.55268   1.52434  102.664
 5447.00    1.54115   1.50628  103.674
 5448.00    1.56440   1.52068   -1.000
 5449.00    1.60083   1.55256   -1.000
 5450.00    1.62401   1.57932   -1.000
 5451.00    1.62592   1.58963   96.130
 5452.00    1.61825   1.58717   96.635
 5453.00    1.60393   1.57371   98.296
 5454.00    1.57833   1.54828  100.961
 5455.00    1.55571   1.51957   -1.000
 5456.00    1.56015   1.51382   -1.000
 5457.00    1.59001   1.53822   -1.000
 5458.00    1.62081   1.57466   -1.000
 5459.00    1.63489   1.59605   -1.000
 5460.00    1.63095   1.59918   96.625
 5461.00    1.61948   1.59103   98.219
 5462.00    1.60734   1.57711   99.807
 5463.00    1.59994   1.56590  100.680
 5464.00    1.60363   1.56607   -1.000
 5465.00    1.61601   1.57575   -1.000
 5466.00    1.62839   1.58564   -1.000
 5467.00    1.63561   1.59191   -1.000
 5468.00    1.64353   1.59533   -1.000
 5469.00    1.64571   1.59783   -1.000
 5470.00    1.64245   1.59825   -1.000
 5471.00    1.64079   1.59348   -1.000
 5472.00    1.63067   1.58775   -1.000
 5473.00    1.61897   1.58195   -1.000
 5474.00    1.60677   1.57232  101.134
 5475.00    1.58654   1.55517  102.999
 5476.00    1.56951   1.53484  104.909
 5477.00    1.56922   1.52580   -1.000
 5478.00    1.59163   1.54294   -1.000
 5479.00    1.61967   1.56920   -1.000
 5480.00    1.62689   1.58084   -1.000
 5481.00    1.61365   1.57781   -1.000
 5482.00    1.60521   1.57366  101.383
 5483.00    1.61598   1.57829   -1.000
 5484.00    1.63536   1.59181   -1.000
 5485.00    1.64674   1.60245   -1.000
 5486.00    1.64124   1.60430   -1.000
 5487.00    1.62765   1.59752   98.355
 5488.00    1.62217   1.58987   99.315
 5489.00    1.62539   1.58638   -1.000
 5490.00    1.62533   1.58906   -1.000
 5491.00    1.62734   1.59486   98.377
 5492.00    1.63889   1.60024   -1.000
 5493.00    1.64240   1.60209   -1.000
 5494.00    1.63873   1.60060   -1.000
 5495.00    1.63772   1.59526   -1.000
 5496.00    1.63368   1.58527   -1.000
 5497.00    1.62429   1.57382   -1.000
 5498.00    1.62239   1.57230   -1.000
 5499.00    1.63077   1.58064   -1.000
 5500.00    1.63352   1.58241   -1.000
 5501.00    1.62476   1.57337   -1.000
 5502.00    1.62227   1.56546   -1.000
 5503.00    1.62749   1.57022   -1.000
 5504.00    1.62795   1.57952   -1.000
 5505.00    1.62002   1.57468   -1.000
 5506.00    1.60217   1.56099   -1.000
 5507.00    1.60051   1.55590   -1.000
 5508.00    1.61676   1.56639   -1.000
 5509.00    1.63381   1.58472   -1.000
 5510.00    1.63633   1.59110   -1.000
 5511.00    1.62166   1.58387   -1.000
 5512.00    1.60778   1.57250   -1.000
 5513.00    1.60396   1.56344   -1.000
 5514.00    1.60969   1.56243   -1.000
 5515.00    1.62089   1.56889   -1.000
 5516.00    1.64263   1.58029   -1.000
 5517.00    1.66149   1.59394   -1.000
 5518.00    1.67055   1.60704   -1.000
 5519.00    1.67381   1.61430   -1.000
 5520.00    1.67086   1.61583   -1.000
 5521.00    1.66982   1.61350   -1.000
 5522.00    1.66754   1.61386   -1.000
 5523.00    1.66024   1.61589   -1.000
 5524.00    1.65451   1.61447   -1.000
 5525.00    1.64980   1.60517   -1.000
 5526.00    1.62965   1.58299   -1.000
 5527.00    1.60001   1.55738   -1.000
 5528.00    1.58922   1.54186   -1.000
 5529.00    1.60346   1.54956   -1.000
 5530.00    1.63367   1.57572   -1.000
 5531.00    1.65581   1.59924   -1.000
 5532.00    1.65558   1.60651   -1.000
 5533.00    1.64751   1.60024   -1.000
 5534.00    1.64199   1.59113   -1.000
 5535.00    1.63925   1.58769   -1.000
 5536.00    1.64234   1.59460   -1.000
 5537.00    1.65567   1.60331   -1.000
 5538.00    1.66670   1.61019   -1.000
 5539.00    1.67232   1.61593   -1.000
 5540.00    1.68215   1.62084   -1.000
 5541.00    1.68876   1.62352   -1.000
 5542.00    1.68071   1.62152   -1.000
 5543.00    1.66652   1.61550   -1.000
 5544.00    1.66174   1.61112   -1.000
 5545.00    1.66346   1.61133   -1.000
 5546.00    1.66872   1.61362   -1.000
 5547.00    1.68065   1.61645   -1.000
 5548.00    1.68843   1.62349   -1.000
 5549.00    1.69166   1.63271   -1.000
 5550.00    1.69619   1.63651   -1.000
 5551.00    1.69320   1.63486   -1.000
 5552.00    1.68826   1.63052   -1.000
 5553.00    1.67898   1.62712   -1.000
 5554.00    1.66960   1.62381   -1.000
 5555.00    1.67270   1.62295   -1.000
 5556.00    1.67924   1.62290   -1.000
 5557.00    1.68088   1.62407   -1.000
 5558.00    1.67907   1.62534   -1.000
 5559.00    1.67769   1.62719   -1.000
 5560.00    1.67883   1.62898   -1.000
 5561.00    1.67846   1.62694   -1.000
 5562.00    1.67210   1.62115   -1.000
 5563.00    1.66768   1.61652   -1.000
 5564.00    1.66178   1.61545   -1.000
 5565.00    1.65380   1.61519   -1.000
 5566.00    1.65328   1.61181   -1.000
 5567.00    1.65498   1.60823   -1.000
 5568.00    1.65318   1.60540   -1.000
 5569.00    1.64974   1.60212   -1.000
 5570.00    1.64932   1.60260   -1.000
 5571.00    1.64926   1.60108   -1.000
 5572.00    1.64584   1.59420   -1.000
 5573.00    1.65039   1.59305   -1.000
 5574.00    1.66295   1.59818   -1.000
 5575.00    1.67517   1.60654   -1.000
 5576.00    1.69745   1.61328   -1.000
 5577.00    1.72714   1.61813   -1.000
 5578.00    1.73407   1.62353   -1.000
 5579.00    1.71778   1.62887   -1.000
 5580.00    1.70615   1.62993   -1.000
 5581.00    1.68969   1.62566   -1.000
 5582.00    1.67241   1.62293   -1.000
 5583.00    1.67325   1.62319   -1.000
 5584.00    1.67396   1.62227   -1.000
 5585.00    1.65927   1.60947   -1.000
 5586.00    1.63038   1.58526   -1.000
 5587.00    1.60019   1.56133   -1.000
 5588.00    1.58655   1.54845   -1.000
 5589.00    1.59362   1.55176   -1.000
 5590.00    1.61409   1.56622   -1.000
 5591.00    1.63417   1.58561   -1.000
 5592.00    1.64661   1.59674   -1.000
 5593.00    1.64528   1.59818   -1.000
 5594.00    1.63994   1.59655   -1.000
 5595.00    1.64726   1.60268   -1.000
 5596.00    1.65611   1.61297   -1.000
 5597.00    1.65378   1.61059   -1.000
 5598.00    1.63934   1.59806   -1.000
 5599.00    1.63048   1.59039   -1.000
 5600.00    1.62896   1.58546   -1.000
 5601.00    1.62490   1.57742   -1.000
 5602.00    1.61955   1.57443   -1.000
 5603.00    1.62809   1.58459   -1.000
 5604.00    1.65817   1.60579   -1.000
 5605.00    1.68453   1.62916   -1.000
 5606.00    1.69785   1.64387   -1.000
 5607.00    1.70388   1.65065   -1.000
 5608.00    1.70646   1.65265   -1.000
 5609.00    1.70606   1.65309   -1.000
 5610.00    1.70172   1.65542   -1.000
 5611.00    1.70256   1.65819   -1.000
 5612.00    1.70393   1.65561   -1.000
 5613.00    1.68703   1.64151   -1.000
 5614.00    1.65429   1.61407   -1.000
 5615.00    1.63174   1.58628   -1.000
 5616.00    1.63578   1.58388   -1.000
 5617.00    1.65918   1.60187   -1.000
 5618.00    1.67947   1.62247   -1.000
 5619.00    1.68689   1.63257   -1.000
 5620.00    1.69255   1.63583   -1.000
 5621.00    1.69699   1.63834   -1.000
 5622.00    1.69276   1.63961   -1.000
 5623.00    1.67996   1.63315   -1.000
 5624.00    1.66500   1.62241   -1.000
 5625.00    1.65705   1.61698   -1.000
 5626.00    1.66580   1.62217   -1.000
 5627.00    1.68288   1.63234   -1.000
 5628.00    1.69333   1.63913   -1.000
 5629.00    1.70298   1.64499   -1.000
 5630.00    1.71258   1.64889   -1.000
 5631.00    1.71501   1.65098   -1.000
 5632.00    1.71212   1.65077   -1.000
 5633.00    1.71240   1.64830   -1.000
 5634.00    1.71187   1.64724   -1.000
 5635.00    1.70549   1.64461   -1.000
 5636.00    1.69566   1.63858   -1.000
 5637.00    1.68412   1.63351   -1.000
 5638.00    1.67488   1.63196   -1.000
 5639.00    1.67310   1.63209   -1.000
 5640.00    1.68021   1.63047   -1.000
 5641.00    1.68442   1.62728   -1.000
 5642.00    1.68324   1.62717   -1.000
 5643.00    1.68609   1.63187   -1.000
 5644.00    1.69148   1.63629   -1.000
 5645.00    1.69670   1.63828   -1.000
 5646.00    1.69949   1.63959   -1.000
 5647.00    1.69903   1.63994   -1.000
 5648.00    1.70295   1.64075   -1.000
 5649.00    1.70662   1.64131   -1.000
 5650.00    1.71039   1.64209   -1.000
 5651.00    1.71582   1.64578   -1.000
 5652.00    1.71737   1.64917   -1.000
 5653.00    1.71461   1.65028   -1.000
 5654.00    1.70538   1.64829   -1.000
 5655.00    1.69174   1.64281   -1.000
 5656.00    1.67572   1.62896   -1.000
 5657.00    1.65622   1.60461   -1.000
 5658.00    1.63462   1.58660   -1.000
 5659.00    1.63424   1.58885   -1.000
 5660.00    1.65813   1.60441   -1.000
 5661.00    1.66920   1.61695   -1.000
 5662.00    1.66789   1.61816   -1.000
 5663.00    1.67766   1.62370   -1.000
 5664.00    1.68877   1.63825   -1.000
 5665.00    1.69280   1.64738   -1.000
 5666.00    1.69457   1.64432   -1.000
 5667.00    1.68938   1.63400   -1.000
 5668.00    1.68277   1.62740   -1.000
 5669.00    1.68462   1.62925   -1.000
 5670.00    1.69219   1.63476   -1.000
 5671.00    1.70315   1.64120   -1.000
 5672.00    1.70798   1.64774   -1.000
 5673.00    1.71178   1.65354   -1.000
 5674.00    1.71730   1.65617   -1.000
 5675.00    1.71714   1.65699   -1.000
 5676.00    1.71892   1.65869   -1.000
 5677.00    1.72050   1.66101   -1.000
 5678.00    1.71925   1.66139   -1.000
 5679.00    1.71902   1.65861   -1.000
 5680.00    1.71804   1.65306   -1.000
 5681.00    1.70735   1.64451   -1.000
 5682.00    1.69147   1.63386   -1.000
 5683.00    1.68583   1.62560   -1.000
 5684.00    1.68878   1.62613   -1.000
 5685.00    1.69246   1.63290   -1.000
 5686.00    1.69320   1.63742   -1.000
 5687.00    1.68983   1.63565   -1.000
 5688.00    1.68361   1.63167   -1.000
 5689.00    1.68352   1.63083   -1.000
 5690.00    1.70041   1.63649   -1.000
 5691.00    1.71709   1.64717   -1.000
 5692.00    1.72397   1.65723   -1.000
 5693.00    1.72558   1.66192   -1.000
 5694.00    1.72566   1.66283   -1.000
 5695.00    1.72916   1.66301   -1.000
 5696.00    1.72447   1.66235   -1.000
 5697.00    1.71457   1.66009   -1.000
 5698.00    1.70186   1.65453   -1.000
 5699.00    1.68765   1.64677   -1.000
 5700.00    1.67957   1.63994   -1.000
 5701.00    1.67460   1.63469   -1.000
 5702.00    1.67724   1.63398   -1.000
 5703.00    1.68250   1.64017   -1.000
 5704.00    1.68291   1.64700   -1.000
 5705.00    1.68034   1.64810   99.740
 5706.00    1.67186   1.64253  100.880
 5707.00    1.65814   1.63085  102.610
 5708.00    1.64447   1.61715  104.379
 5709.00    1.63537   1.60486  105.413
 5710.00    1.63399   1.60009   -1.000
 5711.00    1.64216   1.60535   -1.000
 5712.00    1.66005   1.61897   -1.000
 5713.00    1.68695   1.63493   -1.000
 5714.00    1.71208   1.64771   -1.000
 5715.00    1.72324   1.65372   -1.000
 5716.00    1.72683   1.65842   -1.000
 5717.00    1.72400   1.66231   -1.000
 5718.00    1.72143   1.66518   -1.000
 5719.00    1.72815   1.66861   -1.000
 5720.00    1.73484   1.67256   -1.000
 5721.00    1.74197   1.67580   -1.000
 5722.00    1.74227   1.67729   -1.000
 5723.00    1.74290   1.67909   -1.000
 5724.00    1.74766   1.67976   -1.000
 5725.00    1.74095   1.67577   -1.000
 5726.00    1.72890   1.66582   -1.000
 5727.00    1.71566   1.65832   -1.000
 5728.00    1.71435   1.65727   -1.000
 5729.00    1.72901   1.66072   -1.000
 5730.00    1.73364   1.66480   -1.000
 5731.00    1.72756   1.66638   -1.000
 5732.00    1.73059   1.66728   -1.000
 5733.00    1.74162   1.67105   -1.000
 5734.00    1.75123   1.67816   -1.000
 5735.00    1.74793   1.68083   -1.000
 5736.00    1.73953   1.67982   -1.000
 5737.00    1.73757   1.68002   -1.000
 5738.00    1.73777   1.67896   -1.000
 5739.00    1.73897   1.67909   -1.000
 5740.00    1.74036   1.68010   -1.000
 5741.00    1.73682   1.68035   -1.000
 5742.00    1.73428   1.67833   -1.000
 5743.00    1.73821   1.67770   -1.000
 5744.00    1.73962   1.68085   -1.000
 5745.00    1.74474   1.68500   -1.000
 5746.00    1.74442   1.68490   -1.000
 5747.00    1.73244   1.68023   -1.000
 5748.00    1.73252   1.67653   -1.000
 5749.00    1.74242   1.67963   -1.000
 5750.00    1.74831   1.68316   -1.000
 5751.00    1.74277   1.68156   -1.000
 5752.00    1.72651   1.67318   -1.000
 5753.00    1.71253   1.66216   -1.000
 5754.00    1.71116   1.66010   -1.000
 5755.00    1.72538   1.66904   -1.000
 5756.00    1.74596   1.68198   -1.000
 5757.00    1.75498   1.69229   -1.000
 5758.00    1.75085   1.69807   -1.000
 5759.00    1.74578   1.69555   -1.000
 5760.00    1.73971   1.68599   -1.000
 5761.00    1.73073   1.67437   -1.000
 5762.00    1.71894   1.66572   -1.000
 5763.00    1.71271   1.66765   -1.000
 5764.00    1.71949   1.68113   -1.000
 5765.00    1.73436   1.69477   -1.000
 5766.00    1.74650   1.69895   -1.000
 5767.00    1.75036   1.69925   -1.000
 5768.00    1.74873   1.69807   -1.000
 5769.00    1.74154   1.69704   -1.000
 5770.00    1.73344   1.69501   -1.000
 5771.00    1.72691   1.69312   95.643
 5772.00    1.72279   1.69131   96.225
 5773.00    1.71936   1.68883   96.628
 5774.00    1.71627   1.68449   96.776
 5775.00    1.71798   1.67981   -1.000
 5776.00    1.71681   1.67970   -1.000
 5777.00    1.70513   1.68098   96.048
 5778.00    1.67810   1.67889   96.203
 5779.00    1.63948   1.67340   -1.000
 5780.00    1.61436   1.66480   -1.000
 5781.00    1.61900   1.65600   -1.000
 5782.00    1.64749   1.65099  101.244
 5783.00    1.67490   1.65173  100.858
 5784.00    1.69032   1.65418   -1.000
 5785.00    1.70634   1.65675   -1.000
 5786.00    1.72005   1.66033   -1.000
 5787.00    1.73165   1.66604   -1.000
 5788.00    1.74097   1.67176   -1.000
 5789.00    1.73820   1.67701   -1.000
 5790.00    1.73454   1.67799   -1.000
 5791.00    1.73496   1.67661   -1.000
 5792.00    1.73599   1.67965   -1.000
 5793.00    1.74089   1.68799   -1.000
 5794.00    1.74171   1.69789   -1.000
 5795.00    1.73730   1.70360   -1.000
 5796.00    1.72669   1.70220   95.393
 5797.00    1.72096   1.69511   96.024
 5798.00    1.72732   1.69112   -1.000
 5799.00    1.73722   1.69572   -1.000
 5800.00    1.75016   1.70383   -1.000
 5801.00    1.76404   1.71033   -1.000
 5802.00    1.76959   1.71229   -1.000
 5803.00    1.76054   1.70871   -1.000
 5804.00    1.75090   1.70310   -1.000
 5805.00    1.75315   1.70091   -1.000
 5806.00    1.75719   1.70201   -1.000
 5807.00    1.75712   1.70625   -1.000
 5808.00    1.76279   1.70964   -1.000
 5809.00    1.76723   1.71019   -1.000
 5810.00    1.76812   1.71078   -1.000
 5811.00    1.77199   1.71195   -1.000
 5812.00    1.77246   1.71244   -1.000
 5813.00    1.77167   1.71086   -1.000
 5814.00    1.76926   1.70604   -1.000
 5815.00    1.76077   1.70004   -1.000
 5816.00    1.75664   1.69729   -1.000
 5817.00    1.76385   1.70185   -1.000
 5818.00    1.77586   1.70959   -1.000
 5819.00    1.78300   1.71401   -1.000
 5820.00    1.78204   1.71534   -1.000
 5821.00    1.78167   1.71612   -1.000
 5822.00    1.78528   1.71719   -1.000
 5823.00    1.78566   1.71665   -1.000
 5824.00    1.78472   1.71568   -1.000
 5825.00    1.78507   1.71506   -1.000
 5826.00    1.78383   1.71689   -1.000
 5827.00    1.78551   1.71956   -1.000
 5828.00    1.79136   1.72250   -1.000
 5829.00    1.79110   1.72546   -1.000
 5830.00    1.78802   1.72536   -1.000
 5831.00    1.78857   1.72380   -1.000
 5832.00    1.78811   1.72237   -1.000
 5833.00    1.78731   1.71970   -1.000
 5834.00    1.78800   1.71668   -1.000
 5835.00    1.79090   1.71468   -1.000
 5836.00    1.79595   1.71630   -1.000
 5837.00    1.79428   1.71866   -1.000
 5838.00    1.78944   1.72099   -1.000
 5839.00    1.79050   1.72379   -1.000
 5840.00    1.78475   1.72643   -1.000
 5841.00    1.78075   1.72779   -1.000
 5842.00    1.78875   1.72758   -1.000
 5843.00    1.79118   1.72373   -1.000
 5844.00    1.78949   1.71917   -1.000
 5845.00    1.78856   1.71559   -1.000
 5846.00    1.78166   1.71292   -1.000
 5847.00    1.77460   1.71056   -1.000
 5848.00    1.77043   1.70969   -1.000
 5849.00    1.77111   1.70868   -1.000
 5850.00    1.76369   1.70668   -1.000
 5851.00    1.75029   1.70091   -1.000
 5852.00    1.74387   1.68991   -1.000
 5853.00    1.74187   1.68148   -1.000
 5854.00    1.73906   1.68067   -1.000
 5855.00    1.73951   1.68084   -1.000
 5856.00    1.73948   1.67254   -1.000
 5857.00    1.72864   1.65932   -1.000
 5858.00    1.72396   1.65568   -1.000
 5859.00    1.73674   1.66503   -1.000
 5860.00    1.75193   1.67958   -1.000
 5861.00    1.75818   1.68878   -1.000
 5862.00    1.75940   1.69316   -1.000
 5863.00    1.76196   1.69556   -1.000
 5864.00    1.76720   1.69625   -1.000
 5865.00    1.76337   1.69320   -1.000
 5866.00    1.75267   1.68766   -1.000
 5867.00    1.75219   1.68626   -1.000
 5868.00    1.76399   1.69273   -1.000
 5869.00    1.77823   1.70174   -1.000
 5870.00    1.78352   1.70816   -1.000
 5871.00    1.78261   1.70980   -1.000
 5872.00    1.78287   1.70731   -1.000
 5873.00    1.78078   1.70406   -1.000
 5874.00    1.77554   1.70109   -1.000
 5875.00    1.77511   1.69824   -1.000
 5876.00    1.77588   1.69660   -1.000
 5877.00    1.77003   1.69468   -1.000
 5878.00    1.76531   1.68932   -1.000
 5879.00    1.75969   1.68240   -1.000
 5880.00    1.75642   1.67809   -1.000
 5881.00    1.75611   1.67623   -1.000
 5882.00    1.75392   1.67493   -1.000
 5883.00    1.75333   1.67146   -1.000
 5884.00    1.74975   1.66566   -1.000
 5885.00    1.74685   1.65888   -1.000
 5886.00    1.72305   1.64848   -1.000
 5887.00    1.64763   1.62009  100.845
 5888.00    1.52555   1.56094   -1.000
 5889.00    1.40037   1.49308   -1.000
 5890.00    1.35295   1.46742   -1.000
 5891.00    1.42868   1.49417   -1.000
 5892.00    1.55005   1.54198  112.374
 5893.00    1.59346   1.56556  109.037
 5894.00    1.53980   1.54980  108.916
 5895.00    1.45910   1.51492   -1.000
 5896.00    1.44062   1.50047   -1.000
 5897.00    1.51099   1.52923   -1.000
 5898.00    1.60967   1.57127   -1.000
 5899.00    1.67887   1.60392   -1.000
 5900.00    1.71069   1.62759   -1.000
 5901.00    1.72178   1.64567   -1.000
 5902.00    1.73163   1.65871   -1.000
 5903.00    1.74684   1.66751   -1.000
 5904.00    1.75422   1.67163   -1.000
 5905.00    1.75436   1.67380   -1.000
 5906.00    1.75154   1.67601   -1.000
 5907.00    1.74881   1.67749   -1.000
 5908.00    1.74955   1.68010   -1.000
 5909.00    1.74465   1.68350   -1.000
 5910.00    1.74494   1.68581   -1.000
 5911.00    1.74599   1.68519   -1.000
 5912.00    1.74113   1.68059   -1.000
 5913.00    1.73433   1.67163   -1.000
 5914.00    1.72488   1.66238   -1.000
 5915.00    1.72290   1.65720   -1.000
 5916.00    1.72865   1.65839   -1.000
 5917.00    1.73122   1.66305   -1.000
 5918.00    1.73381   1.66969   -1.000
 5919.00    1.73469   1.67515   -1.000
 5920.00    1.73229   1.67795   -1.000
 5921.00    1.73533   1.67916   -1.000
 5922.00    1.74024   1.67950   -1.000
 5923.00    1.73995   1.67932   -1.000
 5924.00    1.73739   1.68253   -1.000
 5925.00    1.74293   1.68836   -1.000
 5926.00    1.75249   1.69281   -1.000
 5927.00    1.75748   1.69437   -1.000
 5928.00    1.75923   1.69043   -1.000
 5929.00    1.75356   1.68377   -1.000
 5930.00    1.74422   1.68144   -1.000
 5931.00    1.74366   1.68547   -1.000
 5932.00    1.74765   1.68987   -1.000
 5933.00    1.74346   1.69105   -1.000
 5934.00    1.74364   1.68802   -1.000
 5935.00    1.75183   1.68553   -1.000
 5936.00    1.75397   1.68754   -1.000
 5937.00    1.75547   1.69244   -1.000
 5938.00    1.75903   1.69447   -1.000
 5939.00    1.75944   1.69113   -1.000
 5940.00    1.74971   1.68477   -1.000
 5941.00    1.73597   1.68044   -1.000
 5942.00    1.72958   1.67857   -1.000
 5943.00    1.73423   1.68063   -1.000
 5944.00    1.74578   1.68716   -1.000
 5945.00    1.74838   1.69207   -1.000
 5946.00    1.74339   1.69284   -1.000
 5947.00    1.74174   1.68923   -1.000
 5948.00    1.73844   1.68464   -1.000
 5949.00    1.72879   1.68544   -1.000
 5950.00    1.72836   1.69010   -1.000
 5951.00    1.74401   1.69138   -1.000
 5952.00    1.75024   1.69103   -1.000
 5953.00    1.74798   1.69055   -1.000
 5954.00    1.75191   1.69035   -1.000
 5955.00    1.74798   1.68727   -1.000
 5956.00    1.73652   1.68304   -1.000
 5957.00    1.73104   1.68183   -1.000
 5958.00    1.74057   1.68595   -1.000
 5959.00    1.74943   1.69419   -1.000
 5960.00    1.75978   1.70159   -1.000
 5961.00    1.77485   1.70698   -1.000
 5962.00    1.77847   1.70880   -1.000
 5963.00    1.77049   1.70738   -1.000
 5964.00    1.76167   1.70361   -1.000
 5965.00    1.75669   1.69866   -1.000
 5966.00    1.75125   1.69572   -1.000
 5967.00    1.75170   1.69770   -1.000
 5968.00    1.75538   1.70155   -1.000
 5969.00    1.75988   1.70468   -1.000
 5970.00    1.76773   1.70779   -1.000
 5971.00    1.77116   1.71023   -1.000
 5972.00    1.76834   1.70994   -1.000
 5973.00    1.76549   1.70846   -1.000
 5974.00    1.76052   1.70728   -1.000
 5975.00    1.75538   1.70223   -1.000
 5976.00    1.74538   1.69590   -1.000
 5977.00    1.73745   1.69284   -1.000
 5978.00    1.74699   1.69331   -1.000
 5979.00    1.75951   1.69901   -1.000
 5980.00    1.76249   1.70461   -1.000
 5981.00    1.76048   1.70684   -1.000
 5982.00    1.75700   1.70298   -1.000
 5983.00    1.74824   1.69520   -1.000
 5984.00    1.74062   1.68968   -1.000
 5985.00    1.74385   1.69058   -1.000
 5986.00    1.75283   1.69638   -1.000
 5987.00    1.75778   1.70187   -1.000
 5988.00    1.76155   1.70626   -1.000
 5989.00    1.76280   1.70859   -1.000
 5990.00    1.76244   1.70759   -1.000
 5991.00    1.76662   1.70665   -1.000
 5992.00    1.77280   1.71067   -1.000
 5993.00    1.77845   1.71911   -1.000
 5994.00    1.77959   1.72570   -1.000
 5995.00    1.77614   1.72557   -1.000
 5996.00    1.77036   1.72006   -1.000
 5997.00    1.76785   1.71469   -1.000
 5998.00    1.76840   1.71338   -1.000
 5999.00    1.76704   1.71530   -1.000
 6000.00    1.76431   1.71532   -1.000
 6001.00    1.76139   1.71308   -1.000
 6002.00    1.75951   1.71033   -1.000
 6003.00    1.75389   1.70855   -1.000
 6004.00    1.74883   1.70961   -1.000
 6005.00    1.74822   1.70869   -1.000
 6006.00    1.74475   1.70239   -1.000
 6007.00    1.73960   1.69471   -1.000
 6008.00    1.73577   1.69291   -1.000
 6009.00    1.73800   1.70026   -1.000
 6010.00    1.74789   1.71068   -1.000
 6011.00    1.75742   1.71397   -1.000
 6012.00    1.75752   1.71193   -1.000
 6013.00    1.75766   1.71021   -1.000
 6014.00    1.76320   1.71174   -1.000
 6015.00    1.76009   1.71411   -1.000
 6016.00    1.76080   1.71211   -1.000
 6017.00    1.76756   1.70953   -1.000
 6018.00    1.76282   1.70780   -1.000
 6019.00    1.75477   1.70507   -1.000
 6020.00    1.75178   1.70341   -1.000
 6021.00    1.75058   1.70353   -1.000
 6022.00    1.75207   1.70395   -1.000
 6023.00    1.75752   1.70510   -1.000
 6024.00    1.75944   1.70928   -1.000
 6025.00    1.76402   1.71570   -1.000
 6026.00    1.77047   1.72115   -1.000
 6027.00    1.77413   1.72455   -1.000
 6028.00    1.77704   1.72760   -1.000
 6029.00    1.78109   1.72981   -1.000
 6030.00    1.78360   1.73040   -1.000
 6031.00    1.78393   1.73174   -1.000
 6032.00    1.78617   1.73316   -1.000
 6033.00    1.78934   1.73513   -1.000
 6034.00    1.79308   1.73846   -1.000
 6035.00    1.78942   1.74144   -1.000
 6036.00    1.78209   1.74144   -1.000
 6037.00    1.78310   1.73741   -1.000
 6038.00    1.78733   1.73216   -1.000
 6039.00    1.78343   1.72680   -1.000
 6040.00    1.77908   1.72350   -1.000
 6041.00    1.78229   1.72433   -1.000
 6042.00    1.78858   1.72116   -1.000
 6043.00    1.79641   1.71821   -1.000
 6044.00    1.80064   1.72837   -1.000
 6045.00    1.80165   1.74024   -1.000
 6046.00    1.80285   1.74510   -1.000
 6047.00    1.80334   1.74581   -1.000
 6048.00    1.80022   1.74600   -1.000
 6049.00    1.79484   1.74467   -1.000
 6050.00    1.79341   1.74329   -1.000
 6051.00    1.80160   1.74116   -1.000
 6052.00    1.80479   1.73824   -1.000
 6053.00    1.79948   1.73646   -1.000
 6054.00    1.79416   1.73364   -1.000
 6055.00    1.78974   1.72997   -1.000
 6056.00    1.78770   1.72723   -1.000
 6057.00    1.78679   1.72684   -1.000
 6058.00    1.78638   1.72731   -1.000
 6059.00    1.78836   1.72994   -1.000
 6060.00    1.79412   1.73411   -1.000
 6061.00    1.79328   1.73469   -1.000
 6062.00    1.78257   1.72897   -1.000
 6063.00    1.77362   1.71641   -1.000
 6064.00    1.76316   1.70415   -1.000
 6065.00    1.73831   1.69887   -1.000
 6066.00    1.71083   1.70597   52.689
 6067.00    1.73746   1.72152   43.690
 6068.00    1.71918   1.73496  105.692
 6069.00    1.35370   1.74168   -1.000
 6070.00    0.92756   1.74542   -1.000
 6071.00    1.22097   1.74750   -1.000
 6072.00    1.74877   1.74937   94.607
 6073.00    1.83435   1.75081   -1.000
 6074.00    1.84663   1.75006   -1.000
 6075.00    1.89538   1.74723   -1.000
 6076.00    1.87225   1.74241   -1.000
 6077.00    1.78252   1.73766   -1.000
 6078.00    1.77779   1.73448   -1.000
 6079.00    1.77688   1.73259   -1.000
 6080.00    1.77444   1.73104   -1.000
 6081.00    1.77365   1.72834   -1.000
 6082.00    1.77300   1.72526   -1.000
 6083.00    1.77149   1.72545   -1.000
 6084.00    1.77628   1.72752   -1.000
 6085.00    1.77915   1.72932   -1.000
 6086.00    1.77945   1.73166   -1.000
 6087.00    1.77817   1.73534   -1.000
 6088.00    1.77558   1.73758   -1.000
 6089.00    1.77280   1.73581   -1.000
 6090.00    1.76870   1.73065   -1.000
 6091.00    1.76862   1.72627   -1.000
 6092.00    1.77549   1.72693   -1.000
 6093.00    1.78220   1.73149   -1.000
 6094.00    1.78813   1.73779   -1.000
 6095.00    1.79259   1.74265   -1.000
 6096.00    1.79182   1.74557   -1.000
 6097.00    1.79407   1.74826   -1.000
 6098.00    1.79595   1.75005   -1.000
 6099.00    1.78839   1.74786   -1.000
 6100.00    1.77238   1.73784   -1.000
 6101.00    1.75488   1.71857   -1.000
 6102.00    1.73722   1.69756   -1.000
 6103.00    1.72544   1.69252   -1.000
 6104.00    1.74191   1.70441   -1.000
 6105.00    1.76811   1.72080   -1.000
 6106.00    1.77410   1.73185   -1.000
 6107.00    1.77060   1.73869   -1.000
 6108.00    1.77038   1.74416   99.337
 6109.00    1.77161   1.74863   99.417
 6110.00    1.77526   1.74907   99.267
 6111.00    1.77709   1.74645   98.925
 6112.00    1.77706   1.74527   -1.000
 6113.00    1.77440   1.74732   98.440
 6114.00    1.77507   1.74954   98.022
 6115.00    1.77685   1.75033   98.133
 6116.00    1.77282   1.74953   98.696
 6117.00    1.77132   1.75016   99.097
 6118.00    1.76982   1.74324   99.372
 6119.00    1.75615   1.72306   -1.000
 6120.00    1.73606   1.70370   -1.000
 6121.00    1.72048   1.68444   -1.000
 6122.00    1.71601   1.67685   -1.000
 6123.00    1.72697   1.69354   -1.000
 6124.00    1.74065   1.71597  100.945
 6125.00    1.74967   1.72967  100.342
 6126.00    1.75098   1.73546  100.715
 6127.00    1.75212   1.73588  100.966
 6128.00    1.75742   1.73496  100.733
 6129.00    1.76222   1.73960  100.201
 6130.00    1.76713   1.74860   99.271
 6131.00    1.77372   1.75535   98.708
 6132.00    1.77147   1.75790   98.760
 6133.00    1.76062   1.75361   99.356
 6134.00    1.74128   1.73698  101.024
 6135.00    1.71055   1.70505  103.772
 6136.00    1.67796   1.67150  106.657
 6137.00    1.66356   1.66235  108.078
 6138.00    1.68117   1.68015  106.650
 6139.00    1.71016   1.70224  103.608
 6140.00    1.72499   1.70917  101.598
 6141.00    1.72505   1.70592  101.270
 6142.00    1.72435   1.71205  101.518
 6143.00    1.73776   1.72757  101.054
 6144.00    1.75574   1.74060   99.849
 6145.00    1.76550   1.74558   99.189
 6146.00    1.76698   1.74437   99.428
 6147.00    1.76088   1.73964  100.011
 6148.00    1.75334   1.73201  100.702
 6149.00    1.74376   1.72674  101.365
 6150.00    1.73773   1.72650  101.644
 6151.00    1.73762   1.73110  101.413
 6152.00    1.74333   1.73666  100.844
 6153.00    1.75278   1.73915  100.416
 6154.00    1.74800   1.73602  100.843
 6155.00    1.73851   1.73077  101.593
 6156.00    1.73689   1.72701  101.848
 6157.00    1.73391   1.72366  102.074
 6158.00    1.72168   1.71943  102.870
 6159.00    1.69783   1.70812  104.457
 6160.00    1.67233   1.68109  107.117
 6161.00    1.64367   1.64631  110.387
 6162.00    1.62505   1.62511  112.470
 6163.00    1.62775   1.63149  111.971
 6164.00    1.64548   1.65304  109.384
 6165.00    1.66676   1.67227  106.979
 6166.00    1.67865   1.68269  106.058
 6167.00    1.67717   1.68590  106.050
 6168.00    1.66366   1.67967  106.943
 6169.00    1.65375   1.67008  108.259
 6170.00    1.65779   1.67013  108.339
 6171.00    1.67793   1.68254  106.725
 6172.00    1.69482   1.69698  104.877
 6173.00    1.69784   1.70502  104.274
 6174.00    1.69851   1.71042  104.475
 6175.00    1.69924   1.71586  104.363
 6176.00    1.70008   1.71819  104.113
 6177.00    1.70192   1.71981  103.880
 6178.00    1.70287   1.72160  103.469
 6179.00    1.70673   1.72176  103.011
 6180.00    1.71162   1.72224  102.675
 6181.00    1.71453   1.72552  102.270
 6182.00    1.71898   1.72832  101.894
 6183.00    1.72050   1.72886  101.894
 6184.00    1.71316   1.72872  102.213
 6185.00    1.70772   1.72677  102.816
 6186.00    1.70706   1.72029  103.833
 6187.00    1.70079   1.71322  104.958
 6188.00    1.68677   1.70576  105.989
 6189.00    1.67207   1.69245  106.867
 6190.00    1.66068   1.67491  107.948
 6191.00    1.65483   1.66440  109.046
 6192.00    1.66203   1.67258  108.679
 6193.00    1.67831   1.69275  106.545
 6194.00    1.69639   1.71038  104.275
 6195.00    1.70452   1.72015  103.211
 6196.00    1.70555   1.72589  102.894
 6197.00    1.70677   1.72629  103.195
 6198.00    1.70474   1.71915  104.207
 6199.00    1.69556   1.70990  105.267
 6200.00    1.68802   1.71046  105.593
 6201.00    1.68653   1.71867   -1.000
 6202.00    1.68270   1.72725   -1.000
 6203.00    1.68699   1.73319   -1.000
 6204.00    1.69993   1.73584   -1.000
 6205.00    1.70801   1.73744   -1.000
 6206.00    1.71383   1.73906  102.634
 6207.00    1.72358   1.74040  102.857
 6208.00    1.72603   1.74055  103.075
 6209.00    1.72062   1.73818  103.267
 6210.00    1.71408   1.73374  104.025
 6211.00    1.70747   1.72717  104.941
 6212.00    1.69526   1.71613  105.850
 6213.00    1.67508   1.70280   -1.000
 6214.00    1.66741   1.69470   -1.000
 6215.00    1.67167   1.69279  109.228
 6216.00    1.67583   1.69400  108.561
 6217.00    1.67758   1.69361  107.475
 6218.00    1.67830   1.69074  107.745
 6219.00    1.68013   1.68774  108.028
 6220.00    1.68234   1.68942  107.303
 6221.00    1.68610   1.69580  107.248
 6222.00    1.68788   1.70091  111.715
 6223.00    1.68618   1.70143  114.388
 6224.00    1.68907   1.70272  108.762
 6225.00    1.70179   1.70582  106.196
 6226.00    1.58238   1.70837   -1.000
 6227.00    1.44527   1.70669   -1.000
 6228.00    1.58388   1.69587   -1.000
 6229.00    1.68416   1.67709  109.577
 6230.00    1.65407   1.66024  111.201
 6231.00    1.65569   1.65724  111.609
 6232.00    1.66451   1.66898  110.404
 6233.00    1.68276   1.68743  108.489
 6234.00    1.69839   1.70372  106.555
 6235.00    1.70360   1.71218  105.487
 6236.00    1.70393   1.71053  105.703
 6237.00    1.69823   1.70420  106.680
 6238.00    1.68723   1.69620  107.780
 6239.00    1.68001   1.69029  108.900
 6240.00    1.67967   1.68780  109.706
 6241.00    1.67770   1.68804  109.849
 6242.00    1.67185   1.68573  110.211
 6243.00    1.66579   1.67937  111.052
 6244.00    1.65802   1.67234  111.354
 6245.00    1.65587   1.66795  110.897
 6246.00    1.66623   1.67181  109.947
 6247.00    1.68093   1.68465  108.672
 6248.00    1.69077   1.69843  107.395
 6249.00    1.69339   1.70597  106.812
 6250.00    1.69014   1.70384  107.335
 6251.00    1.67700   1.69098  108.911
 6252.00    1.66108   1.67603  110.658
 6253.00    1.65184   1.66878  111.650
 6254.00    1.64710   1.66927  112.148
 6255.00    1.64344   1.67242   -1.000
 6256.00    1.64127   1.67244   -1.000
 6257.00    1.64114   1.66923   -1.000
 6258.00    1.64270   1.67073   -1.000
 6259.00    1.65419   1.67932   -1.000
 6260.00    1.67511   1.69092  111.064
 6261.00    1.69068   1.70119  109.491
 6262.00    1.69793   1.71040  107.907
 6263.00    1.70248   1.71525  106.788
 6264.00    1.69743   1.71483  107.038
 6265.00    1.69245   1.71276  107.911
 6266.00    1.69614   1.71439  107.998
 6267.00    1.68907   1.71792   -1.000
 6268.00    1.67880   1.71716   -1.000
 6269.00    1.67696   1.71382   -1.000
 6270.00    1.67708   1.71160   -1.000
 6271.00    1.68324   1.71188   -1.000
 6272.00    1.69490   1.71117  107.187
 6273.00    1.69857   1.70572  107.212
 6274.00    1.69070   1.69365  107.783
 6275.00    1.67224   1.67779  108.643
 6276.00    1.64530   1.66392  109.954
 6277.00    1.61611   1.65409   -1.000
 6278.00    1.58976   1.65096   -1.000
 6279.00    1.57415   1.65117   -1.000
 6280.00    1.57160   1.65560   -1.000
 6281.00    1.56998   1.66591   -1.000
 6282.00    1.56781   1.68157   -1.000
 6283.00    1.57883   1.69798   -1.000
 6284.00    1.59404   1.71069   -1.000
 6285.00    1.61738   1.71742   -1.000
 6286.00    1.64822   1.72168   -1.000
 6287.00    1.67234   1.72447   -1.000
 6288.00    1.68956   1.72396   -1.000
 6289.00    1.70306   1.71873  106.502
 6290.00    1.70313   1.71346  107.290
 6291.00    1.69507   1.71001  108.165
 6292.00    1.68997   1.70851  108.664
 6293.00    1.69197   1.70621  108.788
 6294.00    1.69763   1.70330  108.942
 6295.00    1.69105   1.69742  109.465
 6296.00    1.67502   1.68966  110.299
 6297.00    1.66824   1.68497  110.733
 6298.00    1.66564   1.68607  110.698
 6299.00    1.65621   1.69003   -1.000
 6300.00    1.64271   1.68994   -1.000
 6301.00    1.63548   1.68751   -1.000
 6302.00    1.64683   1.69101   -1.000
 6303.00    1.67208   1.70027   -1.000
 6304.00    1.69445   1.70936  109.968
 6305.00    1.70759   1.71463  108.381
 6306.00    1.71771   1.71857  107.284
 6307.00    1.72267   1.72386  106.361
 6308.00    1.73140   1.72821  105.777
 6309.00    1.73587   1.73087  105.976
 6310.00    1.72375   1.73158  106.606
 6311.00    1.71556   1.72959  107.191
 6312.00    1.71299   1.72594  107.594
 6313.00    1.70528   1.72201  107.873
 6314.00    1.70030   1.71767  108.390
 6315.00    1.69580   1.71460  109.160
 6316.00    1.68606   1.71244   -1.000
 6317.00    1.68233   1.70779   -1.000
 6318.00    1.68222   1.70579  109.179
 6319.00    1.68820   1.71314   -1.000
 6320.00    1.70481   1.72359  108.182
 6321.00    1.71016   1.72979  106.939
 6322.00    1.71354   1.73376  106.228
 6323.00    1.72362   1.73964  105.885
 6324.00    1.72849   1.74610  105.421
 6325.00    1.73190   1.74870  104.952
 6326.00    1.73692   1.74827  104.774
 6327.00    1.73528   1.74779  104.503
 6328.00    1.73669   1.74735  104.248
 6329.00    1.73735   1.74740  104.382
 6330.00    1.73599   1.74851  104.448
 6331.00    1.73581   1.75181  104.299
 6332.00    1.73829   1.75391  103.990
 6333.00    1.73835   1.74881  104.057
 6334.00    1.72711   1.73593  104.358
 6335.00    1.71230   1.72137  105.668
 6336.00    1.70656   1.71804  107.212
 6337.00    1.71085   1.72569  106.730
 6338.00    1.75446   1.73597  105.685
 6339.00    1.78572   1.74470   -1.000
 6340.00    1.75742   1.75029  103.712
 6341.00    1.74367   1.75241  103.248
 6342.00    1.74186   1.75057  103.020
 6343.00    1.73895   1.74473  103.553
 6344.00    1.73151   1.73916  104.163
 6345.00    1.72916   1.73888  104.042
 6346.00    1.73548   1.74280  103.598
 6347.00    1.73812   1.74911  102.940
 6348.00    1.73961   1.75632  102.368
 6349.00    1.74262   1.76362  102.201
 6350.00    1.74409   1.76774  102.128
 6351.00    1.74116   1.76738  102.039
 6352.00    1.73297   1.76335   -1.000
 6353.00    1.72086   1.75714   -1.000
 6354.00    1.71526   1.75111   -1.000
 6355.00    1.71370   1.74844   -1.000
 6356.00    1.70989   1.74713   -1.000
 6357.00    1.70749   1.74354   -1.000
 6358.00    1.69930   1.73711   -1.000
 6359.00    1.69373   1.73317   -1.000
 6360.00    1.69551   1.73189   -1.000
 6361.00    1.69752   1.72959   -1.000
 6362.00    1.70067   1.72748   -1.000
 6363.00    1.70364   1.72950   -1.000
 6364.00    1.70971   1.73640   -1.000
 6365.00    1.71748   1.74336  104.823
 6366.00    1.72049   1.74880   -1.000
 6367.00    1.72642   1.75399  103.606
 6368.00    1.73484   1.75762  102.923
 6369.00    1.73800   1.75613  102.437
 6370.00    1.73761   1.75330  102.360
 6371.00    1.74151   1.75217  102.251
 6372.00    1.74601   1.75461  101.849
 6373.00    1.74457   1.76025  101.765
 6374.00    1.74009   1.76366  101.986
 6375.00    1.74096   1.76346  102.117
 6376.00    1.73797   1.76219  102.424
 6377.00    1.72491   1.75928   -1.000
 6378.00    1.71537   1.75503   -1.000
 6379.00    1.71570   1.75094   -1.000
 6380.00    1.71720   1.74792   -1.000
 6381.00    1.71876   1.74681   -1.000
 6382.00    1.72033   1.74783  104.507
 6383.00    1.72429   1.75026  104.343
 6384.00    1.72457   1.75272   -1.000
 6385.00    1.71960   1.75478   -1.000
 6386.00    1.71764   1.75769   -1.000
 6387.00    1.71782   1.75961   -1.000
 6388.00    1.70988   1.75971   -1.000
 6389.00    1.69610   1.75892   -1.000
 6390.00    1.68607   1.75509   -1.000
 6391.00    1.67384   1.74462   -1.000
 6392.00    1.65764   1.73038   -1.000
 6393.00    1.64459   1.72260   -1.000
 6394.00    1.64502   1.72945   -1.000
 6395.00    1.65504   1.74439   -1.000
 6396.00    1.65703   1.75523   -1.000
 6397.00    1.64700   1.75558   -1.000
 6398.00    1.63247   1.74387   -1.000
 6399.00    1.61319   1.72939   -1.000
 6400.00    1.59568   1.72465   -1.000
 6401.00    1.60281   1.73601   -1.000
 6402.00    1.61857   1.75339   -1.000
 6403.00    1.62784   1.76583   -1.000
 6404.00    1.63122   1.77087   -1.000
 6405.00    1.62612   1.76776   -1.000
 6406.00    1.60834   1.75841   -1.000
 6407.00    1.58468   1.74780   -1.000
 6408.00    1.57407   1.74148   -1.000
 6409.00    1.56896   1.74558   -1.000
 6410.00    1.55932   1.75109   -1.000
 6411.00    1.55133   1.74925   -1.000
 6412.00    1.54675   1.74800   -1.000
 6413.00    1.53729   1.75096   -1.000
 6414.00    1.53064   1.75544   -1.000
 6415.00    1.52899   1.75909   -1.000
 6416.00    1.52478   1.76195   -1.000
 6417.00    1.51536   1.76149   -1.000
 6418.00    1.49725   1.75606   -1.000
 6419.00    1.47357   1.74529   -1.000
 6420.00    1.45668   1.73605   -1.000
 6421.00    1.44617   1.73719   -1.000
 6422.00    1.44055   1.74893   -1.000
 6423.00    1.44195   1.76307   -1.000
 6424.00    1.43884   1.77356   -1.000
 6425.00    1.43031   1.77938   -1.000
 6426.00    1.42184   1.78260   -1.000
 6427.00    1.41029   1.78212   -1.000
 6428.00    1.39493   1.77289   -1.000
