###################################################################
## OUTPUT of StarlightChains_v04.for    [Cid@UFSC - 01/Apr/2007] ##
###################################################################

## Some input info
NGC6235_a_1.cxt                          [arq_obs]
Base.BC03.S                              [arq_base]
NGC6235_a_1.msk                          [arq_masks]
StCv04.C99.config                        [arq_config]
  150                                    [N_base]
    0                                    [N_YAV_components = # of components with extra extinction!]
    0                                    [i_FitPowerLaw (1/0 = Yes/No)]
-9.99                                    [alpha_PowerLaw]
CCM                                      [red_law_option]
 1.458241                                [q_norm = A(l_norm)/A(V)]

## (Re)Sampling Parameters
 3359.00                                 [l_ini (A)]
 6428.00                                 [l_fin (A)]
    1.00                                 [dl    (A)]     (OBS: dl_cushion =    50.00 A)

## Normalization info
 4020.00                                 [l_norm (A) - for base]
 4010.00                                 [llow_norm (A) - window for f_obs]
 4060.00                                 [lupp_norm (A) - window for f_obs]
2.685576E-15                             [fobs_norm (in input units)]

## S/N
 4730.00                                 [llow_SN (A) - window for S/N]
 4780.00                                 [lupp_SN (A) - window for S/N]
  64.240                                 [S/N in S/N window]
  49.525                                 [S/N in norm. window]
 131.570                                 [S/N_err in S/N window]
 101.432                                 [S/N_err in norm. window]
  1.0000                                 [fscale_chi2]

## etc...
  2147483624                             [idum_orig]
  3063                                   [NOl_eff]
  1579                                   [Nl_eff]
  1484    NSIGMA                         [Ntot_cliped & clip_method]
  4118520                                [Nglobal_steps]
   7                                     [N_chains]
  21                                     [NEX0s_base = N_base in EX0s-fits]
 0   0   1      144   2.0   2.369E+02    [Clip-Bug, RC-Crash & Burn-In warning-flags, n_censored_weights, wei_nsig_threshold & wei_limit]
   168    168.631    168.619      0.012  [idt_all, wdt_TotTime, wdt_UsrTime & wdt_SysTime (sec)]

## Synthesis Results - Best model ##

 2.33600E+00                             [chi2/Nl_eff]
     1.40663                             [adev (%)]

    97.93935                             [sum-of-x (%)]
 1.04345E-14                             [Flux_tot (units of input spectrum!)]
 2.62954E-10                             [Mini_tot (???)]
 1.32825E-10                             [Mcor_tot (???)]

 -13.75                                  [v0_min  (km/s)]
 105.70                                  [vd_min  (km/s)]
 1.0260                                  [AV_min  (mag)]
 0.0000                                  [YAV_min (mag)]

# j     x_j(%)      Mini_j(%)     Mcor_j(%)     age_j(yr)     Z_j      (L/M)_j    YAV?  Mstars   component_j        a/Fe...       SSP_chi2r SSP_adev(%)   SSP_AV   SSP_x(%)
  1      0.0000     0.0000E+00    0.0000E+00    1.000000E+06  0.00010  8.160E-03    0   1.0000   age020_m22            0.0000     2.8264E+02    13.9411   4.0000    89.4099
  2      3.0253     2.5757E-03    5.0990E-03    3.160000E+06  0.00010  4.759E-02    0   1.0000   age045_m22            0.0000     3.0836E+01     4.6482   2.5145    95.6571
  3      0.0000     0.0000E+00    0.0000E+00    5.010000E+06  0.00010  1.932E-02    0   0.9582   age055_m22            0.0000     1.5175E+02    10.6333   2.6872    86.2684
  4      0.0000     0.0000E+00    0.0000E+00    6.610000E+06  0.00010  9.973E-03    0   0.9297   age061_m22            0.0000     2.5875E+02    13.2457   4.0000    91.6355
  5      0.0000     0.0000E+00    0.0000E+00    8.710000E+06  0.00010  7.690E-03    0   0.9030   age067_m22            0.0000     2.4766E+02    12.9607   4.0000    91.8788
  6      0.0000     0.0000E+00    0.0000E+00    1.000000E+07  0.00010  6.375E-03    0   0.8902   age070_m22            0.0000     2.4881E+02    12.9302   4.0000    92.3720
  7      0.0000     0.0000E+00    0.0000E+00    1.445000E+07  0.00010  4.874E-03    0   0.8589   age078_m22            0.0000     1.4681E+02    10.2947   4.0000    90.6337
  8      0.0000     0.0000E+00    0.0000E+00    2.512000E+07  0.00010  4.103E-03    0   0.8174   age090_m22            0.0000     6.5671E+01     7.1047   3.8552    89.9153
  9      0.6597     7.3148E-03    1.1339E-02    4.000000E+07  0.00010  3.654E-03    0   0.7830   age104_m22            0.0000     4.7108E+01     5.2432   3.6127    93.1733
 10      0.6827     8.9434E-03    1.3451E-02    5.500000E+07  0.00010  3.093E-03    0   0.7597   age110_m22            0.0000     4.2560E+01     4.6351   3.5322    94.1315
 11      0.0000     0.0000E+00    0.0000E+00    1.015200E+08  0.00010  2.431E-03    0   0.7138   age116_m22            0.0000     4.4535E+01     4.2908   3.2084    96.4616
 12      0.0000     0.0000E+00    0.0000E+00    1.609000E+08  0.00010  1.319E-03    0   0.6775   age120_m22            0.0000     4.0693E+01     3.9445   2.7361    98.6428
 13      0.0000     0.0000E+00    0.0000E+00    2.861200E+08  0.00010  1.075E-03    0   0.6412   age125_m22            0.0000     9.2500E+01     5.7373   2.8708   100.0470
 14      0.0000     0.0000E+00    0.0000E+00    5.088000E+08  0.00010  7.183E-04    0   0.6083   age130_m22            0.0000     1.1506E+02     6.5915   2.6630   101.0388
 15      0.0000     0.0000E+00    0.0000E+00    9.047900E+08  0.00010  4.524E-04    0   0.5785   age135_m22            0.0000     1.1635E+02     6.7279   2.4679   102.0672
 16      0.0000     0.0000E+00    0.0000E+00    1.278050E+09  0.00010  3.018E-04    0   0.5588   age138_m22            0.0000     5.2256E+01     4.5134   1.9010   101.3218
 17      0.0000     0.0000E+00    0.0000E+00    1.434000E+09  0.00010  2.691E-04    0   0.5532   age139_m22            0.0000     4.1740E+01     4.0808   1.7390   100.9238
 18      0.0000     0.0000E+00    0.0000E+00    2.500000E+09  0.00010  1.582E-04    0   0.5296   age150_m22            0.0000     3.5003E+01     3.7761   1.6077   102.1923
 19      0.0000     0.0000E+00    0.0000E+00    4.250000E+09  0.00010  1.007E-04    0   0.5110   age158_m22            0.0000     1.8328E+01     2.8181   1.4355   101.0717
 20      0.0000     0.0000E+00    0.0000E+00    6.250000E+09  0.00010  6.869E-05    0   0.4985   age166_m22            0.0000     9.2776E+00     2.1332   1.3542    98.9552
 21      0.0271     1.8697E-02    1.8251E-02    7.500000E+09  0.00010  5.873E-05    0   0.4931   age171_m22            0.0000     9.3145E+00     2.1722   1.3333    98.6807
 22      0.0000     0.0000E+00    0.0000E+00    1.000000E+10  0.00010  4.481E-05    0   0.4854   age181_m22            0.0000     8.7787E+00     2.1209   1.2958    98.2971
 23      0.0002     1.9733E-04    1.8716E-04    1.300000E+10  0.00010  3.489E-05    0   0.4791   age193_m22            0.0000     7.6659E+00     2.0043   1.2401    97.7161
 24      0.0027     3.5602E-03    3.3591E-03    1.500000E+10  0.00010  3.035E-05    0   0.4766   age201_m22            0.0000     7.1115E+00     1.9533   1.2003    97.5491
 25      0.0000     0.0000E+00    0.0000E+00    1.800000E+10  0.00010  2.510E-05    0   0.4735   age213_m22            0.0000     6.1925E+00     1.8834   1.1292    97.0170
 26      0.0000     0.0000E+00    0.0000E+00    1.000000E+06  0.00040  8.458E-03    0   1.0000   age020_m32            0.0000     2.8762E+02    13.9537   4.0000    90.5213
 27      0.0000     0.0000E+00    0.0000E+00    3.160000E+06  0.00040  3.973E-02    0   1.0000   age045_m32            0.0000     7.2972E+01     7.4810   3.7451    90.1055
 28      0.0000     0.0000E+00    0.0000E+00    5.010000E+06  0.00040  1.935E-02    0   0.9532   age055_m32            0.0000     1.3687E+02    10.2493   3.9091    85.9442
 29      0.0000     0.0000E+00    0.0000E+00    6.610000E+06  0.00040  1.204E-02    0   0.9243   age061_m32            0.0000     1.8099E+02    11.3265   4.0000    90.0504
 30      0.0000     0.0000E+00    0.0000E+00    8.710000E+06  0.00040  9.433E-03    0   0.9001   age067_m32            0.0000     1.6209E+02    10.7808   4.0000    90.2186
 31      0.0000     0.0000E+00    0.0000E+00    1.000000E+07  0.00040  8.053E-03    0   0.8877   age070_m32            0.0000     1.4804E+02    10.3868   4.0000    89.7316
 32      0.0000     0.0000E+00    0.0000E+00    1.445000E+07  0.00040  7.027E-03    0   0.8578   age078_m32            0.0000     8.9010E+01     8.3076   3.6784    89.5540
 33      0.0000     0.0000E+00    0.0000E+00    2.512000E+07  0.00040  4.707E-03    0   0.8166   age090_m32            0.0000     5.8873E+01     6.6359   3.4176    92.6132
 34      0.0000     0.0000E+00    0.0000E+00    4.000000E+07  0.00040  3.714E-03    0   0.7827   age104_m32            0.0000     4.3261E+01     5.1259   3.2550    94.8479
 35      0.0000     0.0000E+00    0.0000E+00    5.500000E+07  0.00040  2.982E-03    0   0.7593   age110_m32            0.0000     4.0705E+01     4.6744   3.2121    95.5046
 36      0.0000     0.0000E+00    0.0000E+00    1.015200E+08  0.00040  2.188E-03    0   0.7143   age116_m32            0.0000     5.2369E+01     4.3451   3.0108    97.9598
 37      0.0000     0.0000E+00    0.0000E+00    1.609000E+08  0.00040  1.690E-03    0   0.6856   age120_m32            0.0000     7.0638E+01     4.9565   2.8256    99.9576
 38      0.0000     0.0000E+00    0.0000E+00    2.861200E+08  0.00040  1.152E-03    0   0.6509   age125_m32            0.0000     9.6019E+01     5.9285   2.6319   100.8870
 39      0.0000     0.0000E+00    0.0000E+00    5.088000E+08  0.00040  7.331E-04    0   0.6182   age130_m32            0.0000     1.0610E+02     6.3759   2.4848   101.1202
 40      0.0000     0.0000E+00    0.0000E+00    9.047900E+08  0.00040  3.960E-04    0   0.5890   age135_m32            0.0000     5.7215E+01     4.8120   2.0089   100.1327
 41      0.0000     0.0000E+00    0.0000E+00    1.278050E+09  0.00040  2.854E-04    0   0.5687   age138_m32            0.0000     4.1043E+01     4.1007   1.6868   102.7943
 42      0.0000     0.0000E+00    0.0000E+00    1.434000E+09  0.00040  2.531E-04    0   0.5632   age139_m32            0.0000     3.9096E+01     4.0041   1.6229   102.8265
 43      4.1063     1.1181E+00    1.1922E+00    2.500000E+09  0.00040  1.488E-04    0   0.5386   age150_m32            0.0000     2.4562E+01     3.2400   1.3593   101.1953
 44     41.4813     1.8506E+01    1.9047E+01    4.250000E+09  0.00040  9.082E-05    0   0.5199   age158_m32            0.0000     6.9501E+00     1.8624   1.2283    98.7927
 45     31.4991     2.0060E+01    2.0159E+01    6.250000E+09  0.00040  6.362E-05    0   0.5076   age166_m32            0.0000     5.7713E+00     1.9814   1.1501    96.4579
 46      8.7182     6.6786E+00    6.6465E+00    7.500000E+09  0.00040  5.289E-05    0   0.5027   age171_m32            0.0000     6.2550E+00     2.0769   1.1112    95.2717
 47      0.0000     0.0000E+00    0.0000E+00    1.000000E+10  0.00040  3.972E-05    0   0.4948   age181_m32            0.0000     6.5848E+00     2.1237   1.0518    93.8489
 48      0.0000     0.0000E+00    0.0000E+00    1.300000E+10  0.00040  3.283E-05    0   0.4870   age193_m32            0.0000     3.7257E+00     1.6342   1.0262    96.0485
 49      0.0185     2.5659E-02    2.4657E-02    1.500000E+10  0.00040  2.925E-05    0   0.4854   age201_m32            0.0000     3.8595E+00     1.5942   1.0180    97.3413
 50      0.0000     0.0000E+00    0.0000E+00    1.800000E+10  0.00040  2.469E-05    0   0.4819   age213_m32            0.0000     4.1317E+00     1.6262   0.9824    97.7187
 51      0.0000     0.0000E+00    0.0000E+00    1.000000E+06  0.00400  1.114E-02    0   1.0000   age020_m42            0.0000     2.4263E+02    12.9747   4.0000    89.2682
 52      0.0000     0.0000E+00    0.0000E+00    3.160000E+06  0.00400  4.073E-02    0   0.9999   age045_m42            0.0000     4.7866E+01     6.0652   3.4752    91.9123
 53      0.0000     0.0000E+00    0.0000E+00    5.010000E+06  0.00400  2.534E-02    0   0.9488   age055_m42            0.0000     9.4340E+01     8.6048   3.8219    87.2993
 54      0.0000     0.0000E+00    0.0000E+00    6.610000E+06  0.00400  2.583E-02    0   0.9220   age061_m42            0.0000     4.2447E+01     5.4701   3.3052    92.5411
 55      0.0000     0.0000E+00    0.0000E+00    8.710000E+06  0.00400  1.706E-02    0   0.8983   age067_m42            0.0000     6.2308E+01     6.9331   3.0864    92.0165
 56      0.0000     0.0000E+00    0.0000E+00    1.000000E+07  0.00400  1.271E-02    0   0.8862   age070_m42            0.0000     8.8648E+01     8.3667   3.0433    91.4080
 57      0.0000     0.0000E+00    0.0000E+00    1.445000E+07  0.00400  7.666E-03    0   0.8571   age078_m42            0.0000     1.0675E+02     9.1195   3.4258    88.6685
 58      0.0000     0.0000E+00    0.0000E+00    2.512000E+07  0.00400  5.070E-03    0   0.8174   age090_m42            0.0000     7.3908E+01     7.7790   2.9188    92.9163
 59      0.0000     0.0000E+00    0.0000E+00    4.000000E+07  0.00400  3.505E-03    0   0.7851   age104_m42            0.0000     4.4592E+01     6.1083   2.6342    94.9482
 60      0.0000     0.0000E+00    0.0000E+00    5.500000E+07  0.00400  3.059E-03    0   0.7629   age110_m42            0.0000     2.5228E+01     3.6075   2.7612    97.4759
 61      0.0000     0.0000E+00    0.0000E+00    1.015200E+08  0.00400  2.268E-03    0   0.7207   age116_m42            0.0000     5.8266E+01     4.3909   2.7466   100.4535
 62      0.0000     0.0000E+00    0.0000E+00    1.609000E+08  0.00400  1.720E-03    0   0.6930   age120_m42            0.0000     6.6018E+01     4.8311   2.6187   101.5875
 63      0.0000     0.0000E+00    0.0000E+00    2.861200E+08  0.00400  1.079E-03    0   0.6613   age125_m42            0.0000     6.9078E+01     4.9479   2.2660   101.9392
 64      0.0000     0.0000E+00    0.0000E+00    5.088000E+08  0.00400  6.261E-04    0   0.6313   age130_m42            0.0000     7.9247E+01     5.4419   2.0769   104.6483
 65      0.0001     1.4712E-05    1.7546E-05    9.047900E+08  0.00400  3.535E-04    0   0.6024   age135_m42            0.0000     4.4554E+01     4.2590   1.6658   105.1097
 66      0.0000     0.0000E+00    0.0000E+00    1.278050E+09  0.00400  2.677E-04    0   0.5837   age138_m42            0.0000     2.8557E+01     3.8422   0.9971   101.7151
 67      0.0000     0.0000E+00    0.0000E+00    1.434000E+09  0.00400  1.910E-04    0   0.5716   age139_m42            0.0000     2.7373E+01     3.6737   1.1661   102.6250
 68      0.0000     0.0000E+00    0.0000E+00    2.500000E+09  0.00400  9.818E-05    0   0.5463   age150_m42            0.0000     2.3614E+01     3.5699   0.8844    98.0866
 69      0.0000     0.0000E+00    0.0000E+00    4.250000E+09  0.00400  5.491E-05    0   0.5269   age158_m42            0.0000     2.8167E+01     3.8222   0.7432    95.7871
 70      0.0000     0.0000E+00    0.0000E+00    6.250000E+09  0.00400  3.857E-05    0   0.5151   age166_m42            0.0000     4.0608E+01     4.4209   0.6258    94.1909
 71      0.0000     0.0000E+00    0.0000E+00    7.500000E+09  0.00400  3.243E-05    0   0.5110   age171_m42            0.0000     4.9854E+01     4.7969   0.5549    93.4093
 72      0.0000     0.0000E+00    0.0000E+00    1.000000E+10  0.00400  2.424E-05    0   0.5028   age181_m42            0.0000     6.2925E+01     5.2883   0.4830    92.5483
 73      0.0000     0.0000E+00    0.0000E+00    1.300000E+10  0.00400  1.883E-05    0   0.4927   age193_m42            0.0000     7.3173E+01     5.6630   0.4452    92.1567
 74      0.0000     0.0000E+00    0.0000E+00    1.500000E+10  0.00400  1.685E-05    0   0.4919   age201_m42            0.0000     7.0500E+01     5.5802   0.4466    92.2664
 75      0.0000     0.0000E+00    0.0000E+00    1.800000E+10  0.00400  1.452E-05    0   0.4874   age213_m42            0.0000     6.5541E+01     5.4224   0.4567    92.6640
 76      0.0000     0.0000E+00    0.0000E+00    1.000000E+06  0.00800  1.286E-02    0   1.0000   age020_m52            0.0000     2.1921E+02    12.3523   4.0000    90.5440
 77      0.0000     0.0000E+00    0.0000E+00    3.160000E+06  0.00800  3.147E-02    0   0.9966   age045_m52            0.0000     1.8147E+02    11.4047   4.0000    89.9869
 78      0.0000     0.0000E+00    0.0000E+00    5.010000E+06  0.00800  2.664E-02    0   0.9443   age055_m52            0.0000     1.0955E+02     9.2098   3.9306    86.5813
 79      0.0000     0.0000E+00    0.0000E+00    6.610000E+06  0.00800  2.151E-02    0   0.9177   age061_m52            0.0000     6.4692E+01     7.2642   2.6520    92.6536
 80      0.0000     0.0000E+00    0.0000E+00    8.710000E+06  0.00800  1.628E-02    0   0.8948   age067_m52            0.0000     6.9978E+01     7.4853   3.0309    92.8282
 81      0.0000     0.0000E+00    0.0000E+00    1.000000E+07  0.00800  1.215E-02    0   0.8827   age070_m52            0.0000     8.5716E+01     8.2536   3.3600    91.2343
 82      0.0000     0.0000E+00    0.0000E+00    1.445000E+07  0.00800  8.739E-03    0   0.8552   age078_m52            0.0000     7.4257E+01     7.5400   3.4199    91.9631
 83      0.0000     0.0000E+00    0.0000E+00    2.512000E+07  0.00800  5.676E-03    0   0.8162   age090_m52            0.0000     5.4187E+01     5.9816   3.0568    95.7425
 84      0.0000     0.0000E+00    0.0000E+00    4.000000E+07  0.00800  3.939E-03    0   0.7841   age104_m52            0.0000     3.9851E+01     4.6877   2.9275    97.3080
 85      0.0000     0.0000E+00    0.0000E+00    5.500000E+07  0.00800  3.155E-03    0   0.7627   age110_m52            0.0000     3.7780E+01     4.0275   2.9224    98.3425
 86      0.0000     0.0000E+00    0.0000E+00    1.015200E+08  0.00800  2.206E-03    0   0.7226   age116_m52            0.0000     4.7108E+01     3.9369   2.7849   100.8805
 87      0.0000     0.0000E+00    0.0000E+00    1.609000E+08  0.00800  1.596E-03    0   0.6963   age120_m52            0.0000     5.6608E+01     4.3360   2.5853   102.0738
 88      0.0000     0.0000E+00    0.0000E+00    2.861200E+08  0.00800  1.002E-03    0   0.6665   age125_m52            0.0000     8.9305E+01     5.8885   2.3378   103.4017
 89      0.0000     0.0000E+00    0.0000E+00    5.088000E+08  0.00800  5.759E-04    0   0.6377   age130_m52            0.0000     1.0120E+02     6.6181   2.0185   106.3161
 90      0.0000     0.0000E+00    0.0000E+00    9.047900E+08  0.00800  2.972E-04    0   0.6086   age135_m52            0.0000     6.9347E+01     5.6379   1.4968   104.3881
 91      0.0000     0.0000E+00    0.0000E+00    1.278050E+09  0.00800  2.242E-04    0   0.5907   age138_m52            0.0000     4.8441E+01     4.8260   0.8592   103.4338
 92      0.0000     0.0000E+00    0.0000E+00    1.434000E+09  0.00800  1.645E-04    0   0.5787   age139_m52            0.0000     3.8724E+01     4.3862   0.9939   103.2703
 93      0.0000     0.0000E+00    0.0000E+00    2.500000E+09  0.00800  7.723E-05    0   0.5519   age150_m52            0.0000     4.8740E+01     4.8620   0.6495    99.6410
 94      0.0000     0.0000E+00    0.0000E+00    4.250000E+09  0.00800  4.151E-05    0   0.5320   age158_m52            0.0000     5.2031E+01     4.9929   0.5745    97.2859
 95      0.0000     0.0000E+00    0.0000E+00    6.250000E+09  0.00800  3.010E-05    0   0.5197   age166_m52            0.0000     7.4890E+01     5.8057   0.3949    95.4699
 96      0.0000     0.0000E+00    0.0000E+00    7.500000E+09  0.00800  2.467E-05    0   0.5139   age171_m52            0.0000     8.1563E+01     6.0126   0.3585    94.9349
 97      0.0000     0.0000E+00    0.0000E+00    1.000000E+10  0.00800  1.862E-05    0   0.5054   age181_m52            0.0000     1.0383E+02     6.6740   0.2471    94.0192
 98      0.0000     0.0000E+00    0.0000E+00    1.300000E+10  0.00800  1.433E-05    0   0.4988   age193_m52            0.0000     1.2924E+02     7.3695   0.1659    94.1776
 99      0.0000     0.0000E+00    0.0000E+00    1.500000E+10  0.00800  1.244E-05    0   0.4936   age201_m52            0.0000     1.3947E+02     7.6242   0.1416    94.4556
100      0.0000     0.0000E+00    0.0000E+00    1.800000E+10  0.00800  1.070E-05    0   0.4888   age213_m52            0.0000     1.4721E+02     7.8234   0.1117    94.1714
101      0.0000     0.0000E+00    0.0000E+00    1.000000E+06  0.02000  1.989E-02    0   1.0000   age020_m62            0.0000     2.2114E+02    12.3389   4.0000    89.2353
102      0.0000     0.0000E+00    0.0000E+00    3.160000E+06  0.02000  3.772E-02    0   0.9858   age045_m62            0.0000     1.6806E+02    11.0294   4.0000    87.9748
103      0.0000     0.0000E+00    0.0000E+00    5.010000E+06  0.02000  3.227E-02    0   0.9342   age055_m62            0.0000     7.2774E+01     7.4850   3.7022    89.6636
104      0.0000     0.0000E+00    0.0000E+00    6.610000E+06  0.02000  2.387E-02    0   0.9090   age061_m62            0.0000     1.0635E+02     9.0920   3.4139    90.2833
105      0.0000     0.0000E+00    0.0000E+00    8.710000E+06  0.02000  1.102E-02    0   0.8861   age067_m62            0.0000     2.9460E+02    14.9747   2.9462    88.4909
106      0.0000     0.0000E+00    0.0000E+00    1.000000E+07  0.02000  1.011E-02    0   0.8751   age070_m62            0.0000     1.9768E+02    12.3818   2.9972    90.0601
107      0.0000     0.0000E+00    0.0000E+00    1.445000E+07  0.02000  7.331E-03    0   0.8472   age078_m62            0.0000     1.3371E+02    10.2813   3.0433    90.6604
108      0.0000     0.0000E+00    0.0000E+00    2.512000E+07  0.02000  4.206E-03    0   0.8099   age090_m62            0.0000     1.3984E+02    10.5630   2.9571    90.1076
109      0.0000     0.0000E+00    0.0000E+00    4.000000E+07  0.02000  3.373E-03    0   0.7799   age104_m62            0.0000     4.7076E+01     5.8698   2.8507    96.4230
110      0.0000     0.0000E+00    0.0000E+00    5.500000E+07  0.02000  2.747E-03    0   0.7595   age110_m62            0.0000     3.7612E+01     4.4244   2.8279    98.6929
111      0.0000     0.0000E+00    0.0000E+00    1.015200E+08  0.02000  1.878E-03    0   0.7221   age116_m62            0.0000     5.6086E+01     4.1807   2.7494   101.8235
112      0.0000     0.0000E+00    0.0000E+00    1.609000E+08  0.02000  1.378E-03    0   0.6978   age120_m62            0.0000     7.9017E+01     5.0271   2.6246   103.5049
113      0.0000     0.0000E+00    0.0000E+00    2.861200E+08  0.02000  8.869E-04    0   0.6700   age125_m62            0.0000     1.2249E+02     6.6933   2.2948   106.4980
114      0.0000     0.0000E+00    0.0000E+00    5.088000E+08  0.02000  4.834E-04    0   0.6430   age130_m62            0.0000     1.1366E+02     6.9567   1.8965   107.4486
115      0.0000     0.0000E+00    0.0000E+00    9.047900E+08  0.02000  2.312E-04    0   0.6152   age135_m62            0.0000     5.9717E+01     5.3606   1.2926   106.4378
116      0.0000     0.0000E+00    0.0000E+00    1.278050E+09  0.02000  1.387E-04    0   0.5927   age138_m62            0.0000     4.1339E+01     4.5966   0.8889   102.5779
117      0.0000     0.0000E+00    0.0000E+00    1.434000E+09  0.02000  1.168E-04    0   0.5865   age139_m62            0.0000     4.1159E+01     4.5958   0.8601   101.0661
118      0.0000     0.0000E+00    0.0000E+00    2.500000E+09  0.02000  5.505E-05    0   0.5610   age150_m62            0.0000     6.8146E+01     5.6984   0.4996    97.7446
119      0.0000     0.0000E+00    0.0000E+00    4.250000E+09  0.02000  3.070E-05    0   0.5407   age158_m62            0.0000     1.1853E+02     7.2019   0.2419    96.5071
120      0.0000     0.0000E+00    0.0000E+00    6.250000E+09  0.02000  2.104E-05    0   0.5277   age166_m62            0.0000     1.4902E+02     7.9473   0.1264    96.3590
121      0.0000     0.0000E+00    0.0000E+00    7.500000E+09  0.02000  1.770E-05    0   0.5223   age171_m62            0.0000     1.6606E+02     8.3411   0.0499    96.3435
122      0.0000     0.0000E+00    0.0000E+00    1.000000E+10  0.02000  1.297E-05    0   0.5121   age181_m62            0.0000     2.0306E+02     9.1242  -0.0871    96.1023
123      0.8596     3.5940E+00    3.5909E+00    1.300000E+10  0.02000  9.691E-06    0   0.5047   age193_m62            0.0000     2.2887E+02     9.6238  -0.1579    96.0036
124      1.8082     8.7634E+00    8.6727E+00    1.500000E+10  0.02000  8.360E-06    0   0.4999   age201_m62            0.0000     2.5136E+02    10.0574  -0.2148    95.7835
125      0.2905     1.7034E+00    1.6679E+00    1.800000E+10  0.02000  6.911E-06    0   0.4946   age213_m62            0.0000     2.7979E+02    10.6025  -0.2696    95.4239
126      0.0000     0.0000E+00    0.0000E+00    1.000000E+06  0.05000  2.651E-02    0   0.9998   age020_m72            0.0000     2.1708E+02    12.2257   4.0000    90.2445
127      0.0000     0.0000E+00    0.0000E+00    3.160000E+06  0.05000  4.817E-02    0   0.9577   age045_m72            0.0000     1.2180E+02     9.5587   4.0000    87.3792
128      0.0000     0.0000E+00    0.0000E+00    5.010000E+06  0.05000  3.101E-02    0   0.9147   age055_m72            0.0000     1.1223E+02     9.1830   3.6795    89.0782
129      0.0000     0.0000E+00    0.0000E+00    6.610000E+06  0.05000  1.472E-02    0   0.8877   age061_m72            0.0000     2.3864E+02    13.0971   3.1639    89.2049
130      0.0000     0.0000E+00    0.0000E+00    8.710000E+06  0.05000  1.050E-02    0   0.8638   age067_m72            0.0000     1.5470E+02    10.5866   3.5935    88.7887
131      0.0000     0.0000E+00    0.0000E+00    1.000000E+07  0.05000  8.954E-03    0   0.8524   age070_m72            0.0000     1.1192E+02     9.1088   3.9068    87.8910
132      0.0000     0.0000E+00    0.0000E+00    1.445000E+07  0.05000  6.392E-03    0   0.8262   age078_m72            0.0000     9.5397E+01     8.4434   3.8670    88.6349
133      0.0000     0.0000E+00    0.0000E+00    2.512000E+07  0.05000  4.207E-03    0   0.7902   age090_m72            0.0000     6.0446E+01     6.7225   3.5204    92.3222
134      0.0000     0.0000E+00    0.0000E+00    4.000000E+07  0.05000  3.198E-03    0   0.7618   age104_m72            0.0000     4.3300E+01     4.0449   3.0977    98.1013
135      0.0000     0.0000E+00    0.0000E+00    5.500000E+07  0.05000  2.593E-03    0   0.7432   age110_m72            0.0000     5.0555E+01     4.0765   3.0155    99.6994
136      0.0000     0.0000E+00    0.0000E+00    1.015200E+08  0.05000  1.716E-03    0   0.7092   age116_m72            0.0000     7.0115E+01     4.6344   2.8425   101.6926
137      0.0000     0.0000E+00    0.0000E+00    1.609000E+08  0.05000  1.218E-03    0   0.6876   age120_m72            0.0000     9.3862E+01     5.5662   2.6091   103.4769
138      0.0000     0.0000E+00    0.0000E+00    2.861200E+08  0.05000  7.047E-04    0   0.6618   age125_m72            0.0000     1.1917E+02     6.9212   2.1139   105.9599
139      0.0000     0.0000E+00    0.0000E+00    5.088000E+08  0.05000  3.590E-04    0   0.6356   age130_m72            0.0000     9.9477E+01     6.6700   1.5741   107.1340
140      0.0000     0.0000E+00    0.0000E+00    9.047900E+08  0.05000  1.484E-04    0   0.6088   age135_m72            0.0000     6.5089E+01     5.6946   0.8308   100.7377
141      0.0000     0.0000E+00    0.0000E+00    1.278050E+09  0.05000  9.435E-05    0   0.5924   age138_m72            0.0000     9.9616E+01     6.8130   0.4502    97.0767
142      0.0000     0.0000E+00    0.0000E+00    1.434000E+09  0.05000  7.827E-05    0   0.5847   age139_m72            0.0000     9.7849E+01     6.6878   0.4520    96.7821
143      0.0000     0.0000E+00    0.0000E+00    2.500000E+09  0.05000  3.759E-05    0   0.5583   age150_m72            0.0000     1.4567E+02     7.9041   0.1370    95.6538
144      0.0107     2.3589E-02    2.5096E-02    4.250000E+09  0.05000  1.842E-05    0   0.5374   age158_m72            0.0000     2.0377E+02     9.0810  -0.1650    94.5613
145      0.3352     1.1252E+00    1.1677E+00    6.250000E+09  0.05000  1.207E-05    0   0.5242   age166_m72            0.0000     2.6181E+02    10.2038  -0.3676    93.1471
146      0.6581     2.6683E+00    2.7379E+00    7.500000E+09  0.05000  9.993E-06    0   0.5183   age171_m72            0.0000     2.7130E+02    10.3830  -0.4053    92.8962
147      0.0000     0.0000E+00    0.0000E+00    1.000000E+10  0.05000  7.291E-06    0   0.5081   age181_m72            0.0000     3.1260E+02    11.2085  -0.4965    91.8548
148      1.1799     8.9925E+00    8.9333E+00    1.300000E+10  0.05000  5.316E-06    0   0.5018   age193_m72            0.0000     3.7834E+02    12.4579  -0.6346    90.3709
149      0.6635     5.9775E+00    5.8837E+00    1.500000E+10  0.05000  4.497E-06    0   0.4972   age201_m72            0.0000     4.1071E+02    13.0615  -0.6826    89.8553
150      1.9123     2.0723E+01    2.0200E+01    1.800000E+10  0.05000  3.739E-06    0   0.4924   age213_m72            0.0000     4.5281E+02    13.8163  -0.7553    89.0442


## Synthesis Results - Average & Chains ##

# j      x_j: min, <> & last-chain-values for 1 ...  7 chains
  1      0.0000      0.0086      0.0000      0.0000      0.0000      0.0000      0.0000      0.0000      0.0000
  2      3.0253      0.5346      1.4087      0.4594      0.6709      0.8648      0.8082      0.7723      0.6983
  3      0.0000      0.1964      0.0972      0.2566      0.3568      0.2430      0.5757      0.1417      0.0000
  4      0.0000      0.0163      0.0000      0.0000      0.0000      0.0137      0.0000      0.0000      0.0000
  5      0.0000      0.0147      0.0000      0.0000      0.0000      0.0793      0.0000      0.0000      0.0000
  6      0.0000      0.0143      0.0000      0.0000      0.0169      0.1094      0.0025      0.0000      0.0000
  7      0.0000      0.0228      0.1426      0.0000      0.0000      0.0000      0.0021      0.0000      0.0766
  8      0.0000      0.0338      0.0337      0.0821      0.0000      0.1601      0.0000      0.0163      0.2514
  9      0.6597      0.2239      0.2576      0.3509      0.3363      0.3256      0.2799      0.2586      0.0000
 10      0.6827      0.1111      0.2755      0.0000      0.3284      0.1214      0.4633      0.1964      0.2165
 11      0.0000      0.0618      0.1699      0.0000      0.1250      0.1163      0.1885      0.2737      0.0000
 12      0.0000      0.0337      0.0000      0.0000      0.0000      0.0000      0.0000      0.0000      0.0000
 13      0.0000      0.0231      0.0345      0.0000      0.0324      0.0000      0.0000      0.0000      0.0000
 14      0.0000      0.0149      0.0000      0.0000      0.0126      0.0000      0.0000      0.0000      0.0000
 15      0.0000      0.0196      0.0000      0.0000      0.0000      0.0000      0.0145      0.0000      0.0091
 16      0.0000      0.0252      0.1284      0.0255      0.0000      0.0000      0.0000      0.0054      0.0000
 17      0.0000      0.0256      0.0050      0.0000      0.0000      0.1059      0.0000      0.0000      0.2059
 18      0.0000      0.0513      0.0000      0.0141      0.0000      0.0000      0.0000      0.3063      0.0000
 19      0.0000      0.1204      0.0000      0.0000      0.2602      0.2083      0.0646      0.0661      0.0913
 20      0.0000      0.1081      0.1107      0.0093      0.0000      0.1142      0.0000      0.1010      0.0000
 21      0.0271      0.3160      0.2690      0.4420      0.3373      0.0958      0.3156      0.6202      0.0899
 22      0.0000      0.3258      0.0340      0.1074      0.0000      0.5611      0.2685      0.3206      0.1863
 23      0.0002      0.2743      0.1959      0.2771      0.1834      0.1790      0.3082      0.2665      0.0288
 24      0.0027      0.3312      0.4969      0.0000      0.0053      0.0261      0.3864      0.1692      0.0987
 25      0.0000      0.4106      0.0000      0.1630      0.4219      0.2815      0.4444      0.0861      0.2169
 26      0.0000      0.0101      0.0000      0.0630      0.0000      0.0000      0.0000      0.0684      0.0684
 27      0.0000      0.0751      0.0000      0.0000      0.0000      0.0555      0.0000      0.1853      0.0000
 28      0.0000      0.0429      0.0000      0.0000      0.2794      0.0000      0.1952      0.0000      0.0000
 29      0.0000      0.0166      0.0000      0.0314      0.0000      0.0909      0.0000      0.0000      0.0000
 30      0.0000      0.0123      0.0153      0.0000      0.0000      0.0000      0.0630      0.0000      0.0000
 31      0.0000      0.0332      0.0000      0.0436      0.0680      0.0436      0.0000      0.0000      0.0064
 32      0.0000      0.0454      0.0000      0.0682      0.0071      0.0000      0.0434      0.0034      0.0478
 33      0.0000      0.0319      0.0072      0.0000      0.0000      0.0000      0.0075      0.0000      0.1323
 34      0.0000      0.1059      0.0994      0.3390      0.3371      0.1404      0.0071      0.1597      0.0000
 35      0.0000      0.0694      0.0000      0.1241      0.0000      0.0000      0.2398      0.0000      0.2037
 36      0.0000      0.0693      0.0000      0.2138      0.0000      0.0000      0.0000      0.0240      0.2437
 37      0.0000      0.0352      0.0615      0.0000      0.0000      0.1286      0.0924      0.0312      0.1104
 38      0.0000      0.0240      0.0273      0.0000      0.0073      0.0000      0.0000      0.0000      0.0369
 39      0.0000      0.0158      0.0000      0.0000      0.0000      0.0000      0.0000      0.0000      0.0010
 40      0.0000      0.0203      0.0000      0.0000      0.0000      0.0000      0.0000      0.0000      0.0000
 41      0.0000      0.0452      0.0000      0.0158      0.0000      0.0000      0.0000      0.0000      0.0000
 42      0.0000      0.0646      0.0000      0.0000      0.0000      0.0000      0.0000      0.0156      0.0000
 43      4.1063      4.1841      4.1028      4.4354      4.3463      4.2172      4.2214      4.3627      5.0940
 44     41.4813     39.2766     41.1080     40.8791     40.3715     40.3380     40.5005     40.2544     41.2130
 45     31.4991     29.4051     30.3477     29.5995     31.3021     30.1053     29.8798     29.1712     29.6693
 46      8.7182      9.0520      8.6799      8.3292      7.3348      8.3801      8.6861      8.6850      8.6612
 47      0.0000      0.2368      0.0000      0.0000      0.3741      0.0000      0.0000      0.1124      0.0000
 48      0.0000      0.4101      0.0000      0.5095      0.0577      0.8161      0.0000      0.3680      0.1948
 49      0.0185      0.5404      0.5344      1.3162      0.5924      0.1632      0.0000      0.0338      0.0479
 50      0.0000      0.6107      0.0000      0.0000      0.5862      0.6976      0.6625      0.8210      0.0000
 51      0.0000      0.0136      0.0000      0.0000      0.0000      0.0000      0.0000      0.0000      0.0000
 52      0.0000      0.0655      0.0118      0.0698      0.1321      0.0612      0.0569      0.1107      0.3478
 53      0.0000      0.0230      0.0000      0.0000      0.0385      0.0000      0.0000      0.0434      0.0000
 54      0.0000      0.0872      0.0741      0.2443      0.1316      0.0000      0.0465      0.0000      0.0437
 55      0.0000      0.0981      0.1319      0.0000      0.0000      0.0000      0.0557      0.4673      0.0000
 56      0.0000      0.0665      0.0000      0.0784      0.0000      0.0863      0.0000      0.1429      0.0000
 57      0.0000      0.0251      0.0000      0.0000      0.1533      0.0718      0.0000      0.0000      0.0272
 58      0.0000      0.0484      0.0000      0.2030      0.0000      0.0020      0.0000      0.0371      0.1559
 59      0.0000      0.0214      0.0000      0.0112      0.0000      0.0000      0.0000      0.0000      0.0105
 60      0.0000      0.0263      0.0034      0.0000      0.0000      0.0193      0.0000      0.0000      0.0116
 61      0.0000      0.0242      0.0000      0.0000      0.0000      0.0000      0.0000      0.0000      0.0000
 62      0.0000      0.0214      0.0000      0.0793      0.0000      0.0000      0.0000      0.0697      0.0000
 63      0.0000      0.0199      0.0000      0.0000      0.0000      0.0000      0.0000      0.0000      0.0000
 64      0.0000      0.0292      0.0000      0.0069      0.0000      0.0000      0.0000      0.0000      0.0000
 65      0.0001      0.0303      0.2552      0.0000      0.0000      0.0000      0.1429      0.0071      0.0000
 66      0.0000      0.0338      0.0000      0.0000      0.0000      0.0998      0.0000      0.0000      0.0000
 67      0.0000      0.0331      0.0000      0.0000      0.0892      0.0000      0.0556      0.0000      0.0000
 68      0.0000      0.0276      0.0000      0.0237      0.0000      0.0000      0.0386      0.0000      0.0000
 69      0.0000      0.0378      0.0000      0.0000      0.0000      0.0000      0.0000      0.0000      0.0090
 70      0.0000      0.0316      0.0000      0.0000      0.0000      0.0281      0.0000      0.1567      0.0015
 71      0.0000      0.0254      0.0000      0.0456      0.0000      0.0000      0.0000      0.0000      0.0000
 72      0.0000      0.0256      0.0000      0.0000      0.0000      0.0000      0.0000      0.0000      0.0000
 73      0.0000      0.0257      0.0000      0.0000      0.0000      0.0000      0.0000      0.0000      0.0248
 74      0.0000      0.0264      0.0000      0.0000      0.0000      0.0000      0.0000      0.0000      0.0000
 75      0.0000      0.0306      0.0000      0.0000      0.0000      0.0000      0.1332      0.1012      0.0000
 76      0.0000      0.0139      0.0000      0.0000      0.0000      0.0000      0.0000      0.0000      0.0000
 77      0.0000      0.0114      0.0000      0.0000      0.0000      0.0000      0.0000      0.0000      0.0000
 78      0.0000      0.0110      0.0000      0.0000      0.0000      0.0000      0.0000      0.0000      0.0000
 79      0.0000      0.0210      0.0000      0.0000      0.0000      0.0000      0.0000      0.0000      0.0000
 80      0.0000      0.0387      0.0000      0.1033      0.0000      0.0000      0.0270      0.0000      0.1138
 81      0.0000      0.0154      0.0000      0.0000      0.0000      0.0000      0.0000      0.0000      0.1094
 82      0.0000      0.0127      0.0000      0.0000      0.0526      0.0000      0.0000      0.0591      0.0000
 83      0.0000      0.0901      0.0634      0.0478      0.0000      0.1975      0.0000      0.1317      0.0168
 84      0.0000      0.0320      0.0000      0.0000      0.0290      0.0000      0.0000      0.1034      0.0000
 85      0.0000      0.0412      0.0000      0.0000      0.0533      0.0426      0.0000      0.0188      0.0398
 86      0.0000      0.0223      0.0365      0.0000      0.0000      0.0000      0.0000      0.0000      0.0000
 87      0.0000      0.0170      0.0000      0.0936      0.0000      0.0000      0.0693      0.0000      0.0000
 88      0.0000      0.0137      0.0000      0.0000      0.0000      0.0000      0.0000      0.0000      0.0000
 89      0.0000      0.0105      0.0000      0.0000      0.0000      0.0000      0.0000      0.0168      0.0000
 90      0.0000      0.0072      0.0000      0.0000      0.0000      0.0000      0.0000      0.0000      0.0000
 91      0.0000      0.0096      0.0000      0.0000      0.0000      0.0000      0.0000      0.0000      0.0000
 92      0.0000      0.0115      0.0044      0.0000      0.0000      0.0000      0.0538      0.0000      0.0000
 93      0.0000      0.0126      0.0000      0.0118      0.0000      0.0000      0.0000      0.0000      0.0000
 94      0.0000      0.0185      0.0341      0.0000      0.0000      0.0000      0.0000      0.0251      0.0036
 95      0.0000      0.0167      0.0000      0.0000      0.0000      0.0000      0.0000      0.0537      0.0000
 96      0.0000      0.0151      0.0000      0.0000      0.0000      0.0000      0.0000      0.0000      0.0000
 97      0.0000      0.0128      0.0000      0.0000      0.0000      0.0000      0.0000      0.0000      0.0000
 98      0.0000      0.0121      0.0000      0.0000      0.0000      0.0000      0.0012      0.0000      0.0000
 99      0.0000      0.0113      0.0000      0.0133      0.0000      0.0000      0.0000      0.0000      0.0000
100      0.0000      0.0128      0.0000      0.0000      0.0541      0.0000      0.0000      0.0000      0.0000
101      0.0000      0.0088      0.0000      0.0000      0.0000      0.0000      0.0000      0.0000      0.0650
102      0.0000      0.0159      0.0000      0.0000      0.0000      0.0000      0.0000      0.0000      0.1377
103      0.0000      0.0418      0.1359      0.2408      0.0000      0.0000      0.0000      0.0436      0.0012
104      0.0000      0.0406      0.0650      0.0000      0.0000      0.1043      0.0000      0.0000      0.1147
105      0.0000      0.0275      0.0000      0.0000      0.0000      0.0000      0.0000      0.0000      0.0000
106      0.0000      0.0299      0.0000      0.0000      0.0000      0.0000      0.0191      0.1139      0.2228
107      0.0000      0.0300      0.0253      0.0000      0.0000      0.0000      0.0561      0.0224      0.0000
108      0.0000      0.0092      0.0000      0.0000      0.0518      0.0000      0.0195      0.0102      0.0000
109      0.0000      0.0121      0.0000      0.0000      0.0000      0.0000      0.0000      0.0000      0.0000
110      0.0000      0.0122      0.0702      0.0000      0.0000      0.0000      0.0000      0.0000      0.0000
111      0.0000      0.0189      0.0000      0.0000      0.0000      0.0000      0.0019      0.0000      0.0370
112      0.0000      0.0176      0.0000      0.0105      0.0294      0.0000      0.0000      0.0000      0.0000
113      0.0000      0.0136      0.0000      0.0000      0.0000      0.0000      0.0000      0.0000      0.0000
114      0.0000      0.0109      0.0000      0.0000      0.0000      0.0000      0.0000      0.0000      0.0000
115      0.0000      0.0109      0.0000      0.0000      0.0000      0.0000      0.0000      0.0000      0.0000
116      0.0000      0.0119      0.0000      0.0000      0.0000      0.0000      0.0000      0.0000      0.0000
117      0.0000      0.0088      0.0000      0.0000      0.0000      0.0000      0.0027      0.0000      0.0000
118      0.0000      0.0109      0.0000      0.0000      0.0000      0.0000      0.0000      0.0000      0.0000
119      0.0000      0.0125      0.0066      0.0068      0.0000      0.0000      0.0000      0.0000      0.0000
120      0.0000      0.0103      0.0000      0.0000      0.0000      0.0000      0.0000      0.0000      0.0000
121      0.0000      0.0110      0.0000      0.0000      0.0000      0.0000      0.0000      0.0178      0.0000
122      0.0000      0.0145      0.0000      0.0000      0.0096      0.0000      0.0000      0.0000      0.0399
123      0.8596      1.6687      1.6141      1.4526      1.6198      1.7147      1.5874      1.6397      1.7601
124      1.8082      2.2916      2.1685      2.2190      2.4389      2.3383      2.3774      2.2647      2.2486
125      0.2905      0.5978      0.4762      0.6766      0.5731      0.5657      0.6593      0.6657      0.5145
126      0.0000      0.0093      0.0000      0.0000      0.0000      0.0000      0.0000      0.0000      0.0000
127      0.0000      0.0201      0.0759      0.0000      0.0000      0.0000      0.0088      0.0000      0.0000
128      0.0000      0.0176      0.0000      0.0000      0.0000      0.1184      0.0057      0.0000      0.0000
129      0.0000      0.0188      0.0517      0.1070      0.0049      0.0000      0.0000      0.0000      0.0000
130      0.0000      0.0098      0.0000      0.0873      0.0000      0.0000      0.0000      0.0000      0.0000
131      0.0000      0.0082      0.0173      0.0000      0.0000      0.0000      0.0579      0.0000      0.0000
132      0.0000      0.0096      0.0000      0.0000      0.0000      0.0000      0.0000      0.0000      0.0000
133      0.0000      0.0081      0.0000      0.0000      0.0000      0.0000      0.0000      0.0000      0.0000
134      0.0000      0.0134      0.0000      0.0000      0.0000      0.0000      0.0000      0.0000      0.0000
135      0.0000      0.0189      0.0000      0.0000      0.0000      0.0000      0.0169      0.0000      0.0098
136      0.0000      0.0213      0.0539      0.0124      0.0640      0.0398      0.0000      0.0000      0.0000
137      0.0000      0.0144      0.0000      0.0000      0.0126      0.0000      0.0000      0.0000      0.0000
138      0.0000      0.0102      0.0000      0.0000      0.0000      0.0034      0.0000      0.0000      0.0000
139      0.0000      0.0096      0.0000      0.0000      0.0000      0.0000      0.0063      0.0000      0.0000
140      0.0000      0.0108      0.0000      0.0000      0.0000      0.0000      0.0000      0.0000      0.0000
141      0.0000      0.0093      0.0000      0.0000      0.0000      0.0000      0.0000      0.0000      0.0189
142      0.0000      0.0101      0.0377      0.0000      0.0021      0.0000      0.0000      0.0000      0.0000
143      0.0000      0.0094      0.0000      0.0000      0.0000      0.0000      0.0000      0.0460      0.0000
144      0.0107      0.1146      0.1937      0.2368      0.1131      0.0141      0.0000      0.1232      0.0326
145      0.3352      0.2230      0.3136      0.1414      0.2219      0.3098      0.2196      0.2253      0.2110
146      0.6581      0.2938      0.3199      0.3869      0.2945      0.3254      0.1920      0.3162      0.3515
147      0.0000      0.1260      0.0000      0.0765      0.0000      0.0000      0.1268      0.1334      0.1736
148      1.1799      0.9495      0.9972      1.1643      0.9999      0.9713      1.2247      0.8827      0.9713
149      0.6635      0.3707      0.4985      0.3679      0.3729      0.4152      0.3246      0.3915      0.3823
150      1.9123      1.5887      1.6586      1.5837      1.6477      1.6516      1.6500      1.6657      1.8377

# j      m_j: min, <> & last-chain-values for 1 ...  7 chains
  1  0.0000E+00  8.2692E-05  0.0000E+00  0.0000E+00  0.0000E+00  0.0000E+00  0.0000E+00  0.0000E+00  0.0000E+00
  2  5.0990E-03  8.8533E-04  2.3663E-03  7.6424E-04  1.1158E-03  1.4330E-03  1.3262E-03  1.2823E-03  1.1561E-03
  3  0.0000E+00  7.6749E-04  3.8548E-04  1.0075E-03  1.4007E-03  9.5051E-04  2.2296E-03  5.5539E-04  0.0000E+00
  4  0.0000E+00  1.2009E-04  0.0000E+00  0.0000E+00  0.0000E+00  1.0095E-04  0.0000E+00  0.0000E+00  0.0000E+00
  5  0.0000E+00  1.3612E-04  0.0000E+00  0.0000E+00  0.0000E+00  7.3444E-04  0.0000E+00  0.0000E+00  0.0000E+00
  6  0.0000E+00  1.5766E-04  0.0000E+00  0.0000E+00  1.8673E-04  1.2050E-03  2.7458E-05  0.0000E+00  0.0000E+00
  7  0.0000E+00  3.1634E-04  2.0091E-03  0.0000E+00  0.0000E+00  0.0000E+00  2.8364E-05  0.0000E+00  1.0634E-03
  8  0.0000E+00  5.3136E-04  5.3729E-04  1.2944E-03  0.0000E+00  2.5153E-03  0.0000E+00  2.5726E-04  3.9463E-03
  9  1.1339E-02  3.7820E-03  4.4124E-03  5.9520E-03  5.7046E-03  5.5024E-03  4.6830E-03  4.3782E-03  0.0000E+00
 10  1.3451E-02  2.1508E-03  5.4102E-03  0.0000E+00  6.3852E-03  2.3523E-03  8.8857E-03  3.8113E-03  4.1891E-03
 11  0.0000E+00  1.4305E-03  3.9881E-03  0.0000E+00  2.9052E-03  2.6923E-03  4.3228E-03  6.3492E-03  0.0000E+00
 12  0.0000E+00  1.3625E-03  0.0000E+00  0.0000E+00  0.0000E+00  0.0000E+00  0.0000E+00  0.0000E+00  0.0000E+00
 13  0.0000E+00  1.0854E-03  1.6443E-03  0.0000E+00  1.5309E-03  0.0000E+00  0.0000E+00  0.0000E+00  0.0000E+00
 14  0.0000E+00  9.9381E-04  0.0000E+00  0.0000E+00  8.4539E-04  0.0000E+00  0.0000E+00  0.0000E+00  0.0000E+00
 15  0.0000E+00  1.9719E-03  0.0000E+00  0.0000E+00  0.0000E+00  0.0000E+00  1.4454E-03  0.0000E+00  9.1480E-04
 16  0.0000E+00  3.6778E-03  1.9008E-02  3.7393E-03  0.0000E+00  0.0000E+00  0.0000E+00  7.9266E-04  0.0000E+00
 17  0.0000E+00  4.1398E-03  8.2831E-04  0.0000E+00  0.0000E+00  1.7173E-02  0.0000E+00  0.0000E+00  3.3350E-02
 18  0.0000E+00  1.3530E-02  0.0000E+00  3.7327E-03  0.0000E+00  0.0000E+00  0.0000E+00  8.1017E-02  0.0000E+00
 19  0.0000E+00  4.8158E-02  0.0000E+00  0.0000E+00  1.0452E-01  8.3365E-02  2.5605E-02  2.6521E-02  3.6509E-02
 20  0.0000E+00  6.1840E-02  6.4226E-02  5.3422E-03  0.0000E+00  6.5365E-02  0.0000E+00  5.7929E-02  0.0000E+00
 21  1.8251E-02  2.0912E-01  1.8055E-01  2.9377E-01  2.2413E-01  6.3416E-02  2.0695E-01  4.1145E-01  5.9494E-02
 22  0.0000E+00  2.7811E-01  2.9435E-02  9.2134E-02  0.0000E+00  4.7929E-01  2.2710E-01  2.7443E-01  1.5900E-01
 23  1.8716E-04  2.9684E-01  2.1500E-01  3.0123E-01  1.9932E-01  1.9388E-01  3.3046E-01  2.8917E-01  3.1125E-02
 24  3.3591E-03  4.0990E-01  6.2375E-01  0.0000E+00  6.6278E-03  3.2305E-02  4.7388E-01  2.0998E-01  1.2209E-01
 25  0.0000E+00  6.1038E-01  0.0000E+00  2.4337E-01  6.3001E-01  4.1875E-01  6.5470E-01  1.2829E-01  3.2243E-01
 26  0.0000E+00  9.4039E-05  0.0000E+00  5.8937E-04  0.0000E+00  0.0000E+00  0.0000E+00  6.3885E-04  6.3719E-04
 27  0.0000E+00  1.4888E-04  0.0000E+00  0.0000E+00  0.0000E+00  1.1024E-04  0.0000E+00  3.6858E-04  0.0000E+00
 28  0.0000E+00  1.6645E-04  0.0000E+00  0.0000E+00  1.0896E-03  0.0000E+00  7.5073E-04  0.0000E+00  0.0000E+00
 29  0.0000E+00  1.0052E-04  0.0000E+00  1.9063E-04  0.0000E+00  5.5043E-04  0.0000E+00  0.0000E+00  0.0000E+00
 30  0.0000E+00  9.2665E-05  1.1668E-04  0.0000E+00  0.0000E+00  0.0000E+00  4.6969E-04  0.0000E+00  0.0000E+00
 31  0.0000E+00  2.8871E-04  0.0000E+00  3.8020E-04  5.9318E-04  3.7884E-04  0.0000E+00  0.0000E+00  5.5484E-05
 32  0.0000E+00  4.3639E-04  0.0000E+00  6.5895E-04  6.8414E-05  0.0000E+00  4.1391E-04  3.2907E-05  4.5980E-04
 33  0.0000E+00  4.3618E-04  1.0046E-04  0.0000E+00  0.0000E+00  0.0000E+00  1.0214E-04  0.0000E+00  1.8089E-03
 34  0.0000E+00  1.7594E-03  1.6739E-03  5.6555E-03  5.6229E-03  2.3339E-03  1.1744E-04  2.6600E-03  0.0000E+00
 35  0.0000E+00  1.3930E-03  0.0000E+00  2.5012E-03  0.0000E+00  0.0000E+00  4.7687E-03  0.0000E+00  4.0859E-03
 36  0.0000E+00  1.7820E-03  0.0000E+00  5.5253E-03  0.0000E+00  0.0000E+00  0.0000E+00  6.2007E-04  6.2683E-03
 37  0.0000E+00  1.1257E-03  1.9944E-03  0.0000E+00  0.0000E+00  4.1137E-03  2.9287E-03  9.9866E-04  3.5280E-03
 38  0.0000E+00  1.0702E-03  1.2340E-03  0.0000E+00  3.2866E-04  0.0000E+00  0.0000E+00  0.0000E+00  1.6410E-03
 39  0.0000E+00  1.0482E-03  0.0000E+00  0.0000E+00  0.0000E+00  0.0000E+00  0.0000E+00  0.0000E+00  6.4890E-05
 40  0.0000E+00  2.3836E-03  0.0000E+00  0.0000E+00  0.0000E+00  0.0000E+00  0.0000E+00  0.0000E+00  0.0000E+00
 41  0.0000E+00  7.1051E-03  0.0000E+00  2.4999E-03  0.0000E+00  0.0000E+00  0.0000E+00  0.0000E+00  0.0000E+00
 42  0.0000E+00  1.1326E-02  0.0000E+00  0.0000E+00  0.0000E+00  0.0000E+00  0.0000E+00  2.7485E-03  0.0000E+00
 43  1.1922E+00  1.1936E+00  1.1872E+00  1.2710E+00  1.2452E+00  1.2038E+00  1.1932E+00  1.2477E+00  1.4528E+00
 44  1.9047E+01  1.7719E+01  1.8812E+01  1.8526E+01  1.8292E+01  1.8210E+01  1.8105E+01  1.8207E+01  1.8589E+01
 45  2.0159E+01  1.8490E+01  1.9357E+01  1.8696E+01  1.9767E+01  1.8942E+01  1.8617E+01  1.8390E+01  1.8652E+01
 46  6.6465E+00  6.7804E+00  6.5953E+00  6.2673E+00  5.5179E+00  6.2812E+00  6.4471E+00  6.5223E+00  6.4864E+00
 47  0.0000E+00  2.3247E-01  0.0000E+00  0.0000E+00  3.6888E-01  0.0000E+00  0.0000E+00  1.1065E-01  0.0000E+00
 48  0.0000E+00  4.7939E-01  0.0000E+00  5.9830E-01  6.7728E-02  9.5464E-01  0.0000E+00  4.3131E-01  2.2766E-01
 49  2.4657E-02  7.0679E-01  7.0896E-01  1.7291E+00  7.7808E-01  2.1353E-01  0.0000E+00  4.4257E-02  6.2669E-02
 50  0.0000E+00  9.3930E-01  0.0000E+00  0.0000E+00  9.0552E-01  1.0738E+00  1.0098E+00  1.2661E+00  0.0000E+00
 51  0.0000E+00  9.6193E-05  0.0000E+00  0.0000E+00  0.0000E+00  0.0000E+00  0.0000E+00  0.0000E+00  0.0000E+00
 52  0.0000E+00  1.2666E-04  2.3206E-05  1.3566E-04  2.5671E-04  1.1853E-04  1.0899E-04  2.1473E-04  6.7271E-04
 53  0.0000E+00  6.8016E-05  0.0000E+00  0.0000E+00  1.1402E-04  0.0000E+00  0.0000E+00  1.2825E-04  0.0000E+00
 54  0.0000E+00  2.4543E-04  2.1146E-04  6.9040E-04  3.7187E-04  0.0000E+00  1.2952E-04  0.0000E+00  1.2304E-04
 55  0.0000E+00  4.0724E-04  5.5527E-04  0.0000E+00  0.0000E+00  0.0000E+00  2.2884E-04  1.9443E-03  0.0000E+00
 56  0.0000E+00  3.6562E-04  0.0000E+00  4.3279E-04  0.0000E+00  4.7425E-04  0.0000E+00  7.8738E-04  0.0000E+00
 57  0.0000E+00  2.2108E-04  0.0000E+00  0.0000E+00  1.3566E-03  6.3339E-04  0.0000E+00  0.0000E+00  2.3941E-04
 58  0.0000E+00  6.1483E-04  0.0000E+00  2.5911E-03  0.0000E+00  2.4936E-05  0.0000E+00  4.7265E-04  1.9809E-03
 59  0.0000E+00  3.7840E-04  0.0000E+00  1.9908E-04  0.0000E+00  0.0000E+00  0.0000E+00  0.0000E+00  1.8565E-04
 60  0.0000E+00  5.1698E-04  6.8272E-05  0.0000E+00  0.0000E+00  3.8036E-04  0.0000E+00  0.0000E+00  2.2836E-04
 61  0.0000E+00  6.0656E-04  0.0000E+00  0.0000E+00  0.0000E+00  0.0000E+00  0.0000E+00  0.0000E+00  0.0000E+00
 62  0.0000E+00  6.7991E-04  0.0000E+00  2.5282E-03  0.0000E+00  0.0000E+00  0.0000E+00  2.2178E-03  0.0000E+00
 63  0.0000E+00  9.5957E-04  0.0000E+00  0.0000E+00  0.0000E+00  0.0000E+00  0.0000E+00  0.0000E+00  0.0000E+00
 64  0.0000E+00  2.3229E-03  0.0000E+00  5.5237E-04  0.0000E+00  0.0000E+00  0.0000E+00  0.0000E+00  0.0000E+00
 65  1.7546E-05  4.0714E-03  3.4767E-02  0.0000E+00  0.0000E+00  0.0000E+00  1.9012E-02  9.5547E-04  0.0000E+00
 66  0.0000E+00  5.8018E-03  0.0000E+00  0.0000E+00  0.0000E+00  1.7161E-02  0.0000E+00  0.0000E+00  0.0000E+00
 67  0.0000E+00  7.8099E-03  0.0000E+00  0.0000E+00  2.1117E-02  0.0000E+00  1.2986E-02  0.0000E+00  0.0000E+00
 68  0.0000E+00  1.2106E-02  0.0000E+00  1.0421E-02  0.0000E+00  0.0000E+00  1.6770E-02  0.0000E+00  0.0000E+00
 69  0.0000E+00  2.8560E-02  0.0000E+00  0.0000E+00  0.0000E+00  0.0000E+00  0.0000E+00  0.0000E+00  6.8053E-03
 70  0.0000E+00  3.3210E-02  0.0000E+00  0.0000E+00  0.0000E+00  2.9624E-02  0.0000E+00  1.6531E-01  1.5355E-03
 71  0.0000E+00  3.1576E-02  0.0000E+00  5.6848E-02  0.0000E+00  0.0000E+00  0.0000E+00  0.0000E+00  0.0000E+00
 72  0.0000E+00  4.1781E-02  0.0000E+00  0.0000E+00  0.0000E+00  0.0000E+00  0.0000E+00  0.0000E+00  0.0000E+00
 73  0.0000E+00  5.2919E-02  0.0000E+00  0.0000E+00  0.0000E+00  0.0000E+00  0.0000E+00  0.0000E+00  5.1179E-02
 74  0.0000E+00  6.0695E-02  0.0000E+00  0.0000E+00  0.0000E+00  0.0000E+00  0.0000E+00  0.0000E+00  0.0000E+00
 75  0.0000E+00  8.0909E-02  0.0000E+00  0.0000E+00  0.0000E+00  0.0000E+00  3.4927E-01  2.6837E-01  0.0000E+00
 76  0.0000E+00  8.5339E-05  0.0000E+00  0.0000E+00  0.0000E+00  0.0000E+00  0.0000E+00  0.0000E+00  0.0000E+00
 77  0.0000E+00  2.8398E-05  0.0000E+00  0.0000E+00  0.0000E+00  0.0000E+00  0.0000E+00  0.0000E+00  0.0000E+00
 78  0.0000E+00  3.0853E-05  0.0000E+00  0.0000E+00  0.0000E+00  0.0000E+00  0.0000E+00  0.0000E+00  0.0000E+00
 79  0.0000E+00  7.0738E-05  0.0000E+00  0.0000E+00  0.0000E+00  0.0000E+00  0.0000E+00  0.0000E+00  0.0000E+00
 80  0.0000E+00  1.6763E-04  0.0000E+00  4.4946E-04  0.0000E+00  0.0000E+00  1.1573E-04  0.0000E+00  4.9271E-04
 81  0.0000E+00  8.7899E-05  0.0000E+00  0.0000E+00  0.0000E+00  0.0000E+00  0.0000E+00  0.0000E+00  6.2638E-04
 82  0.0000E+00  9.7940E-05  0.0000E+00  0.0000E+00  4.0771E-04  0.0000E+00  0.0000E+00  4.5683E-04  0.0000E+00
 83  0.0000E+00  1.0210E-03  7.2853E-04  5.4463E-04  0.0000E+00  2.2398E-03  0.0000E+00  1.4969E-03  1.9041E-04
 84  0.0000E+00  5.0208E-04  0.0000E+00  0.0000E+00  4.5746E-04  0.0000E+00  0.0000E+00  1.6260E-03  0.0000E+00
 85  0.0000E+00  7.8509E-04  0.0000E+00  0.0000E+00  1.0196E-03  8.1170E-04  0.0000E+00  3.5831E-04  7.5825E-04
 86  0.0000E+00  5.7450E-04  9.5688E-04  0.0000E+00  0.0000E+00  0.0000E+00  0.0000E+00  0.0000E+00  0.0000E+00
 87  0.0000E+00  5.8384E-04  0.0000E+00  3.2326E-03  0.0000E+00  0.0000E+00  2.3595E-03  0.0000E+00  0.0000E+00
 88  0.0000E+00  7.1774E-04  0.0000E+00  0.0000E+00  0.0000E+00  0.0000E+00  0.0000E+00  0.0000E+00  0.0000E+00
 89  0.0000E+00  9.1621E-04  0.0000E+00  0.0000E+00  0.0000E+00  0.0000E+00  0.0000E+00  1.4734E-03  0.0000E+00
 90  0.0000E+00  1.1571E-03  0.0000E+00  0.0000E+00  0.0000E+00  0.0000E+00  0.0000E+00  0.0000E+00  0.0000E+00
 91  0.0000E+00  1.9888E-03  0.0000E+00  0.0000E+00  0.0000E+00  0.0000E+00  0.0000E+00  0.0000E+00  0.0000E+00
 92  0.0000E+00  3.1997E-03  1.2273E-03  0.0000E+00  0.0000E+00  0.0000E+00  1.4788E-02  0.0000E+00  0.0000E+00
 93  0.0000E+00  7.1111E-03  0.0000E+00  6.6775E-03  0.0000E+00  0.0000E+00  0.0000E+00  0.0000E+00  0.0000E+00
 94  0.0000E+00  1.8683E-02  3.4903E-02  0.0000E+00  0.0000E+00  0.0000E+00  0.0000E+00  2.5435E-02  3.6019E-03
 95  0.0000E+00  2.2717E-02  0.0000E+00  0.0000E+00  0.0000E+00  0.0000E+00  0.0000E+00  7.3216E-02  0.0000E+00
 96  0.0000E+00  2.4742E-02  0.0000E+00  0.0000E+00  0.0000E+00  0.0000E+00  0.0000E+00  0.0000E+00  0.0000E+00
 97  0.0000E+00  2.7434E-02  0.0000E+00  0.0000E+00  0.0000E+00  0.0000E+00  0.0000E+00  0.0000E+00  0.0000E+00
 98  0.0000E+00  3.3220E-02  0.0000E+00  0.0000E+00  0.0000E+00  0.0000E+00  3.1909E-03  0.0000E+00  0.0000E+00
 99  0.0000E+00  3.5409E-02  0.0000E+00  4.1865E-02  0.0000E+00  0.0000E+00  0.0000E+00  0.0000E+00  0.0000E+00
100  0.0000E+00  4.6160E-02  0.0000E+00  0.0000E+00  1.9570E-01  0.0000E+00  0.0000E+00  0.0000E+00  0.0000E+00
101  0.0000E+00  3.4966E-05  0.0000E+00  0.0000E+00  0.0000E+00  0.0000E+00  0.0000E+00  0.0000E+00  2.5736E-04
102  0.0000E+00  3.2775E-05  0.0000E+00  0.0000E+00  0.0000E+00  0.0000E+00  0.0000E+00  0.0000E+00  2.8348E-04
103  0.0000E+00  9.5389E-05  3.1456E-04  5.5189E-04  0.0000E+00  0.0000E+00  0.0000E+00  9.9820E-05  2.8432E-06
104  0.0000E+00  1.2194E-04  1.9779E-04  0.0000E+00  0.0000E+00  3.1329E-04  0.0000E+00  0.0000E+00  3.4419E-04
105  0.0000E+00  1.7404E-04  0.0000E+00  0.0000E+00  0.0000E+00  0.0000E+00  0.0000E+00  0.0000E+00  0.0000E+00
106  0.0000E+00  2.0411E-04  0.0000E+00  0.0000E+00  0.0000E+00  0.0000E+00  1.2900E-04  7.7898E-04  1.5198E-03
107  0.0000E+00  2.7368E-04  2.3384E-04  0.0000E+00  0.0000E+00  0.0000E+00  5.0616E-04  2.0492E-04  0.0000E+00
108  0.0000E+00  1.3944E-04  0.0000E+00  0.0000E+00  7.8974E-04  0.0000E+00  2.9372E-04  1.5482E-04  0.0000E+00
109  0.0000E+00  2.2127E-04  0.0000E+00  0.0000E+00  0.0000E+00  0.0000E+00  0.0000E+00  0.0000E+00  0.0000E+00
110  0.0000E+00  2.6644E-04  1.5513E-03  0.0000E+00  0.0000E+00  0.0000E+00  0.0000E+00  0.0000E+00  0.0000E+00
111  0.0000E+00  5.7372E-04  0.0000E+00  0.0000E+00  0.0000E+00  0.0000E+00  5.5976E-05  0.0000E+00  1.1203E-03
112  0.0000E+00  7.0426E-04  0.0000E+00  4.2209E-04  1.1783E-03  0.0000E+00  0.0000E+00  0.0000E+00  0.0000E+00
113  0.0000E+00  8.0757E-04  0.0000E+00  0.0000E+00  0.0000E+00  0.0000E+00  0.0000E+00  0.0000E+00  0.0000E+00
114  0.0000E+00  1.1455E-03  0.0000E+00  0.0000E+00  0.0000E+00  0.0000E+00  0.0000E+00  0.0000E+00  0.0000E+00
115  0.0000E+00  2.2914E-03  0.0000E+00  0.0000E+00  0.0000E+00  0.0000E+00  0.0000E+00  0.0000E+00  0.0000E+00
116  0.0000E+00  4.0192E-03  0.0000E+00  0.0000E+00  0.0000E+00  0.0000E+00  0.0000E+00  0.0000E+00  0.0000E+00
117  0.0000E+00  3.4754E-03  0.0000E+00  0.0000E+00  0.0000E+00  0.0000E+00  1.0573E-03  0.0000E+00  0.0000E+00
118  0.0000E+00  8.7292E-03  0.0000E+00  0.0000E+00  0.0000E+00  0.0000E+00  0.0000E+00  0.0000E+00  0.0000E+00
119  0.0000E+00  1.7331E-02  9.3018E-03  9.4132E-03  0.0000E+00  0.0000E+00  0.0000E+00  0.0000E+00  0.0000E+00
120  0.0000E+00  2.0455E-02  0.0000E+00  0.0000E+00  0.0000E+00  0.0000E+00  0.0000E+00  0.0000E+00  0.0000E+00
121  0.0000E+00  2.5582E-02  0.0000E+00  0.0000E+00  0.0000E+00  0.0000E+00  0.0000E+00  4.1507E-02  0.0000E+00
122  0.0000E+00  4.5051E-02  0.0000E+00  0.0000E+00  3.0126E-02  0.0000E+00  0.0000E+00  0.0000E+00  1.2410E-01
123  3.5909E+00  6.8488E+00  6.7202E+00  5.9890E+00  6.6770E+00  7.0423E+00  6.4561E+00  6.7472E+00  7.2226E+00
124  8.6727E+00  1.0799E+01  1.0366E+01  1.0505E+01  1.1543E+01  1.1026E+01  1.1102E+01  1.0700E+01  1.0595E+01
125  1.6679E+00  3.3717E+00  2.7246E+00  3.8336E+00  3.2464E+00  3.1924E+00  3.6848E+00  3.7643E+00  2.9012E+00
126  0.0000E+00  2.7557E-05  0.0000E+00  0.0000E+00  0.0000E+00  0.0000E+00  0.0000E+00  0.0000E+00  0.0000E+00
127  0.0000E+00  3.1452E-05  1.2060E-04  0.0000E+00  0.0000E+00  0.0000E+00  1.3679E-05  0.0000E+00  0.0000E+00
128  0.0000E+00  4.0848E-05  0.0000E+00  0.0000E+00  0.0000E+00  2.7552E-04  1.3192E-05  0.0000E+00  0.0000E+00
129  0.0000E+00  8.9154E-05  2.4902E-04  5.1094E-04  2.3417E-05  0.0000E+00  0.0000E+00  0.0000E+00  0.0000E+00
130  0.0000E+00  6.3304E-05  0.0000E+00  5.6841E-04  0.0000E+00  0.0000E+00  0.0000E+00  0.0000E+00  0.0000E+00
131  0.0000E+00  6.1599E-05  1.3177E-04  0.0000E+00  0.0000E+00  0.0000E+00  4.3024E-04  0.0000E+00  0.0000E+00
132  0.0000E+00  9.7818E-05  0.0000E+00  0.0000E+00  0.0000E+00  0.0000E+00  0.0000E+00  0.0000E+00  0.0000E+00
133  0.0000E+00  1.2028E-04  0.0000E+00  0.0000E+00  0.0000E+00  0.0000E+00  0.0000E+00  0.0000E+00  0.0000E+00
134  0.0000E+00  2.5245E-04  0.0000E+00  0.0000E+00  0.0000E+00  0.0000E+00  0.0000E+00  0.0000E+00  0.0000E+00
135  0.0000E+00  4.2597E-04  0.0000E+00  0.0000E+00  0.0000E+00  0.0000E+00  3.7715E-04  0.0000E+00  2.2021E-04
136  0.0000E+00  6.9348E-04  1.7800E-03  4.0559E-04  2.0929E-03  1.2956E-03  0.0000E+00  0.0000E+00  0.0000E+00
137  0.0000E+00  6.3890E-04  0.0000E+00  0.0000E+00  5.6368E-04  0.0000E+00  0.0000E+00  0.0000E+00  0.0000E+00
138  0.0000E+00  7.5845E-04  0.0000E+00  0.0000E+00  0.0000E+00  2.5080E-04  0.0000E+00  0.0000E+00  0.0000E+00
139  0.0000E+00  1.3394E-03  0.0000E+00  0.0000E+00  0.0000E+00  0.0000E+00  8.7143E-04  0.0000E+00  0.0000E+00
140  0.0000E+00  3.4918E-03  0.0000E+00  0.0000E+00  0.0000E+00  0.0000E+00  0.0000E+00  0.0000E+00  0.0000E+00
141  0.0000E+00  4.5824E-03  0.0000E+00  0.0000E+00  0.0000E+00  0.0000E+00  0.0000E+00  0.0000E+00  9.3605E-03
142  0.0000E+00  5.9586E-03  2.2489E-02  0.0000E+00  1.2369E-03  0.0000E+00  0.0000E+00  0.0000E+00  0.0000E+00
143  0.0000E+00  1.1049E-02  0.0000E+00  0.0000E+00  0.0000E+00  0.0000E+00  0.0000E+00  5.3959E-02  0.0000E+00
144  2.5096E-02  2.6344E-01  4.5174E-01  5.4682E-01  2.6108E-01  3.2451E-02  0.0000E+00  2.8407E-01  7.4934E-02
145  1.1677E+00  7.6331E-01  1.0887E+00  4.8615E-01  7.6288E-01  1.0609E+00  7.4492E-01  7.7301E-01  7.2194E-01
146  2.7379E+00  1.2008E+00  1.3266E+00  1.5886E+00  1.2092E+00  1.3309E+00  7.7785E-01  1.2956E+00  1.4367E+00
147  0.0000E+00  6.9209E-01  0.0000E+00  4.2228E-01  0.0000E+00  0.0000E+00  6.8998E-01  7.3449E-01  9.5300E-01
148  8.9333E+00  7.0633E+00  7.5247E+00  8.7006E+00  7.4702E+00  7.2304E+00  9.0276E+00  6.5834E+00  7.2244E+00
149  5.8837E+00  3.2304E+00  4.4064E+00  3.2199E+00  3.2632E+00  3.6205E+00  2.8023E+00  3.4204E+00  3.3308E+00
150  2.0200E+01  1.6488E+01  1.7462E+01  1.6511E+01  1.7175E+01  1.7153E+01  1.6969E+01  1.7332E+01  1.9069E+01

# AV, chi2 & Mass for <> & i_chain = 1 ...  7 solutions
AV       1.0260      1.0153      1.0185      1.0186      1.0195      1.0173      1.0154      1.0182      1.0197
chi2 2.3360E+00  2.3951E+00  2.3711E+00  2.3761E+00  2.3736E+00  2.3778E+00  2.3749E+00  2.3787E+00  2.3780E+00
Mass 1.3283E-10  1.3326E-10  1.3194E-10  1.3323E-10  1.3344E-10  1.3354E-10  1.3450E-10  1.3343E-10  1.3407E-10
 -13.47                                  [v0_min (km/s) before EX0s...]
 105.61                                  [vd_min (km/s) before EX0s...]


## Synthetic spectrum (Best Model) ##l_obs f_obs f_syn wei
 3070    [Nl_obs]
 3359.00    0.24479   0.36277   -1.000
 3360.00    0.29363   0.35283   -1.000
 3361.00    0.29228   0.36046   -1.000
 3362.00    0.19751   0.38046   -1.000
 3363.00    0.30149   0.40244   -1.000
 3364.00    0.31738   0.41656   -1.000
 3365.00    0.29300   0.41963   -1.000
 3366.00    0.27068   0.41547   -1.000
 3367.00    0.24880   0.40832   -1.000
 3368.00    0.19615   0.39885   -1.000
 3369.00    0.24385   0.38619   -1.000
 3370.00    0.22425   0.37258   -1.000
 3371.00    0.22340   0.36490   -1.000
 3372.00    0.26774   0.36903   -1.000
 3373.00    0.27101   0.38433   -1.000
 3374.00    0.22504   0.40458   -1.000
 3375.00    0.28987   0.42189   -1.000
 3376.00    0.35013   0.43034   -1.000
 3377.00    0.33076   0.42895   -1.000
 3378.00    0.32662   0.42213   -1.000
 3379.00    0.31362   0.41647   -1.000
 3380.00    0.25673   0.41581   -1.000
 3381.00    0.35950   0.41936   -1.000
 3382.00    0.31477   0.42456   -1.000
 3383.00    0.24375   0.42977   -1.000
 3384.00    0.30677   0.43382   -1.000
 3385.00    0.43269   0.43428   36.914
 3386.00    0.41504   0.42949   37.203
 3387.00    0.31119   0.42265   -1.000
 3388.00    0.41788   0.42015   35.760
 3389.00    0.42045   0.42456   34.993
 3390.00    0.39955   0.43169   35.428
 3391.00    0.39157   0.43516   35.772
 3392.00    0.37489   0.43346   35.929
 3393.00    0.32236   0.43157   -1.000
 3394.00    0.39161   0.43506   33.225
 3395.00    0.38646   0.44472   31.371
 3396.00    0.37624   0.45738   30.472
 3397.00    0.45601   0.46924   29.522
 3398.00    0.39636   0.47753   28.424
 3399.00    0.36508   0.48020   -1.000
 3400.00    0.37854   0.47597   28.359
 3401.00    0.41863   0.46555   29.612
 3402.00    0.41945   0.45285   29.903
 3403.00    0.39405   0.44308   30.434
 3404.00    0.41714   0.43882   30.990
 3405.00    0.48679   0.43836   31.485
 3406.00    0.40035   0.43753   31.630
 3407.00    0.38980   0.43446   32.140
 3408.00    0.45322   0.43186   32.299
 3409.00    0.42113   0.43287   32.071
 3410.00    0.43639   0.43563   31.097
 3411.00    0.38266   0.43521   30.906
 3412.00    0.42250   0.43053   32.268
 3413.00    0.44173   0.42615   32.827
 3414.00    0.33993   0.42785   32.720
 3415.00    0.35571   0.43679   31.873
 3416.00    0.34486   0.44892   30.486
 3417.00    0.40038   0.45995   29.037
 3418.00    0.47711   0.46838   27.602
 3419.00    0.47255   0.47400   27.512
 3420.00    0.45973   0.47540   27.329
 3421.00    0.41863   0.47031   27.521
 3422.00    0.41622   0.45949   28.340
 3423.00    0.46237   0.44865   28.936
 3424.00    0.41061   0.44391   28.081
 3425.00    0.47156   0.44679   27.359
 3426.00    0.45321   0.45535   27.924
 3427.00    0.47662   0.46760   -1.000
 3428.00    0.36971   0.48098   -1.000
 3429.00    0.47669   0.49046  236.904
 3430.00    0.45176   0.49055   -1.000
 3431.00    0.48590   0.48131  211.834
 3432.00    0.42355   0.47056   27.334
 3433.00    0.42602   0.46731   27.907
 3434.00    0.39364   0.47307   -1.000
 3435.00    0.35039   0.48048   -1.000
 3436.00    0.39569   0.48102   27.181
 3437.00    0.46206   0.47254   28.481
 3438.00    0.43163   0.45852   30.221
 3439.00    0.36899   0.44296   32.605
 3440.00    0.40884   0.42831   33.862
 3441.00    0.45557   0.41683   33.897
 3442.00    0.47394   0.41118   33.708
 3443.00    0.45960   0.41286   32.336
 3444.00    0.40579   0.42165   30.557
 3445.00    0.39164   0.43651   28.886
 3446.00    0.38806   0.45546   28.803
 3447.00    0.42404   0.47443   -1.000
 3448.00    0.43223   0.48771   -1.000
 3449.00    0.46625   0.49044   -1.000
 3450.00    0.50273   0.48215   -1.000
 3451.00    0.53170   0.46863   -1.000
 3452.00    0.47510   0.45826   -1.000
 3453.00    0.49119   0.45578   -1.000
 3454.00    0.46528   0.45983  236.904
 3455.00    0.44493   0.46534   -1.000
 3456.00    0.53485   0.46774   -1.000
 3457.00    0.47522   0.46543  197.839
 3458.00    0.44105   0.45924   27.238
 3459.00    0.46292   0.45124   27.589
 3460.00    0.47552   0.44481   28.374
 3461.00    0.43953   0.44368  236.904
 3462.00    0.41568   0.44824   -1.000
 3463.00    0.50495   0.45448   -1.000
 3464.00    0.52389   0.45828   -1.000
 3465.00    0.51325   0.46020   -1.000
 3466.00    0.51796   0.46466   -1.000
 3467.00    0.48755   0.47421   -1.000
 3468.00    0.54304   0.48634   -1.000
 3469.00    0.55839   0.49583   -1.000
 3470.00    0.48914   0.49856  232.607
 3471.00    0.46913   0.49316   -1.000
 3472.00    0.50065   0.48065   -1.000
 3473.00    0.53938   0.46454   -1.000
 3474.00    0.45011   0.45070   27.493
 3475.00    0.40377   0.44475   28.466
 3476.00    0.43453   0.44898   28.959
 3477.00    0.45844   0.46104  236.904
 3478.00    0.41606   0.47551   -1.000
 3479.00    0.40191   0.48765   -1.000
 3480.00    0.49082   0.49494  232.087
 3481.00    0.42778   0.49671   -1.000
 3482.00    0.50826   0.49451   -1.000
 3483.00    0.49753   0.49182  236.904
 3484.00    0.49229   0.49204  232.822
 3485.00    0.48784   0.49577  225.436
 3486.00    0.46542   0.49948   -1.000
 3487.00    0.56526   0.49832   -1.000
 3488.00    0.57079   0.49074   -1.000
 3489.00    0.49982   0.48024   -1.000
 3490.00    0.51043   0.47309   -1.000
 3491.00    0.49750   0.47280   -1.000
 3492.00    0.49673   0.47667   -1.000
 3493.00    0.50014   0.47900   -1.000
 3494.00    0.46644   0.47677  236.904
 3495.00    0.48056   0.47162  236.904
 3496.00    0.50565   0.46771   -1.000
 3497.00    0.43020   0.46784   -1.000
 3498.00    0.45417   0.47147   -1.000
 3499.00    0.46797   0.47620  217.437
 3500.00    0.51391   0.48027   -1.000
 3501.00    0.53134   0.48396   -1.000
 3502.00    0.53614   0.48776   -1.000
 3503.00    0.51794   0.49026   -1.000
 3504.00    0.46379   0.48936   -1.000
 3505.00    0.54874   0.48489   -1.000
 3506.00    0.55977   0.47910   -1.000
 3507.00    0.49953   0.47470   -1.000
 3508.00    0.49240   0.47285   -1.000
 3509.00    0.55570   0.47263   -1.000
 3510.00    0.55448   0.47183   -1.000
 3511.00    0.53614   0.46887   -1.000
 3512.00    0.52502   0.46454   -1.000
 3513.00    0.50862   0.46225   -1.000
 3514.00    0.51765   0.46619   -1.000
 3515.00    0.55564   0.47791   -1.000
 3516.00    0.53033   0.49360   -1.000
 3517.00    0.52211   0.50517   -1.000
 3518.00    0.52023   0.50618   -1.000
 3519.00    0.51549   0.49712   -1.000
 3520.00    0.49832   0.48401   -1.000
 3521.00    0.50374   0.47211   -1.000
 3522.00    0.52306   0.46243   -1.000
 3523.00    0.48340   0.45379   27.267
 3524.00    0.47746   0.44685   28.189
 3525.00    0.48044   0.44505   29.522
 3526.00    0.49061   0.45102   -1.000
 3527.00    0.48937   0.46361   -1.000
 3528.00    0.50713   0.47895   -1.000
 3529.00    0.52639   0.49275   -1.000
 3530.00    0.48021   0.50169   -1.000
 3531.00    0.53529   0.50351   -1.000
 3532.00    0.58457   0.49801   -1.000
 3533.00    0.51744   0.48902   -1.000
 3534.00    0.56821   0.48358   -1.000
 3535.00    0.56189   0.48704   -1.000
 3536.00    0.54105   0.49901   -1.000
 3537.00    0.51471   0.51372  216.318
 3538.00    0.46798   0.52494   -1.000
 3539.00    0.47301   0.53005   -1.000
 3540.00    0.46222   0.53030   -1.000
 3541.00    0.43545   0.52925   -1.000
 3542.00    0.51657   0.53018  219.959
 3543.00    0.50520   0.53332   -1.000
 3544.00    0.48770   0.53589   -1.000
 3545.00    0.51050   0.53539   -1.000
 3546.00    0.48542   0.53215   -1.000
 3547.00    0.47454   0.52859   -1.000
 3548.00    0.50266   0.52730   -1.000
 3549.00    0.48907   0.52921   -1.000
 3550.00    0.44268   0.53245   -1.000
 3551.00    0.49017   0.53309   -1.000
 3552.00    0.50491   0.52860   -1.000
 3553.00    0.47581   0.52111   -1.000
 3554.00    0.49159   0.51599   -1.000
 3555.00    0.48575   0.51689   -1.000
 3556.00    0.47844   0.52299   -1.000
 3557.00    0.46083   0.53051   -1.000
 3558.00    0.49223   0.53592   -1.000
 3559.00    0.51670   0.53822   -1.000
 3560.00    0.50134   0.53823   -1.000
 3561.00    0.51745   0.53591   -1.000
 3562.00    0.54762   0.52950   -1.000
 3563.00    0.50970   0.51778  161.233
 3564.00    0.47470   0.50258   27.566
 3565.00    0.46725   0.48848   28.598
 3566.00    0.46306   0.47952   28.264
 3567.00    0.45440   0.47571   28.187
 3568.00    0.51125   0.47351   29.135
 3569.00    0.45063   0.46966   29.559
 3570.00    0.47106   0.46433   28.585
 3571.00    0.45215   0.46050   29.268
 3572.00    0.46557   0.46055  236.904
 3573.00    0.45475   0.46445  236.904
 3574.00    0.41908   0.47091   -1.000
 3575.00    0.46753   0.47832  236.904
 3576.00    0.50117   0.48488   -1.000
 3577.00    0.53156   0.48862   -1.000
 3578.00    0.51349   0.48769   28.569
 3579.00    0.52803   0.48140   30.810
 3580.00    0.50865   0.47172   32.381
 3581.00    0.41573   0.46239   32.569
 3582.00    0.47505   0.45600   32.753
 3583.00    0.50705   0.45152   33.611
 3584.00    0.47309   0.44531   34.678
 3585.00    0.42150   0.43612   34.980
 3586.00    0.38741   0.42809   33.176
 3587.00    0.42289   0.42784   31.419
 3588.00    0.42486   0.43848   29.792
 3589.00    0.44238   0.45661   29.324
 3590.00    0.47984   0.47495  236.904
 3591.00    0.48816   0.48786  236.904
 3592.00    0.49097   0.49488  236.904
 3593.00    0.46385   0.49981   -1.000
 3594.00    0.48625   0.50664   -1.000
 3595.00    0.50348   0.51601  218.880
 3596.00    0.51509   0.52537  212.588
 3597.00    0.56189   0.53202   -1.000
 3598.00    0.58073   0.53499   -1.000
 3599.00    0.58178   0.53395   -1.000
 3600.00    0.61251   0.52835   -1.000
 3601.00    0.59577   0.51911   -1.000
 3602.00    0.57299   0.50978   -1.000
 3603.00    0.58783   0.50425   -1.000
 3604.00    0.54965   0.50307   -1.000
 3605.00    0.51619   0.50307   -1.000
 3606.00    0.54221   0.50089   -1.000
 3607.00    0.53527   0.49628   -1.000
 3608.00    0.50675   0.49159   -1.000
 3609.00    0.48188   0.48942  236.904
 3610.00    0.51165   0.49102   -1.000
 3611.00    0.52229   0.49620   -1.000
 3612.00    0.55137   0.50405   -1.000
 3613.00    0.51927   0.51368  229.411
 3614.00    0.48671   0.52356   -1.000
 3615.00    0.52818   0.52998  223.838
 3616.00    0.53828   0.52863  236.904
 3617.00    0.53707   0.51932  151.550
 3618.00    0.51917   0.50785   29.314
 3619.00    0.53244   0.50214   -1.000
 3620.00    0.49364   0.50598  230.582
 3621.00    0.52690   0.51663  218.195
 3622.00    0.55189   0.52902   -1.000
 3623.00    0.57473   0.54096   -1.000
 3624.00    0.60503   0.55374   -1.000
 3625.00    0.58323   0.56840  194.202
 3626.00    0.57457   0.58195  191.987
 3627.00    0.56696   0.58748   -1.000
 3628.00    0.52796   0.57915   -1.000
 3629.00    0.52890   0.55823   -1.000
 3630.00    0.52825   0.53408  236.904
 3631.00    0.48360   0.51815   -1.000
 3632.00    0.44232   0.51559   -1.000
 3633.00    0.48870   0.52243   -1.000
 3634.00    0.47364   0.53112   -1.000
 3635.00    0.51424   0.53810   -1.000
 3636.00    0.47016   0.54521   -1.000
 3637.00    0.51783   0.55451   -1.000
 3638.00    0.58965   0.56443   -1.000
 3639.00    0.56922   0.57120  196.989
 3640.00    0.53941   0.57204   -1.000
 3641.00    0.54875   0.56668   -1.000
 3642.00    0.52200   0.55726   -1.000
 3643.00    0.50979   0.54693   -1.000
 3644.00    0.50742   0.53799   -1.000
 3645.00    0.51831   0.53124   -1.000
 3646.00    0.55620   0.52667   -1.000
 3647.00    0.52584   0.52421  236.904
 3648.00    0.55783   0.52396   -1.000
 3649.00    0.57808   0.52636   -1.000
 3650.00    0.55377   0.53215   -1.000
 3651.00    0.53023   0.54163  201.853
 3652.00    0.60270   0.55390   -1.000
 3653.00    0.57531   0.56720  194.652
 3654.00    0.53192   0.58006   -1.000
 3655.00    0.55613   0.59128   -1.000
 3656.00    0.58436   0.59963   -1.000
 3657.00    0.60717   0.60425  186.577
 3658.00    0.65060   0.60531   -1.000
 3659.00    0.58352   0.60339   -1.000
 3660.00    0.56068   0.59887   -1.000
 3661.00    0.62703   0.59242   -1.000
 3662.00    0.67360   0.58603   -1.000
 3663.00    0.62273   0.58226   -1.000
 3664.00    0.62201   0.58210   -1.000
 3665.00    0.61165   0.58387   -1.000
 3666.00    0.60629   0.58457   -1.000
 3667.00    0.58563   0.58225  200.231
 3668.00    0.62857   0.57755   -1.000
 3669.00    0.60384   0.57352   -1.000
 3670.00    0.52228   0.57331   -1.000
 3671.00    0.58358   0.57752  191.604
 3672.00    0.60198   0.58353   -1.000
 3673.00    0.55278   0.58734   -1.000
 3674.00    0.54037   0.58609   -1.000
 3675.00    0.58049   0.57915  198.176
 3676.00    0.62918   0.56808   -1.000
 3677.00    0.59914   0.55631   -1.000
 3678.00    0.55221   0.54790  215.148
 3679.00    0.58524   0.54517   -1.000
 3680.00    0.59569   0.54725   -1.000
 3681.00    0.60558   0.55136   -1.000
 3682.00    0.60731   0.55476   -1.000
 3683.00    0.59098   0.55557   -1.000
 3684.00    0.56722   0.55326  215.447
 3685.00    0.58991   0.54933   -1.000
 3686.00    0.56297   0.54751   -1.000
 3687.00    0.55456   0.55161  218.997
 3688.00    0.54296   0.56218   -1.000
 3689.00    0.59018   0.57541  191.582
 3690.00    0.61041   0.58609   -1.000
 3691.00    0.59867   0.59158  188.660
 3692.00    0.63229   0.59283   -1.000
 3693.00    0.62269   0.59249   -1.000
 3694.00    0.59960   0.59230  194.891
 3695.00    0.59947   0.59231  193.061
 3696.00    0.60763   0.59291  190.226
 3697.00    0.61666   0.59646   -1.000
 3698.00    0.61027   0.60494  179.653
 3699.00    0.59618   0.61555   -1.000
 3700.00    0.58817   0.62036   -1.000
 3701.00    0.59745   0.61160  191.431
 3702.00    0.59985   0.58865  209.940
 3703.00    0.58464   0.55960   -1.000
 3704.00    0.56654   0.53580   -1.000
 3705.00    0.54610   0.52458   -1.000
 3706.00    0.52951   0.52588  230.672
 3707.00    0.52739   0.53402  227.746
 3708.00    0.56042   0.54190   -1.000
 3709.00    0.57855   0.54518   -1.000
 3710.00    0.59002   0.54508   -1.000
 3711.00    0.59649   0.54747   -1.000
 3712.00    0.54793   0.55814  180.371
 3713.00    0.61030   0.57779   -1.000
 3714.00    0.64905   0.60099   -1.000
 3715.00    0.64541   0.61949   -1.000
 3716.00    0.64765   0.62629   -1.000
 3717.00    0.64964   0.61719   -1.000
 3718.00    0.62384   0.59137   -1.000
 3719.00    0.56594   0.55341  133.418
 3720.00    0.49717   0.51530   30.823
 3721.00    0.48607   0.49278  236.904
 3722.00    0.50956   0.49578   -1.000
 3723.00    0.54185   0.52176   -1.000
 3724.00    0.57087   0.55779   -1.000
 3725.00    0.62595   0.58943   -1.000
 3726.00    0.62496   0.60950   -1.000
 3727.00    0.61534   0.61939  205.832
 3728.00    0.60874   0.62299  202.979
 3729.00    0.61748   0.62026  206.036
 3730.00    0.55877   0.60627   -1.000
 3731.00    0.52611   0.57636   -1.000
 3732.00    0.55570   0.53340   27.476
 3733.00    0.53631   0.48947   30.550
 3734.00    0.44402   0.45984   31.335
 3735.00    0.40042   0.45503   29.559
 3736.00    0.39918   0.47623   30.356
 3737.00    0.48925   0.51567   -1.000
 3738.00    0.52403   0.56127   -1.000
 3739.00    0.59865   0.60146  202.865
 3740.00    0.65513   0.62755   -1.000
 3741.00    0.65740   0.63578   -1.000
 3742.00    0.66180   0.62848   -1.000
 3743.00    0.61962   0.61169  236.904
 3744.00    0.59624   0.59083  236.904
 3745.00    0.57399   0.56813  127.815
 3746.00    0.53903   0.54321   27.715
 3747.00    0.50761   0.51610   29.338
 3748.00    0.47187   0.49076   33.287
 3749.00    0.43281   0.47566   -1.000
 3750.00    0.46346   0.47991   -1.000
 3751.00    0.48074   0.50661   -1.000
 3752.00    0.51884   0.54914   -1.000
 3753.00    0.61484   0.59447   -1.000
 3754.00    0.65278   0.63002   -1.000
 3755.00    0.67417   0.64841   -1.000
 3756.00    0.67584   0.64920   -1.000
 3757.00    0.64205   0.63844  236.904
 3758.00    0.59676   0.62568   -1.000
 3759.00    0.62315   0.61881  222.929
 3760.00    0.62065   0.62029  213.506
 3761.00    0.63661   0.62716  209.520
 3762.00    0.66404   0.63381   -1.000
 3763.00    0.64348   0.63580  206.432
 3764.00    0.64205   0.63148  209.800
 3765.00    0.66487   0.62079   -1.000
 3766.00    0.67304   0.60369   -1.000
 3767.00    0.61127   0.58038   -1.000
 3768.00    0.58928   0.55375   -1.000
 3769.00    0.58855   0.53112   -1.000
 3770.00    0.58052   0.52189   -1.000
 3771.00    0.56706   0.53184   -1.000
 3772.00    0.57924   0.55835   -1.000
 3773.00    0.59022   0.59163  187.998
 3774.00    0.65777   0.62133   -1.000
 3775.00    0.70272   0.64330   -1.000
 3776.00    0.68002   0.66046   -1.000
 3777.00    0.72725   0.67791   -1.000
 3778.00    0.73216   0.69766   -1.000
 3779.00    0.72392   0.71742  173.627
 3780.00    0.73930   0.73306  172.528
 3781.00    0.75663   0.74163  171.637
 3782.00    0.75079   0.74271  172.285
 3783.00    0.75747   0.73761   -1.000
 3784.00    0.79407   0.72774   -1.000
 3785.00    0.77024   0.71433   -1.000
 3786.00    0.74299   0.69917   -1.000
 3787.00    0.72535   0.68509   -1.000
 3788.00    0.68188   0.67495  212.307
 3789.00    0.68978   0.66948   -1.000
 3790.00    0.69563   0.66610   -1.000
 3791.00    0.70133   0.66010   -1.000
 3792.00    0.70870   0.64705   -1.000
 3793.00    0.68854   0.62473   -1.000
 3794.00    0.67372   0.59391   -1.000
 3795.00    0.63731   0.55822   -1.000
 3796.00    0.59612   0.52404   -1.000
 3797.00    0.56427   0.50049   -1.000
 3798.00    0.52218   0.49733   -1.000
 3799.00    0.51318   0.51937  220.261
 3800.00    0.57161   0.56141  203.795
 3801.00    0.61620   0.61004  195.643
 3802.00    0.65482   0.65179  191.855
 3803.00    0.70309   0.67983   -1.000
 3804.00    0.71221   0.69478   -1.000
 3805.00    0.73274   0.70162   -1.000
 3806.00    0.72449   0.70664   -1.000
 3807.00    0.69244   0.71464   -1.000
 3808.00    0.71144   0.72658  191.660
 3809.00    0.72707   0.73881  190.482
 3810.00    0.73106   0.74500  195.282
 3811.00    0.76302   0.74037   -1.000
 3812.00    0.76206   0.72566   -1.000
 3813.00    0.72813   0.70748   -1.000
 3814.00    0.68044   0.69419  236.904
 3815.00    0.65244   0.69064   -1.000
 3816.00    0.65905   0.69509   -1.000
 3817.00    0.69634   0.70052  233.550
 3818.00    0.73812   0.70004   -1.000
 3819.00    0.74773   0.69265   -1.000
 3820.00    0.68521   0.68344  236.904
 3821.00    0.63233   0.67750   -1.000
 3822.00    0.65224   0.67404   -1.000
 3823.00    0.68496   0.66765  119.640
 3824.00    0.67607   0.65525   28.524
 3825.00    0.66206   0.63937   29.000
 3826.00    0.63344   0.62450   28.699
 3827.00    0.58854   0.61257   28.229
 3828.00    0.57107   0.60231   27.887
 3829.00    0.57435   0.59068   28.390
 3830.00    0.64344   0.57403   29.854
 3831.00    0.60021   0.54945   32.064
 3832.00    0.52594   0.51724   32.760
 3833.00    0.48769   0.48305   31.972
 3834.00    0.45653   0.45644   30.752
 3835.00    0.44918   0.44565   30.294
 3836.00    0.46613   0.45290   30.984
 3837.00    0.51769   0.47445   31.534
 3838.00    0.50313   0.50420   30.740
 3839.00    0.50049   0.53742   33.785
 3840.00    0.54754   0.57219   -1.000
 3841.00    0.64112   0.60790   -1.000
 3842.00    0.66975   0.64303   -1.000
 3843.00    0.64581   0.67451   -1.000
 3844.00    0.70618   0.69953  220.471
 3845.00    0.72620   0.71761  220.424
 3846.00    0.74346   0.73010   -1.000
 3847.00    0.73139   0.73801  227.674
 3848.00    0.73396   0.74168  235.911
 3849.00    0.71529   0.74300   -1.000
 3850.00    0.70328   0.74595   -1.000
 3851.00    0.73264   0.75322   -1.000
 3852.00    0.71789   0.76287   -1.000
 3853.00    0.75613   0.76948   -1.000
 3854.00    0.77329   0.76893  236.904
 3855.00    0.73403   0.76141   -1.000
 3856.00    0.71707   0.75017   -1.000
 3857.00    0.77835   0.73903   27.184
 3858.00    0.75452   0.73141   28.539
 3859.00    0.69200   0.73033   32.513
 3860.00    0.70715   0.73705   -1.000
 3861.00    0.73514   0.74944  223.146
 3862.00    0.74621   0.76249   -1.000
 3863.00    0.76226   0.77150  217.317
 3864.00    0.78466   0.77519  221.563
 3865.00    0.78123   0.77586  225.038
 3866.00    0.79746   0.77640   -1.000
 3867.00    0.79184   0.77732   -1.000
 3868.00    0.75279   0.77638   -1.000
 3869.00    0.73742   0.77074   -1.000
 3870.00    0.75069   0.75970   31.882
 3871.00    0.72168   0.74580   -1.000
 3872.00    0.67913   0.73379   -1.000
 3873.00    0.70457   0.72749   -1.000
 3874.00    0.74491   0.72654   -1.000
 3875.00    0.76569   0.72605   -1.000
 3876.00    0.76737   0.72081   -1.000
 3877.00    0.72895   0.71044   -1.000
 3878.00    0.68777   0.69971  236.904
 3879.00    0.67965   0.69328  236.904
 3880.00    0.68514   0.69089  236.904
 3881.00    0.67403   0.68793  236.904
 3882.00    0.68742   0.67976  226.999
 3883.00    0.68207   0.66381   -1.000
 3884.00    0.64162   0.63871  222.177
 3885.00    0.64253   0.60437   -1.000
 3886.00    0.63589   0.56465   -1.000
 3887.00    0.59149   0.52890   -1.000
 3888.00    0.54997   0.50885   -1.000
 3889.00    0.53728   0.51234   -1.000
 3890.00    0.57117   0.53823   -1.000
 3891.00    0.62862   0.57661   -1.000
 3892.00    0.64677   0.61458   -1.000
 3893.00    0.67579   0.64380   -1.000
 3894.00    0.68517   0.66389   -1.000
 3895.00    0.69801   0.67934   -1.000
 3896.00    0.73123   0.69373   -1.000
 3897.00    0.75354   0.70718   -1.000
 3898.00    0.78623   0.71826   -1.000
 3899.00    0.74870   0.72671   -1.000
 3900.00    0.70967   0.73361   -1.000
 3901.00    0.73814   0.73928  181.265
 3902.00    0.77834   0.74252   -1.000
 3903.00    0.78976   0.74273   -1.000
 3904.00    0.78342   0.74208   -1.000
 3905.00    0.78332   0.74488   -1.000
 3906.00    0.75129   0.75479  182.325
 3907.00    0.77873   0.77207  171.398
 3908.00    0.80789   0.79297  167.933
 3909.00    0.79449   0.81182  166.457
 3910.00    0.83995   0.82446  164.969
 3911.00    0.85140   0.82981   -1.000
 3912.00    0.84909   0.82899   -1.000
 3913.00    0.83964   0.82392  170.403
 3914.00    0.79019   0.81708   -1.000
 3915.00    0.78618   0.81075   -1.000
 3916.00    0.79964   0.80540  179.151
 3917.00    0.83178   0.79961   -1.000
 3918.00    0.81409   0.79243   -1.000
 3919.00    0.80430   0.78491   -1.000
 3920.00    0.79472   0.77913   -1.000
 3921.00    0.79278   0.77643   -1.000
 3922.00    0.77026   0.77636  199.480
 3923.00    0.80538   0.77637   -1.000
 3924.00    0.80811   0.77220   -1.000
 3925.00    0.77445   0.75947   -1.000
 3926.00    0.73266   0.73556  110.285
 3927.00    0.74569   0.69997   30.917
 3928.00    0.67350   0.65322   36.246
 3929.00    0.62274   0.59517   42.480
 3930.00    0.56642   0.52623   50.200
 3931.00    0.46863   0.45197   58.056
 3932.00    0.40163   0.38651   61.889
 3933.00    0.37003   0.34905   58.056
 3934.00    0.34654   0.35316   49.813
 3935.00    0.40786   0.39830   41.099
 3936.00    0.46922   0.47024   33.908
 3937.00    0.52831   0.54976   35.133
 3938.00    0.60419   0.62152  236.904
 3939.00    0.65684   0.67762   -1.000
 3940.00    0.70830   0.71609  232.523
 3941.00    0.71991   0.73925   -1.000
 3942.00    0.76337   0.75180   -1.000
 3943.00    0.77909   0.75947   -1.000
 3944.00    0.76711   0.76715  196.445
 3945.00    0.79423   0.77663   -1.000
 3946.00    0.82334   0.78612   -1.000
 3947.00    0.84111   0.79270   -1.000
 3948.00    0.85450   0.79508   -1.000
 3949.00    0.81679   0.79450   -1.000
 3950.00    0.83216   0.79323   -1.000
 3951.00    0.86131   0.79303   -1.000
 3952.00    0.82499   0.79452   -1.000
 3953.00    0.81758   0.79663   -1.000
 3954.00    0.83952   0.79686   -1.000
 3955.00    0.85712   0.79315   -1.000
 3956.00    0.85819   0.78616   -1.000
 3957.00    0.80845   0.77795   -1.000
 3958.00    0.80924   0.76853   -1.000
 3959.00    0.80999   0.75473   -1.000
 3960.00    0.81040   0.73310   -1.000
 3961.00    0.76441   0.70350   -1.000
 3962.00    0.70080   0.66799   -1.000
 3963.00    0.66396   0.62644   29.141
 3964.00    0.58520   0.57512   34.516
 3965.00    0.53599   0.51068   42.573
 3966.00    0.45258   0.43674   51.181
 3967.00    0.37743   0.36747   54.615
 3968.00    0.32992   0.32202   49.326
 3969.00    0.30292   0.31517   40.569
 3970.00    0.31620   0.34867   33.461
 3971.00    0.37267   0.41122   34.958
 3972.00    0.45751   0.48543   -1.000
 3973.00    0.52608   0.55690   -1.000
 3974.00    0.60799   0.61823  196.313
 3975.00    0.68483   0.66851   -1.000
 3976.00    0.74249   0.70947   -1.000
 3977.00    0.78141   0.74297   -1.000
 3978.00    0.78586   0.76967  154.924
 3979.00    0.80085   0.78914  153.784
 3980.00    0.82847   0.80155   -1.000
 3981.00    0.84872   0.80901   -1.000
 3982.00    0.88793   0.81534   -1.000
 3983.00    0.87841   0.82376   -1.000
 3984.00    0.88302   0.83509   -1.000
 3985.00    0.89979   0.84808   -1.000
 3986.00    0.90694   0.86067   -1.000
 3987.00    0.90666   0.87128   -1.000
 3988.00    0.93373   0.87931   -1.000
 3989.00    0.93314   0.88529   -1.000
 3990.00    0.92293   0.89085   -1.000
 3991.00    0.94907   0.89743   -1.000
 3992.00    0.95511   0.90425   -1.000
 3993.00    0.96415   0.90827   -1.000
 3994.00    0.96730   0.90651   -1.000
 3995.00    0.93962   0.89899   -1.000
 3996.00    0.93218   0.88991   -1.000
 3997.00    0.91928   0.88523   -1.000
 3998.00    0.94619   0.88844   -1.000
 3999.00    0.96943   0.89805   -1.000
 4000.00    0.98423   0.90924   -1.000
 4001.00    0.97500   0.91686   -1.000
 4002.00    0.96608   0.91798   -1.000
 4003.00    0.97814   0.91250   -1.000
 4004.00    0.95941   0.90387   -1.000
 4005.00    0.93739   0.89796   -1.000
 4006.00    0.93149   0.89985   -1.000
 4007.00    0.94852   0.90999   -1.000
 4008.00    0.96471   0.92393   -1.000
 4009.00    0.97751   0.93617   -1.000
 4010.00    0.93945   0.94378  130.271
 4011.00    1.01263   0.94729   -1.000
 4012.00    1.00000   0.94875   -1.000
 4013.00    0.97762   0.95021  130.330
 4014.00    0.98137   0.95280  129.070
 4015.00    0.98892   0.95652   -1.000
 4016.00    1.00532   0.96072   -1.000
 4017.00    1.02489   0.96499   -1.000
 4018.00    1.03842   0.96914   -1.000
 4019.00    1.00756   0.97239   -1.000
 4020.00    1.01318   0.97332   -1.000
 4021.00    1.01860   0.97117   -1.000
 4022.00    1.00810   0.96685   -1.000
 4023.00    0.98586   0.96286  133.145
 4024.00    0.99871   0.96190   -1.000
 4025.00    0.99571   0.96521  125.169
 4026.00    0.99275   0.97116  123.463
 4027.00    1.01485   0.97502   -1.000
 4028.00    0.98280   0.97157  131.537
 4029.00    0.98402   0.95916  139.984
 4030.00    0.97552   0.94172   -1.000
 4031.00    0.97365   0.92619   -1.000
 4032.00    0.97710   0.91860   -1.000
 4033.00    0.99692   0.92145   -1.000
 4034.00    0.98664   0.93402   -1.000
 4035.00    1.00605   0.95331   -1.000
 4036.00    1.01084   0.97443   -1.000
 4037.00    1.00060   0.99156  121.688
 4038.00    1.03140   1.00065   -1.000
 4039.00    1.02929   1.00116  127.081
 4040.00    1.03338   0.99558   -1.000
 4041.00    1.01349   0.98587  130.038
 4042.00    1.00296   0.97175   -1.000
 4043.00    0.96870   0.95282  151.018
 4044.00    0.96333   0.93264   -1.000
 4045.00    0.92834   0.91944  149.520
 4046.00    0.92798   0.92054  136.003
 4047.00    0.97139   0.93614   -1.000
 4048.00    1.02843   0.95859   -1.000
 4049.00    1.04796   0.97809   -1.000
 4050.00    1.03900   0.98901   -1.000
 4051.00    1.04270   0.99103   -1.000
 4052.00    1.02782   0.98703   -1.000
 4053.00    1.01242   0.98021   -1.000
 4054.00    0.99094   0.97340  135.746
 4055.00    0.99159   0.96838  136.774
 4056.00    1.00876   0.96621   -1.000
 4057.00    0.98948   0.96766  135.050
 4058.00    0.96543   0.97218  130.550
 4059.00    0.96652   0.97654  129.088
 4060.00    1.00231   0.97534  133.002
 4061.00    1.00305   0.96509   -1.000
 4062.00    1.01084   0.94821   -1.000
 4063.00    0.98591   0.93183   -1.000
 4064.00    0.97322   0.92293   -1.000
 4065.00    0.94758   0.92314  136.302
 4066.00    0.98031   0.92928   -1.000
 4067.00    1.00995   0.93626   -1.000
 4068.00    0.98511   0.93972   -1.000
 4069.00    0.98394   0.93757   -1.000
 4070.00    1.00159   0.93081   -1.000
 4071.00    0.99243   0.92317   -1.000
 4072.00    0.97857   0.91879   -1.000
 4073.00    0.95158   0.91818   -1.000
 4074.00    0.94548   0.91683   -1.000
 4075.00    0.95155   0.91025   -1.000
 4076.00    0.95902   0.89939   -1.000
 4077.00    0.95212   0.89121   -1.000
 4078.00    0.92233   0.89296   -1.000
 4079.00    0.96420   0.90564   -1.000
 4080.00    1.00548   0.92327   -1.000
 4081.00    0.98289   0.93692   -1.000
 4082.00    0.97342   0.94155   -1.000
 4083.00    1.00116   0.93852   -1.000
 4084.00    0.98899   0.93374   -1.000
 4085.00    1.00529   0.93276   -1.000
 4086.00    1.00266   0.93740   -1.000
 4087.00    1.00332   0.94525   -1.000
 4088.00    1.02275   0.95178   -1.000
 4089.00    1.00740   0.95367   -1.000
 4090.00    1.01317   0.95004   -1.000
 4091.00    0.98519   0.94184   -1.000
 4092.00    0.95670   0.93014  126.398
 4093.00    0.96259   0.91517   -1.000
 4094.00    0.94368   0.89660   -1.000
 4095.00    0.90874   0.87433   -1.000
 4096.00    0.91328   0.84780   -1.000
 4097.00    0.89175   0.81583   -1.000
 4098.00    0.85641   0.77692   -1.000
 4099.00    0.81103   0.73250   -1.000
 4100.00    0.75751   0.69050   -1.000
 4101.00    0.70981   0.66461   -1.000
 4102.00    0.70439   0.66667   -1.000
 4103.00    0.71930   0.69737  142.616
 4104.00    0.76583   0.74539  135.835
 4105.00    0.80617   0.79424  132.597
 4106.00    0.85279   0.83299  132.492
 4107.00    0.90867   0.85876   -1.000
 4108.00    0.92234   0.87482   -1.000
 4109.00    0.91222   0.88588   -1.000
 4110.00    0.92261   0.89589   -1.000
 4111.00    0.91866   0.90723  132.658
 4112.00    0.94386   0.92049  130.456
 4113.00    0.96984   0.93470   -1.000
 4114.00    0.98640   0.94742   -1.000
 4115.00    1.01500   0.95582   -1.000
 4116.00    1.01322   0.95811   -1.000
 4117.00    1.02954   0.95487   -1.000
 4118.00    0.99446   0.94941   -1.000
 4119.00    0.93977   0.94562  135.061
 4120.00    0.93849   0.94584  134.046
 4121.00    0.97926   0.95003   -1.000
 4122.00    0.98980   0.95644   -1.000
 4123.00    0.98694   0.96336  130.202
 4124.00    0.96828   0.96943  130.352
 4125.00    1.00078   0.97341  132.438
 4126.00    0.99823   0.97443  134.913
 4127.00    0.96825   0.97267  135.872
 4128.00    0.96849   0.96906  136.797
 4129.00    1.00786   0.96401   -1.000
 4130.00    0.99653   0.95746   -1.000
 4131.00    0.94054   0.95069  147.207
 4132.00    0.93832   0.94723  146.146
 4133.00    0.94987   0.95056  140.511
 4134.00    0.95595   0.96157  133.964
 4135.00    1.00766   0.97747   -1.000
 4136.00    1.02831   0.99421   -1.000
 4137.00    1.03406   1.00860  126.560
 4138.00    1.07284   1.01809   -1.000
 4139.00    1.09959   1.02020   -1.000
 4140.00    1.05398   1.01337   -1.000
 4141.00    1.00683   0.99880  149.459
 4142.00    0.99105   0.98207  153.781
 4143.00    0.93666   0.97055   -1.000
 4144.00    0.95636   0.96917  138.742
 4145.00    1.00125   0.97683  134.594
 4146.00    1.02634   0.98778   -1.000
 4147.00    1.00738   0.99637  137.269
 4148.00    1.01054   1.00043  140.633
 4149.00    1.02513   1.00139  141.613
 4150.00    1.00341   1.00075  140.557
 4151.00    0.98696   0.99872  140.292
 4152.00    0.98838   0.99516  141.928
 4153.00    0.97321   0.99091   -1.000
 4154.00    1.04111   0.98823   -1.000
 4155.00    1.26115   0.98916   -1.000
 4156.00    1.22393   0.99440   -1.000
 4157.00    0.68383   1.00278   -1.000
 4158.00    0.82371   1.01195   -1.000
 4159.00    1.09323   1.02000   -1.000
 4160.00    1.03635   1.02614  130.321
 4161.00    1.02020   1.03091  129.523
 4162.00    0.99853   1.03499   -1.000
 4163.00    0.96787   1.03824   -1.000
 4164.00    0.99924   1.03938   -1.000
 4165.00    1.01768   1.03748   -1.000
 4166.00    1.00074   1.03313   -1.000
 4167.00    0.99338   1.02779   -1.000
 4168.00    0.98194   1.02228   -1.000
 4169.00    0.99581   1.01462   -1.000
 4170.00    0.99933   1.00286  148.112
 4171.00    0.97116   0.98806   -1.000
 4172.00    0.92175   0.97481   -1.000
 4173.00    0.90801   0.96903   -1.000
 4174.00    0.93762   0.97205   -1.000
 4175.00    0.99047   0.98038  144.094
 4176.00    0.97355   0.98932   -1.000
 4177.00    0.96856   0.99615   -1.000
 4178.00    0.97989   1.00181   -1.000
 4179.00    1.00436   1.00692  140.453
 4180.00    1.02576   1.01087  140.178
 4181.00    1.03959   1.01357  138.264
 4182.00    1.00387   1.01542  135.524
 4183.00    0.97846   1.01752   -1.000
 4184.00    1.02060   1.01893  135.230
 4185.00    1.01372   1.01740  139.793
 4186.00    0.98523   1.01319   -1.000
 4187.00    0.97934   1.00900   -1.000
 4188.00    0.97730   1.00777   -1.000
 4189.00    0.98828   1.01009   -1.000
 4190.00    0.99286   1.01425   -1.000
 4191.00    1.00227   1.01863   -1.000
 4192.00    1.00584   1.02229   -1.000
 4193.00    1.00605   1.02363   -1.000
 4194.00    1.01493   1.02043  143.178
 4195.00    1.01625   1.01127  147.236
 4196.00    0.99152   0.99754  149.147
 4197.00    0.99109   0.98345  148.863
 4198.00    0.96573   0.97300  146.955
 4199.00    0.94569   0.96809   -1.000
 4200.00    0.94433   0.96808   -1.000
 4201.00    0.96854   0.97180  143.293
 4202.00    0.98488   0.97820  141.321
 4203.00    0.96735   0.98695   -1.000
 4204.00    0.97343   0.99761   -1.000
 4205.00    0.97177   1.00859   -1.000
 4206.00    0.98576   1.01812   -1.000
 4207.00    1.02257   1.02523  131.310
 4208.00    1.01064   1.02995   -1.000
 4209.00    0.99832   1.03281   -1.000
 4210.00    1.00349   1.03503   -1.000
 4211.00    0.99765   1.03645   -1.000
 4212.00    1.00100   1.03498   -1.000
 4213.00    0.99977   1.02906   -1.000
 4214.00    1.00905   1.01949  144.528
 4215.00    1.02864   1.01140  138.082
 4216.00    1.01511   1.01009  129.893
 4217.00    1.02891   1.01657  124.819
 4218.00    1.04192   1.02783  122.004
 4219.00    1.03646   1.03812  121.424
 4220.00    1.04845   1.04264  123.670
 4221.00    1.07094   1.03816   -1.000
 4222.00    1.04014   1.02234  140.174
 4223.00    1.01625   0.99573  155.549
 4224.00    0.98631   0.96335  174.593
 4225.00    0.92346   0.93531   -1.000
 4226.00    0.89436   0.92341   -1.000
 4227.00    0.89661   0.93357   -1.000
 4228.00    0.93223   0.96187   -1.000
 4229.00    0.98323   0.99525  126.470
 4230.00    1.02701   1.02072  126.734
 4231.00    1.02380   1.03103  129.870
 4232.00    1.01743   1.02854  132.712
 4233.00    1.00816   1.02046  134.452
 4234.00    0.98673   1.01290   -1.000
 4235.00    0.99794   1.00922  138.962
 4236.00    1.01075   1.01044  137.157
 4237.00    1.01220   1.01525  134.222
 4238.00    1.00856   1.02306  132.167
 4239.00    1.00248   1.03355   -1.000
 4240.00    1.02850   1.04522  128.425
 4241.00    1.06197   1.05623  127.428
 4242.00    1.05447   1.06402  125.022
 4243.00    1.05092   1.06672  123.483
 4244.00    1.07307   1.06333  126.166
 4245.00    1.05217   1.05400  131.915
 4246.00    1.00672   1.04050   -1.000
 4247.00    0.98682   1.02576   -1.000
 4248.00    1.00067   1.01396  139.990
 4249.00    0.98399   1.00832   -1.000
 4250.00    0.96438   1.00941   -1.000
 4251.00    0.97023   1.01497   -1.000
 4252.00    0.99342   1.02169   -1.000
 4253.00    1.00088   1.02683   -1.000
 4254.00    0.99810   1.03069   -1.000
 4255.00    0.99730   1.03447   -1.000
 4256.00    0.98831   1.03731   -1.000
 4257.00    1.00006   1.03660   -1.000
 4258.00    1.01910   1.03094  141.969
 4259.00    1.01658   1.02386  142.831
 4260.00    0.99291   1.02189   -1.000
 4261.00    0.99293   1.02915   -1.000
 4262.00    0.99863   1.04387   -1.000
 4263.00    1.01958   1.05971   -1.000
 4264.00    1.05025   1.07083   -1.000
 4265.00    1.05641   1.07429  124.070
 4266.00    1.06397   1.07000  128.193
 4267.00    1.05214   1.05933  132.375
 4268.00    1.04796   1.04291  138.567
 4269.00    1.02940   1.02253  147.754
 4270.00    0.97372   1.00200   -1.000
 4271.00    0.93449   0.98607   -1.000
 4272.00    0.92062   0.97919   -1.000
 4273.00    0.94234   0.98274   -1.000
 4274.00    0.97115   0.99558   -1.000
 4275.00    0.99602   1.01462   -1.000
 4276.00    1.01284   1.03499   -1.000
 4277.00    1.02771   1.05134   -1.000
 4278.00    1.04369   1.05910  133.254
 4279.00    1.04052   1.05731  136.566
 4280.00    1.00999   1.05004   -1.000
 4281.00    0.99611   1.04235   -1.000
 4282.00    1.01356   1.03770   -1.000
 4283.00    1.01099   1.03545   -1.000
 4284.00    0.98703   1.03251   -1.000
 4285.00    0.97648   1.02582   -1.000
 4286.00    0.97877   1.01369   -1.000
 4287.00    0.97532   0.99693   -1.000
 4288.00    0.94496   0.97939   -1.000
 4289.00    0.92046   0.96678   -1.000
 4290.00    0.91295   0.96340   -1.000
 4291.00    0.91248   0.96938   -1.000
 4292.00    0.96595   0.97947  138.293
 4293.00    0.99797   0.98753  140.025
 4294.00    0.98618   0.98980  142.649
 4295.00    0.97796   0.98522  147.127
 4296.00    0.95847   0.97410   -1.000
 4297.00    0.93892   0.95636   -1.000
 4298.00    0.91139   0.93387   -1.000
 4299.00    0.88819   0.91184   -1.000
 4300.00    0.84670   0.89578   -1.000
 4301.00    0.82511   0.88911   -1.000
 4302.00    0.85053   0.89106   -1.000
 4303.00    0.85761   0.89731   -1.000
 4304.00    0.85493   0.90212   -1.000
 4305.00    0.84942   0.90199   -1.000
 4306.00    0.84981   0.89677   -1.000
 4307.00    0.83217   0.89070   -1.000
 4308.00    0.82464   0.88918   -1.000
 4309.00    0.83629   0.89514   -1.000
 4310.00    0.83693   0.90775   -1.000
 4311.00    0.86009   0.92367   -1.000
 4312.00    0.90121   0.94154   -1.000
 4313.00    0.93779   0.96207   -1.000
 4314.00    0.98598   0.98768  124.049
 4315.00    1.03126   1.01791  116.339
 4316.00    1.06973   1.04754  113.687
 4317.00    1.12059   1.07029   -1.000
 4318.00    1.14356   1.08119   -1.000
 4319.00    1.12144   1.08034   -1.000
 4320.00    1.09318   1.07015  124.280
 4321.00    1.04895   1.05287  131.432
 4322.00    1.01257   1.03007   -1.000
 4323.00    0.98362   1.00516   -1.000
 4324.00    0.94395   0.98505   -1.000
 4325.00    0.94103   0.97707   -1.000
 4326.00    0.96070   0.98459   -1.000
 4327.00    0.99903   1.00344  120.304
 4328.00    1.02642   1.02395  119.137
 4329.00    1.03028   1.03851  119.386
 4330.00    1.02849   1.04464  118.205
 4331.00    1.03327   1.04451  116.342
 4332.00    1.04436   1.03996  115.492
 4333.00    1.04552   1.02963  115.986
 4334.00    1.03575   1.00979  119.769
 4335.00    1.01753   0.97692   -1.000
 4336.00    0.97605   0.92971   -1.000
 4337.00    0.92064   0.87229   -1.000
 4338.00    0.86166   0.81492   -1.000
 4339.00    0.81233   0.77231   -1.000
 4340.00    0.77057   0.75855  148.365
 4341.00    0.75361   0.77806   -1.000
 4342.00    0.79783   0.82367   -1.000
 4343.00    0.86773   0.88010  124.881
 4344.00    0.94147   0.93314  121.915
 4345.00    0.99943   0.97512  120.157
 4346.00    1.00722   1.00605  118.689
 4347.00    1.02750   1.02655  117.435
 4348.00    1.02291   1.03602  119.814
 4349.00    0.99482   1.03430   -1.000
 4350.00    0.99577   1.02482   -1.000
 4351.00    0.98844   1.01523   -1.000
 4352.00    0.98654   1.01398   -1.000
 4353.00    1.01630   1.02422  122.618
 4354.00    1.04682   1.04262  119.323
 4355.00    1.05997   1.06174  117.716
 4356.00    1.07134   1.07577  118.697
 4357.00    1.08878   1.08334  121.049
 4358.00    1.09773   1.08717  121.209
 4359.00    1.09240   1.09094  118.242
 4360.00    1.08460   1.09709  115.326
 4361.00    1.08944   1.10564  114.422
 4362.00    1.12603   1.11441  113.713
 4363.00    1.11422   1.12082  112.778
 4364.00    1.11125   1.12287  113.905
 4365.00    1.10613   1.11974  117.831
 4366.00    1.09181   1.11229   -1.000
 4367.00    1.08810   1.10293  121.550
 4368.00    1.06263   1.09430   -1.000
 4369.00    1.06961   1.08790  119.883
 4370.00    1.07197   1.08234  120.237
 4371.00    1.06924   1.07523  122.715
 4372.00    1.04740   1.06506  127.896
 4373.00    1.03807   1.05340  131.313
 4374.00    1.02259   1.04534   -1.000
 4375.00    1.00949   1.04600   -1.000
 4376.00    1.03746   1.05680  118.398
 4377.00    1.05474   1.07267  117.413
 4378.00    1.06646   1.08514  118.701
 4379.00    1.09717   1.08656  122.032
 4380.00    1.08667   1.07398  130.454
 4381.00    1.05674   1.05000  145.520
 4382.00    1.04446   1.02220  157.059
 4383.00    0.99814   1.00056  152.228
 4384.00    0.97107   0.99374   -1.000
 4385.00    0.99037   1.00284  127.381
 4386.00    1.02829   1.02167  125.004
 4387.00    1.06245   1.04134  125.692
 4388.00    1.07338   1.05558  126.795
 4389.00    1.05818   1.06382  126.165
 4390.00    1.05764   1.06827  123.448
 4391.00    1.06636   1.07079  121.872
 4392.00    1.07089   1.07150  123.509
 4393.00    1.09493   1.07046  125.259
 4394.00    1.09234   1.06963  122.778
 4395.00    1.07909   1.07156  117.626
 4396.00    1.08666   1.07678  116.021
 4397.00    1.09275   1.08215  118.789
 4398.00    1.09247   1.08358  123.041
 4399.00    1.08644   1.08041  124.892
 4400.00    1.06429   1.07504  122.912
 4401.00    1.04378   1.07004   -1.000
 4402.00    1.05229   1.06561  128.489
 4403.00    1.05712   1.06102  133.971
 4404.00    1.04491   1.05714  132.772
 4405.00    1.02038   1.05631   -1.000
 4406.00    1.02538   1.06044   -1.000
 4407.00    1.06684   1.06945  125.003
 4408.00    1.07318   1.08220  119.833
 4409.00    1.06839   1.09699   -1.000
 4410.00    1.09558   1.11094  112.077
 4411.00    1.10037   1.11944  112.355
 4412.00    1.10361   1.11846  116.783
 4413.00    1.11824   1.10774  122.872
 4414.00    1.08841   1.09238  125.381
 4415.00    1.06089   1.08021   -1.000
 4416.00    1.06294   1.07776  118.355
 4417.00    1.06842   1.08683   -1.000
 4418.00    1.07197   1.10281   -1.000
 4419.00    1.07742   1.11861   -1.000
 4420.00    1.10148   1.12813   -1.000
 4421.00    1.12117   1.13041  117.691
 4422.00    1.10235   1.12783   -1.000
 4423.00    1.08179   1.12400   -1.000
 4424.00    1.08589   1.12088   -1.000
 4425.00    1.08285   1.11905   -1.000
 4426.00    1.07412   1.11897   -1.000
 4427.00    1.07935   1.12116   -1.000
 4428.00    1.07544   1.12522   -1.000
 4429.00    1.07996   1.12955   -1.000
 4430.00    1.08867   1.13206   -1.000
 4431.00    1.08773   1.13106   -1.000
 4432.00    1.10256   1.12577   -1.000
 4433.00    1.10359   1.11753  126.083
 4434.00    1.08150   1.11048   -1.000
 4435.00    1.06772   1.11044   -1.000
 4436.00    1.07506   1.12017   -1.000
 4437.00    1.10732   1.13642   -1.000
 4438.00    1.14420   1.15055  110.209
 4439.00    1.14269   1.15446  114.532
 4440.00    1.13002   1.14632  119.916
 4441.00    1.13780   1.13117  123.296
 4442.00    1.12729   1.11845  121.651
 4443.00    1.09902   1.11508  116.641
 4444.00    1.06976   1.12274   -1.000
 4445.00    1.09488   1.13662   -1.000
 4446.00    1.13458   1.15033  111.607
 4447.00    1.14106   1.15961  112.190
 4448.00    1.15138   1.16376  113.444
 4449.00    1.16407   1.16433  113.840
 4450.00    1.13465   1.16219   -1.000
 4451.00    1.15311   1.15721  115.532
 4452.00    1.14480   1.14855  120.368
 4453.00    1.09806   1.13674   -1.000
 4454.00    1.08476   1.12472   -1.000
 4455.00    1.07815   1.11666   -1.000
 4456.00    1.09129   1.11502   -1.000
 4457.00    1.10011   1.11804   -1.000
 4458.00    1.07813   1.12225   -1.000
 4459.00    1.08056   1.12515   -1.000
 4460.00    1.08839   1.12755   -1.000
 4461.00    1.08239   1.13140   -1.000
 4462.00    1.10527   1.13760   -1.000
 4463.00    1.11800   1.14488   -1.000
 4464.00    1.15796   1.15030  114.814
 4465.00    1.15104   1.15145  115.346
 4466.00    1.13600   1.14807  117.057
 4467.00    1.13042   1.14269  118.804
 4468.00    1.12389   1.13938  118.568
 4469.00    1.12777   1.14199  116.029
 4470.00    1.14016   1.15166  112.147
 4471.00    1.15854   1.16626  108.559
 4472.00    1.17502   1.18154  106.392
 4473.00    1.19275   1.19339  105.982
 4474.00    1.20919   1.20051  105.810
 4475.00    1.22347   1.20341  104.940
 4476.00    1.20768   1.20320  104.914
 4477.00    1.19726   1.19917  107.000
 4478.00    1.20791   1.19000  111.452
 4479.00    1.19825   1.17651  115.878
 4480.00    1.18377   1.16313  117.364
 4481.00    1.18242   1.15659  114.461
 4482.00    1.16476   1.16107  109.660
 4483.00    1.15664   1.17512  106.214
 4484.00    1.16974   1.19251   -1.000
 4485.00    1.19606   1.20568  105.997
 4486.00    1.20727   1.21007  109.130
 4487.00    1.18829   1.20594  112.804
 4488.00    1.17360   1.19788   -1.000
 4489.00    1.16154   1.19147   -1.000
 4490.00    1.14439   1.19003   -1.000
 4491.00    1.16178   1.19206   -1.000
 4492.00    1.17912   1.19366  111.160
 4493.00    1.17844   1.19231  114.288
 4494.00    1.17103   1.18911   -1.000
 4495.00    1.17005   1.18733  112.849
 4496.00    1.18790   1.18863  109.108
 4497.00    1.20709   1.19194  106.806
 4498.00    1.20128   1.19453  106.682
 4499.00    1.20161   1.19510  107.796
 4500.00    1.21492   1.19530  107.061
 4501.00    1.20531   1.19849  103.790
 4502.00    1.21313   1.20693  100.836
 4503.00    1.23305   1.21860  100.053
 4504.00    1.22965   1.22919  101.354
 4505.00    1.22182   1.23480  103.094
 4506.00    1.23416   1.23521  103.703
 4507.00    1.25036   1.23302  103.413
 4508.00    1.25585   1.23118  102.608
 4509.00    1.25690   1.23076  102.494
 4510.00    1.25035   1.23049  103.876
 4511.00    1.24131   1.22889  105.916
 4512.00    1.23356   1.22541  107.333
 4513.00    1.20840   1.22098  107.491
 4514.00    1.20094   1.21686  107.079
 4515.00    1.20394   1.21349  107.548
 4516.00    1.19404   1.21074  108.668
 4517.00    1.20205   1.20827  108.316
 4518.00    1.20801   1.20648  106.253
 4519.00    1.20530   1.20578  105.061
 4520.00    1.21638   1.20568  106.308
 4521.00    1.22793   1.20458  108.795
 4522.00    1.21754   1.20097  110.499
 4523.00    1.18523   1.19500  111.736
 4524.00    1.15577   1.18749   -1.000
 4525.00    1.16744   1.17896  117.722
 4526.00    1.16612   1.16935  120.309
 4527.00    1.13614   1.15958   -1.000
 4528.00    1.11305   1.15190   -1.000
 4529.00    1.11534   1.14803   -1.000
 4530.00    1.12993   1.14751  115.595
 4531.00    1.14448   1.14737  116.536
 4532.00    1.16196   1.14512  120.246
 4533.00    1.15647   1.14158  122.175
 4534.00    1.15819   1.14114  118.201
 4535.00    1.14603   1.14849  111.162
 4536.00    1.13440   1.16460   -1.000
 4537.00    1.16213   1.18530   -1.000
 4538.00    1.23034   1.20402  106.508
 4539.00    1.22663   1.21596  108.114
 4540.00    1.19965   1.22049   -1.000
 4541.00    1.20021   1.22039   -1.000
 4542.00    1.20976   1.21865  120.915
 4543.00    0.86596   1.21640   -2.000
 4544.00    0.20152   1.21320   -2.000
 4545.00    0.05113   1.20829   -2.000
 4546.00    0.51085   1.20122   -1.000
 4547.00    0.96839   1.19218   -1.000
 4548.00    0.59666   1.18272   -1.000
 4549.00    0.95946   1.17604   -1.000
 4550.00    1.20294   1.17464  111.508
 4551.00    1.18215   1.17726  112.615
 4552.00    1.17946   1.17998  114.144
 4553.00    1.16847   1.18021  114.077
 4554.00    1.18157   1.18003  111.273
 4555.00    1.18481   1.18402  106.943
 4556.00    1.18930   1.19469  103.574
 4557.00    1.20871   1.21009  102.780
 4558.00    1.21998   1.22558  103.194
 4559.00    1.22996   1.23699  103.143
 4560.00    1.22502   1.24208  104.104
 4561.00    1.21996   1.24081  106.699
 4562.00    1.21783   1.23471  109.046
 4563.00    1.21161   1.22732  109.669
 4564.00    1.22325   1.22289  107.715
 4565.00    1.22087   1.22408  104.872
 4566.00    1.21530   1.23005  102.772
 4567.00    1.23348   1.23695  102.652
 4568.00    1.25410   1.24012  104.444
 4569.00    1.24554   1.23740  107.202
 4570.00    1.21278   1.23030  108.602
 4571.00    1.19841   1.22367   -1.000
 4572.00    1.21478   1.22212  104.029
 4573.00    1.23896   1.22653  103.221
 4574.00    1.24252   1.23369  103.501
 4575.00    1.23496   1.23878  104.042
 4576.00    1.22812   1.23912  105.115
 4577.00    1.21241   1.23453  107.497
 4578.00    1.21138   1.22633  110.390
 4579.00    1.22530   1.21636  111.602
 4580.00    1.21240   1.20701  110.688
 4581.00    1.19099   1.20037  109.375
 4582.00    1.17534   1.19739   -1.000
 4583.00    1.17707   1.19770  109.559
 4584.00    1.19402   1.20058  109.377
 4585.00    1.18763   1.20545  107.227
 4586.00    1.20228   1.21184  104.577
 4587.00    1.22588   1.21884  103.199
 4588.00    1.23307   1.22501  103.782
 4589.00    1.21831   1.22899  105.534
 4590.00    1.21291   1.23003  107.475
 4591.00    1.20586   1.22868   -1.000
 4592.00    1.18211   1.22667   -1.000
 4593.00    1.18358   1.22587   -1.000
 4594.00    1.20944   1.22746  106.719
 4595.00    1.23473   1.23092  106.479
 4596.00    1.23167   1.23473  106.250
 4597.00    1.22109   1.23716  106.481
 4598.00    1.22799   1.23720  107.475
 4599.00    1.23321   1.23482  108.174
 4600.00    1.23748   1.23120  107.863
 4601.00    1.22304   1.22806  106.637
 4602.00    1.19324   1.22687   -1.000
 4603.00    1.21301   1.22817  106.076
 4604.00    1.22845   1.23150  105.485
 4605.00    1.24063   1.23622  103.915
 4606.00    1.26959   1.24214  101.754
 4607.00    1.26084   1.24900   99.966
 4608.00    1.25098   1.25602   99.481
 4609.00    1.23413   1.26122   -1.000
 4610.00    1.23951   1.26326  101.672
 4611.00    1.23995   1.26214  102.600
 4612.00    1.25514   1.25957  102.769
 4613.00    1.28297   1.25745  102.051
 4614.00    1.27370   1.25656  101.330
 4615.00    1.25521   1.25654  101.385
 4616.00    1.25493   1.25669  102.136
 4617.00    1.25428   1.25674  102.548
 4618.00    1.26540   1.25724  102.054
 4619.00    1.25894   1.25909  100.777
 4620.00    1.24831   1.26253   99.793
 4621.00    1.26372   1.26663   99.937
 4622.00    1.26297   1.26960  100.175
 4623.00    1.26070   1.27003  100.668
 4624.00    1.26523   1.26813  101.345
 4625.00    1.26276   1.26509  101.442
 4626.00    1.26364   1.26246  101.670
 4627.00    1.26113   1.26094  102.176
 4628.00    1.25819   1.26077  102.074
 4629.00    1.23805   1.26182  101.256
 4630.00    1.23973   1.26379  100.728
 4631.00    1.25677   1.26575  101.664
 4632.00    1.25912   1.26658  103.042
 4633.00    1.25380   1.26567  103.654
 4634.00    1.24910   1.26354  103.901
 4635.00    1.24955   1.26099  105.005
 4636.00    1.24294   1.25854  106.022
 4637.00    1.25001   1.25653  106.177
 4638.00    1.26151   1.25573  105.311
 4639.00    1.25109   1.25712  103.125
 4640.00    1.24772   1.26090  101.032
 4641.00    1.26209   1.26566  100.435
 4642.00    1.26329   1.26911  101.517
 4643.00    1.24247   1.26887   -1.000
 4644.00    1.23841   1.26437   -1.000
 4645.00    1.24445   1.25662  108.738
 4646.00    1.23168   1.24883  108.097
 4647.00    1.22745   1.24450  105.833
 4648.00    1.23828   1.24579  103.767
 4649.00    1.26023   1.25180  102.903
 4650.00    1.27088   1.25925  102.753
 4651.00    1.26342   1.26468  103.138
 4652.00    1.24895   1.26634  104.912
 4653.00    1.22855   1.26449   -1.000
 4654.00    1.23349   1.26122   -1.000
 4655.00    1.24363   1.25940  105.089
 4656.00    1.26501   1.26166  101.353
 4657.00    1.26423   1.26924   98.127
 4658.00    1.26175   1.28068   96.870
 4659.00    1.26311   1.29230   -1.000
 4660.00    1.28171   1.29962   99.156
 4661.00    1.27991   1.30024  101.441
 4662.00    1.27049   1.29453  102.675
 4663.00    1.27574   1.28457  103.459
 4664.00    1.26290   1.27207  106.369
 4665.00    1.24921   1.25818  111.010
 4666.00    1.23840   1.24438  113.713
 4667.00    1.22906   1.23388  112.097
 4668.00    1.22343   1.23005  107.980
 4669.00    1.22670   1.23429  104.101
 4670.00    1.23615   1.24434  102.282
 4671.00    1.25358   1.25596  102.046
 4672.00    1.27793   1.26560  102.069
 4673.00    1.28745   1.27245  101.426
 4674.00    1.29874   1.27722   99.968
 4675.00    1.29346   1.28053   99.312
 4676.00    1.27525   1.28155  100.596
 4677.00    1.26946   1.27899  102.768
 4678.00    1.26317   1.27298  104.650
 4679.00    1.23932   1.26520   -1.000
 4680.00    1.22960   1.25847   -1.000
 4681.00    1.24138   1.25514  104.042
 4682.00    1.24468   1.25605  101.910
 4683.00    1.25551   1.26029  101.346
 4684.00    1.27507   1.26550  101.621
 4685.00    1.27601   1.26963  101.881
 4686.00    1.27130   1.27175  102.237
 4687.00    1.27435   1.27228  102.221
 4688.00    1.27223   1.27202  102.547
 4689.00    1.26084   1.27146  103.089
 4690.00    1.25799   1.27083  102.653
 4691.00    1.26898   1.27065  101.245
 4692.00    1.26828   1.27155   99.394
 4693.00    1.27395   1.27373   97.562
 4694.00    1.30314   1.27640   97.101
 4695.00    1.31549   1.27808   -1.000
 4696.00    1.29611   1.27705  101.649
 4697.00    1.26933   1.27258  103.911
 4698.00    1.25165   1.26528  104.153
 4699.00    1.25189   1.25704  103.944
 4700.00    1.26846   1.24945  105.251
 4701.00    1.26700   1.24359  106.585
 4702.00    1.24783   1.24004  105.949
 4703.00    1.23686   1.23950  104.041
 4704.00    1.24212   1.24160  103.822
 4705.00    1.25765   1.24448  105.666
 4706.00    1.25005   1.24586  107.334
 4707.00    1.22670   1.24517  107.624
 4708.00    1.21767   1.24436   -1.000
 4709.00    1.23941   1.24597  102.718
 4710.00    1.25278   1.25063  100.705
 4711.00    1.25407   1.25648  100.632
 4712.00    1.25309   1.26084  102.084
 4713.00    1.27158   1.26282  103.205
 4714.00    1.29286   1.26401  102.218
 4715.00    1.28996   1.26693  100.142
 4716.00    1.28376   1.27281   98.799
 4717.00    1.30096   1.28064   98.351
 4718.00    1.31515   1.28833   98.015
 4719.00    1.32611   1.29414   98.197
 4720.00    1.31798   1.29748   99.018
 4721.00    1.29672   1.29890   99.144
 4722.00    1.28649   1.29952   98.294
 4723.00    1.27866   1.30022   97.750
 4724.00    1.27904   1.30045   98.925
 4725.00    1.29390   1.29864  102.020
 4726.00    1.28466   1.29339  105.262
 4727.00    1.25527   1.28490   -1.000
 4728.00    1.23019   1.27566   -1.000
 4729.00    1.24491   1.26845   -1.000
 4730.00    1.27222   1.26524  103.530
 4731.00    1.28286   1.26628  102.420
 4732.00    1.29472   1.27027  101.682
 4733.00    1.28952   1.27509  101.120
 4734.00    1.27849   1.27881  101.292
 4735.00    1.29564   1.28057  102.016
 4736.00    1.29807   1.28109  101.452
 4737.00    1.27903   1.28164  100.693
 4738.00    1.28309   1.28307  101.033
 4739.00    1.28696   1.28522  101.437
 4740.00    1.29339   1.28760  101.125
 4741.00    1.31282   1.29015  100.145
 4742.00    1.31306   1.29326   99.623
 4743.00    1.31110   1.29706   99.822
 4744.00    1.31907   1.30134   99.526
 4745.00    1.32345   1.30589   98.630
 4746.00    1.32077   1.31078   97.979
 4747.00    1.32765   1.31605   97.963
 4748.00    1.33638   1.32102   98.086
 4749.00    1.31638   1.32503   98.441
 4750.00    1.29205   1.32735   -1.000
 4751.00    1.28937   1.32760   -1.000
 4752.00    1.28677   1.32573   -1.000
 4753.00    1.28280   1.32244   -1.000
 4754.00    1.29283   1.31913   -1.000
 4755.00    1.29113   1.31718   -1.000
 4756.00    1.27905   1.31705   -1.000
 4757.00    1.28976   1.31815   -1.000
 4758.00    1.30687   1.31903  101.607
 4759.00    1.30410   1.31822  102.249
 4760.00    1.28595   1.31457   -1.000
 4761.00    1.27580   1.30796   -1.000
 4762.00    1.26473   1.29971   -1.000
 4763.00    1.24889   1.29211   -1.000
 4764.00    1.25135   1.28752   -1.000
 4765.00    1.26168   1.28735   -1.000
 4766.00    1.27212   1.29172  103.641
 4767.00    1.29843   1.29957  101.673
 4768.00    1.31031   1.30892  101.017
 4769.00    1.31326   1.31719  101.555
 4770.00    1.32064   1.32244  102.459
 4771.00    1.31899   1.32457  102.402
 4772.00    1.31777   1.32544  100.674
 4773.00    1.31437   1.32732   99.160
 4774.00    1.30940   1.33087   98.880
 4775.00    1.31413   1.33485   99.080
 4776.00    1.32720   1.33749   99.542
 4777.00    1.32221   1.33781  100.424
 4778.00    1.29745   1.33592   -1.000
 4779.00    1.28493   1.33279   -1.000
 4780.00    1.29404   1.32942   -1.000
 4781.00    1.30584   1.32649  102.761
 4782.00    1.30722   1.32375  103.200
 4783.00    1.29358   1.32095   -1.000
 4784.00    1.30855   1.31804  103.986
 4785.00    1.31564   1.31530  104.846
 4786.00    1.30278   1.31319  105.106
 4787.00    1.29959   1.31228  104.785
 4788.00    1.29235   1.31311  104.195
 4789.00    1.28647   1.31617   -1.000
 4790.00    1.28606   1.32183   -1.000
 4791.00    1.31431   1.33016   99.977
 4792.00    1.32759   1.34019   97.967
 4793.00    1.32921   1.35033   96.918
 4794.00    1.35780   1.35821   97.223
 4795.00    1.34937   1.36192   98.704
 4796.00    1.32286   1.36088   -1.000
 4797.00    1.32195   1.35618   -1.000
 4798.00    1.31881   1.35068   -1.000
 4799.00    1.33013   1.34739  100.912
 4800.00    1.34990   1.34813   99.107
 4801.00    1.33510   1.35174   98.437
 4802.00    1.31577   1.35538   -1.000
 4803.00    1.32258   1.35555   -1.000
 4804.00    1.32761   1.35176   -1.000
 4805.00    1.31561   1.34607   -1.000
 4806.00    1.31226   1.34168   -1.000
 4807.00    1.32324   1.34050  101.577
 4808.00    1.33729   1.34240  100.894
 4809.00    1.34342   1.34585  100.053
 4810.00    1.33102   1.34953   99.439
 4811.00    1.33077   1.35298   99.130
 4812.00    1.33915   1.35643   98.977
 4813.00    1.34285   1.36030   98.676
 4814.00    1.34807   1.36441   98.191
 4815.00    1.34248   1.36837   -1.000
 4816.00    1.33887   1.37173   -1.000
 4817.00    1.35379   1.37409   96.843
 4818.00    1.36274   1.37501   96.838
 4819.00    1.35392   1.37398   97.243
 4820.00    1.33873   1.37030   -1.000
 4821.00    1.32704   1.36359   -1.000
 4822.00    1.33500   1.35449  102.173
 4823.00    1.32739   1.34533  101.140
 4824.00    1.30440   1.33911   -1.000
 4825.00    1.30071   1.33743   -1.000
 4826.00    1.31563   1.33921   -1.000
 4827.00    1.32289   1.34162  100.574
 4828.00    1.32333   1.34252  100.871
 4829.00    1.31262   1.34145   -1.000
 4830.00    1.29321   1.33952   -1.000
 4831.00    1.29735   1.33769   -1.000
 4832.00    1.31967   1.33710   99.624
 4833.00    1.34092   1.33786   98.766
 4834.00    1.32439   1.33979   98.681
 4835.00    1.31296   1.34177   -1.000
 4836.00    1.32088   1.34275   99.909
 4837.00    1.31592   1.34215   -1.000
 4838.00    1.31524   1.33995   -1.000
 4839.00    1.31778   1.33684  102.378
 4840.00    1.31940   1.33377  102.011
 4841.00    1.32318   1.33141  101.369
 4842.00    1.32518   1.32990  100.481
 4843.00    1.32742   1.32933   99.189
 4844.00    1.32598   1.32950   98.115
 4845.00    1.32160   1.33001   98.828
 4846.00    1.33018   1.32958  100.665
 4847.00    1.33082   1.32719  101.425
 4848.00    1.32730   1.32306  100.687
 4849.00    1.31074   1.31840   99.797
 4850.00    1.28797   1.31376   -1.000
 4851.00    1.28498   1.30836  100.714
 4852.00    1.27939   1.30011  102.606
 4853.00    1.27547   1.28739  105.674
 4854.00    1.26998   1.26996  107.112
 4855.00    1.24867   1.24876  106.368
 4856.00    1.22293   1.22366  107.161
 4857.00    1.20207   1.19020  113.140
 4858.00    1.17470   1.14407   -1.000
 4859.00    1.12375   1.08481   -1.000
 4860.00    1.05268   1.02612  134.501
 4861.00    0.97332   0.98825  124.026
 4862.00    0.93356   0.98856   -1.000
 4863.00    0.98904   1.02640   -1.000
 4864.00    1.10040   1.08566  106.328
 4865.00    1.17348   1.14634  104.734
 4866.00    1.20046   1.19545  104.055
 4867.00    1.21550   1.22941  104.270
 4868.00    1.22880   1.24941  106.191
 4869.00    1.23331   1.25764   -1.000
 4870.00    1.21735   1.25758   -1.000
 4871.00    1.18989   1.25487   -1.000
 4872.00    1.20904   1.25576   -1.000
 4873.00    1.25109   1.26358  104.012
 4874.00    1.27490   1.27670  103.345
 4875.00    1.28096   1.29094  102.893
 4876.00    1.27528   1.30313   -1.000
 4877.00    1.27313   1.31301   -1.000
 4878.00    1.28373   1.32193   -1.000
 4879.00    1.29265   1.33029   -1.000
 4880.00    1.29839   1.33699   -1.000
 4881.00    1.30078   1.33992   -1.000
 4882.00    1.29827   1.33924   -1.000
 4883.00    1.29885   1.33631   -1.000
 4884.00    1.28971   1.33301   -1.000
 4885.00    1.28429   1.33030   -1.000
 4886.00    1.28736   1.32790   -1.000
 4887.00    1.28703   1.32501   -1.000
 4888.00    1.28089   1.32044   -1.000
 4889.00    1.26781   1.31467   -1.000
 4890.00    1.25521   1.31016   -1.000
 4891.00    1.24767   1.31144   -1.000
 4892.00    1.27216   1.32202   -1.000
 4893.00    1.32890   1.34066   95.141
 4894.00    1.35200   1.36281   94.025
 4895.00    1.37141   1.38225   93.921
 4896.00    1.39002   1.39510   95.030
 4897.00    1.37397   1.40029   97.236
 4898.00    1.35493   1.39899   -1.000
 4899.00    1.34637   1.39349   -1.000
 4900.00    1.35001   1.38652   -1.000
 4901.00    1.34735   1.38035   -1.000
 4902.00    1.33719   1.37635   -1.000
 4903.00    1.34063   1.37550   -1.000
 4904.00    1.34597   1.37820   -1.000
 4905.00    1.35219   1.38359   -1.000
 4906.00    1.34912   1.38857   -1.000
 4907.00    1.33488   1.38981   -1.000
 4908.00    1.32555   1.38614   -1.000
 4909.00    1.31075   1.37906   -1.000
 4910.00    1.30387   1.37233   -1.000
 4911.00    1.31912   1.36925   -1.000
 4912.00    1.33419   1.37120   -1.000
 4913.00    1.33294   1.37672   -1.000
 4914.00    1.33289   1.38265   -1.000
 4915.00    1.33005   1.38437   -1.000
 4916.00    1.32249   1.37825   -1.000
 4917.00    1.31664   1.36245   -1.000
 4918.00    1.29082   1.33969   -1.000
 4919.00    1.26278   1.31637   -1.000
 4920.00    1.24592   1.29990   -1.000
 4921.00    1.25540   1.29480   -1.000
 4922.00    1.28371   1.29999  103.597
 4923.00    1.30474   1.31142  102.917
 4924.00    1.30864   1.32551  100.881
 4925.00    1.30402   1.34115   -1.000
 4926.00    1.32762   1.35813   -1.000
 4927.00    1.36716   1.37511   96.520
 4928.00    1.37242   1.38988   95.902
 4929.00    1.35049   1.39960   -1.000
 4930.00    1.34798   1.40216   -1.000
 4931.00    1.36220   1.39683   -1.000
 4932.00    1.36274   1.38535  103.045
 4933.00    1.33355   1.37160   -1.000
 4934.00    1.30293   1.36041   -1.000
 4935.00    1.29409   1.35358   -1.000
 4936.00    1.29281   1.34943   -1.000
 4937.00    1.31426   1.34558   -1.000
 4938.00    1.33119   1.34241  104.276
 4939.00    1.32709   1.34357  100.771
 4940.00    1.32808   1.35190   98.227
 4941.00    1.35128   1.36687   96.895
 4942.00    1.37227   1.38380   96.502
 4943.00    1.37360   1.39789   96.900
 4944.00    1.37546   1.40652   -1.000
 4945.00    1.37864   1.41036   -1.000
 4946.00    1.36979   1.41211   -1.000
 4947.00    1.35295   1.41418   -1.000
 4948.00    1.35660   1.41749   -1.000
 4949.00    1.37389   1.42100   -1.000
 4950.00    1.38957   1.42329   -1.000
 4951.00    1.39322   1.42318   96.458
 4952.00    1.38206   1.41966   -1.000
 4953.00    1.37376   1.41174   -1.000
 4954.00    1.35994   1.39768   -1.000
 4955.00    1.33266   1.37738   -1.000
 4956.00    1.31019   1.35445   -1.000
 4957.00    1.30371   1.33647   -1.000
 4958.00    1.31393   1.33174  100.042
 4959.00    1.34283   1.34179   97.983
 4960.00    1.36521   1.36136   97.882
 4961.00    1.37735   1.38129   98.524
 4962.00    1.36448   1.39470   -1.000
 4963.00    1.34934   1.39922   -1.000
 4964.00    1.36497   1.39634   -1.000
 4965.00    1.36794   1.38935  103.582
 4966.00    1.36008   1.38214  103.418
 4967.00    1.34801   1.37761   -1.000
 4968.00    1.34583   1.37713   -1.000
 4969.00    1.36132   1.38076  100.832
 4970.00    1.36267   1.38734   99.686
 4971.00    1.36603   1.39501   -1.000
 4972.00    1.37197   1.40207   -1.000
 4973.00    1.35801   1.40700   -1.000
 4974.00    1.35169   1.40897   -1.000
 4975.00    1.36247   1.40790   -1.000
 4976.00    1.37135   1.40415   -1.000
 4977.00    1.37292   1.39794  103.175
 4978.00    1.36486   1.38968   -1.000
 4979.00    1.34046   1.37878   -1.000
 4980.00    1.32199   1.36468   -1.000
 4981.00    1.30904   1.34859   -1.000
 4982.00    1.28353   1.33359   -1.000
 4983.00    1.27645   1.32460   -1.000
 4984.00    1.29586   1.32494   -1.000
 4985.00    1.31874   1.33442  102.269
 4986.00    1.33202   1.34953  101.084
 4987.00    1.33867   1.36498  101.930
 4988.00    1.34811   1.37562   -1.000
 4989.00    1.36293   1.37962  103.765
 4990.00    1.36532   1.37851  103.292
 4991.00    1.35425   1.37597  102.603
 4992.00    1.33662   1.37543   -1.000
 4993.00    1.32429   1.37778   -1.000
 4994.00    1.34195   1.38222   -1.000
 4995.00    1.35799   1.38659   -1.000
 4996.00    1.35130   1.38818   -1.000
 4997.00    1.35225   1.38461   -1.000
 4998.00    1.34580   1.37574   -1.000
 4999.00    1.32099   1.36350   -1.000
 5000.00    1.31117   1.35290   -1.000
 5001.00    1.31167   1.34674   -1.000
 5002.00    1.30555   1.34461   -1.000
 5003.00    1.29030   1.34350   -1.000
 5004.00    1.29704   1.34000   -1.000
 5005.00    1.31786   1.33452  108.547
 5006.00    1.31644   1.33048  105.490
 5007.00    1.29481   1.33188   -1.000
 5008.00    1.28306   1.33835   -1.000
 5009.00    1.29572   1.34563   -1.000
 5010.00    1.30684   1.34858   -1.000
 5011.00    1.31712   1.34440   -1.000
 5012.00    1.30417   1.33522   -1.000
 5013.00    1.28275   1.32541   -1.000
 5014.00    1.28624   1.31940   -1.000
 5015.00    1.28712   1.31823   -1.000
 5016.00    1.28416   1.32028   -1.000
 5017.00    1.29378   1.32348   -1.000
 5018.00    1.30280   1.32724   -1.000
 5019.00    1.30959   1.33285  106.299
 5020.00    1.32279   1.34004  106.670
 5021.00    1.33171   1.34807  106.458
 5022.00    1.33196   1.35611  105.561
 5023.00    1.33942   1.36400  104.648
 5024.00    1.33594   1.37153   -1.000
 5025.00    1.34004   1.37773   -1.000
 5026.00    1.37359   1.38152  104.835
 5027.00    1.38687   1.38330  103.310
 5028.00    1.38248   1.38489  101.595
 5029.00    1.38056   1.38808  100.045
 5030.00    1.37780   1.39342   98.664
 5031.00    1.37158   1.39976   -1.000
 5032.00    1.36818   1.40458   -1.000
 5033.00    1.37900   1.40505  103.624
 5034.00    1.38523   1.40016  106.511
 5035.00    1.36172   1.39088   -1.000
 5036.00    1.32807   1.37973   -1.000
 5037.00    1.32060   1.36798   -1.000
 5038.00    1.32313   1.35476   -1.000
 5039.00    1.31234   1.34037   -1.000
 5040.00    1.28695   1.32765   -1.000
 5041.00    1.27097   1.32280   -1.000
 5042.00    1.28958   1.33020   -1.000
 5043.00    1.35754   1.34887   99.808
 5044.00    1.17091   1.37313   -1.000
 5045.00    0.46356   1.39496   -1.000
 5046.00   -0.01102   1.40801    0.000
 5047.00    0.09192   1.40973   -1.000
 5048.00    0.61461   1.40159   -1.000
 5049.00    1.17736   1.38871   -1.000
 5050.00    1.34044   1.37726   -1.000
 5051.00    1.32633   1.37246   -1.000
 5052.00    1.32485   1.37626   -1.000
 5053.00    1.36138   1.38724   98.590
 5054.00    1.39063   1.40124   97.998
 5055.00    1.39492   1.41421   97.958
 5056.00    1.40568   1.42409   98.148
 5057.00    1.41460   1.43064   98.212
 5058.00    1.42294   1.43504   97.828
 5059.00    1.42819   1.43810   97.537
 5060.00    1.41469   1.43960   98.281
 5061.00    1.40287   1.43832   -1.000
 5062.00    1.40520   1.43268   -1.000
 5063.00    1.39937   1.42263  106.150
 5064.00    1.37039   1.41025   -1.000
 5065.00    1.35986   1.39927   -1.000
 5066.00    1.36338   1.39249   -1.000
 5067.00    1.36532   1.39021  103.148
 5068.00    1.36609   1.39126  102.550
 5069.00    1.36685   1.39376   -1.000
 5070.00    1.37359   1.39600  103.536
 5071.00    1.38794   1.39691  103.211
 5072.00    1.38846   1.39647  102.152
 5073.00    1.37560   1.39546  101.722
 5074.00    1.37372   1.39421  101.628
 5075.00    1.37545   1.39236  102.129
 5076.00    1.37050   1.38849  104.529
 5077.00    1.35871   1.38123  108.962
 5078.00    1.35211   1.37083  112.061
 5079.00    1.34259   1.36017  111.265
 5080.00    1.31634   1.35329   -1.000
 5081.00    1.31117   1.35228   -1.000
 5082.00    1.33396   1.35697  105.234
 5083.00    1.34017   1.36596   -1.000
 5084.00    1.36136   1.37738  102.132
 5085.00    1.38777   1.38910  101.745
 5086.00    1.38316   1.39947  101.411
 5087.00    1.39303   1.40750  100.768
 5088.00    1.40696   1.41337  100.130
 5089.00    1.40654   1.41815   99.599
 5090.00    1.39806   1.42272   98.731
 5091.00    1.47250   1.42755   -1.000
 5092.00    1.64434   1.43211   -1.000
 5093.00    1.57167   1.43469   -1.000
 5094.00    1.41932   1.43358  101.523
 5095.00    1.39529   1.42745   -1.000
 5096.00    1.37516   1.41707   -1.000
 5097.00    1.38163   1.40523  107.389
 5098.00    1.36688   1.39537   -1.000
 5099.00    1.35045   1.39138   -1.000
 5100.00    1.36362   1.39401   -1.000
 5101.00    1.38887   1.40100  101.226
 5102.00    1.40010   1.40841  102.263
 5103.00    1.39802   1.41258  103.600
 5104.00    1.39343   1.41166  104.886
 5105.00    1.37748   1.40589   -1.000
 5106.00    1.36138   1.39676   -1.000
 5107.00    1.35170   1.38766   -1.000
 5108.00    1.34265   1.38161   -1.000
 5109.00    1.34216   1.38062   -1.000
 5110.00    1.35948   1.38535   -1.000
 5111.00    1.37854   1.39483  101.637
 5112.00    1.39456   1.40657  100.578
 5113.00    1.40447   1.41828   99.883
 5114.00    1.41533   1.42850   99.062
 5115.00    1.42043   1.43664   98.126
 5116.00    1.41991   1.44275   97.931
 5117.00    1.41692   1.44648   -1.000
 5118.00    1.40658   1.44699   -1.000
 5119.00    1.40865   1.44343   -1.000
 5120.00    1.39727   1.43556   -1.000
 5121.00    1.37983   1.42420   -1.000
 5122.00    1.38324   1.41110   -1.000
 5123.00    1.36800   1.39883   -1.000
 5124.00    1.34689   1.38972   -1.000
 5125.00    1.34796   1.38467   -1.000
 5126.00    1.35564   1.38285   -1.000
 5127.00    1.37014   1.38304  107.074
 5128.00    1.37600   1.38466  106.231
 5129.00    1.36812   1.38786  104.570
 5130.00    1.37799   1.39329  103.307
 5131.00    1.39152   1.40051  102.405
 5132.00    1.38969   1.40819  101.466
 5133.00    1.37963   1.41477   -1.000
 5134.00    1.38061   1.41867   -1.000
 5135.00    1.38775   1.41860   -1.000
 5136.00    1.38708   1.41412   -1.000
 5137.00    1.38175   1.40603  106.967
 5138.00    1.35469   1.39707   -1.000
 5139.00    1.33458   1.39021   -1.000
 5140.00    1.32770   1.38717   -1.000
 5141.00    1.33475   1.38758   -1.000
 5142.00    1.33377   1.39021   -1.000
 5143.00    1.32937   1.39424   -1.000
 5144.00    1.34292   1.39865   -1.000
 5145.00    1.36420   1.40196   -1.000
 5146.00    1.37508   1.40362   -1.000
 5147.00    1.36757   1.40368   -1.000
 5148.00    1.36650   1.40209   -1.000
 5149.00    1.37226   1.39899   -1.000
 5150.00    1.37063   1.39464   -1.000
 5151.00    1.35803   1.39006   -1.000
 5152.00    1.35689   1.38767   -1.000
 5153.00    1.37509   1.38902  104.809
 5154.00    1.38313   1.39520  102.127
 5155.00    1.36761   1.40593   -1.000
 5156.00    1.38028   1.41908   -1.000
 5157.00    1.42485   1.43171   98.433
 5158.00    1.42752   1.44138   98.633
 5159.00    1.41317   1.44651   -1.000
 5160.00    1.41466   1.44646   -1.000
 5161.00    1.40687   1.44113   -1.000
 5162.00    1.39601   1.42996   -1.000
 5163.00    1.38845   1.41117  110.939
 5164.00    1.37934   1.38254  121.629
 5165.00    1.35018   1.34431  131.892
 5166.00    1.28980   1.30154  133.900
 5167.00    1.22722   1.26515   -1.000
 5168.00    1.19835   1.24301   -1.000
 5169.00    1.22810   1.23594  127.701
 5170.00    1.26757   1.23720   -1.000
 5171.00    1.25861   1.24010  136.979
 5172.00    1.24292   1.24677  125.375
 5173.00    1.25220   1.26304  113.549
 5174.00    1.29312   1.29219  107.261
 5175.00    1.34329   1.32944  104.982
 5176.00    1.39070   1.36509  104.418
 5177.00    1.41490   1.39115  104.955
 5178.00    1.41363   1.40275  107.551
 5179.00    1.41421   1.39883  113.685
 5180.00    1.41540   1.38029   -1.000
 5181.00    1.40697   1.34932   -1.000
 5182.00    1.34966   1.31455   -1.000
 5183.00    1.27560   1.28822  124.973
 5184.00    1.25627   1.28213   -1.000
 5185.00    1.30830   1.29830  106.753
 5186.00    1.35741   1.32731  104.956
 5187.00    1.37481   1.35756  104.373
 5188.00    1.38051   1.37916  104.865
 5189.00    1.36995   1.38868  107.326
 5190.00    1.38027   1.38779  110.547
 5191.00    1.39176   1.38089  111.283
 5192.00    1.36981   1.37363  109.701
 5193.00    1.35141   1.37061  107.946
 5194.00    1.34653   1.37320   -1.000
 5195.00    1.37772   1.38088  104.462
 5196.00    1.40231   1.39202  102.538
 5197.00    1.41062   1.40400  101.341
 5198.00    1.43311   1.41501  100.967
 5199.00    1.43580   1.42309  101.428
 5200.00    1.41182   1.42611  102.877
 5201.00    1.40304   1.42216  105.064
 5202.00    1.40349   1.41075  108.019
 5203.00    1.38859   1.39303  111.407
 5204.00    1.37805   1.37226  113.034
 5205.00    1.35951   1.35338  113.480
 5206.00    1.33980   1.34015  114.144
 5207.00    1.33785   1.33448  113.419
 5208.00    1.34969   1.33690  110.460
 5209.00    1.37276   1.34787  106.292
 5210.00    1.38920   1.36655  102.061
 5211.00    1.40273   1.38882   99.204
 5212.00    1.42162   1.40978   99.079
 5213.00    1.44341   1.42404  101.010
 5214.00    1.44510   1.42948  102.744
 5215.00    1.41860   1.42900  102.694
 5216.00    1.40799   1.42796  100.954
 5217.00    1.41063   1.43137   99.130
 5218.00    1.41156   1.44012   98.093
 5219.00    1.43642   1.45171   97.575
 5220.00    1.46178   1.46172   98.187
 5221.00    1.45248   1.46591  100.540
 5222.00    1.45803   1.46118  104.311
 5223.00    1.45984   1.44664  109.010
 5224.00    1.42678   1.42412  112.892
 5225.00    1.39196   1.39901  112.591
 5226.00    1.36029   1.37948  107.649
 5227.00    1.34489   1.37333   -1.000
 5228.00    1.36063   1.38161   99.830
 5229.00    1.40866   1.39858   99.096
 5230.00    1.43932   1.41506  100.289
 5231.00    1.43239   1.42459  102.238
 5232.00    1.43056   1.42643  102.806
 5233.00    1.43363   1.42543  101.213
 5234.00    1.42622   1.42813   98.776
 5235.00    1.42430   1.43677   97.179
 5236.00    1.44968   1.44995   96.731
 5237.00    1.48335   1.46349   96.911
 5238.00    1.49555   1.47366   96.936
 5239.00    1.48670   1.47944   96.503
 5240.00    1.48181   1.48158   96.361
 5241.00    1.49462   1.48181   96.317
 5242.00    1.48817   1.48150   96.136
 5243.00    1.47458   1.48073   97.255
 5244.00    1.48273   1.47841   99.942
 5245.00    1.48912   1.47300  102.620
 5246.00    1.45893   1.46427  103.680
 5247.00    1.43537   1.45418  103.842
 5248.00    1.44849   1.44538  104.329
 5249.00    1.44641   1.43924  104.294
 5250.00    1.42825   1.43665  103.174
 5251.00    1.42200   1.43772  101.971
 5252.00    1.42067   1.44099  101.606
 5253.00    1.42843   1.44550  101.187
 5254.00    1.46122   1.45130   99.414
 5255.00    1.49109   1.45866   -1.000
 5256.00    1.48893   1.46785   95.282
 5257.00    1.48852   1.47670   95.559
 5258.00    1.48794   1.48163   97.563
 5259.00    1.46806   1.47925  101.193
 5260.00    1.45455   1.46733  105.858
 5261.00    1.44564   1.44686  110.077
 5262.00    1.41735   1.42185  112.901
 5263.00    1.36747   1.39686   -1.000
 5264.00    1.33635   1.37632   -1.000
 5265.00    1.33953   1.36202  110.701
 5266.00    1.34811   1.35299  111.434
 5267.00    1.35749   1.34636  115.270
 5268.00    1.35273   1.33933  115.876
 5269.00    1.33744   1.33487  110.568
 5270.00    1.33405   1.33854  105.012
 5271.00    1.34720   1.35305  102.707
 5272.00    1.38665   1.37522  102.436
 5273.00    1.43469   1.39845   -1.000
 5274.00    1.45770   1.41889   -1.000
 5275.00    1.45082   1.43514   98.043
 5276.00    1.44963   1.44919   95.609
 5277.00    1.47130   1.46250   95.345
 5278.00    1.47921   1.47259   97.060
 5279.00    1.46199   1.47643   99.572
 5280.00    1.46130   1.47286  101.690
 5281.00    1.46970   1.46428  102.677
 5282.00    1.48140   1.45546  101.510
 5283.00    1.43554   1.45235   98.716
 5284.00    1.41625   1.45801   -1.000
 5285.00    1.46130   1.47156   94.038
 5286.00    1.50628   1.48851   94.152
 5287.00    1.51434   1.50374   94.360
 5288.00    1.51153   1.51467   93.988
 5289.00    1.52522   1.52057   93.644
 5290.00    1.52898   1.52246   93.929
 5291.00    1.53296   1.52175   94.716
 5292.00    1.51907   1.51895   95.851
 5293.00    1.49771   1.51354   97.970
 5294.00    1.49409   1.50459  101.371
 5295.00    1.48349   1.49173  104.570
 5296.00    1.47251   1.47661  105.144
 5297.00    1.46020   1.46311  103.104
 5298.00    1.45909   1.45532  100.879
 5299.00    1.46872   1.45522   99.807
 5300.00    1.47118   1.46145   98.826
 5301.00    1.48249   1.47170   96.657
 5302.00    1.49050   1.48383   94.541
 5303.00    1.50341   1.49584   93.777
 5304.00    1.52098   1.50622   94.311
 5305.00    1.53533   1.51350   95.201
 5306.00    1.53835   1.51749   95.098
 5307.00    1.53966   1.51942   94.193
 5308.00    1.53759   1.52088   93.442
 5309.00    1.51773   1.52295   93.297
 5310.00    1.52964   1.52500   93.686
 5311.00    1.54847   1.52568   94.147
 5312.00    1.53555   1.52414   94.728
 5313.00    1.52237   1.51976   95.585
 5314.00    1.51963   1.51325   96.478
 5315.00    1.51752   1.50626   96.802
 5316.00    1.51972   1.50071   96.327
 5317.00    1.51260   1.49863   95.787
 5318.00    1.50575   1.49968   95.877
 5319.00    1.50899   1.50192   96.459
 5320.00    1.50518   1.50261   97.440
 5321.00    1.50214   1.49933   98.964
 5322.00    1.49116   1.49107  100.192
 5323.00    1.45959   1.47842  100.472
 5324.00    1.43074   1.46307   -1.000
 5325.00    1.45282   1.44518  107.499
 5326.00    1.47412   1.42513   -1.000
 5327.00    1.43899   1.40701   -1.000
 5328.00    1.40346   1.39730  104.588
 5329.00    1.39828   1.40207  100.165
 5330.00    1.43319   1.41982   98.426
 5331.00    1.47975   1.44352   -1.000
 5332.00    1.50367   1.46673   -1.000
 5333.00    1.50450   1.48438   95.769
 5334.00    1.49801   1.49493   96.043
 5335.00    1.49311   1.49959   96.692
 5336.00    1.48142   1.49934   97.598
 5337.00    1.48119   1.49474   99.589
 5338.00    1.48972   1.48666  101.656
 5339.00    1.48432   1.47732  101.705
 5340.00    1.46900   1.47027   99.533
 5341.00    1.46044   1.46913   97.384
 5342.00    1.46967   1.47362   96.799
 5343.00    1.50338   1.48049   97.257
 5344.00    1.53111   1.48644   -1.000
 5345.00    1.49608   1.48879   98.435
 5346.00    1.47833   1.48750   99.180
 5347.00    1.48756   1.48484   99.659
 5348.00    1.49429   1.48308   98.705
 5349.00    1.49741   1.48476   96.620
 5350.00    1.50053   1.49099   95.038
 5351.00    1.51717   1.50036   94.463
 5352.00    1.54094   1.51131   -1.000
 5353.00    1.56261   1.52187   -1.000
 5354.00    1.55751   1.53122   91.954
 5355.00    1.55879   1.53900   91.786
 5356.00    1.56342   1.54459   91.929
 5357.00    1.54445   1.54783   92.199
 5358.00    1.54552   1.54832   93.032
 5359.00    1.55443   1.54565   94.458
 5360.00    1.54289   1.54014   95.928
 5361.00    1.53651   1.53243   96.845
 5362.00    1.53189   1.52361   97.427
 5363.00    1.50504   1.51478   98.005
 5364.00    1.49709   1.50696   98.005
 5365.00    1.47963   1.50074   97.874
 5366.00    1.46780   1.49524   98.542
 5367.00    1.48570   1.48860  100.536
 5368.00    1.49670   1.47898  103.456
 5369.00    1.48827   1.46679  104.747
 5370.00    1.46576   1.45570  102.188
 5371.00    1.46718   1.45141   97.675
 5372.00    1.46691   1.45808   94.563
 5373.00    1.49047   1.47384   93.383
 5374.00    1.52432   1.49377   -1.000
 5375.00    1.55329   1.51173   -1.000
 5376.00    1.57428   1.52418   -1.000
 5377.00    1.56604   1.53094   -1.000
 5378.00    1.55899   1.53285   -1.000
 5379.00    1.55120   1.53135   95.843
 5380.00    1.53913   1.52758   96.469
 5381.00    1.53248   1.52273   96.568
 5382.00    1.52156   1.51868   96.225
 5383.00    1.51867   1.51691   95.367
 5384.00    1.52707   1.51826   94.887
 5385.00    1.52917   1.52202   95.140
 5386.00    1.53751   1.52574   95.919
 5387.00    1.54554   1.52709   97.227
 5388.00    1.52430   1.52473   98.466
 5389.00    1.52464   1.51876   99.111
 5390.00    1.53220   1.51094   99.268
 5391.00    1.50517   1.50290   99.478
 5392.00    1.49386   1.49542  100.085
 5393.00    1.49244   1.48839  101.234
 5394.00    1.49056   1.48105  103.075
 5395.00    1.49611   1.47293  103.824
 5396.00    1.48673   1.46559  101.672
 5397.00    1.47932   1.46304   98.629
 5398.00    1.49177   1.46706   97.323
 5399.00    1.49549   1.47585   97.325
 5400.00    1.49863   1.48526   97.927
 5401.00    1.47957   1.49025  100.208
 5402.00    1.48402   1.48723  103.483
 5403.00    1.47825   1.47619  105.634
 5404.00    1.45972   1.46147  105.305
 5405.00    1.45279   1.44927  103.335
 5406.00    1.45549   1.44459  102.003
 5407.00    1.45574   1.44716  102.372
 5408.00    1.48531   1.45419   -1.000
 5409.00    1.50586   1.46292   -1.000
 5410.00    1.48881   1.47265   97.803
 5411.00    1.49117   1.48368   96.402
 5412.00    1.50572   1.49473   96.160
 5413.00    1.53441   1.50473   -1.000
 5414.00    1.55065   1.51292   -1.000
 5415.00    1.53935   1.51922   95.087
 5416.00    1.52288   1.52442   95.170
 5417.00    1.51871   1.52849   95.975
 5418.00    1.53426   1.53102   96.685
 5419.00    1.55264   1.53177   96.583
 5420.00    1.54710   1.53043   96.166
 5421.00    1.53781   1.52745   96.974
 5422.00    1.53531   1.52385   98.067
 5423.00    1.51916   1.52046   97.601
 5424.00    1.51222   1.51886   96.075
 5425.00    1.51236   1.51931   95.763
 5426.00    1.50296   1.51968   97.742
 5427.00    1.51121   1.51706  100.824
 5428.00    1.52714   1.50994  101.962
 5429.00    1.51594   1.50093  100.644
 5430.00    1.48770   1.49337  100.000
 5431.00    1.47224   1.48825  101.036
 5432.00    1.48212   1.48510  102.334
 5433.00    1.50169   1.48276  102.422
 5434.00    1.49488   1.48262  100.836
 5435.00    1.47621   1.48716   98.235
 5436.00    1.49247   1.49730   95.961
 5437.00    1.54086   1.51225   -1.000
 5438.00    1.55461   1.52861   93.510
 5439.00    1.55975   1.54306   93.179
 5440.00    1.56790   1.55324   93.145
 5441.00    1.55334   1.55778   93.833
 5442.00    1.53537   1.55584   95.909
 5443.00    1.53927   1.54662   99.495
 5444.00    1.52242   1.53068  103.091
 5445.00    1.51156   1.51134  103.559
 5446.00    1.49775   1.49486  100.850
 5447.00    1.48049   1.48719   97.834
 5448.00    1.48146   1.49000   96.380
 5449.00    1.51379   1.50017   96.168
 5450.00    1.53665   1.51136   96.773
 5451.00    1.53910   1.51785   98.627
 5452.00    1.53929   1.51653  101.356
 5453.00    1.52534   1.50802  103.792
 5454.00    1.51226   1.49653  103.375
 5455.00    1.50318   1.48879  100.275
 5456.00    1.50036   1.48949   97.267
 5457.00    1.51314   1.49881   96.120
 5458.00    1.53652   1.51201   96.816
 5459.00    1.56306   1.52345   -1.000
 5460.00    1.57847   1.52929   -1.000
 5461.00    1.57582   1.52880   -1.000
 5462.00    1.55638   1.52488   -1.000
 5463.00    1.54113   1.52166   98.773
 5464.00    1.53706   1.52163   98.113
 5465.00    1.53340   1.52477   97.221
 5466.00    1.53466   1.52975   96.595
 5467.00    1.53826   1.53471   97.143
 5468.00    1.54352   1.53813   98.172
 5469.00    1.53781   1.53931   98.717
 5470.00    1.53459   1.53786   99.157
 5471.00    1.54567   1.53400  100.033
 5472.00    1.53421   1.52784  101.358
 5473.00    1.51819   1.51934  103.330
 5474.00    1.52068   1.50907  105.147
 5475.00    1.53724   1.49891   -1.000
 5476.00    1.51390   1.49176  102.254
 5477.00    1.48501   1.49089   99.907
 5478.00    1.49279   1.49600   99.942
 5479.00    1.51186   1.50371  101.131
 5480.00    1.53523   1.51125  101.362
 5481.00    1.55784   1.51732   -1.000
 5482.00    1.54157   1.52257   97.974
 5483.00    1.52999   1.52834   96.787
 5484.00    1.52809   1.53421   97.254
 5485.00    1.52652   1.53877   98.582
 5486.00    1.53646   1.54057   99.408
 5487.00    1.55568   1.53982   99.557
 5488.00    1.56150   1.53809   99.042
 5489.00    1.55760   1.53722   98.304
 5490.00    1.55073   1.53802   97.842
 5491.00    1.54316   1.53996   97.908
 5492.00    1.54007   1.54167   98.014
 5493.00    1.55091   1.54187   98.006
 5494.00    1.54940   1.53999   98.518
 5495.00    1.56700   1.53622   -1.000
 5496.00    1.57020   1.53152   -1.000
 5497.00    1.54869   1.52762   98.049
 5498.00    1.54065   1.52547   98.287
 5499.00    1.53917   1.52400   99.717
 5500.00    1.53732   1.52223  100.310
 5501.00    1.52787   1.52011   99.708
 5502.00    1.51816   1.51826   99.303
 5503.00    1.53687   1.51693  100.243
 5504.00    1.55436   1.51519   -1.000
 5505.00    1.52886   1.51316  100.974
 5506.00    1.50153   1.51215   99.475
 5507.00    1.50096   1.51325   98.707
 5508.00    1.50941   1.51662   99.102
 5509.00    1.53336   1.52005  100.727
 5510.00    1.54245   1.52120  102.523
 5511.00    1.53332   1.51943  103.637
 5512.00    1.52505   1.51573  102.966
 5513.00    1.51442   1.51289  101.249
 5514.00    1.52411   1.51333   99.638
 5515.00    1.53683   1.51795   97.870
 5516.00    1.55559   1.52607   -1.000
 5517.00    1.57209   1.53595   -1.000
 5518.00    1.57939   1.54528   -1.000
 5519.00    1.57249   1.55250   95.845
 5520.00    1.57725   1.55687   96.142
 5521.00    1.58904   1.55874   -1.000
 5522.00    1.58581   1.55838   -1.000
 5523.00    1.56739   1.55527   97.952
 5524.00    1.55641   1.54879   99.989
 5525.00    1.55212   1.53844  102.534
 5526.00    1.53247   1.52601  103.684
 5527.00    1.51333   1.51513  102.122
 5528.00    1.50590   1.51000   99.463
 5529.00    1.51916   1.51247   97.804
 5530.00    1.52806   1.52030   97.652
 5531.00    1.56445   1.52933   -1.000
 5532.00    1.57569   1.53594   -1.000
 5533.00    1.56514   1.53900   -1.000
 5534.00    1.54945   1.53972   98.194
 5535.00    1.55423   1.54067   97.790
 5536.00    1.56717   1.54320   97.430
 5537.00    1.56091   1.54743   96.607
 5538.00    1.56681   1.55264   95.778
 5539.00    1.57054   1.55762   95.617
 5540.00    1.56312   1.56124   96.383
 5541.00    1.56572   1.56280   97.394
 5542.00    1.56516   1.56232   97.837
 5543.00    1.55756   1.56079   97.678
 5544.00    1.56135   1.55952   97.429
 5545.00    1.58143   1.55950   96.920
 5546.00    1.58934   1.56127   -1.000
 5547.00    1.58164   1.56495   95.181
 5548.00    1.57638   1.56970   94.816
 5549.00    1.58406   1.57385   95.152
 5550.00    1.59012   1.57628   95.922
 5551.00    1.59099   1.57650   96.967
 5552.00    1.59277   1.57486   97.611
 5553.00    1.59236   1.57220   97.604
 5554.00    1.58192   1.56973   97.319
 5555.00    1.57015   1.56811   97.113
 5556.00    1.57054   1.56750   96.985
 5557.00    1.58886   1.56763   96.876
 5558.00    1.59918   1.56805   -1.000
 5559.00    1.58278   1.56821   97.441
 5560.00    1.57312   1.56742   98.319
 5561.00    1.56374   1.56542   99.104
 5562.00    1.57112   1.56267   99.479
 5563.00    1.57561   1.55972   99.691
 5564.00    1.57558   1.55688   99.818
 5565.00    1.57085   1.55408   99.683
 5566.00    1.55844   1.55143   99.464
 5567.00    1.54993   1.54893   99.629
 5568.00    1.55117   1.54651   99.663
 5569.00    1.52642   1.54454   99.639
 5570.00    1.48104   1.54291   -1.000
 5571.00    1.30122   1.54135   -1.000
 5572.00    0.56984   1.54080   -1.000
 5573.00   -1.30649   1.54190    0.000
 5574.00   -3.39813   1.54492    0.000
 5575.00   -2.92600   1.54947    0.000
 5576.00    0.28193   1.55471   -1.000
 5577.00    4.39907   1.55985   -1.000
 5578.00    5.37441   1.56412   -1.000
 5579.00    3.45874   1.56681   -1.000
 5580.00    2.03754   1.56757   -1.000
 5581.00    1.65194   1.56653   -1.000
 5582.00    1.55888   1.56355   98.596
 5583.00    1.54977   1.55812  100.416
 5584.00    1.55385   1.54921  102.946
 5585.00    1.53404   1.53683  105.340
 5586.00    1.51506   1.52297  106.517
 5587.00    1.50393   1.51088  105.713
 5588.00    1.50797   1.50401  103.898
 5589.00    1.51147   1.50379  102.323
 5590.00    1.52190   1.50943  101.753
 5591.00    1.53203   1.51784  102.025
 5592.00    1.52935   1.52618  101.678
 5593.00    1.53658   1.53299  100.378
 5594.00    1.55514   1.53830   99.372
 5595.00    1.54745   1.54207   99.907
 5596.00    1.54823   1.54313  101.523
 5597.00    1.55522   1.54097  102.795
 5598.00    1.53803   1.53650  102.982
 5599.00    1.53550   1.53082  103.379
 5600.00    1.53993   1.52566  103.924
 5601.00    1.54407   1.52366  102.732
 5602.00    1.53258   1.52688  100.106
 5603.00    1.52260   1.53567   97.680
 5604.00    1.56199   1.54862   96.278
 5605.00    1.59161   1.56280   -1.000
 5606.00    1.60202   1.57550   -1.000
 5607.00    1.61662   1.58501   -1.000
 5608.00    1.63171   1.59094   -1.000
 5609.00    1.61806   1.59384   95.870
 5610.00    1.62054   1.59392   -1.000
 5611.00    1.61133   1.59052   97.799
 5612.00    1.58245   1.58269  100.937
 5613.00    1.56091   1.57065  103.608
 5614.00    1.55197   1.55703  103.473
 5615.00    1.54241   1.54688  101.260
 5616.00    1.54077   1.54327   99.585
 5617.00    1.56204   1.54629   99.124
 5618.00    1.59543   1.55334   -1.000
 5619.00    1.59927   1.56122   -1.000
 5620.00    1.57394   1.56729   98.473
 5621.00    1.55118   1.57011  100.108
 5622.00    1.55654   1.56936  102.045
 5623.00    1.58661   1.56632  102.129
 5624.00    1.60025   1.56322   -1.000
 5625.00    1.57809   1.56226   99.072
 5626.00    1.57748   1.56438   97.871
 5627.00    1.57396   1.56895   97.062
 5628.00    1.59306   1.57489   96.702
 5629.00    1.59673   1.58058   96.350
 5630.00    1.60247   1.58477   96.336
 5631.00    1.63000   1.58697   -1.000
 5632.00    1.63790   1.58718   -1.000
 5633.00    1.59893   1.58582   98.326
 5634.00    1.58240   1.58317   99.027
 5635.00    1.60753   1.57959   -1.000
 5636.00    1.60680   1.57581   -1.000
 5637.00    1.59596   1.57252   99.769
 5638.00    1.58559   1.56997  100.010
 5639.00    1.58325   1.56808  100.141
 5640.00    1.59738   1.56683   -1.000
 5641.00    1.58630   1.56644   99.364
 5642.00    1.57063   1.56722   99.141
 5643.00    1.57948   1.56894   98.569
 5644.00    1.60231   1.57119   -1.000
 5645.00    1.59957   1.57356   -1.000
 5646.00    1.59162   1.57558   97.771
 5647.00    1.60152   1.57713   97.932
 5648.00    1.60313   1.57840   97.990
 5649.00    1.60320   1.57968   97.364
 5650.00    1.59275   1.58128   96.971
 5651.00    1.58847   1.58277   97.229
 5652.00    1.59712   1.58324   97.944
 5653.00    1.59465   1.58167   98.866
 5654.00    1.56970   1.57725  100.571
 5655.00    1.58684   1.56953  103.463
 5656.00    1.58706   1.55916   -1.000
 5657.00    1.56089   1.54882  104.617
 5658.00    1.54816   1.54179  102.392
 5659.00    1.54032   1.53985  101.593
 5660.00    1.56532   1.54254  101.702
 5661.00    1.58174   1.54802   -1.000
 5662.00    1.58630   1.55514   -1.000
 5663.00    1.60229   1.56266   -1.000
 5664.00    1.59768   1.56878   -1.000
 5665.00    1.60549   1.57237   -1.000
 5666.00    1.59514   1.57335  100.014
 5667.00    1.59859   1.57270   -1.000
 5668.00    1.60427   1.57204   -1.000
 5669.00    1.60094   1.57271   -1.000
 5670.00    1.60864   1.57537   -1.000
 5671.00    1.63659   1.57976   -1.000
 5672.00    1.63812   1.58489   -1.000
 5673.00    1.63882   1.58960   -1.000
 5674.00    1.64237   1.59335   -1.000
 5675.00    1.64024   1.59600   -1.000
 5676.00    1.64839   1.59749   -1.000
 5677.00    1.62752   1.59756   -1.000
 5678.00    1.62145   1.59589   -1.000
 5679.00    1.60681   1.59235   98.614
 5680.00    1.60600   1.58713   99.802
 5681.00    1.61506   1.58094   -1.000
 5682.00    1.63336   1.57516   -1.000
 5683.00    1.63643   1.57126   -1.000
 5684.00    1.63405   1.56961   -1.000
 5685.00    1.63855   1.56943   -1.000
 5686.00    1.62907   1.56980   -1.000
 5687.00    1.63234   1.57050   -1.000
 5688.00    1.64363   1.57197   -1.000
 5689.00    1.63249   1.57498   -1.000
 5690.00    1.64250   1.57980   -1.000
 5691.00    1.65075   1.58576   -1.000
 5692.00    1.64365   1.59147   -1.000
 5693.00    1.63974   1.59578   -1.000
 5694.00    1.63011   1.59808   -1.000
 5695.00    1.62078   1.59823   -1.000
 5696.00    1.62059   1.59633   -1.000
 5697.00    1.61951   1.59264   -1.000
 5698.00    1.59016   1.58770  100.814
 5699.00    1.57948   1.58241  101.401
 5700.00    1.58695   1.57777  100.854
 5701.00    1.59283   1.57480   99.819
 5702.00    1.57327   1.57398   99.420
 5703.00    1.54697   1.57438   99.943
 5704.00    1.56798   1.57423  101.248
 5705.00    1.57057   1.57194  103.080
 5706.00    1.56661   1.56678  104.760
 5707.00    1.56358   1.55949  105.547
 5708.00    1.55815   1.55192  105.428
 5709.00    1.55313   1.54662  104.474
 5710.00    1.53984   1.54556  102.490
 5711.00    1.53851   1.54947   99.995
 5712.00    1.55355   1.55744   98.284
 5713.00    1.58386   1.56757   97.749
 5714.00    1.61313   1.57765   -1.000
 5715.00    1.63666   1.58645   -1.000
 5716.00    1.63282   1.59343   -1.000
 5717.00    1.62423   1.59879   -1.000
 5718.00    1.61472   1.60316   95.711
 5719.00    1.63426   1.60708   -1.000
 5720.00    1.63465   1.61059   -1.000
 5721.00    1.62531   1.61343   95.173
 5722.00    1.63197   1.61526   95.341
 5723.00    1.64592   1.61552   -1.000
 5724.00    1.66188   1.61378   -1.000
 5725.00    1.65254   1.61022   -1.000
 5726.00    1.64314   1.60608   -1.000
 5727.00    1.61774   1.60275   96.958
 5728.00    1.60778   1.60107   97.079
 5729.00    1.61613   1.60108   97.560
 5730.00    1.63673   1.60238   -1.000
 5731.00    1.64144   1.60458   -1.000
 5732.00    1.64192   1.60747   -1.000
 5733.00    1.63447   1.61075   -1.000
 5734.00    1.63316   1.61363   95.893
 5735.00    1.63345   1.61566   96.154
 5736.00    1.62251   1.61679   96.267
 5737.00    1.62874   1.61708   96.447
 5738.00    1.64211   1.61696   -1.000
 5739.00    1.64440   1.61678   -1.000
 5740.00    1.63391   1.61671   96.659
 5741.00    1.62870   1.61671   96.532
 5742.00    1.62229   1.61705   95.927
 5743.00    1.61692   1.61785   95.361
 5744.00    1.63647   1.61880   95.715
 5745.00    1.64693   1.61927   -1.000
 5746.00    1.63215   1.61893   97.105
 5747.00    1.62557   1.61804   96.672
 5748.00    1.63628   1.61715   96.307
 5749.00    1.63874   1.61607   -1.000
 5750.00    1.64270   1.61424   -1.000
 5751.00    1.63025   1.61130   99.070
 5752.00    1.62350   1.60792   99.211
 5753.00    1.63619   1.60589   -1.000
 5754.00    1.61359   1.60674   96.356
 5755.00    1.60177   1.61069   95.100
 5756.00    1.62479   1.61628   95.175
 5757.00    1.63812   1.62127   96.154
 5758.00    1.61721   1.62338   97.405
 5759.00    1.63458   1.62181   98.733
 5760.00    1.66905   1.61757   -1.000
 5761.00    1.64353   1.61309   -1.000
 5762.00    1.61497   1.61106   96.838
 5763.00    1.62652   1.61292   95.553
 5764.00    1.62780   1.61793   95.129
 5765.00    1.63220   1.62396   95.019
 5766.00    1.63492   1.62924   94.870
 5767.00    1.62750   1.63256   95.005
 5768.00    1.63317   1.63367   95.310
 5769.00    1.62659   1.63295   95.810
 5770.00    1.64701   1.63120   96.402
 5771.00    1.65601   1.62888   -1.000
 5772.00    1.64302   1.62625   96.830
 5773.00    1.63416   1.62346   96.677
 5774.00    1.63887   1.62081   96.227
 5775.00    1.60433   1.61858   96.067
 5776.00    1.56844   1.61639   -1.000
 5777.00    1.55999   1.61349   -1.000
 5778.00    1.57049   1.60921   99.669
 5779.00    1.55220   1.60341   -1.000
 5780.00    1.54231   1.59677   -1.000
 5781.00    1.56082   1.59061  100.784
 5782.00    1.59816   1.58629  100.417
 5783.00    1.61811   1.58432   -1.000
 5784.00    1.61356   1.58481   -1.000
 5785.00    1.62180   1.58754   -1.000
 5786.00    1.61559   1.59192   -1.000
 5787.00    1.59470   1.59702   96.892
 5788.00    1.61966   1.60202   97.297
 5789.00    1.63913   1.60634   -1.000
 5790.00    1.64839   1.61012   -1.000
 5791.00    1.64774   1.61406   -1.000
 5792.00    1.62763   1.61873   95.252
 5793.00    1.61369   1.62384   95.106
 5794.00    1.61384   1.62840   95.588
 5795.00    1.62469   1.63140   96.208
 5796.00    1.63921   1.63262   95.919
 5797.00    1.65076   1.63314   94.789
 5798.00    1.64432   1.63432   93.484
 5799.00    1.65831   1.63674   -1.000
 5800.00    1.68345   1.63986   -1.000
 5801.00    1.68801   1.64249   -1.000
 5802.00    1.67163   1.64356   -1.000
 5803.00    1.66768   1.64292   -1.000
 5804.00    1.64249   1.64147   95.625
 5805.00    1.64489   1.64031   95.273
 5806.00    1.66302   1.64022   -1.000
 5807.00    1.67873   1.64118   -1.000
 5808.00    1.67310   1.64273   -1.000
 5809.00    1.68118   1.64429   -1.000
 5810.00    1.67420   1.64534   -1.000
 5811.00    1.67355   1.64542   -1.000
 5812.00    1.66333   1.64429   95.065
 5813.00    1.67511   1.64205   -1.000
 5814.00    1.69060   1.63938   -1.000
 5815.00    1.68846   1.63747   -1.000
 5816.00    1.66084   1.63743   -1.000
 5817.00    1.65653   1.63938   93.557
 5818.00    1.67947   1.64260   -1.000
 5819.00    1.68128   1.64600   -1.000
 5820.00    1.69099   1.64877   -1.000
 5821.00    1.70204   1.65047   -1.000
 5822.00    1.69922   1.65118   -1.000
 5823.00    1.69138   1.65142   -1.000
 5824.00    1.69046   1.65172   -1.000
 5825.00    1.69461   1.65246   -1.000
 5826.00    1.70197   1.65367   -1.000
 5827.00    1.69756   1.65526   -1.000
 5828.00    1.71637   1.65684   -1.000
 5829.00    1.71430   1.65793   -1.000
 5830.00    1.69886   1.65822   -1.000
 5831.00    1.68594   1.65762   -1.000
 5832.00    1.69296   1.65627   -1.000
 5833.00    1.68577   1.65453   -1.000
 5834.00    1.68972   1.65303   -1.000
 5835.00    1.70021   1.65230   -1.000
 5836.00    1.69342   1.65248   -1.000
 5837.00    1.70605   1.65354   -1.000
 5838.00    1.72225   1.65528   -1.000
 5839.00    1.71844   1.65729   -1.000
 5840.00    1.70793   1.65898   -1.000
 5841.00    1.69989   1.65974   -1.000
 5842.00    1.68466   1.65914   -1.000
 5843.00    1.67302   1.65717   93.770
 5844.00    1.67516   1.65416   -1.000
 5845.00    1.68285   1.65064   -1.000
 5846.00    1.68776   1.64713   -1.000
 5847.00    1.70288   1.64394   -1.000
 5848.00    1.68785   1.64091   -1.000
 5849.00    1.66020   1.63757   -1.000
 5850.00    1.68079   1.63332   -1.000
 5851.00    1.68073   1.62804   -1.000
 5852.00    1.66503   1.62230   -1.000
 5853.00    1.65882   1.61672   -1.000
 5854.00    1.65231   1.61128   -1.000
 5855.00    1.65137   1.60576   -1.000
 5856.00    1.65019   1.60082   -1.000
 5857.00    1.66941   1.59792   -1.000
 5858.00    1.67429   1.59825   -1.000
 5859.00    1.66905   1.60178   -1.000
 5860.00    1.66940   1.60730   -1.000
 5861.00    1.68043   1.61326   -1.000
 5862.00    1.65567   1.61816   -1.000
 5863.00    1.64570   1.62114   -1.000
 5864.00    1.65264   1.62215   -1.000
 5865.00    1.69491   1.62205   -1.000
 5866.00    1.72346   1.62226   -1.000
 5867.00    1.69354   1.62385   -1.000
 5868.00    1.68671   1.62687   -1.000
 5869.00    1.69656   1.63056   -1.000
 5870.00    1.70051   1.63379   -1.000
 5871.00    1.71783   1.63566   -1.000
 5872.00    1.71975   1.63589   -1.000
 5873.00    1.68495   1.63470   -1.000
 5874.00    1.70695   1.63254   -1.000
 5875.00    1.71750   1.62973   -1.000
 5876.00    1.68210   1.62629   -1.000
 5877.00    1.67193   1.62218   -1.000
 5878.00    1.67885   1.61764   -1.000
 5879.00    1.67624   1.61315   -1.000
 5880.00    1.66839   1.60907   -1.000
 5881.00    1.66317   1.60529   -1.000
 5882.00    1.64629   1.60109   -1.000
 5883.00    1.57958   1.59525   97.675
 5884.00    1.43409   1.58599   -1.000
 5885.00    1.10718   1.57091   -1.000
 5886.00    0.70698   1.54782   -1.000
 5887.00    0.85222   1.51693   -1.000
 5888.00    1.05210   1.48345   -1.000
 5889.00    1.45931   1.45578  115.609
 5890.00    1.85354   1.44036   -1.000
 5891.00    1.58327   1.43761   -1.000
 5892.00    1.08488   1.44215   -1.000
 5893.00    0.90521   1.44746   -1.000
 5894.00    1.11040   1.45031   -1.000
 5895.00    1.54363   1.45317   -1.000
 5896.00    1.67066   1.46064   -1.000
 5897.00    1.65206   1.47516   -1.000
 5898.00    1.67558   1.49605   -1.000
 5899.00    1.65918   1.52018   -1.000
 5900.00    1.66058   1.54363   -1.000
 5901.00    1.65856   1.56334   -1.000
 5902.00    1.66191   1.57818   -1.000
 5903.00    1.67352   1.58853   -1.000
 5904.00    1.68573   1.59544   -1.000
 5905.00    1.70296   1.60005   -1.000
 5906.00    1.70868   1.60338   -1.000
 5907.00    1.68608   1.60609   -1.000
 5908.00    1.67062   1.60834   -1.000
 5909.00    1.67781   1.60980   -1.000
 5910.00    1.66107   1.60984   -1.000
 5911.00    1.63629   1.60793   -1.000
 5912.00    1.64834   1.60410   -1.000
 5913.00    1.67669   1.59923   -1.000
 5914.00    1.68359   1.59482   -1.000
 5915.00    1.69567   1.59222   -1.000
 5916.00    1.66883   1.59209   -1.000
 5917.00    1.65343   1.59420   -1.000
 5918.00    1.67418   1.59759   -1.000
 5919.00    1.68589   1.60118   -1.000
 5920.00    1.66769   1.60421   -1.000
 5921.00    1.68637   1.60651   -1.000
 5922.00    1.69789   1.60845   -1.000
 5923.00    1.68611   1.61055   -1.000
 5924.00    1.69723   1.61291   -1.000
 5925.00    1.70548   1.61514   -1.000
 5926.00    1.68766   1.61652   -1.000
 5927.00    1.68628   1.61658   -1.000
 5928.00    1.67892   1.61558   -1.000
 5929.00    1.65443   1.61442   -1.000
 5930.00    1.65281   1.61388   -1.000
 5931.00    1.68762   1.61407   -1.000
 5932.00    1.73019   1.61461   -1.000
 5933.00    1.70639   1.61515   -1.000
 5934.00    1.71139   1.61574   -1.000
 5935.00    1.68530   1.61658   -1.000
 5936.00    1.67685   1.61756   -1.000
 5937.00    1.66527   1.61820   -1.000
 5938.00    1.68495   1.61790   -1.000
 5939.00    1.67640   1.61652   -1.000
 5940.00    1.65617   1.61451   -1.000
 5941.00    1.70267   1.61274   -1.000
 5942.00    1.70171   1.61219   -1.000
 5943.00    1.68881   1.61306   -1.000
 5944.00    1.67614   1.61473   -1.000
 5945.00    1.68393   1.61618   -1.000
 5946.00    1.71421   1.61670   -1.000
 5947.00    1.68900   1.61637   -1.000
 5948.00    1.66911   1.61587   -1.000
 5949.00    1.65288   1.61560   -1.000
 5950.00    1.63093   1.61565   99.321
 5951.00    1.63674   1.61583   99.272
 5952.00    1.67157   1.61587   -1.000
 5953.00    1.69791   1.61550   -1.000
 5954.00    1.68882   1.61463   -1.000
 5955.00    1.67685   1.61367   -1.000
 5956.00    1.67696   1.61341   -1.000
 5957.00    1.67416   1.61465   -1.000
 5958.00    1.69542   1.61759   -1.000
 5959.00    1.71230   1.62177   -1.000
 5960.00    1.70516   1.62621   -1.000
 5961.00    1.69205   1.62977   -1.000
 5962.00    1.69117   1.63166   -1.000
 5963.00    1.69131   1.63174   -1.000
 5964.00    1.67030   1.63058   -1.000
 5965.00    1.66196   1.62928   -1.000
 5966.00    1.67246   1.62878   -1.000
 5967.00    1.68735   1.62944   -1.000
 5968.00    1.69042   1.63113   -1.000
 5969.00    1.69271   1.63333   -1.000
 5970.00    1.71615   1.63530   -1.000
 5971.00    1.71560   1.63637   -1.000
 5972.00    1.68267   1.63620   -1.000
 5973.00    1.65997   1.63461   -1.000
 5974.00    1.65872   1.63176   -1.000
 5975.00    1.66532   1.62841   -1.000
 5976.00    1.67798   1.62549   -1.000
 5977.00    1.66720   1.62394   -1.000
 5978.00    1.67665   1.62399   -1.000
 5979.00    1.68435   1.62506   -1.000
 5980.00    1.68939   1.62599   -1.000
 5981.00    1.68708   1.62573   -1.000
 5982.00    1.67931   1.62413   -1.000
 5983.00    1.67372   1.62206   -1.000
 5984.00    1.69108   1.62084   -1.000
 5985.00    1.69025   1.62125   -1.000
 5986.00    1.67177   1.62330   -1.000
 5987.00    1.66243   1.62641   -1.000
 5988.00    1.68614   1.62969   -1.000
 5989.00    1.69446   1.63262   -1.000
 5990.00    1.67173   1.63531   -1.000
 5991.00    1.67495   1.63821   -1.000
 5992.00    1.67458   1.64137   -1.000
 5993.00    1.68381   1.64421   -1.000
 5994.00    1.68244   1.64585   -1.000
 5995.00    1.69004   1.64583   -1.000
 5996.00    1.70030   1.64445   -1.000
 5997.00    1.69553   1.64251   -1.000
 5998.00    1.71580   1.64067   -1.000
 5999.00    1.68958   1.63919   -1.000
 6000.00    1.66308   1.63800   -1.000
 6001.00    1.67764   1.63684   -1.000
 6002.00    1.65976   1.63561   -1.000
 6003.00    1.63659   1.63413   99.071
 6004.00    1.65361   1.63207   -1.000
 6005.00    1.67163   1.62942   -1.000
 6006.00    1.66729   1.62680   -1.000
 6007.00    1.65605   1.62529   -1.000
 6008.00    1.64951   1.62572   -1.000
 6009.00    1.65333   1.62773   -1.000
 6010.00    1.65785   1.63032   -1.000
 6011.00    1.65242   1.63259   -1.000
 6012.00    1.67859   1.63404   -1.000
 6013.00    1.67638   1.63474   -1.000
 6014.00    1.66322   1.63471   -1.000
 6015.00    1.65743   1.63409   -1.000
 6016.00    1.67232   1.63314   -1.000
 6017.00    1.68339   1.63186   -1.000
 6018.00    1.67213   1.63039   -1.000
 6019.00    1.68945   1.62913   -1.000
 6020.00    1.66719   1.62846   -1.000
 6021.00    1.64052   1.62872   99.466
 6022.00    1.66012   1.63018   -1.000
 6023.00    1.68914   1.63290   -1.000
 6024.00    1.70050   1.63665   -1.000
 6025.00    1.68839   1.64097   -1.000
 6026.00    1.67450   1.64537   -1.000
 6027.00    1.67848   1.64945   -1.000
 6028.00    1.68681   1.65288   -1.000
 6029.00    1.70284   1.65566   -1.000
 6030.00    1.69274   1.65797   -1.000
 6031.00    1.68566   1.66005   -1.000
 6032.00    1.70036   1.66215   -1.000
 6033.00    1.70088   1.66419   -1.000
 6034.00    1.70995   1.66577   -1.000
 6035.00    1.72023   1.66631   -1.000
 6036.00    1.72386   1.66549   -1.000
 6037.00    1.72880   1.66337   -1.000
 6038.00    1.71489   1.66040   -1.000
 6039.00    1.69193   1.65746   -1.000
 6040.00    1.69530   1.65513   -1.000
 6041.00    1.69626   1.65383   -1.000
 6042.00    1.70045   1.65446   -1.000
 6043.00    1.69855   1.65705   -1.000
 6044.00    1.68558   1.66095   -1.000
 6045.00    1.68372   1.66522   -1.000
 6046.00    1.69869   1.66895   -1.000
 6047.00    1.70730   1.67146   -1.000
 6048.00    1.71118   1.67259   -1.000
 6049.00    1.69584   1.67239   -1.000
 6050.00    1.67999   1.67106   96.815
 6051.00    1.69999   1.66894   -1.000
 6052.00    1.69830   1.66624   -1.000
 6053.00    1.68342   1.66320   -1.000
 6054.00    1.68791   1.66019   -1.000
 6055.00    1.68818   1.65773   -1.000
 6056.00    1.68657   1.65617   -1.000
 6057.00    1.67878   1.65566   -1.000
 6058.00    1.67352   1.65598   97.274
 6059.00    1.67205   1.65629   97.495
 6060.00    1.61663   1.65557   98.845
 6061.00    1.62065   1.65296  100.772
 6062.00    1.44866   1.64862   -1.000
 6063.00    0.65994   1.64380   -1.000
 6064.00    1.43894   1.64059   -1.000
 6065.00    1.63134   1.64072   74.327
 6066.00    1.61322   1.64459   99.953
 6067.00    1.49198   1.65112   -1.000
 6068.00    1.44448   1.65870   -1.000
 6069.00    0.49240   1.66570   -1.000
 6070.00    1.29933   1.67115   -1.000
 6071.00    1.70987   1.67475   -1.000
 6072.00    1.70484   1.67652   -1.000
 6073.00    1.69920   1.67662   -1.000
 6074.00    1.69976   1.67522   -1.000
 6075.00    1.69753   1.67253   -1.000
 6076.00    1.71115   1.66899   -1.000
 6077.00    1.70344   1.66512   -1.000
 6078.00    1.66971   1.66141   99.243
 6079.00    1.68086   1.65811   -1.000
 6080.00    1.67864   1.65534   -1.000
 6081.00    1.66746   1.65340   99.615
 6082.00    1.66961   1.65243   -1.000
 6083.00    1.66365   1.65244   99.438
 6084.00    1.66423   1.65330   99.156
 6085.00    1.66000   1.65476   98.759
 6086.00    1.67048   1.65627   98.927
 6087.00    1.68371   1.65720   -1.000
 6088.00    1.67490   1.65713   -1.000
 6089.00    1.65674   1.65620   99.917
 6090.00    1.66358   1.65516   99.296
 6091.00    1.66380   1.65487   98.792
 6092.00    1.66751   1.65595   98.235
 6093.00    1.66902   1.65843   97.803
 6094.00    1.67912   1.66174   -1.000
 6095.00    1.69355   1.66509   -1.000
 6096.00    1.70516   1.66761   -1.000
 6097.00    1.69345   1.66831   -1.000
 6098.00    1.67504   1.66619   99.264
 6099.00    1.66439   1.66073  101.665
 6100.00    1.67038   1.65238   -1.000
 6101.00    1.65940   1.64358   -1.000
 6102.00    1.65029   1.63724  100.769
 6103.00    1.65299   1.63532   -1.000
 6104.00    1.66430   1.63806   -1.000
 6105.00    1.68379   1.64424   -1.000
 6106.00    1.67541   1.65187   -1.000
 6107.00    1.67029   1.65918   99.414
 6108.00    1.66945   1.66490   99.203
 6109.00    1.67107   1.66867   98.773
 6110.00    1.68770   1.67086   -1.000
 6111.00    1.69564   1.67219   -1.000
 6112.00    1.70125   1.67309   -1.000
 6113.00    1.69214   1.67368   -1.000
 6114.00    1.66994   1.67361   98.985
 6115.00    1.66822   1.67249   99.144
 6116.00    1.67886   1.66946   99.610
 6117.00    1.66327   1.66334  101.024
 6118.00    1.64975   1.65439  102.349
 6119.00    1.66692   1.64350   -1.000
 6120.00    1.65909   1.63303   -1.000
 6121.00    1.63483   1.62635  101.835
 6122.00    1.63853   1.62517  100.502
 6123.00    1.64302   1.62912  100.425
 6124.00    1.62547   1.63643  100.997
 6125.00    1.63956   1.64461  100.898
 6126.00    1.67855   1.65190   -1.000
 6127.00    1.67356   1.65794   99.874
 6128.00    1.66589   1.66302   98.930
 6129.00    1.66886   1.66731   98.698
 6130.00    1.65423   1.67034   98.878
 6131.00    1.65544   1.67072   99.793
 6132.00    1.62998   1.66670  102.017
 6133.00    1.60906   1.65726   -1.000
 6134.00    1.60444   1.64333  107.700
 6135.00    1.61937   1.62857  108.097
 6136.00    1.61955   1.61738  105.473
 6137.00    1.59691   1.61249  102.480
 6138.00    1.61232   1.61388  101.284
 6139.00    1.61572   1.61954  101.429
 6140.00    1.61296   1.62749  101.602
 6141.00    1.63390   1.63622  100.610
 6142.00    1.64803   1.64473   99.401
 6143.00    1.65118   1.65230   99.218
 6144.00    1.66523   1.65815   99.664
 6145.00    1.68976   1.66159   -1.000
 6146.00    1.68943   1.66225   -1.000
 6147.00    1.65127   1.66073  101.617
 6148.00    1.66478   1.65820  101.641
 6149.00    1.67513   1.65606   -1.000
 6150.00    1.66462   1.65504  100.572
 6151.00    1.65127   1.65502  100.433
 6152.00    1.65501   1.65517  101.267
 6153.00    1.67531   1.65463   -1.000
 6154.00    1.65362   1.65284  101.881
 6155.00    1.66976   1.64941   -1.000
 6156.00    1.65178   1.64392  103.372
 6157.00    1.64032   1.63566  105.333
 6158.00    1.62047   1.62372  108.516
 6159.00    1.62709   1.60834  111.677
 6160.00    1.60678   1.59171  112.805
 6161.00    1.61920   1.57768   -1.000
 6162.00    1.59758   1.56947   -1.000
 6163.00    1.58687   1.56832  106.439
 6164.00    1.58835   1.57288  105.962
 6165.00    1.60475   1.58017   -1.000
 6166.00    1.60298   1.58684  107.601
 6167.00    1.61170   1.59112   -1.000
 6168.00    1.61398   1.59346   -1.000
 6169.00    1.61156   1.59565  105.846
 6170.00    1.62977   1.59928   -1.000
 6171.00    1.64210   1.60475   -1.000
 6172.00    1.62854   1.61155  104.521
 6173.00    1.61378   1.61861  104.267
 6174.00    1.63754   1.62484  104.068
 6175.00    1.66260   1.62981   -1.000
 6176.00    1.65135   1.63360  103.274
 6177.00    1.65666   1.63646  102.898
 6178.00    1.66282   1.63876   -1.000
 6179.00    1.67523   1.64083   -1.000
 6180.00    1.66092   1.64268  101.832
 6181.00    1.64880   1.64406  102.034
 6182.00    1.65768   1.64462  102.394
 6183.00    1.66135   1.64392  103.213
 6184.00    1.64899   1.64151  104.346
 6185.00    1.62737   1.63727  105.424
 6186.00    1.63367   1.63126  106.427
 6187.00    1.65211   1.62362   -1.000
 6188.00    1.64914   1.61498   -1.000
 6189.00    1.63699   1.60682   -1.000
 6190.00    1.62342   1.60135  108.087
 6191.00    1.63626   1.60029   -1.000
 6192.00    1.62763   1.60403  103.674
 6193.00    1.61338   1.61133  103.034
 6194.00    1.62822   1.62003  102.882
 6195.00    1.64226   1.62765  103.557
 6196.00    1.63738   1.63252  104.769
 6197.00    1.63799   1.63439  105.621
 6198.00    1.63239   1.63460  105.519
 6199.00    1.62095   1.63484  104.443
 6200.00    1.62115   1.63635  103.126
 6201.00    1.65193   1.63948  102.845
 6202.00    1.66059   1.64367  102.854
 6203.00    1.64789   1.64799  102.677
 6204.00    1.66995   1.65170  102.675
 6205.00    1.68296   1.65434   -1.000
 6206.00    1.66815   1.65572  103.064
 6207.00    1.64152   1.65566  103.527
 6208.00    1.65382   1.65391  104.485
 6209.00    1.66048   1.65023  105.297
 6210.00    1.62862   1.64448  106.335
 6211.00    1.62828   1.63693  107.969
 6212.00    1.64438   1.62855  109.048
 6213.00    1.62377   1.62058  109.329
 6214.00    1.57683   1.61410   -1.000
 6215.00    1.56607   1.60957   -1.000
 6216.00    1.58427   1.60684  108.205
 6217.00    1.59523   1.60543  107.784
 6218.00    1.57551   1.60506  106.983
 6219.00    1.59264   1.60569  107.669
 6220.00    1.53243   1.60720   -1.000
 6221.00    1.51086   1.60932   -1.000
 6222.00    1.65668   1.61175   -1.000
 6223.00    1.66442   1.61401   -1.000
 6224.00    1.65721   1.61553   -1.000
 6225.00    1.64488   1.61555   -1.000
 6226.00    1.62245   1.61325  108.589
 6227.00    1.62926   1.60821  110.401
 6228.00    1.64310   1.60117   -1.000
 6229.00    1.60859   1.59415  111.308
 6230.00    1.57847   1.58965  109.693
 6231.00    1.57196   1.58948  107.608
 6232.00    1.58759   1.59380  105.863
 6233.00    1.57961   1.60100  105.388
 6234.00    1.62631   1.60842  106.109
 6235.00    1.65145   1.61371   -1.000
 6236.00    1.66958   1.61563   -1.000
 6237.00    1.61219   1.61433  109.436
 6238.00    1.62280   1.61087  109.880
 6239.00    1.62657   1.60656  109.835
 6240.00    1.59676   1.60217  110.656
 6241.00    1.61119   1.59805  111.381
 6242.00    1.63850   1.59445   -1.000
 6243.00    1.65527   1.59176   -1.000
 6244.00    1.61066   1.59081  109.481
 6245.00    1.61043   1.59228  108.080
 6246.00    1.60947   1.59608  106.957
 6247.00    1.59203   1.60105  106.860
 6248.00    1.60853   1.60529  107.865
 6249.00    1.61088   1.60691  109.882
 6250.00    1.59718   1.60514  111.225
 6251.00    1.58851   1.60069  111.981
 6252.00    1.57111   1.59510  112.289
 6253.00    1.53870   1.58995   -1.000
 6254.00    1.53311   1.58616   -1.000
 6255.00    1.51820   1.58405   -1.000
 6256.00    1.57333   1.58381  113.781
 6257.00    1.61602   1.58566   -1.000
 6258.00    1.62713   1.58979   -1.000
 6259.00    1.62425   1.59602   -1.000
 6260.00    1.60584   1.60366  107.181
 6261.00    1.60181   1.61148  106.661
 6262.00    1.60989   1.61824  107.524
 6263.00    1.60711   1.62321  108.235
 6264.00    1.61461   1.62641  107.738
 6265.00    1.60745   1.62823  106.950
 6266.00    1.61762   1.62905  107.342
 6267.00    1.62350   1.62921  107.887
 6268.00    1.63375   1.62890  107.738
 6269.00    1.62353   1.62815  107.364
 6270.00    1.61182   1.62676  107.113
 6271.00    1.61133   1.62429  107.401
 6272.00    1.61627   1.62013  108.190
 6273.00    1.61275   1.61389  109.064
 6274.00    1.57193   1.60582  110.829
 6275.00    1.52443   1.59680   -1.000
 6276.00    1.50724   1.58824   -1.000
 6277.00    1.49474   1.58154   -1.000
 6278.00    1.53841   1.57793   -1.000
 6279.00    1.51550   1.57814   -1.000
 6280.00    1.49326   1.58232   -1.000
 6281.00    1.50516   1.58990   -1.000
 6282.00    1.52401   1.59968   -1.000
 6283.00    1.54093   1.61011   -1.000
 6284.00    1.55402   1.61979   -1.000
 6285.00    1.58530   1.62762   -1.000
 6286.00    1.61773   1.63297  106.256
 6287.00    1.63444   1.63561  106.833
 6288.00    1.64689   1.63580  107.748
 6289.00    1.62819   1.63407  108.548
 6290.00    1.61898   1.63112  108.753
 6291.00    1.60413   1.62757  108.870
 6292.00    1.59704   1.62375  109.065
 6293.00    1.59315   1.61969  109.922
 6294.00    1.57711   1.61541   -1.000
 6295.00    1.58054   1.61122  110.805
 6296.00    1.63364   1.60763   -1.000
 6297.00    1.72496   1.60508   -1.000
 6298.00    1.80538   1.60371   -1.000
 6299.00    1.88292   1.60355   -1.000
 6300.00    1.84853   1.60468   -1.000
 6301.00    1.70118   1.60717   -1.000
 6302.00    1.62099   1.61103  109.164
 6303.00    1.58041   1.61605  107.831
 6304.00    1.57196   1.62182   -1.000
 6305.00    1.60234   1.62775  105.938
 6306.00    1.65992   1.63325   -1.000
 6307.00    1.66410   1.63777   -1.000
 6308.00    1.65472   1.64092  106.982
 6309.00    1.63088   1.64243  107.388
 6310.00    1.61500   1.64228  107.832
 6311.00    1.59880   1.64067   -1.000
 6312.00    1.60288   1.63796  108.943
 6313.00    1.58979   1.63466   -1.000
 6314.00    1.58397   1.63121   -1.000
 6315.00    1.58870   1.62808  109.138
 6316.00    1.58782   1.62597  109.296
 6317.00    1.59174   1.62558  108.885
 6318.00    1.57118   1.62728   -1.000
 6319.00    1.59262   1.63094  106.504
 6320.00    1.63913   1.63608  106.103
 6321.00    1.64935   1.64197  105.748
 6322.00    1.62959   1.64778  105.170
 6323.00    1.64262   1.65289  104.844
 6324.00    1.65690   1.65694  104.791
 6325.00    1.65495   1.65984  104.255
 6326.00    1.62096   1.66169  104.366
 6327.00    1.61704   1.66279   -1.000
 6328.00    1.61589   1.66350   -1.000
 6329.00    1.65337   1.66400  104.122
 6330.00    1.69750   1.66401   -1.000
 6331.00    1.70619   1.66291   -1.000
 6332.00    1.62407   1.66006  104.504
 6333.00    1.60505   1.65560   -1.000
 6334.00    1.63208   1.65062  107.204
 6335.00    1.64218   1.64670  106.287
 6336.00    1.63469   1.64520  105.201
 6337.00    1.62869   1.64655  104.038
 6338.00    1.64983   1.65002  103.541
 6339.00    1.64821   1.65414  103.032
 6340.00    1.65298   1.65741  103.121
 6341.00    1.65533   1.65897  104.073
 6342.00    1.65639   1.65898  104.208
 6343.00    1.66246   1.65833  103.915
 6344.00    1.67021   1.65818  103.346
 6345.00    1.65146   1.65942  102.616
 6346.00    1.64199   1.66231  102.232
 6347.00    1.67630   1.66641  102.261
 6348.00    1.70628   1.67075   -1.000
 6349.00    1.68396   1.67427  102.133
 6350.00    1.66984   1.67610  102.580
 6351.00    1.67417   1.67583  103.051
 6352.00    1.64320   1.67364  104.255
 6353.00    1.64575   1.67010  105.151
 6354.00    1.65348   1.66584  105.185
 6355.00    1.63396   1.66127  105.497
 6356.00    1.65073   1.65662  106.723
 6357.00    1.64627   1.65205  107.165
 6358.00    1.64304   1.64771  106.720
 6359.00    1.64376   1.64395  106.379
 6360.00    1.66167   1.64125   -1.000
 6361.00    1.71588   1.64018   -1.000
 6362.00    1.74513   1.64106   -1.000
 6363.00    1.76007   1.64391   -1.000
 6364.00    1.74368   1.64838   -1.000
 6365.00    1.69794   1.65377   -1.000
 6366.00    1.67881   1.65917   -1.000
 6367.00    1.67505   1.66381  102.361
 6368.00    1.67332   1.66734  102.440
 6369.00    1.67522   1.66981  102.086
 6370.00    1.69651   1.67164   -1.000
 6371.00    1.69715   1.67325   -1.000
 6372.00    1.67609   1.67478  102.038
 6373.00    1.66980   1.67610  102.261
 6374.00    1.67080   1.67681  102.645
 6375.00    1.63764   1.67652  103.171
 6376.00    1.61116   1.67512   -1.000
 6377.00    1.64282   1.67284  104.271
 6378.00    1.64685   1.67020  104.335
 6379.00    1.64008   1.66782  104.540
 6380.00    1.64075   1.66620  104.508
 6381.00    1.61650   1.66563   -1.000
 6382.00    1.61467   1.66609   -1.000
 6383.00    1.62548   1.66738  104.959
 6384.00    1.62278   1.66912   -1.000
 6385.00    1.64665   1.67090  105.192
 6386.00    1.67276   1.67225  105.530
 6387.00    1.63823   1.67267  106.418
 6388.00    1.60739   1.67154   -1.000
 6389.00    1.60014   1.66851   -1.000
 6390.00    1.58869   1.66386   -1.000
 6391.00    1.58260   1.65872   -1.000
 6392.00    1.58700   1.65472   -1.000
 6393.00    1.58423   1.65304   -1.000
 6394.00    1.55604   1.65384   -1.000
 6395.00    1.54953   1.65588   -1.000
 6396.00    1.53369   1.65741   -1.000
 6397.00    1.53540   1.65737   -1.000
 6398.00    1.53949   1.65625   -1.000
 6399.00    1.51374   1.65561   -1.000
 6400.00    1.49473   1.65701   -1.000
 6401.00    1.51143   1.66092   -1.000
 6402.00    1.51590   1.66631   -1.000
 6403.00    1.52245   1.67118   -1.000
 6404.00    1.53084   1.67379   -1.000
 6405.00    1.49225   1.67350   -1.000
 6406.00    1.47103   1.67107   -1.000
 6407.00    1.47002   1.66787   -1.000
 6408.00    1.45267   1.66506   -1.000
 6409.00    1.43406   1.66339   -1.000
 6410.00    1.42927   1.66297   -1.000
 6411.00    1.43180   1.66362   -1.000
 6412.00    1.41347   1.66507   -1.000
 6413.00    1.38511   1.66708   -1.000
 6414.00    1.39572   1.66915   -1.000
 6415.00    1.40720   1.67055   -1.000
 6416.00    1.36785   1.67052   -1.000
 6417.00    1.37391   1.66878   -1.000
 6418.00    1.37048   1.66594   -1.000
 6419.00    1.35849   1.66341   -1.000
 6420.00    1.35113   1.66269   -1.000
 6421.00    1.33653   1.66474   -1.000
 6422.00    1.32137   1.66946   -1.000
 6423.00    1.31051   1.67571   -1.000
 6424.00    1.30680   1.68179   -1.000
 6425.00    1.29690   1.68594   -1.000
 6426.00    1.29619   1.68693   -1.000
 6427.00    1.28448   1.68458   -1.000
 6428.00    1.24930   1.67982   -1.000
