###################################################################
## OUTPUT of StarlightChains_v04.for    [Cid@UFSC - 01/Apr/2007] ##
###################################################################

## Some input info
NGC6544_a_1.cxt                          [arq_obs]
Base.BC03.S                              [arq_base]
NGC6544_a_1.msk                          [arq_masks]
StCv04.C99.config                        [arq_config]
  150                                    [N_base]
    0                                    [N_YAV_components = # of components with extra extinction!]
    0                                    [i_FitPowerLaw (1/0 = Yes/No)]
-9.99                                    [alpha_PowerLaw]
CCM                                      [red_law_option]
 1.458241                                [q_norm = A(l_norm)/A(V)]

## (Re)Sampling Parameters
 3359.00                                 [l_ini (A)]
 6428.00                                 [l_fin (A)]
    1.00                                 [dl    (A)]     (OBS: dl_cushion =    50.00 A)

## Normalization info
 4020.00                                 [l_norm (A) - for base]
 4010.00                                 [llow_norm (A) - window for f_obs]
 4060.00                                 [lupp_norm (A) - window for f_obs]
2.994762E-15                             [fobs_norm (in input units)]

## S/N
 4730.00                                 [llow_SN (A) - window for S/N]
 4780.00                                 [lupp_SN (A) - window for S/N]
  55.157                                 [S/N in S/N window]
  29.824                                 [S/N in norm. window]
 209.596                                 [S/N_err in S/N window]
 113.332                                 [S/N_err in norm. window]
  1.0000                                 [fscale_chi2]

## etc...
  2147483600                             [idum_orig]
  3064                                   [NOl_eff]
  1398                                   [Nl_eff]
  1666    NSIGMA                         [Ntot_cliped & clip_method]
  4828320                                [Nglobal_steps]
   7                                     [N_chains]
  33                                     [NEX0s_base = N_base in EX0s-fits]
 0   0   1       75   2.0   2.770E+02    [Clip-Bug, RC-Crash & Burn-In warning-flags, n_censored_weights, wei_nsig_threshold & wei_limit]
   287    286.744    286.728      0.016  [idt_all, wdt_TotTime, wdt_UsrTime & wdt_SysTime (sec)]

## Synthesis Results - Best model ##

 2.92881E+00                             [chi2/Nl_eff]
     2.35570                             [adev (%)]

    95.62017                             [sum-of-x (%)]
 2.84069E-13                             [Flux_tot (units of input spectrum!)]
 8.85400E-09                             [Mini_tot (???)]
 4.35990E-09                             [Mcor_tot (???)]

 -25.14                                  [v0_min  (km/s)]
  21.82                                  [vd_min  (km/s)]
 3.4228                                  [AV_min  (mag)]
 0.0000                                  [YAV_min (mag)]

# j     x_j(%)      Mini_j(%)     Mcor_j(%)     age_j(yr)     Z_j      (L/M)_j    YAV?  Mstars   component_j        a/Fe...       SSP_chi2r SSP_adev(%)   SSP_AV   SSP_x(%)
  1      0.0000     0.0000E+00    0.0000E+00    1.000000E+06  0.00010  8.160E-03    0   1.0000   age020_m22            0.0000     2.6899E+03    41.9642   4.0000   113.6563
  2      9.4496     6.6624E-03    1.3530E-02    3.160000E+06  0.00010  4.759E-02    0   1.0000   age045_m22            0.0000     7.8168E+01     7.5521   4.0000   101.8896
  3     24.3882     4.2355E-02    8.2419E-02    5.010000E+06  0.00010  1.932E-02    0   0.9582   age055_m22            0.0000     1.0863E+02     9.0891   4.0000    97.6719
  4      2.0311     6.8333E-03    1.2901E-02    6.610000E+06  0.00010  9.973E-03    0   0.9297   age061_m22            0.0000     2.7103E+03    41.4712   4.0000   116.9484
  5      4.5005     1.9637E-02    3.6010E-02    8.710000E+06  0.00010  7.690E-03    0   0.9030   age067_m22            0.0000     2.6662E+03    41.2260   4.0000   117.3967
  6      5.5115     2.9008E-02    5.2441E-02    1.000000E+07  0.00010  6.375E-03    0   0.8902   age070_m22            0.0000     2.6734E+03    41.3106   4.0000   117.6158
  7      1.1403     7.8501E-03    1.3692E-02    1.445000E+07  0.00010  4.874E-03    0   0.8589   age078_m22            0.0000     2.1647E+03    37.8346   4.0000   119.7020
  8      0.3051     2.4954E-03    4.1422E-03    2.512000E+07  0.00010  4.103E-03    0   0.8174   age090_m22            0.0000     1.3028E+03    30.0054   4.0000   122.2155
  9      0.9126     8.3797E-03    1.3325E-02    4.000000E+07  0.00010  3.654E-03    0   0.7830   age104_m22            0.0000     9.0174E+02    24.1524   4.0000   122.3668
 10      1.6560     1.7965E-02    2.7716E-02    5.500000E+07  0.00010  3.093E-03    0   0.7597   age110_m22            0.0000     7.9399E+02    22.1645   4.0000   121.9022
 11      1.1586     1.5991E-02    2.3180E-02    1.015200E+08  0.00010  2.431E-03    0   0.7138   age116_m22            0.0000     5.0990E+02    18.2767   4.0000   117.9132
 12      0.0000     0.0000E+00    0.0000E+00    1.609000E+08  0.00010  1.319E-03    0   0.6775   age120_m22            0.0000     2.5500E+02    13.4015   4.0000   109.2823
 13      0.0000     0.0000E+00    0.0000E+00    2.861200E+08  0.00010  1.075E-03    0   0.6412   age125_m22            0.0000     4.7605E+02    17.9906   4.0000   113.0700
 14      0.0000     0.0000E+00    0.0000E+00    5.088000E+08  0.00010  7.183E-04    0   0.6083   age130_m22            0.0000     4.8415E+02    16.9096   4.0000   108.6601
 15      0.0000     0.0000E+00    0.0000E+00    9.047900E+08  0.00010  4.524E-04    0   0.5785   age135_m22            0.0000     4.7777E+02    15.4518   3.9799   105.2661
 16      0.0000     0.0000E+00    0.0000E+00    1.278050E+09  0.00010  3.018E-04    0   0.5588   age138_m22            0.0000     3.1913E+02    13.1951   3.4309   104.6783
 17      0.0000     0.0000E+00    0.0000E+00    1.434000E+09  0.00010  2.691E-04    0   0.5532   age139_m22            0.0000     2.9107E+02    12.7794   3.2682   104.3920
 18      0.0559     1.1863E-02    1.2759E-02    2.500000E+09  0.00010  1.582E-04    0   0.5296   age150_m22            0.0000     2.6049E+02    12.0278   3.1504   105.7204
 19      0.0000     0.0000E+00    0.0000E+00    4.250000E+09  0.00010  1.007E-04    0   0.5110   age158_m22            0.0000     1.9609E+02    10.9347   2.9727   105.0074
 20      0.0042     2.0295E-03    2.0546E-03    6.250000E+09  0.00010  6.869E-05    0   0.4985   age166_m22            0.0000     1.4170E+02     9.8524   2.8868   103.1951
 21      0.0048     2.7435E-03    2.7473E-03    7.500000E+09  0.00010  5.873E-05    0   0.4931   age171_m22            0.0000     1.2987E+02     9.4567   2.8722   102.8913
 22      0.0000     0.0000E+00    0.0000E+00    1.000000E+10  0.00010  4.481E-05    0   0.4854   age181_m22            0.0000     1.2947E+02     9.4937   2.8338   102.4690
 23      0.0000     0.0000E+00    0.0000E+00    1.300000E+10  0.00010  3.489E-05    0   0.4791   age193_m22            0.0000     1.2743E+02     9.5285   2.7745   101.9069
 24      0.0000     0.0000E+00    0.0000E+00    1.500000E+10  0.00010  3.035E-05    0   0.4766   age201_m22            0.0000     1.2483E+02     9.4816   2.7338   101.7657
 25     13.2837     1.7757E+01    1.7075E+01    1.800000E+10  0.00010  2.510E-05    0   0.4735   age213_m22            0.0000     1.1764E+02     9.3148   2.6630   101.2365
 26      0.0005     2.0109E-06    4.0837E-06    1.000000E+06  0.00040  8.458E-03    0   1.0000   age020_m32            0.0000     2.7484E+03    42.1907   4.0000   114.5391
 27      0.0000     0.0000E+00    0.0000E+00    3.160000E+06  0.00040  3.973E-02    0   1.0000   age045_m32            0.0000     1.1357E+03    28.1326   4.0000   120.8781
 28      2.7892     4.8365E-03    9.3622E-03    5.010000E+06  0.00040  1.935E-02    0   0.9532   age055_m32            0.0000     1.6498E+03    33.1939   4.0000   117.6074
 29      1.8725     5.2182E-03    9.7948E-03    6.610000E+06  0.00040  1.204E-02    0   0.9243   age061_m32            0.0000     2.3191E+03    38.8469   4.0000   118.3615
 30      2.5310     9.0029E-03    1.6456E-02    8.710000E+06  0.00040  9.433E-03    0   0.9001   age067_m32            0.0000     2.2231E+03    38.1985   4.0000   119.1631
 31      0.0124     5.1470E-05    9.2787E-05    1.000000E+07  0.00040  8.053E-03    0   0.8877   age070_m32            0.0000     2.1316E+03    37.5174   4.0000   119.3942
 32      0.0056     2.6647E-05    4.6420E-05    1.445000E+07  0.00040  7.027E-03    0   0.8578   age078_m32            0.0000     1.1043E+03    27.6618   4.0000   119.0446
 33      0.0000     0.0000E+00    0.0000E+00    2.512000E+07  0.00040  4.707E-03    0   0.8166   age090_m32            0.0000     6.9027E+02    21.8789   4.0000   118.1976
 34      0.1780     1.6078E-03    2.5555E-03    4.000000E+07  0.00040  3.714E-03    0   0.7827   age104_m32            0.0000     5.0920E+02    17.9725   4.0000   117.4458
 35      0.0000     0.0000E+00    0.0000E+00    5.500000E+07  0.00040  2.982E-03    0   0.7593   age110_m32            0.0000     4.7850E+02    17.3432   4.0000   117.1625
 36      0.0000     0.0000E+00    0.0000E+00    1.015200E+08  0.00040  2.188E-03    0   0.7143   age116_m32            0.0000     4.1441E+02    17.1834   4.0000   114.8260
 37      0.0000     0.0000E+00    0.0000E+00    1.609000E+08  0.00040  1.690E-03    0   0.6856   age120_m32            0.0000     4.0662E+02    16.4973   4.0000   112.3279
 38      0.0000     0.0000E+00    0.0000E+00    2.861200E+08  0.00040  1.152E-03    0   0.6509   age125_m32            0.0000     4.3038E+02    15.8677   4.0000   107.9685
 39      0.0000     0.0000E+00    0.0000E+00    5.088000E+08  0.00040  7.331E-04    0   0.6182   age130_m32            0.0000     4.5363E+02    15.0578   4.0000   104.2621
 40      0.0000     0.0000E+00    0.0000E+00    9.047900E+08  0.00040  3.960E-04    0   0.5890   age135_m32            0.0000     3.3523E+02    13.8964   3.5048   104.0040
 41      0.0000     0.0000E+00    0.0000E+00    1.278050E+09  0.00040  2.854E-04    0   0.5687   age138_m32            0.0000     2.8359E+02    12.6150   3.2154   106.5348
 42      0.0000     0.0000E+00    0.0000E+00    1.434000E+09  0.00040  2.531E-04    0   0.5632   age139_m32            0.0000     2.7847E+02    12.4651   3.1562   106.5009
 43      0.7572     1.7073E-01    1.8675E-01    2.500000E+09  0.00040  1.488E-04    0   0.5386   age150_m32            0.0000     2.3651E+02    11.8962   2.8818   105.1770
 44      0.0000     0.0000E+00    0.0000E+00    4.250000E+09  0.00040  9.082E-05    0   0.5199   age158_m32            0.0000     1.5209E+02    10.3247   2.7480   103.1393
 45      4.6565     2.4558E+00    2.5315E+00    6.250000E+09  0.00040  6.362E-05    0   0.5076   age166_m32            0.0000     9.4383E+01     8.7762   2.6748   101.0268
 46      3.3456     2.1225E+00    2.1668E+00    7.500000E+09  0.00040  5.289E-05    0   0.5027   age171_m32            0.0000     8.9487E+01     8.7479   2.6297    99.8955
 47      1.2495     1.0555E+00    1.0606E+00    1.000000E+10  0.00040  3.972E-05    0   0.4948   age181_m32            0.0000     9.2171E+01     8.9867   2.5625    98.4667
 48      0.0000     0.0000E+00    0.0000E+00    1.300000E+10  0.00040  3.283E-05    0   0.4870   age193_m32            0.0000     1.1676E+02     9.6703   2.5374   100.5811
 49      0.0000     0.0000E+00    0.0000E+00    1.500000E+10  0.00040  2.925E-05    0   0.4854   age201_m32            0.0000     1.3351E+02    10.0594   2.5314   101.7853
 50      2.6533     3.6058E+00    3.5287E+00    1.800000E+10  0.00040  2.469E-05    0   0.4819   age213_m32            0.0000     1.4196E+02    10.2582   2.4967   102.0986
 51      0.0000     0.0000E+00    0.0000E+00    1.000000E+06  0.00400  1.114E-02    0   1.0000   age020_m42            0.0000     2.5519E+03    40.9152   4.0000   114.6811
 52      1.1598     9.5543E-04    1.9401E-03    3.160000E+06  0.00400  4.073E-02    0   0.9999   age045_m42            0.0000     6.9559E+02    22.2792   4.0000   118.3822
 53      0.0000     0.0000E+00    0.0000E+00    5.010000E+06  0.00400  2.534E-02    0   0.9488   age055_m42            0.0000     1.3155E+03    30.3600   4.0000   118.3926
 54      0.0000     0.0000E+00    0.0000E+00    6.610000E+06  0.00400  2.583E-02    0   0.9220   age061_m42            0.0000     5.1792E+02    18.9383   4.0000   115.7931
 55      0.0000     0.0000E+00    0.0000E+00    8.710000E+06  0.00400  1.706E-02    0   0.8983   age067_m42            0.0000     3.4019E+02    15.6852   4.0000   111.2620
 56      0.0000     0.0000E+00    0.0000E+00    1.000000E+07  0.00400  1.271E-02    0   0.8862   age070_m42            0.0000     3.3361E+02    15.4298   4.0000   110.0676
 57      0.0000     0.0000E+00    0.0000E+00    1.445000E+07  0.00400  7.666E-03    0   0.8571   age078_m42            0.0000     7.6471E+02    23.3335   4.0000   113.8837
 58      0.0000     0.0000E+00    0.0000E+00    2.512000E+07  0.00400  5.070E-03    0   0.8174   age090_m42            0.0000     2.2413E+02    12.8601   4.0000   109.0139
 59      0.0000     0.0000E+00    0.0000E+00    4.000000E+07  0.00400  3.505E-03    0   0.7851   age104_m42            0.0000     8.1305E+01     8.1048   4.0000   104.3372
 60      0.0000     0.0000E+00    0.0000E+00    5.500000E+07  0.00400  3.059E-03    0   0.7629   age110_m42            0.0000     1.9812E+02    12.2450   4.0000   108.9164
 61      0.0000     0.0000E+00    0.0000E+00    1.015200E+08  0.00400  2.268E-03    0   0.7207   age116_m42            0.0000     3.5507E+02    15.5086   4.0000   110.8222
 62      0.0000     0.0000E+00    0.0000E+00    1.609000E+08  0.00400  1.720E-03    0   0.6930   age120_m42            0.0000     3.5470E+02    14.7445   4.0000   108.5805
 63      0.0000     0.0000E+00    0.0000E+00    2.861200E+08  0.00400  1.079E-03    0   0.6613   age125_m42            0.0000     3.5521E+02    13.7347   3.7945   105.1169
 64      0.0015     7.8902E-05    1.0115E-04    5.088000E+08  0.00400  6.261E-04    0   0.6313   age130_m42            0.0000     3.8464E+02    14.1024   3.6031   108.0683
 65      0.0000     0.0000E+00    0.0000E+00    9.047900E+08  0.00400  3.535E-04    0   0.6024   age135_m42            0.0000     2.9562E+02    13.0905   3.1793   109.1757
 66      0.0000     0.0000E+00    0.0000E+00    1.278050E+09  0.00400  2.677E-04    0   0.5837   age138_m42            0.0000     2.6215E+02    13.5825   2.4501   106.7594
 67      0.0000     0.0000E+00    0.0000E+00    1.434000E+09  0.00400  1.910E-04    0   0.5716   age139_m42            0.0000     2.6146E+02    13.3793   2.6283   107.5744
 68      0.0000     0.0000E+00    0.0000E+00    2.500000E+09  0.00400  9.818E-05    0   0.5463   age150_m42            0.0000     2.1719E+02    13.1520   2.3081   103.7570
 69      0.0000     0.0000E+00    0.0000E+00    4.250000E+09  0.00400  5.491E-05    0   0.5269   age158_m42            0.0000     2.0421E+02    12.8106   2.1633   101.4678
 70      0.0000     0.0000E+00    0.0000E+00    6.250000E+09  0.00400  3.857E-05    0   0.5151   age166_m42            0.0000     2.2872E+02    13.3688   2.0267   100.0483
 71      0.0000     0.0000E+00    0.0000E+00    7.500000E+09  0.00400  3.243E-05    0   0.5110   age171_m42            0.0000     2.4987E+02    13.7978   1.9445    99.3542
 72      0.0000     0.0000E+00    0.0000E+00    1.000000E+10  0.00400  2.424E-05    0   0.5028   age181_m42            0.0000     2.7833E+02    14.3147   1.8618    98.5447
 73      0.0000     0.0000E+00    0.0000E+00    1.300000E+10  0.00400  1.883E-05    0   0.4927   age193_m42            0.0000     2.9907E+02    14.5919   1.8189    98.1839
 74      0.0000     0.0000E+00    0.0000E+00    1.500000E+10  0.00400  1.685E-05    0   0.4919   age201_m42            0.0000     2.9145E+02    14.4345   1.8243    98.2308
 75      0.0000     0.0000E+00    0.0000E+00    1.800000E+10  0.00400  1.452E-05    0   0.4874   age213_m42            0.0000     2.7870E+02    14.1424   1.8426    98.5228
 76      0.0000     0.0000E+00    0.0000E+00    1.000000E+06  0.00800  1.286E-02    0   1.0000   age020_m52            0.0000     2.4698E+03    40.3436   4.0000   116.6046
 77      0.0000     0.0000E+00    0.0000E+00    3.160000E+06  0.00800  3.147E-02    0   0.9966   age045_m52            0.0000     2.3005E+03    38.9722   4.0000   117.9886
 78      0.0000     0.0000E+00    0.0000E+00    5.010000E+06  0.00800  2.664E-02    0   0.9443   age055_m52            0.0000     1.5436E+03    32.7383   4.0000   118.8503
 79      0.0000     0.0000E+00    0.0000E+00    6.610000E+06  0.00800  2.151E-02    0   0.9177   age061_m52            0.0000     6.2783E+01     7.7369   4.0000   102.8729
 80      0.0000     0.0000E+00    0.0000E+00    8.710000E+06  0.00800  1.628E-02    0   0.8948   age067_m52            0.0000     2.9920E+02    14.8966   4.0000   111.1707
 81      0.0000     0.0000E+00    0.0000E+00    1.000000E+07  0.00800  1.215E-02    0   0.8827   age070_m52            0.0000     6.5562E+02    21.6036   4.0000   115.6904
 82      0.0000     0.0000E+00    0.0000E+00    1.445000E+07  0.00800  8.739E-03    0   0.8552   age078_m52            0.0000     7.1106E+02    22.2936   4.0000   117.6019
 83      0.0034     2.0394E-05    3.3803E-05    2.512000E+07  0.00800  5.676E-03    0   0.8162   age090_m52            0.0000     3.5642E+02    14.8385   4.0000   114.6527
 84      0.0000     0.0000E+00    0.0000E+00    4.000000E+07  0.00800  3.939E-03    0   0.7841   age104_m52            0.0000     2.7976E+02    13.6178   4.0000   113.0711
 85      0.0000     0.0000E+00    0.0000E+00    5.500000E+07  0.00800  3.155E-03    0   0.7627   age110_m52            0.0000     3.0426E+02    14.5345   4.0000   113.7155
 86      0.0000     0.0000E+00    0.0000E+00    1.015200E+08  0.00800  2.206E-03    0   0.7226   age116_m52            0.0000     3.1819E+02    14.9897   4.0000   112.6034
 87      0.0000     0.0000E+00    0.0000E+00    1.609000E+08  0.00800  1.596E-03    0   0.6963   age120_m52            0.0000     3.0916E+02    13.8016   4.0000   108.6036
 88      0.0000     0.0000E+00    0.0000E+00    2.861200E+08  0.00800  1.002E-03    0   0.6665   age125_m52            0.0000     4.1588E+02    14.7380   3.8566   106.6343
 89      0.0000     0.0000E+00    0.0000E+00    5.088000E+08  0.00800  5.759E-04    0   0.6377   age130_m52            0.0000     4.6060E+02    15.7266   3.5071   110.2363
 90      0.0000     0.0000E+00    0.0000E+00    9.047900E+08  0.00800  2.972E-04    0   0.6086   age135_m52            0.0000     3.8702E+02    15.6051   2.9320   109.5620
 91      0.0000     0.0000E+00    0.0000E+00    1.278050E+09  0.00800  2.242E-04    0   0.5907   age138_m52            0.0000     3.1820E+02    14.8181   2.2816   108.9777
 92      0.0000     0.0000E+00    0.0000E+00    1.434000E+09  0.00800  1.645E-04    0   0.5787   age139_m52            0.0000     2.8383E+02    14.1844   2.4236   108.7811
 93      0.0000     0.0000E+00    0.0000E+00    2.500000E+09  0.00800  7.723E-05    0   0.5519   age150_m52            0.0000     2.7624E+02    14.3562   2.0413   105.8228
 94      0.0000     0.0000E+00    0.0000E+00    4.250000E+09  0.00800  4.151E-05    0   0.5320   age158_m52            0.0000     2.6914E+02    14.3115   1.9577   103.5683
 95      0.0000     0.0000E+00    0.0000E+00    6.250000E+09  0.00800  3.010E-05    0   0.5197   age166_m52            0.0000     3.1547E+02    15.1614   1.7517   102.0241
 96      0.0000     0.0000E+00    0.0000E+00    7.500000E+09  0.00800  2.467E-05    0   0.5139   age171_m52            0.0000     3.3114E+02    15.4326   1.7088   101.5368
 97      0.0000     0.0000E+00    0.0000E+00    1.000000E+10  0.00800  1.862E-05    0   0.5054   age181_m52            0.0000     3.8364E+02    16.2850   1.5763   100.8383
 98      0.0000     0.0000E+00    0.0000E+00    1.300000E+10  0.00800  1.433E-05    0   0.4988   age193_m52            0.0000     4.4076E+02    17.0186   1.4762   101.2868
 99      0.0000     0.0000E+00    0.0000E+00    1.500000E+10  0.00800  1.244E-05    0   0.4936   age201_m52            0.0000     4.6472E+02    17.2594   1.4471   101.6498
100      0.0000     0.0000E+00    0.0000E+00    1.800000E+10  0.00800  1.070E-05    0   0.4888   age213_m52            0.0000     4.8322E+02    17.4807   1.4146   101.3417
101      0.0000     0.0000E+00    0.0000E+00    1.000000E+06  0.02000  1.989E-02    0   1.0000   age020_m62            0.0000     2.4813E+03    40.2105   4.0000   115.5267
102      0.0000     0.0000E+00    0.0000E+00    3.160000E+06  0.02000  3.772E-02    0   0.9858   age045_m62            0.0000     2.1640E+03    37.8852   4.0000   117.3172
103      0.0000     0.0000E+00    0.0000E+00    5.010000E+06  0.02000  3.227E-02    0   0.9342   age055_m62            0.0000     1.0678E+03    27.4773   4.0000   119.6127
104      0.0000     0.0000E+00    0.0000E+00    6.610000E+06  0.02000  2.387E-02    0   0.9090   age061_m62            0.0000     7.6146E+02    23.0763   4.0000   115.7973
105      0.7478     2.2767E-03    4.0969E-03    8.710000E+06  0.02000  1.102E-02    0   0.8861   age067_m62            0.0000     4.5992E+02    15.8514   4.0000   106.5888
106      0.0000     0.0000E+00    0.0000E+00    1.000000E+07  0.02000  1.011E-02    0   0.8751   age070_m62            0.0000     4.0351E+02    15.9774   4.0000   108.5756
107      0.0000     0.0000E+00    0.0000E+00    1.445000E+07  0.02000  7.331E-03    0   0.8472   age078_m62            0.0000     3.6680E+02    16.1907   4.0000   109.5203
108      0.0000     0.0000E+00    0.0000E+00    2.512000E+07  0.02000  4.206E-03    0   0.8099   age090_m62            0.0000     2.8648E+02    14.5107   4.0000   107.1786
109      0.0000     0.0000E+00    0.0000E+00    4.000000E+07  0.02000  3.373E-03    0   0.7799   age104_m62            0.0000     1.9874E+02    11.6132   4.0000   110.6606
110      0.0000     0.0000E+00    0.0000E+00    5.500000E+07  0.02000  2.747E-03    0   0.7595   age110_m62            0.0000     2.3806E+02    12.7873   4.0000   112.0378
111      0.0000     0.0000E+00    0.0000E+00    1.015200E+08  0.02000  1.878E-03    0   0.7221   age116_m62            0.0000     3.2735E+02    14.8053   4.0000   112.7535
112      0.0000     0.0000E+00    0.0000E+00    1.609000E+08  0.02000  1.378E-03    0   0.6978   age120_m62            0.0000     3.7946E+02    15.0078   4.0000   110.9396
113      0.0000     0.0000E+00    0.0000E+00    2.861200E+08  0.02000  8.869E-04    0   0.6700   age125_m62            0.0000     4.9617E+02    15.1624   3.8433   108.9853
114      0.0000     0.0000E+00    0.0000E+00    5.088000E+08  0.02000  4.834E-04    0   0.6430   age130_m62            0.0000     4.9395E+02    16.1369   3.3843   111.2477
115      0.0000     0.0000E+00    0.0000E+00    9.047900E+08  0.02000  2.312E-04    0   0.6152   age135_m62            0.0000     3.6463E+02    15.1434   2.7434   111.4225
116      0.0000     0.0000E+00    0.0000E+00    1.278050E+09  0.02000  1.387E-04    0   0.5927   age138_m62            0.0000     2.8506E+02    14.3419   2.3090   108.1354
117      0.0000     0.0000E+00    0.0000E+00    1.434000E+09  0.02000  1.168E-04    0   0.5865   age139_m62            0.0000     2.7461E+02    14.2828   2.2697   106.8074
118      0.0000     0.0000E+00    0.0000E+00    2.500000E+09  0.02000  5.505E-05    0   0.5610   age150_m62            0.0000     3.1286E+02    15.1971   1.8626   104.1816
119      0.0000     0.0000E+00    0.0000E+00    4.250000E+09  0.02000  3.070E-05    0   0.5407   age158_m62            0.0000     4.2735E+02    17.0166   1.5594   103.4678
120      0.0000     0.0000E+00    0.0000E+00    6.250000E+09  0.02000  2.104E-05    0   0.5277   age166_m62            0.0000     4.9558E+02    17.8389   1.4251   103.5645
121      0.0000     0.0000E+00    0.0000E+00    7.500000E+09  0.02000  1.770E-05    0   0.5223   age171_m62            0.0000     5.3280E+02    18.3162   1.3384   103.6608
122      0.0000     0.0000E+00    0.0000E+00    1.000000E+10  0.02000  1.297E-05    0   0.5121   age181_m62            0.0000     6.1286E+02    19.2493   1.1834   103.5805
123      0.0000     0.0000E+00    0.0000E+00    1.300000E+10  0.02000  9.691E-06    0   0.5047   age193_m62            0.0000     6.6855E+02    19.8316   1.1035   103.5358
124      0.0000     0.0000E+00    0.0000E+00    1.500000E+10  0.02000  8.360E-06    0   0.4999   age201_m62            0.0000     7.1629E+02    20.3568   1.0374   103.3834
125      0.0000     0.0000E+00    0.0000E+00    1.800000E+10  0.02000  6.911E-06    0   0.4946   age213_m62            0.0000     7.7651E+02    21.0369   0.9683   103.1773
126      0.0000     0.0000E+00    0.0000E+00    1.000000E+06  0.05000  2.651E-02    0   0.9998   age020_m72            0.0000     2.4446E+03    40.1335   4.0000   116.7665
127      0.0000     0.0000E+00    0.0000E+00    3.160000E+06  0.05000  4.817E-02    0   0.9577   age045_m72            0.0000     1.7625E+03    34.8267   4.0000   119.8838
128      0.0000     0.0000E+00    0.0000E+00    5.010000E+06  0.05000  3.101E-02    0   0.9147   age055_m72            0.0000     1.1066E+03    28.0640   4.0000   118.5723
129      0.0000     0.0000E+00    0.0000E+00    6.610000E+06  0.05000  1.472E-02    0   0.8877   age061_m72            0.0000     5.7572E+02    19.6508   4.0000   110.5090
130      0.0000     0.0000E+00    0.0000E+00    8.710000E+06  0.05000  1.050E-02    0   0.8638   age067_m72            0.0000     1.0732E+03    27.3198   4.0000   116.7020
131      0.0000     0.0000E+00    0.0000E+00    1.000000E+07  0.05000  8.954E-03    0   0.8524   age070_m72            0.0000     1.4843E+03    32.2663   4.0000   120.0879
132      0.0000     0.0000E+00    0.0000E+00    1.445000E+07  0.05000  6.392E-03    0   0.8262   age078_m72            0.0000     1.3619E+03    31.0779   4.0000   120.5246
133      0.0000     0.0000E+00    0.0000E+00    2.512000E+07  0.05000  4.207E-03    0   0.7902   age090_m72            0.0000     7.5741E+02    23.5606   4.0000   119.4625
134      0.0000     0.0000E+00    0.0000E+00    4.000000E+07  0.05000  3.198E-03    0   0.7618   age104_m72            0.0000     4.0138E+02    16.7896   4.0000   116.9654
135      0.0000     0.0000E+00    0.0000E+00    5.500000E+07  0.05000  2.593E-03    0   0.7432   age110_m72            0.0000     4.0142E+02    16.8162   4.0000   116.8489
136      0.0000     0.0000E+00    0.0000E+00    1.015200E+08  0.05000  1.716E-03    0   0.7092   age116_m72            0.0000     3.9005E+02    16.2992   4.0000   114.6235
137      0.0000     0.0000E+00    0.0000E+00    1.609000E+08  0.05000  1.218E-03    0   0.6876   age120_m72            0.0000     4.1568E+02    15.4171   4.0000   110.2413
138      0.0000     0.0000E+00    0.0000E+00    2.861200E+08  0.05000  7.047E-04    0   0.6618   age125_m72            0.0000     4.9903E+02    15.6424   3.6305   108.9503
139      0.0000     0.0000E+00    0.0000E+00    5.088000E+08  0.05000  3.590E-04    0   0.6356   age130_m72            0.0000     4.7487E+02    16.2091   3.0404   111.3069
140      0.0000     0.0000E+00    0.0000E+00    9.047900E+08  0.05000  1.484E-04    0   0.6088   age135_m72            0.0000     3.5193E+02    15.8464   2.2167   106.6429
141      0.0000     0.0000E+00    0.0000E+00    1.278050E+09  0.05000  9.435E-05    0   0.5924   age138_m72            0.0000     4.0080E+02    17.0276   1.7731   103.9022
142      0.0000     0.0000E+00    0.0000E+00    1.434000E+09  0.05000  7.827E-05    0   0.5847   age139_m72            0.0000     3.8765E+02    16.8038   1.7703   103.7624
143      0.0000     0.0000E+00    0.0000E+00    2.500000E+09  0.05000  3.759E-05    0   0.5583   age150_m72            0.0000     4.7787E+02    17.8330   1.4214   103.1332
144      0.0000     0.0000E+00    0.0000E+00    4.250000E+09  0.05000  1.842E-05    0   0.5374   age158_m72            0.0000     5.8775E+02    18.9652   1.0911   102.1475
145      0.0000     0.0000E+00    0.0000E+00    6.250000E+09  0.05000  1.207E-05    0   0.5242   age166_m72            0.0000     7.0957E+02    20.3884   0.8604   100.8380
146      0.0000     0.0000E+00    0.0000E+00    7.500000E+09  0.05000  9.993E-06    0   0.5183   age171_m72            0.0000     7.2746E+02    20.5936   0.8175   100.6124
147      0.0000     0.0000E+00    0.0000E+00    1.000000E+10  0.05000  7.291E-06    0   0.5081   age181_m72            0.0000     8.1732E+02    21.6242   0.7102    99.5756
148      3.0370     1.9169E+01    1.9534E+01    1.300000E+10  0.05000  5.316E-06    0   0.5018   age193_m72            0.0000     9.5087E+02    23.0552   0.5465    98.1741
149      1.5399     1.1489E+01    1.1601E+01    1.500000E+10  0.05000  4.497E-06    0   0.4972   age201_m72            0.0000     1.0177E+03    23.7327   0.4866    97.7403
150      4.6776     4.1976E+01    4.1974E+01    1.800000E+10  0.05000  3.739E-06    0   0.4924   age213_m72            0.0000     1.1007E+03    24.5897   0.3972    97.0509


## Synthesis Results - Average & Chains ##

# j      x_j: min, <> & last-chain-values for 1 ...  7 chains
  1      0.0000      0.0236      0.1424      0.0133      0.1180      0.0000      0.0000      0.1216      0.0000
  2      9.4496     10.6357     10.4480     10.7622     10.7286     10.5617     10.7298      9.9274     10.4312
  3     24.3882     23.0035     23.2588     23.2698     22.9833     23.1478     23.1376     23.3057     23.0428
  4      2.0311      1.8866      1.8490      1.8618      1.8977      1.9072      1.7941      2.1720      1.8386
  5      4.5005      4.3227      4.4285      4.4944      4.5323      4.3647      4.2895      4.6176      4.2393
  6      5.5115      4.5876      4.7001      4.6057      4.6722      4.6476      4.6100      4.6276      4.6134
  7      1.1403      1.1409      1.1009      1.1338      1.1734      1.1497      1.0087      1.3768      1.2013
  8      0.3051      0.1699      0.0000      0.0000      0.0628      0.2392      0.2195      0.2581      0.1879
  9      0.9126      0.1146      0.0000      0.0892      0.1165      0.2864      0.5047      0.1224      0.2489
 10      1.6560      0.2359      1.3549      0.1759      0.2829      0.3377      0.5677      0.2652      0.2153
 11      1.1586      0.2567      0.1619      0.7354      0.6673      0.0000      0.4229      0.3677      0.3532
 12      0.0000      0.0436      0.0000      0.0000      0.0000      0.0000      0.0000      0.0000      0.0000
 13      0.0000      0.0663      0.0000      0.0698      0.0000      0.0461      0.0000      0.0884      0.0605
 14      0.0000      0.0442      0.0000      0.0981      0.0394      0.1872      0.0000      0.0000      0.2520
 15      0.0000      0.0477      0.1775      0.0000      0.0000      0.0000      0.0482      0.0000      0.0000
 16      0.0000      0.0514      0.0000      0.0000      0.0721      0.0000      0.0000      0.0000      0.0000
 17      0.0000      0.0563      0.0737      0.0222      0.0000      0.1922      0.0000      0.2670      0.0531
 18      0.0559      0.1084      0.0978      0.2788      0.2281      0.0000      0.2463      0.0666      0.0378
 19      0.0000      0.0883      0.0080      0.2087      0.3347      0.0000      0.0000      0.3691      0.1294
 20      0.0042      0.0909      0.0000      0.0001      0.0000      0.0000      0.2817      0.0000      0.0146
 21      0.0048      0.1156      0.1950      0.0000      0.0724      0.6572      0.1712      0.0000      0.0000
 22      0.0000      0.1695      0.1631      0.2141      0.0000      0.0469      0.0936      0.6469      0.0000
 23      0.0000      0.1475      0.2940      0.0000      0.4450      0.1668      0.0000      0.0644      0.0000
 24      0.0000      0.1276      0.0000      0.3767      0.0466      0.0000      0.0000      0.2797      0.0000
 25     13.2837     12.7181     12.7231     12.4281     12.6272     12.6495     13.1134     12.8102     12.8302
 26      0.0005      0.6815      0.4101      0.4271      0.8022      0.4066      0.6634      0.4643      0.6511
 27      0.0000      0.0550      0.0000      0.1017      0.0000      0.0690      0.1025      0.1901      0.1247
 28      2.7892      2.9473      2.9470      2.8812      2.8458      3.0277      2.6153      2.8261      3.2701
 29      1.8725      2.2821      2.3049      2.4344      2.3128      2.1699      2.3301      2.2765      2.2044
 30      2.5310      2.7704      2.9391      2.8817      2.8354      2.8894      2.6795      2.7483      2.7090
 31      0.0124      0.0966      0.1073      0.3196      0.0000      0.0509      0.4012      0.0826      0.0910
 32      0.0056      0.1812      0.0718      0.0976      0.1874      0.3537      0.3683      0.0388      0.3476
 33      0.0000      0.0557      0.1821      0.0621      0.0000      0.1388      0.1109      0.0000      0.0932
 34      0.1780      0.1631      0.2418      0.1245      0.3384      0.0315      0.4747      0.3520      0.0639
 35      0.0000      0.1300      0.0056      0.1265      0.4152      0.0528      0.1643      0.0000      0.2211
 36      0.0000      0.0595      0.1355      0.0000      0.0302      0.0000      0.0000      0.1103      0.0664
 37      0.0000      0.1839      0.1914      0.0000      0.3484      0.2790      0.0950      0.1594      0.6319
 38      0.0000      0.0635      0.0000      0.0000      0.1341      0.0357      0.1055      0.2443      0.0000
 39      0.0000      0.0420      0.0000      0.0000      0.0000      0.0000      0.0041      0.1702      0.0255
 40      0.0000      0.0204      0.0000      0.0027      0.0000      0.0000      0.0000      0.0189      0.0000
 41      0.0000      0.0589      0.0000      0.0000      0.0000      0.0000      0.0036      0.0000      0.0000
 42      0.0000      0.0754      0.0000      0.0000      0.0118      0.1141      0.0000      0.0000      0.0196
 43      0.7572      0.1398      0.0901      0.1440      0.0000      0.1732      0.2179      0.3446      0.0000
 44      0.0000      0.1929      0.1109      0.5182      0.4353      0.2208      0.0000      0.3430      0.5548
 45      4.6565      5.5174      5.4497      5.3285      5.5323      5.5914      4.8285      5.4478      5.7955
 46      3.3456      3.9688      3.9382      3.7997      4.1603      4.0959      4.4031      3.6283      4.0137
 47      1.2495      2.2769      2.2543      2.5175      2.3602      1.9701      2.0977      2.1043      2.1430
 48      0.0000      0.1431      0.1130      0.0000      0.2106      0.7171      0.0000      0.0446      0.1773
 49      0.0000      0.1842      0.0000      0.1933      0.0530      0.0863      0.0000      0.1451      0.3630
 50      2.6533      0.2502      0.7615      0.2972      0.2191      0.3174      0.3361      0.0863      0.2473
 51      0.0000      0.0264      0.0000      0.0000      0.0303      0.0168      0.0000      0.0000      0.0000
 52      1.1598      0.7005      0.4239      0.6845      0.4546      1.0517      0.7832      0.8858      0.7342
 53      0.0000      0.0275      0.0000      0.0000      0.0000      0.0240      0.0000      0.0000      0.0000
 54      0.0000      0.0468      0.0000      0.0000      0.0000      0.0235      0.1137      0.1379      0.0000
 55      0.0000      0.0494      0.0000      0.0000      0.0158      0.1464      0.0768      0.0000      0.0000
 56      0.0000      0.0951      0.0582      0.0000      0.0000      0.1984      0.0658      0.0000      0.0000
 57      0.0000      0.0325      0.0000      0.0000      0.0000      0.0000      0.0000      0.0000      0.0919
 58      0.0000      0.0437      0.0230      0.0000      0.0000      0.0623      0.0000      0.0000      0.0282
 59      0.0000      0.0321      0.0296      0.0000      0.0000      0.0059      0.0155      0.0000      0.0000
 60      0.0000      0.0304      0.0850      0.0000      0.0110      0.0234      0.0000      0.1107      0.0000
 61      0.0000      0.0384      0.0000      0.0000      0.0000      0.0007      0.0000      0.0298      0.0000
 62      0.0000      0.0272      0.0000      0.1503      0.1092      0.0000      0.0000      0.0000      0.0251
 63      0.0000      0.0260      0.0318      0.0000      0.0000      0.0000      0.0000      0.0000      0.0126
 64      0.0015      0.0332      0.0000      0.2920      0.0020      0.0228      0.3104      0.0321      0.0000
 65      0.0000      0.0327      0.3106      0.0000      0.0000      0.0000      0.0000      0.0000      0.0000
 66      0.0000      0.0237      0.0000      0.0000      0.0000      0.0000      0.0000      0.0000      0.0000
 67      0.0000      0.0200      0.0000      0.0000      0.0000      0.0000      0.0000      0.0000      0.0000
 68      0.0000      0.0141      0.0111      0.0000      0.0000      0.0000      0.0240      0.0068      0.0000
 69      0.0000      0.0153      0.0000      0.0000      0.0000      0.0000      0.0000      0.0000      0.0000
 70      0.0000      0.0129      0.0000      0.0000      0.0000      0.0000      0.0000      0.0000      0.0000
 71      0.0000      0.0139      0.0506      0.0000      0.0000      0.0000      0.0000      0.0000      0.0000
 72      0.0000      0.0096      0.0000      0.0009      0.0047      0.0000      0.0000      0.0178      0.0000
 73      0.0000      0.0136      0.0000      0.0000      0.0000      0.0000      0.0119      0.0000      0.0000
 74      0.0000      0.0148      0.0279      0.0000      0.0000      0.0000      0.0000      0.0000      0.0000
 75      0.0000      0.0151      0.0000      0.1067      0.0000      0.0000      0.0000      0.0068      0.0496
 76      0.0000      0.0204      0.0000      0.0000      0.0000      0.0565      0.0000      0.0321      0.0111
 77      0.0000      0.0366      0.0000      0.0000      0.0073      0.0000      0.0759      0.0000      0.0045
 78      0.0000      0.0150      0.0000      0.0000      0.0000      0.0921      0.0000      0.0692      0.0000
 79      0.0000      0.0156      0.0000      0.0000      0.1008      0.0000      0.0000      0.0000      0.0000
 80      0.0000      0.0200      0.0000      0.0329      0.0927      0.0000      0.0000      0.0000      0.0000
 81      0.0000      0.0268      0.0000      0.0000      0.0000      0.0000      0.0000      0.0000      0.0000
 82      0.0000      0.0262      0.0000      0.0000      0.0000      0.0000      0.0000      0.0000      0.0089
 83      0.0034      0.0733      0.2328      0.0000      0.0000      0.0058      0.2335      0.0000      0.0908
 84      0.0000      0.0685      0.0000      0.1814      0.0000      0.0840      0.1581      0.0357      0.1513
 85      0.0000      0.0351      0.0085      0.0000      0.0000      0.0000      0.0000      0.0741      0.0000
 86      0.0000      0.0326      0.0000      0.0523      0.0403      0.0267      0.0000      0.0000      0.0300
 87      0.0000      0.0261      0.0249      0.0000      0.0000      0.0000      0.0000      0.0000      0.0000
 88      0.0000      0.0182      0.0000      0.0000      0.0000      0.0000      0.0000      0.0000      0.0000
 89      0.0000      0.0124      0.0086      0.0000      0.0000      0.0000      0.0000      0.0000      0.0000
 90      0.0000      0.0078      0.0000      0.0000      0.0000      0.0065      0.0000      0.0000      0.0000
 91      0.0000      0.0090      0.0000      0.0000      0.0000      0.0195      0.0000      0.0000      0.0000
 92      0.0000      0.0086      0.0000      0.0000      0.0000      0.0000      0.0000      0.0000      0.0000
 93      0.0000      0.0067      0.0000      0.0000      0.0000      0.0000      0.0046      0.0000      0.0000
 94      0.0000      0.0057      0.0000      0.0000      0.0000      0.0000      0.0000      0.0000      0.0000
 95      0.0000      0.0069      0.0000      0.0000      0.0000      0.0000      0.0000      0.0000      0.0000
 96      0.0000      0.0089      0.0185      0.0000      0.0000      0.0000      0.0000      0.0000      0.0000
 97      0.0000      0.0062      0.0000      0.0000      0.0000      0.0150      0.0000      0.0000      0.0000
 98      0.0000      0.0054      0.0000      0.0000      0.0000      0.0000      0.0567      0.0000      0.0000
 99      0.0000      0.0048      0.0000      0.0000      0.0000      0.0000      0.0000      0.0000      0.0000
100      0.0000      0.0054      0.0747      0.0000      0.0000      0.0000      0.0000      0.0000      0.0000
101      0.0000      0.0267      0.0000      0.1217      0.0000      0.0314      0.0000      0.0000      0.0000
102      0.0000      0.0144      0.0210      0.0254      0.0000      0.0000      0.0000      0.0000      0.0000
103      0.0000      0.0329      0.0339      0.0120      0.0000      0.0000      0.0000      0.0000      0.0000
104      0.0000      0.0269      0.0000      0.0000      0.0053      0.0000      0.1383      0.0000      0.0227
105      0.7478      1.0477      1.1214      1.0851      0.9488      0.7946      0.9350      0.8161      1.1605
106      0.0000      0.1216      0.2803      0.1081      0.1659      0.2108      0.0064      0.0000      0.1649
107      0.0000      0.0437      0.0000      0.1285      0.0000      0.0000      0.0000      0.0238      0.0246
108      0.0000      0.0169      0.0000      0.0000      0.0000      0.0000      0.0000      0.0000      0.0000
109      0.0000      0.0247      0.0000      0.0000      0.0000      0.0000      0.0000      0.0046      0.0020
110      0.0000      0.0315      0.0000      0.0000      0.0000      0.0000      0.0000      0.1622      0.0176
111      0.0000      0.0271      0.0000      0.0639      0.0000      0.0000      0.0000      0.0000      0.0000
112      0.0000      0.0334      0.0000      0.1664      0.0000      0.0000      0.0000      0.0498      0.0000
113      0.0000      0.0217      0.0000      0.0941      0.0000      0.0000      0.0000      0.0000      0.0000
114      0.0000      0.0091      0.0000      0.0000      0.0000      0.0000      0.0000      0.0000      0.0000
115      0.0000      0.0075      0.0000      0.0000      0.0000      0.0000      0.0000      0.0002      0.0000
116      0.0000      0.0066      0.0000      0.0000      0.0000      0.0000      0.0000      0.0000      0.0000
117      0.0000      0.0054      0.0000      0.0000      0.0000      0.0000      0.0002      0.0000      0.0324
118      0.0000      0.0054      0.0000      0.0000      0.0000      0.0000      0.0000      0.0000      0.0000
119      0.0000      0.0043      0.0000      0.0000      0.0000      0.0000      0.0000      0.0000      0.0000
120      0.0000      0.0030      0.0000      0.0000      0.0000      0.0000      0.0000      0.0000      0.0000
121      0.0000      0.0047      0.0000      0.0000      0.0000      0.0000      0.0000      0.0000      0.0000
122      0.0000      0.0026      0.0000      0.0000      0.0000      0.0000      0.0000      0.0000      0.0000
123      0.0000      0.0069      0.0000      0.0000      0.0000      0.0000      0.0000      0.0000      0.0000
124      0.0000      0.0100      0.0000      0.0000      0.0000      0.0000      0.0761      0.0629      0.0000
125      0.0000      0.0050      0.0000      0.0000      0.0000      0.0000      0.0000      0.0000      0.0335
126      0.0000      0.0118      0.0000      0.0000      0.0000      0.0000      0.0000      0.0000      0.0000
127      0.0000      0.0126      0.0000      0.0006      0.0000      0.0000      0.0000      0.0000      0.0000
128      0.0000      0.0133      0.0000      0.0000      0.0572      0.0000      0.0000      0.0000      0.0000
129      0.0000      0.0170      0.0000      0.0157      0.0000      0.0000      0.0000      0.0000      0.0000
130      0.0000      0.0077      0.0051      0.0000      0.0000      0.0000      0.0000      0.0000      0.0000
131      0.0000      0.0064      0.0000      0.0000      0.0000      0.0249      0.0000      0.0000      0.0000
132      0.0000      0.0065      0.0000      0.0000      0.0000      0.0000      0.0000      0.0000      0.0000
133      0.0000      0.0105      0.0000      0.0000      0.0000      0.0000      0.0000      0.0549      0.0000
134      0.0000      0.0372      0.0898      0.0000      0.0000      0.0000      0.0000      0.0281      0.1347
135      0.0000      0.0448      0.0901      0.0000      0.0322      0.0155      0.0005      0.0746      0.0000
136      0.0000      0.0358      0.0000      0.0000      0.0000      0.0000      0.0000      0.0294      0.0000
137      0.0000      0.0293      0.0000      0.0000      0.0000      0.1264      0.0000      0.0153      0.0023
138      0.0000      0.0135      0.0416      0.0000      0.0000      0.0300      0.0000      0.0000      0.0091
139      0.0000      0.0097      0.0000      0.0199      0.0000      0.0000      0.0000      0.0000      0.0000
140      0.0000      0.0052      0.0000      0.0000      0.0000      0.0000      0.0000      0.0028      0.0000
141      0.0000      0.0041      0.0000      0.0000      0.0000      0.0000      0.0000      0.0000      0.0000
142      0.0000      0.0024      0.0000      0.0000      0.0000      0.0000      0.0011      0.0000      0.0000
143      0.0000      0.0034      0.0000      0.0000      0.0000      0.0000      0.0000      0.0000      0.0350
144      0.0000      0.0099      0.0033      0.0000      0.0000      0.0000      0.0000      0.0000      0.0641
145      0.0000      0.0115      0.0184      0.0000      0.0000      0.0000      0.0000      0.0847      0.0000
146      0.0000      0.0971      0.0000      0.1383      0.0000      0.0954      0.1020      0.0000      0.0728
147      0.0000      0.0514      0.0357      0.1078      0.0129      0.0000      0.0987      0.0000      0.0377
148      3.0370      2.8978      2.9557      3.0039      2.9596      3.0209      2.9993      2.8973      2.9154
149      1.5399      1.5238      1.5558      1.5218      1.5750      1.4572      1.5820      1.5406      1.4796
150      4.6776      4.5704      4.5632      4.4306      4.6752      4.5859      4.5607      4.7889      4.6402

# j      m_j: min, <> & last-chain-values for 1 ...  7 chains
  1  0.0000E+00  2.0185E-04  1.2118E-03  1.1460E-04  9.9968E-04  0.0000E+00  0.0000E+00  1.0231E-03  0.0000E+00
  2  1.3530E-02  1.5584E-02  1.5240E-02  1.5863E-02  1.5581E-02  1.5456E-02  1.5558E-02  1.4327E-02  1.5238E-02
  3  8.2419E-02  7.9558E-02  8.0077E-02  8.0952E-02  7.8780E-02  7.9952E-02  7.9183E-02  7.9384E-02  7.9449E-02
  4  1.2901E-02  1.2264E-02  1.1965E-02  1.2174E-02  1.2226E-02  1.2382E-02  1.1541E-02  1.3906E-02  1.1915E-02
  5  3.6010E-02  3.5397E-02  3.6099E-02  3.7019E-02  3.6782E-02  3.5693E-02  3.4756E-02  3.7239E-02  3.4606E-02
  6  5.2441E-02  4.4672E-02  4.5560E-02  4.5112E-02  4.5090E-02  4.5197E-02  4.4420E-02  4.4380E-02  4.4785E-02
  7  1.3692E-02  1.4020E-02  1.3467E-02  1.4014E-02  1.4291E-02  1.4110E-02  1.2266E-02  1.6663E-02  1.4717E-02
  8  4.1422E-03  2.3598E-03  0.0000E+00  0.0000E+00  8.6481E-04  3.3194E-03  3.0173E-03  3.5317E-03  2.6026E-03
  9  1.3325E-02  1.7130E-03  0.0000E+00  1.3415E-03  1.7257E-03  4.2737E-03  7.4633E-03  1.8020E-03  3.7085E-03
 10  2.7716E-02  4.0397E-03  2.3101E-02  3.0304E-03  4.8029E-03  5.7768E-03  9.6216E-03  4.4733E-03  3.6771E-03
 11  2.3180E-02  5.2567E-03  3.2995E-03  1.5147E-02  1.3542E-02  0.0000E+00  8.5687E-03  7.4155E-03  7.2094E-03
 12  0.0000E+00  1.5630E-03  0.0000E+00  0.0000E+00  0.0000E+00  0.0000E+00  0.0000E+00  0.0000E+00  0.0000E+00
 13  0.0000E+00  2.7583E-03  0.0000E+00  2.9211E-03  0.0000E+00  1.9157E-03  0.0000E+00  3.6230E-03  2.5091E-03
 14  0.0000E+00  2.6116E-03  0.0000E+00  5.8267E-03  2.3037E-03  1.1043E-02  0.0000E+00  0.0000E+00  1.4836E-02
 15  0.0000E+00  4.2493E-03  1.5753E-02  0.0000E+00  0.0000E+00  0.0000E+00  4.2524E-03  0.0000E+00  0.0000E+00
 16  0.0000E+00  6.6324E-03  0.0000E+00  0.0000E+00  9.2210E-03  0.0000E+00  0.0000E+00  0.0000E+00  0.0000E+00
 17  0.0000E+00  8.0684E-03  1.0524E-02  3.2030E-03  0.0000E+00  2.7516E-02  0.0000E+00  3.7694E-02  7.5887E-03
 18  1.2759E-02  2.5300E-02  2.2730E-02  6.5463E-02  5.2780E-02  0.0000E+00  5.6903E-02  1.5308E-02  8.7956E-03
 19  0.0000E+00  3.1230E-02  2.8343E-03  7.4279E-02  1.1738E-01  0.0000E+00  0.0000E+00  1.2865E-01  4.5642E-02
 20  2.0546E-03  4.6019E-02  0.0000E+00  5.5992E-05  0.0000E+00  0.0000E+00  1.4105E-01  0.0000E+00  7.3582E-03
 21  2.7473E-03  6.7661E-02  1.1364E-01  0.0000E+00  4.2025E-02  3.8430E-01  9.9192E-02  0.0000E+00  0.0000E+00
 22  0.0000E+00  1.2804E-01  1.2262E-01  1.6265E-01  0.0000E+00  3.5404E-02  6.9999E-02  4.8124E-01  0.0000E+00
 23  0.0000E+00  1.4127E-01  2.8025E-01  0.0000E+00  4.2233E-01  1.5955E-01  0.0000E+00  6.0737E-02  0.0000E+00
 24  0.0000E+00  1.3977E-01  0.0000E+00  4.1494E-01  5.0611E-02  0.0000E+00  0.0000E+00  3.0168E-01  0.0000E+00
 25  1.7075E+01  1.6731E+01  1.6661E+01  1.6445E+01  1.6463E+01  1.6618E+01  1.7070E+01  1.6597E+01  1.6826E+01
 26  4.0837E-06  5.6190E-03  3.3658E-03  3.5424E-03  6.5552E-03  3.3476E-03  5.4119E-03  3.7701E-03  5.3513E-03
 27  0.0000E+00  9.6502E-05  0.0000E+00  1.7947E-04  0.0000E+00  1.2090E-04  1.7808E-04  3.2868E-04  2.1819E-04
 28  9.3622E-03  1.0124E-02  1.0077E-02  9.9556E-03  9.6886E-03  1.0387E-02  8.8897E-03  9.5611E-03  1.1199E-02
 29  9.7948E-03  1.2217E-02  1.2283E-02  1.3109E-02  1.2271E-02  1.1601E-02  1.2343E-02  1.2003E-02  1.1765E-02
 30  1.6456E-02  1.8434E-02  1.9468E-02  1.9288E-02  1.8699E-02  1.9200E-02  1.7643E-02  1.8010E-02  1.7970E-02
 31  9.2787E-05  7.4237E-04  8.2081E-04  2.4709E-03  0.0000E+00  3.9105E-04  3.0517E-03  6.2540E-04  6.9723E-04
 32  4.6420E-05  1.5423E-03  6.0870E-04  8.3543E-04  1.5809E-03  3.0072E-03  3.1024E-03  3.2526E-04  2.9495E-03
 33  0.0000E+00  6.7423E-04  2.1925E-03  7.5588E-04  0.0000E+00  1.6767E-03  1.3281E-03  0.0000E+00  1.1245E-03
 34  2.5555E-03  2.3966E-03  3.5366E-03  1.8407E-03  4.9292E-03  4.6275E-04  6.9035E-03  5.0940E-03  9.3671E-04
 35  0.0000E+00  2.3089E-03  9.8283E-05  2.2586E-03  7.3072E-03  9.3571E-04  2.8863E-03  0.0000E+00  3.9141E-03
 36  0.0000E+00  1.3535E-03  3.0699E-03  0.0000E+00  6.8150E-04  0.0000E+00  0.0000E+00  2.4721E-03  1.5074E-03
 37  0.0000E+00  5.2030E-03  5.3906E-03  0.0000E+00  9.7676E-03  7.8827E-03  2.6596E-03  4.4412E-03  1.7821E-02
 38  0.0000E+00  2.5007E-03  0.0000E+00  0.0000E+00  5.2355E-03  1.4052E-03  4.1116E-03  9.4804E-03  0.0000E+00
 39  0.0000E+00  2.4708E-03  0.0000E+00  0.0000E+00  0.0000E+00  0.0000E+00  2.3607E-04  9.8554E-03  1.4946E-03
 40  0.0000E+00  2.1184E-03  0.0000E+00  2.8462E-04  0.0000E+00  0.0000E+00  0.0000E+00  1.9274E-03  0.0000E+00
 41  0.0000E+00  8.1906E-03  0.0000E+00  0.0000E+00  0.0000E+00  0.0000E+00  4.9947E-04  0.0000E+00  0.0000E+00
 42  0.0000E+00  1.1701E-02  0.0000E+00  0.0000E+00  1.8213E-03  1.7684E-02  0.0000E+00  0.0000E+00  3.0296E-03
 43  1.8675E-01  3.5285E-02  2.2630E-02  3.6566E-02  0.0000E+00  4.3655E-02  5.4424E-02  8.5667E-02  0.0000E+00
 44  0.0000E+00  7.7006E-02  4.4090E-02  2.0806E-01  1.7221E-01  8.8014E-02  0.0000E+00  1.3487E-01  2.2078E-01
 45  2.5315E+00  3.0698E+00  3.0184E+00  2.9821E+00  3.0506E+00  3.1069E+00  2.6583E+00  2.9851E+00  3.2146E+00
 46  2.1668E+00  2.6305E+00  2.5984E+00  2.5332E+00  2.7328E+00  2.7112E+00  2.8878E+00  2.3684E+00  2.6521E+00
 47  1.0606E+00  1.9779E+00  1.9494E+00  2.1998E+00  2.0320E+00  1.7091E+00  1.8031E+00  1.8003E+00  1.8558E+00
 48  0.0000E+00  1.4807E-01  1.1632E-01  0.0000E+00  2.1592E-01  7.4086E-01  0.0000E+00  4.5404E-02  1.8283E-01
 49  0.0000E+00  2.1317E-01  0.0000E+00  2.2503E-01  6.0790E-02  9.9681E-02  0.0000E+00  1.6542E-01  4.1878E-01
 50  3.5287E+00  3.4050E-01  1.0317E+00  4.0683E-01  2.9549E-01  4.3144E-01  4.5265E-01  1.1566E-01  3.3552E-01
 51  0.0000E+00  1.6499E-04  0.0000E+00  0.0000E+00  1.8784E-04  1.0477E-04  0.0000E+00  0.0000E+00  0.0000E+00
 52  1.9401E-03  1.1993E-03  7.2248E-04  1.1787E-03  7.7139E-04  1.7980E-03  1.3267E-03  1.4935E-03  1.2530E-03
 53  0.0000E+00  7.1698E-05  0.0000E+00  0.0000E+00  0.0000E+00  6.2528E-05  0.0000E+00  0.0000E+00  0.0000E+00
 54  0.0000E+00  1.1660E-04  0.0000E+00  0.0000E+00  0.0000E+00  5.8428E-05  2.7998E-04  3.3803E-04  0.0000E+00
 55  0.0000E+00  1.8123E-04  0.0000E+00  0.0000E+00  5.7674E-05  5.3696E-04  2.7888E-04  0.0000E+00  0.0000E+00
 56  0.0000E+00  4.6247E-04  2.8172E-04  0.0000E+00  0.0000E+00  9.6339E-04  3.1658E-04  0.0000E+00  0.0000E+00
 57  0.0000E+00  2.5359E-04  0.0000E+00  0.0000E+00  0.0000E+00  0.0000E+00  0.0000E+00  0.0000E+00  7.1439E-04
 58  0.0000E+00  4.9085E-04  2.5728E-04  0.0000E+00  0.0000E+00  6.9915E-04  0.0000E+00  0.0000E+00  3.1620E-04
 59  0.0000E+00  5.0121E-04  4.5987E-04  0.0000E+00  0.0000E+00  9.2709E-05  2.3982E-04  0.0000E+00  0.0000E+00
 60  0.0000E+00  5.2793E-04  1.4711E-03  0.0000E+00  1.9031E-04  4.0639E-04  0.0000E+00  1.8966E-03  0.0000E+00
 61  0.0000E+00  8.5148E-04  0.0000E+00  0.0000E+00  0.0000E+00  1.5856E-05  0.0000E+00  6.4951E-04  0.0000E+00
 62  0.0000E+00  7.6283E-04  0.0000E+00  4.2467E-03  3.0403E-03  0.0000E+00  0.0000E+00  0.0000E+00  7.0428E-04
 63  0.0000E+00  1.1100E-03  1.3516E-03  0.0000E+00  0.0000E+00  0.0000E+00  0.0000E+00  0.0000E+00  5.3752E-04
 64  1.0115E-04  2.3372E-03  0.0000E+00  2.0651E-02  1.4024E-04  1.6018E-03  2.1598E-02  2.2221E-03  0.0000E+00
 65  0.0000E+00  3.8903E-03  3.6744E-02  0.0000E+00  0.0000E+00  0.0000E+00  0.0000E+00  0.0000E+00  0.0000E+00
 66  0.0000E+00  3.6062E-03  0.0000E+00  0.0000E+00  0.0000E+00  0.0000E+00  0.0000E+00  0.0000E+00  0.0000E+00
 67  0.0000E+00  4.1698E-03  0.0000E+00  0.0000E+00  0.0000E+00  0.0000E+00  0.0000E+00  0.0000E+00  0.0000E+00
 68  0.0000E+00  5.4660E-03  4.2931E-03  0.0000E+00  0.0000E+00  0.0000E+00  9.2335E-03  2.5961E-03  0.0000E+00
 69  0.0000E+00  1.0222E-02  0.0000E+00  0.0000E+00  0.0000E+00  0.0000E+00  0.0000E+00  0.0000E+00  0.0000E+00
 70  0.0000E+00  1.2049E-02  0.0000E+00  0.0000E+00  0.0000E+00  0.0000E+00  0.0000E+00  0.0000E+00  0.0000E+00
 71  0.0000E+00  1.5272E-02  5.5362E-02  0.0000E+00  0.0000E+00  0.0000E+00  0.0000E+00  0.0000E+00  0.0000E+00
 72  0.0000E+00  1.3851E-02  0.0000E+00  1.3446E-03  6.7244E-03  0.0000E+00  0.0000E+00  2.5355E-02  0.0000E+00
 73  0.0000E+00  2.4784E-02  0.0000E+00  0.0000E+00  0.0000E+00  0.0000E+00  2.1422E-02  0.0000E+00  0.0000E+00
 74  0.0000E+00  3.0128E-02  5.6479E-02  0.0000E+00  0.0000E+00  0.0000E+00  0.0000E+00  0.0000E+00  0.0000E+00
 75  0.0000E+00  3.5458E-02  0.0000E+00  2.5119E-01  0.0000E+00  0.0000E+00  0.0000E+00  1.5675E-02  1.1578E-01
 76  0.0000E+00  1.1082E-04  0.0000E+00  0.0000E+00  0.0000E+00  3.0598E-04  0.0000E+00  1.7124E-04  6.0086E-05
 77  0.0000E+00  8.0826E-05  0.0000E+00  0.0000E+00  1.6011E-05  0.0000E+00  1.6596E-04  0.0000E+00  9.9609E-06
 78  0.0000E+00  3.6966E-05  0.0000E+00  0.0000E+00  0.0000E+00  2.2743E-04  0.0000E+00  1.6846E-04  0.0000E+00
 79  0.0000E+00  4.6401E-05  0.0000E+00  0.0000E+00  2.9710E-04  0.0000E+00  0.0000E+00  0.0000E+00  0.0000E+00
 80  0.0000E+00  7.6821E-05  0.0000E+00  1.2696E-04  3.5203E-04  0.0000E+00  0.0000E+00  0.0000E+00  0.0000E+00
 81  0.0000E+00  1.3589E-04  0.0000E+00  0.0000E+00  0.0000E+00  0.0000E+00  0.0000E+00  0.0000E+00  0.0000E+00
 82  0.0000E+00  1.7884E-04  0.0000E+00  0.0000E+00  0.0000E+00  0.0000E+00  0.0000E+00  0.0000E+00  6.0461E-05
 83  3.3803E-05  7.3483E-04  2.3243E-03  0.0000E+00  0.0000E+00  5.8349E-05  2.3167E-03  0.0000E+00  9.0749E-04
 84  0.0000E+00  9.5030E-04  0.0000E+00  2.5327E-03  0.0000E+00  1.1649E-03  2.1713E-03  4.8788E-04  2.0938E-03
 85  0.0000E+00  5.9250E-04  1.4295E-04  0.0000E+00  0.0000E+00  0.0000E+00  0.0000E+00  1.2294E-03  0.0000E+00
 86  0.0000E+00  7.4434E-04  0.0000E+00  1.2023E-03  9.1198E-04  6.0814E-04  0.0000E+00  0.0000E+00  6.8203E-04
 87  0.0000E+00  7.9371E-04  7.5518E-04  0.0000E+00  0.0000E+00  0.0000E+00  0.0000E+00  0.0000E+00  0.0000E+00
 88  0.0000E+00  8.4305E-04  0.0000E+00  0.0000E+00  0.0000E+00  0.0000E+00  0.0000E+00  0.0000E+00  0.0000E+00
 89  0.0000E+00  9.5535E-04  6.5800E-04  0.0000E+00  0.0000E+00  0.0000E+00  0.0000E+00  0.0000E+00  0.0000E+00
 90  0.0000E+00  1.1164E-03  0.0000E+00  0.0000E+00  0.0000E+00  9.2021E-04  0.0000E+00  0.0000E+00  0.0000E+00
 91  0.0000E+00  1.6558E-03  0.0000E+00  0.0000E+00  0.0000E+00  3.5752E-03  0.0000E+00  0.0000E+00  0.0000E+00
 92  0.0000E+00  2.1209E-03  0.0000E+00  0.0000E+00  0.0000E+00  0.0000E+00  0.0000E+00  0.0000E+00  0.0000E+00
 93  0.0000E+00  3.3500E-03  0.0000E+00  0.0000E+00  0.0000E+00  0.0000E+00  2.2746E-03  0.0000E+00  0.0000E+00
 94  0.0000E+00  5.0895E-03  0.0000E+00  0.0000E+00  0.0000E+00  0.0000E+00  0.0000E+00  0.0000E+00  0.0000E+00
 95  0.0000E+00  8.3656E-03  0.0000E+00  0.0000E+00  0.0000E+00  0.0000E+00  0.0000E+00  0.0000E+00  0.0000E+00
 96  0.0000E+00  1.2901E-02  2.6777E-02  0.0000E+00  0.0000E+00  0.0000E+00  0.0000E+00  0.0000E+00  0.0000E+00
 97  0.0000E+00  1.1661E-02  0.0000E+00  0.0000E+00  0.0000E+00  2.8420E-02  0.0000E+00  0.0000E+00  0.0000E+00
 98  0.0000E+00  1.3141E-02  0.0000E+00  0.0000E+00  0.0000E+00  0.0000E+00  1.3617E-01  0.0000E+00  0.0000E+00
 99  0.0000E+00  1.3291E-02  0.0000E+00  0.0000E+00  0.0000E+00  0.0000E+00  0.0000E+00  0.0000E+00  0.0000E+00
100  0.0000E+00  1.7051E-02  2.3686E-01  0.0000E+00  0.0000E+00  0.0000E+00  0.0000E+00  0.0000E+00  0.0000E+00
101  0.0000E+00  9.3488E-05  0.0000E+00  4.2922E-04  0.0000E+00  1.1003E-04  0.0000E+00  0.0000E+00  0.0000E+00
102  0.0000E+00  2.6257E-05  3.8027E-05  4.6515E-05  0.0000E+00  0.0000E+00  0.0000E+00  0.0000E+00  0.0000E+00
103  0.0000E+00  6.6378E-05  6.8113E-05  2.4432E-05  0.0000E+00  0.0000E+00  0.0000E+00  0.0000E+00  0.0000E+00
104  0.0000E+00  7.1488E-05  0.0000E+00  0.0000E+00  1.3850E-05  0.0000E+00  3.6353E-04  0.0000E+00  6.0183E-05
105  4.0969E-03  5.8747E-03  6.2594E-03  6.1200E-03  5.2726E-03  4.4494E-03  5.1878E-03  4.5066E-03  6.4873E-03
106  0.0000E+00  7.3419E-04  1.6841E-03  6.5642E-04  9.9263E-04  1.2705E-03  3.8510E-05  0.0000E+00  9.9234E-04
107  0.0000E+00  3.5182E-04  0.0000E+00  1.0413E-03  0.0000E+00  0.0000E+00  0.0000E+00  1.8890E-04  1.9800E-04
108  0.0000E+00  2.2660E-04  0.0000E+00  0.0000E+00  0.0000E+00  0.0000E+00  0.0000E+00  0.0000E+00  0.0000E+00
109  0.0000E+00  3.9759E-04  0.0000E+00  0.0000E+00  0.0000E+00  0.0000E+00  0.0000E+00  7.3379E-05  3.1902E-05
110  0.0000E+00  6.0646E-04  0.0000E+00  0.0000E+00  0.0000E+00  0.0000E+00  0.0000E+00  3.0791E-03  3.3882E-04
111  0.0000E+00  7.2669E-04  0.0000E+00  1.7247E-03  0.0000E+00  0.0000E+00  0.0000E+00  0.0000E+00  0.0000E+00
112  0.0000E+00  1.1810E-03  0.0000E+00  5.9097E-03  0.0000E+00  0.0000E+00  0.0000E+00  1.7327E-03  0.0000E+00
113  0.0000E+00  1.1447E-03  0.0000E+00  4.9856E-03  0.0000E+00  0.0000E+00  0.0000E+00  0.0000E+00  0.0000E+00
114  0.0000E+00  8.4316E-04  0.0000E+00  0.0000E+00  0.0000E+00  0.0000E+00  0.0000E+00  0.0000E+00  0.0000E+00
115  0.0000E+00  1.3953E-03  0.0000E+00  0.0000E+00  0.0000E+00  0.0000E+00  0.0000E+00  4.4130E-05  0.0000E+00
116  0.0000E+00  1.9800E-03  0.0000E+00  0.0000E+00  0.0000E+00  0.0000E+00  0.0000E+00  0.0000E+00  0.0000E+00
117  0.0000E+00  1.8888E-03  0.0000E+00  0.0000E+00  0.0000E+00  0.0000E+00  8.5436E-05  0.0000E+00  1.1314E-02
118  0.0000E+00  3.8059E-03  0.0000E+00  0.0000E+00  0.0000E+00  0.0000E+00  0.0000E+00  0.0000E+00  0.0000E+00
119  0.0000E+00  5.3335E-03  0.0000E+00  0.0000E+00  0.0000E+00  0.0000E+00  0.0000E+00  0.0000E+00  0.0000E+00
120  0.0000E+00  5.2473E-03  0.0000E+00  0.0000E+00  0.0000E+00  0.0000E+00  0.0000E+00  0.0000E+00  0.0000E+00
121  0.0000E+00  9.7589E-03  0.0000E+00  0.0000E+00  0.0000E+00  0.0000E+00  0.0000E+00  0.0000E+00  0.0000E+00
122  0.0000E+00  7.1454E-03  0.0000E+00  0.0000E+00  0.0000E+00  0.0000E+00  0.0000E+00  0.0000E+00  0.0000E+00
123  0.0000E+00  2.4945E-02  0.0000E+00  0.0000E+00  0.0000E+00  0.0000E+00  0.0000E+00  0.0000E+00  0.0000E+00
124  0.0000E+00  4.1810E-02  0.0000E+00  0.0000E+00  0.0000E+00  0.0000E+00  3.1414E-01  2.5812E-01  0.0000E+00
125  0.0000E+00  2.5184E-02  0.0000E+00  0.0000E+00  0.0000E+00  0.0000E+00  0.0000E+00  0.0000E+00  1.6678E-01
126  0.0000E+00  3.1156E-05  0.0000E+00  0.0000E+00  0.0000E+00  0.0000E+00  0.0000E+00  0.0000E+00  0.0000E+00
127  0.0000E+00  1.7475E-05  0.0000E+00  7.7832E-07  0.0000E+00  0.0000E+00  0.0000E+00  0.0000E+00  0.0000E+00
128  0.0000E+00  2.7415E-05  0.0000E+00  0.0000E+00  1.1665E-04  0.0000E+00  0.0000E+00  0.0000E+00  0.0000E+00
129  0.0000E+00  7.1581E-05  0.0000E+00  6.6465E-05  0.0000E+00  0.0000E+00  0.0000E+00  0.0000E+00  0.0000E+00
130  0.0000E+00  4.4235E-05  2.9134E-05  0.0000E+00  0.0000E+00  0.0000E+00  0.0000E+00  0.0000E+00  0.0000E+00
131  0.0000E+00  4.2276E-05  0.0000E+00  0.0000E+00  0.0000E+00  1.6497E-04  0.0000E+00  0.0000E+00  0.0000E+00
132  0.0000E+00  5.8665E-05  0.0000E+00  0.0000E+00  0.0000E+00  0.0000E+00  0.0000E+00  0.0000E+00  0.0000E+00
133  0.0000E+00  1.3814E-04  0.0000E+00  0.0000E+00  0.0000E+00  0.0000E+00  0.0000E+00  7.0833E-04  0.0000E+00
134  0.0000E+00  6.1738E-04  1.4842E-03  0.0000E+00  0.0000E+00  0.0000E+00  0.0000E+00  4.5949E-04  2.2300E-03
135  0.0000E+00  8.9515E-04  1.7922E-03  0.0000E+00  6.3739E-04  3.0932E-04  9.3565E-06  1.4689E-03  0.0000E+00
136  0.0000E+00  1.0310E-03  0.0000E+00  0.0000E+00  0.0000E+00  0.0000E+00  0.0000E+00  8.3445E-04  0.0000E+00
137  0.0000E+00  1.1549E-03  0.0000E+00  0.0000E+00  0.0000E+00  4.9693E-03  0.0000E+00  5.9304E-04  9.2199E-05
138  0.0000E+00  8.8168E-04  2.7113E-03  0.0000E+00  0.0000E+00  1.9645E-03  0.0000E+00  0.0000E+00  5.9484E-04
139  0.0000E+00  1.1971E-03  0.0000E+00  2.4717E-03  0.0000E+00  0.0000E+00  0.0000E+00  0.0000E+00  0.0000E+00
140  0.0000E+00  1.4854E-03  0.0000E+00  0.0000E+00  0.0000E+00  0.0000E+00  0.0000E+00  7.8614E-04  0.0000E+00
141  0.0000E+00  1.8017E-03  0.0000E+00  0.0000E+00  0.0000E+00  0.0000E+00  0.0000E+00  0.0000E+00  0.0000E+00
142  0.0000E+00  1.2661E-03  0.0000E+00  0.0000E+00  0.0000E+00  0.0000E+00  5.7105E-04  0.0000E+00  0.0000E+00
143  0.0000E+00  3.4967E-03  0.0000E+00  0.0000E+00  0.0000E+00  0.0000E+00  0.0000E+00  0.0000E+00  3.6097E-02
144  0.0000E+00  2.0043E-02  6.6885E-03  0.0000E+00  0.0000E+00  0.0000E+00  0.0000E+00  0.0000E+00  1.3001E-01
145  0.0000E+00  3.4684E-02  5.5421E-02  0.0000E+00  0.0000E+00  0.0000E+00  0.0000E+00  2.5262E-01  0.0000E+00
146  0.0000E+00  3.5110E-01  0.0000E+00  5.0304E-01  0.0000E+00  3.4459E-01  3.6488E-01  0.0000E+00  2.6241E-01
147  0.0000E+00  2.4986E-01  1.7276E-01  5.2716E-01  6.2089E-02  0.0000E+00  4.7460E-01  0.0000E+00  1.8265E-01
148  1.9534E+01  1.9075E+01  1.9367E+01  1.9890E+01  1.9308E+01  1.9858E+01  1.9536E+01  1.8783E+01  1.9131E+01
149  1.1601E+01  1.1748E+01  1.1941E+01  1.1802E+01  1.2035E+01  1.1220E+01  1.2070E+01  1.1698E+01  1.1373E+01
150  4.1974E+01  4.1972E+01  4.1716E+01  4.0927E+01  4.2552E+01  4.2059E+01  4.1444E+01  4.3313E+01  4.2481E+01

# AV, chi2 & Mass for <> & i_chain = 1 ...  7 solutions
AV       3.4228      3.4085      3.4110      3.4132      3.4087      3.4087      3.4120      3.4100      3.4098
chi2 2.9288E+00  3.0006E+00  2.9816E+00  2.9835E+00  2.9879E+00  2.9900E+00  2.9809E+00  2.9860E+00  2.9817E+00
Mass 4.3599E-09  4.1792E-09  4.2123E-09  4.1810E-09  4.2179E-09  4.1856E-09  4.2434E-09  4.2519E-09  4.1993E-09
 -24.70                                  [v0_min (km/s) before EX0s...]
  23.43                                  [vd_min (km/s) before EX0s...]


## Synthetic spectrum (Best Model) ##l_obs f_obs f_syn wei
 3070    [Nl_obs]
 3359.00    0.00000   0.50557   -2.000
 3360.00    0.00000   0.50305   -2.000
 3361.00    0.24325   0.50927   -1.000
 3362.00    0.28337   0.52030   -1.000
 3363.00    0.33291   0.53082   -1.000
 3364.00    0.32776   0.53462   -1.000
 3365.00    0.33336   0.52901   -1.000
 3366.00    0.32183   0.52194   -1.000
 3367.00    0.31068   0.51685   -1.000
 3368.00    0.32576   0.51314   -1.000
 3369.00    0.32536   0.51135   -1.000
 3370.00    0.32581   0.50820   -1.000
 3371.00    0.32303   0.50435   -1.000
 3372.00    0.34788   0.50485   -1.000
 3373.00    0.33411   0.51380   -1.000
 3374.00    0.36330   0.52627   -1.000
 3375.00    0.31767   0.53809   -1.000
 3376.00    0.33895   0.54085   -1.000
 3377.00    0.34968   0.53537   -1.000
 3378.00    0.35972   0.52969   -1.000
 3379.00    0.36946   0.52893   -1.000
 3380.00    0.36668   0.53447   -1.000
 3381.00    0.40248   0.54115   -1.000
 3382.00    0.39185   0.54487   -1.000
 3383.00    0.36995   0.54585   -1.000
 3384.00    0.39787   0.54671   -1.000
 3385.00    0.39031   0.55064   -1.000
 3386.00    0.40536   0.55207   -1.000
 3387.00    0.38655   0.55089   -1.000
 3388.00    0.39824   0.54910   -1.000
 3389.00    0.42781   0.54891   -1.000
 3390.00    0.39805   0.55107   -1.000
 3391.00    0.43080   0.55282   -1.000
 3392.00    0.40479   0.55325   -1.000
 3393.00    0.39245   0.55580   -1.000
 3394.00    0.37453   0.56303   -1.000
 3395.00    0.42142   0.56771   -1.000
 3396.00    0.43236   0.56922   -1.000
 3397.00    0.46356   0.56906   -1.000
 3398.00    0.41081   0.56670   -1.000
 3399.00    0.45365   0.55933   -1.000
 3400.00    0.47905   0.55374   31.764
 3401.00    0.48588   0.54972   31.320
 3402.00    0.47905   0.54220   31.582
 3403.00    0.40813   0.53903   -1.000
 3404.00    0.42170   0.53971   -1.000
 3405.00    0.45127   0.54217   -1.000
 3406.00    0.46482   0.54161   34.513
 3407.00    0.47833   0.54053   35.077
 3408.00    0.44572   0.54078   -1.000
 3409.00    0.42512   0.54401   -1.000
 3410.00    0.46534   0.54702   36.013
 3411.00    0.48753   0.54290   35.802
 3412.00    0.49513   0.54071   34.740
 3413.00    0.48484   0.54086   34.443
 3414.00    0.47284   0.54496   35.882
 3415.00    0.52313   0.55194   36.574
 3416.00    0.50247   0.55800   36.516
 3417.00    0.46038   0.56346   -1.000
 3418.00    0.49440   0.56820   34.120
 3419.00    0.51948   0.57238   32.510
 3420.00    0.53927   0.57444   30.870
 3421.00    0.47817   0.57328   30.691
 3422.00    0.53280   0.56775   30.482
 3423.00    0.55229   0.56327   30.655
 3424.00    0.51200   0.56164   31.530
 3425.00    0.53004   0.56337   32.253
 3426.00    0.53061   0.56698   31.391
 3427.00    0.51371   0.57270   30.559
 3428.00    0.51502   0.58085   30.369
 3429.00    0.50093   0.58556   -1.000
 3430.00    0.53677   0.58280   -1.000
 3431.00    0.54102   0.57539   -1.000
 3432.00    0.53959   0.56868   -1.000
 3433.00    0.52113   0.56825   -1.000
 3434.00    0.52874   0.57435   32.225
 3435.00    0.55513   0.58128   30.287
 3436.00    0.55087   0.58199   -1.000
 3437.00    0.52171   0.57652   -1.000
 3438.00    0.50021   0.56800   32.036
 3439.00    0.51449   0.55751   31.611
 3440.00    0.52773   0.54703   33.495
 3441.00    0.51278   0.54129   36.134
 3442.00    0.49580   0.54237   37.666
 3443.00    0.52292   0.54842   37.802
 3444.00    0.51683   0.55364   37.651
 3445.00    0.51957   0.55586   36.220
 3446.00    0.55963   0.56113   34.262
 3447.00    0.53323   0.56860   32.366
 3448.00    0.55671   0.57802   31.207
 3449.00    0.56253   0.58069   -1.000
 3450.00    0.53904   0.56908   -1.000
 3451.00    0.51217   0.55657   -1.000
 3452.00    0.52974   0.55100   -1.000
 3453.00    0.56650   0.55259   -1.000
 3454.00    0.60224   0.55805   -1.000
 3455.00    0.55638   0.56184  277.025
 3456.00    0.53271   0.56229   -1.000
 3457.00    0.57995   0.55943   -1.000
 3458.00    0.57547   0.55475   -1.000
 3459.00    0.58892   0.55058   -1.000
 3460.00    0.53677   0.54712   32.330
 3461.00    0.53071   0.54892   30.744
 3462.00    0.56715   0.55986   30.575
 3463.00    0.56562   0.57127  184.602
 3464.00    0.55837   0.56783  277.025
 3465.00    0.56888   0.56612  277.025
 3466.00    0.60248   0.56801   -1.000
 3467.00    0.60875   0.57170   -1.000
 3468.00    0.62595   0.57692   -1.000
 3469.00    0.59608   0.58202   -1.000
 3470.00    0.56346   0.58200   -1.000
 3471.00    0.60074   0.57527   -1.000
 3472.00    0.55558   0.57157   -1.000
 3473.00    0.57575   0.56745  267.330
 3474.00    0.58123   0.56058   -1.000
 3475.00    0.55187   0.55527  277.025
 3476.00    0.53709   0.55205   32.757
 3477.00    0.55021   0.55018   31.686
 3478.00    0.55346   0.55055   31.107
 3479.00    0.55561   0.55571  178.364
 3480.00    0.55724   0.56471  269.985
 3481.00    0.58101   0.56907   -1.000
 3482.00    0.58028   0.56492   -1.000
 3483.00    0.57937   0.56017   -1.000
 3484.00    0.60730   0.56371   -1.000
 3485.00    0.61988   0.57441   -1.000
 3486.00    0.59936   0.58197   -1.000
 3487.00    0.55967   0.58595   -1.000
 3488.00    0.60226   0.58622   -1.000
 3489.00    0.59251   0.57986   -1.000
 3490.00    0.58201   0.57310   -1.000
 3491.00    0.56629   0.57454  277.025
 3492.00    0.59475   0.58115   -1.000
 3493.00    0.62876   0.58349   -1.000
 3494.00    0.59657   0.58191   -1.000
 3495.00    0.56158   0.57569   -1.000
 3496.00    0.60552   0.56977   -1.000
 3497.00    0.61939   0.57232   -1.000
 3498.00    0.57919   0.57894  277.025
 3499.00    0.57564   0.58354  275.906
 3500.00    0.58940   0.57910   -1.000
 3501.00    0.57917   0.57395  243.567
 3502.00    0.61020   0.57761   -1.000
 3503.00    0.63505   0.58083   -1.000
 3504.00    0.59265   0.57786   -1.000
 3505.00    0.57790   0.57114  241.404
 3506.00    0.61093   0.56754   -1.000
 3507.00    0.59168   0.56805   -1.000
 3508.00    0.59182   0.56967   -1.000
 3509.00    0.59202   0.57020   -1.000
 3510.00    0.59521   0.56925   -1.000
 3511.00    0.60296   0.56709   -1.000
 3512.00    0.60079   0.56275   -1.000
 3513.00    0.59555   0.55942   -1.000
 3514.00    0.60934   0.56187   -1.000
 3515.00    0.60520   0.56957   -1.000
 3516.00    0.60027   0.58105   -1.000
 3517.00    0.62708   0.58723   -1.000
 3518.00    0.60203   0.58784   -1.000
 3519.00    0.59628   0.58284   -1.000
 3520.00    0.60235   0.57629   -1.000
 3521.00    0.58168   0.57085   -1.000
 3522.00    0.59532   0.56723   -1.000
 3523.00    0.57350   0.56503   -1.000
 3524.00    0.56772   0.56200  277.025
 3525.00    0.56381   0.55748   32.956
 3526.00    0.56701   0.56106   31.347
 3527.00    0.59698   0.56838   31.246
 3528.00    0.57707   0.57842  167.365
 3529.00    0.59330   0.58708  272.283
 3530.00    0.61184   0.59140   -1.000
 3531.00    0.61558   0.59384   -1.000
 3532.00    0.60303   0.59272   -1.000
 3533.00    0.57789   0.58620  258.938
 3534.00    0.59313   0.58148   -1.000
 3535.00    0.59463   0.58325   -1.000
 3536.00    0.60174   0.58869   -1.000
 3537.00    0.62432   0.59205   -1.000
 3538.00    0.60757   0.59570   -1.000
 3539.00    0.62395   0.59924   -1.000
 3540.00    0.60291   0.60187  238.588
 3541.00    0.60638   0.60165  240.253
 3542.00    0.60163   0.60065  244.650
 3543.00    0.56903   0.60242   -1.000
 3544.00    0.58250   0.60575   -1.000
 3545.00    0.59321   0.60614  242.109
 3546.00    0.59367   0.60390  241.135
 3547.00    0.58166   0.60390   -1.000
 3548.00    0.57415   0.60518   -1.000
 3549.00    0.59459   0.60515  252.143
 3550.00    0.60844   0.60398  251.723
 3551.00    0.58605   0.60364   -1.000
 3552.00    0.58841   0.60247   -1.000
 3553.00    0.54917   0.59940   -1.000
 3554.00    0.57642   0.59688   -1.000
 3555.00    0.61825   0.59648   -1.000
 3556.00    0.58848   0.59891  270.932
 3557.00    0.59420   0.60401  264.979
 3558.00    0.60321   0.60649  265.575
 3559.00    0.59218   0.60619   -1.000
 3560.00    0.59639   0.60690  272.711
 3561.00    0.58882   0.60984   -1.000
 3562.00    0.61253   0.60983  265.549
 3563.00    0.62046   0.60392   -1.000
 3564.00    0.59912   0.59565  264.591
 3565.00    0.58038   0.58922  277.025
 3566.00    0.56545   0.58561   33.689
 3567.00    0.56177   0.58335   31.785
 3568.00    0.55576   0.58404   31.569
 3569.00    0.54418   0.58001   31.375
 3570.00    0.54843   0.57027   32.333
 3571.00    0.54857   0.56189   32.977
 3572.00    0.54332   0.56209   32.088
 3573.00    0.56795   0.56456   30.687
 3574.00    0.58865   0.56691   -1.000
 3575.00    0.61267   0.57114   -1.000
 3576.00    0.61106   0.57446   -1.000
 3577.00    0.58809   0.57472   -1.000
 3578.00    0.57561   0.57286  277.025
 3579.00    0.56826   0.56864  277.025
 3580.00    0.51658   0.56579   34.973
 3581.00    0.51422   0.56295   33.939
 3582.00    0.52492   0.56063   35.886
 3583.00    0.54016   0.56198   36.284
 3584.00    0.56701   0.56131   36.440
 3585.00    0.53781   0.55483   37.288
 3586.00    0.53390   0.54777   38.494
 3587.00    0.53331   0.54587   39.108
 3588.00    0.55530   0.55053   37.361
 3589.00    0.59820   0.56132   35.375
 3590.00    0.56985   0.57342   33.650
 3591.00    0.57190   0.58031   30.758
 3592.00    0.57595   0.58175  148.288
 3593.00    0.56855   0.58313   -1.000
 3594.00    0.57634   0.58626  270.393
 3595.00    0.58996   0.59105  266.296
 3596.00    0.58716   0.59534  258.159
 3597.00    0.57114   0.59882   -1.000
 3598.00    0.60796   0.60255  238.332
 3599.00    0.63784   0.60687   -1.000
 3600.00    0.60726   0.60811  227.998
 3601.00    0.57846   0.60240   -1.000
 3602.00    0.60751   0.59552   -1.000
 3603.00    0.60127   0.58887   -1.000
 3604.00    0.60053   0.58761   -1.000
 3605.00    0.60390   0.58925   -1.000
 3606.00    0.58661   0.58886  272.979
 3607.00    0.58800   0.58731  270.547
 3608.00    0.58841   0.58681  272.982
 3609.00    0.58660   0.58729  277.025
 3610.00    0.54711   0.58684   -1.000
 3611.00    0.55624   0.58679   -1.000
 3612.00    0.58707   0.59023  277.025
 3613.00    0.58909   0.59245  268.777
 3614.00    0.59988   0.59541  262.075
 3615.00    0.60746   0.60128  257.184
 3616.00    0.58701   0.60409   -1.000
 3617.00    0.59631   0.60029  247.807
 3618.00    0.57682   0.59336   -1.000
 3619.00    0.57296   0.58954   -1.000
 3620.00    0.56636   0.59205   33.761
 3621.00    0.62575   0.60198   -1.000
 3622.00    0.63879   0.61201   -1.000
 3623.00    0.62782   0.61624   -1.000
 3624.00    0.62838   0.61921  238.765
 3625.00    0.61770   0.62692  235.549
 3626.00    0.60776   0.63727   -1.000
 3627.00    0.63248   0.64259  217.934
 3628.00    0.65507   0.63601   -1.000
 3629.00    0.62959   0.62214  217.302
 3630.00    0.59494   0.60821  229.681
 3631.00    0.56853   0.59990   -1.000
 3632.00    0.54765   0.59845   -1.000
 3633.00    0.55983   0.60470   -1.000
 3634.00    0.56991   0.61304   -1.000
 3635.00    0.58666   0.61327   -1.000
 3636.00    0.59613   0.60859  259.915
 3637.00    0.63330   0.61135   -1.000
 3638.00    0.64227   0.61844   -1.000
 3639.00    0.61043   0.62357   -1.000
 3640.00    0.61165   0.62657   -1.000
 3641.00    0.62558   0.62553  219.179
 3642.00    0.64630   0.61922   -1.000
 3643.00    0.63892   0.60979   -1.000
 3644.00    0.60955   0.60229  243.559
 3645.00    0.60005   0.59943  251.388
 3646.00    0.60561   0.59832  256.018
 3647.00    0.61622   0.59862   -1.000
 3648.00    0.62459   0.60076   -1.000
 3649.00    0.62082   0.60347   -1.000
 3650.00    0.59712   0.60672  258.969
 3651.00    0.62501   0.61111   -1.000
 3652.00    0.62200   0.61733  236.963
 3653.00    0.63432   0.62168  226.843
 3654.00    0.63221   0.62653  220.835
 3655.00    0.63351   0.63289  217.511
 3656.00    0.66040   0.63747   -1.000
 3657.00    0.66435   0.63938   -1.000
 3658.00    0.66236   0.63963   -1.000
 3659.00    0.66555   0.63828   -1.000
 3660.00    0.64117   0.63488  208.296
 3661.00    0.64091   0.63099  208.310
 3662.00    0.63699   0.62779  210.366
 3663.00    0.63241   0.62784  212.637
 3664.00    0.66232   0.62961   -1.000
 3665.00    0.66574   0.63086   -1.000
 3666.00    0.65035   0.63060   -1.000
 3667.00    0.64077   0.62764  215.663
 3668.00    0.64769   0.62384   -1.000
 3669.00    0.62293   0.62227  222.415
 3670.00    0.60726   0.62339   -1.000
 3671.00    0.63594   0.62686  226.946
 3672.00    0.64718   0.63121   -1.000
 3673.00    0.65204   0.63304   -1.000
 3674.00    0.65431   0.63166   -1.000
 3675.00    0.66356   0.62848   -1.000
 3676.00    0.66738   0.62351   -1.000
 3677.00    0.64295   0.61524   -1.000
 3678.00    0.61997   0.60910  226.217
 3679.00    0.60256   0.60840  233.101
 3680.00    0.63012   0.61226   -1.000
 3681.00    0.66348   0.61785   -1.000
 3682.00    0.63910   0.62170   -1.000
 3683.00    0.63796   0.62067   -1.000
 3684.00    0.63633   0.61693   -1.000
 3685.00    0.63002   0.61178   -1.000
 3686.00    0.60801   0.60677  237.883
 3687.00    0.60654   0.60798  247.693
 3688.00    0.60359   0.61815   -1.000
 3689.00    0.61939   0.63173   -1.000
 3690.00    0.63988   0.63859  231.724
 3691.00    0.66795   0.63930   -1.000
 3692.00    0.67722   0.63892   -1.000
 3693.00    0.66950   0.63861   -1.000
 3694.00    0.63200   0.63777  214.852
 3695.00    0.64684   0.63610  218.180
 3696.00    0.65145   0.63253   -1.000
 3697.00    0.64228   0.63228  215.856
 3698.00    0.66711   0.64082   -1.000
 3699.00    0.69031   0.65638   -1.000
 3700.00    0.70103   0.66801   -1.000
 3701.00    0.70347   0.66054   -1.000
 3702.00    0.67602   0.63624   -1.000
 3703.00    0.64516   0.60600   -1.000
 3704.00    0.62156   0.58600   -1.000
 3705.00    0.62096   0.58230   -1.000
 3706.00    0.61394   0.59432   -1.000
 3707.00    0.63683   0.60904   -1.000
 3708.00    0.62601   0.61784  258.521
 3709.00    0.62775   0.61510   -1.000
 3710.00    0.61481   0.60617  247.746
 3711.00    0.64189   0.59967   -1.000
 3712.00    0.64372   0.60256   -1.000
 3713.00    0.66330   0.61895   -1.000
 3714.00    0.68977   0.64327   -1.000
 3715.00    0.67105   0.66447  197.528
 3716.00    0.67471   0.67074  196.371
 3717.00    0.66362   0.66586  200.834
 3718.00    0.65406   0.64818  209.431
 3719.00    0.62713   0.61315   -1.000
 3720.00    0.60450   0.57326   -1.000
 3721.00    0.57002   0.55400   -1.000
 3722.00    0.56283   0.55728   35.554
 3723.00    0.59417   0.58222  128.012
 3724.00    0.62124   0.61703  258.619
 3725.00    0.65823   0.64404   -1.000
 3726.00    0.69257   0.65487   -1.000
 3727.00    0.67883   0.66107   -1.000
 3728.00    0.68897   0.66548   -1.000
 3729.00    0.70683   0.66802   -1.000
 3730.00    0.71573   0.66203   -1.000
 3731.00    0.67347   0.63713   -1.000
 3732.00    0.60329   0.59631  237.520
 3733.00    0.57769   0.55755   -1.000
 3734.00    0.56761   0.53068   34.979
 3735.00    0.55819   0.52932   33.302
 3736.00    0.54770   0.55433   34.971
 3737.00    0.55291   0.59409   33.641
 3738.00    0.60869   0.63216   30.663
 3739.00    0.64099   0.66764   -1.000
 3740.00    0.67758   0.68751  243.931
 3741.00    0.71528   0.69150   -1.000
 3742.00    0.70176   0.68210   -1.000
 3743.00    0.69035   0.66872   -1.000
 3744.00    0.65483   0.65597  246.981
 3745.00    0.66085   0.64176   -1.000
 3746.00    0.65312   0.61969   -1.000
 3747.00    0.60280   0.58982   -1.000
 3748.00    0.57147   0.55816   35.696
 3749.00    0.56127   0.53235   32.342
 3750.00    0.59577   0.53342   32.956
 3751.00    0.61569   0.56118   -1.000
 3752.00    0.65558   0.60225   -1.000
 3753.00    0.69635   0.64121   -1.000
 3754.00    0.68978   0.67161   -1.000
 3755.00    0.72867   0.68662   -1.000
 3756.00    0.74507   0.68727   -1.000
 3757.00    0.68362   0.67393  211.063
 3758.00    0.68123   0.65916   -1.000
 3759.00    0.68702   0.65211   -1.000
 3760.00    0.66238   0.65312   -1.000
 3761.00    0.67894   0.66190   -1.000
 3762.00    0.70986   0.67454   -1.000
 3763.00    0.70709   0.67919   -1.000
 3764.00    0.69038   0.67457   -1.000
 3765.00    0.68979   0.66354   -1.000
 3766.00    0.67321   0.64742   -1.000
 3767.00    0.66127   0.62575   -1.000
 3768.00    0.65093   0.59696   -1.000
 3769.00    0.61974   0.56924   -1.000
 3770.00    0.61047   0.55297   -1.000
 3771.00    0.62365   0.56085   -1.000
 3772.00    0.64150   0.59238   -1.000
 3773.00    0.65727   0.63068   -1.000
 3774.00    0.68407   0.65786   -1.000
 3775.00    0.70680   0.67425   -1.000
 3776.00    0.71316   0.68551   -1.000
 3777.00    0.70000   0.69870  209.023
 3778.00    0.72225   0.71374  208.450
 3779.00    0.75639   0.72583   -1.000
 3780.00    0.77977   0.73561   -1.000
 3781.00    0.77909   0.74120   -1.000
 3782.00    0.75431   0.74213  192.754
 3783.00    0.75710   0.73807   -1.000
 3784.00    0.75864   0.73319   -1.000
 3785.00    0.75768   0.72717   -1.000
 3786.00    0.73614   0.71688   -1.000
 3787.00    0.71791   0.70469   -1.000
 3788.00    0.72422   0.69713   -1.000
 3789.00    0.70863   0.69564   -1.000
 3790.00    0.71799   0.69498   -1.000
 3791.00    0.72125   0.69233   -1.000
 3792.00    0.68552   0.68454  231.058
 3793.00    0.66800   0.66713  233.727
 3794.00    0.65896   0.63870   -1.000
 3795.00    0.64278   0.60167   -1.000
 3796.00    0.61813   0.56313   -1.000
 3797.00    0.56938   0.53168   -1.000
 3798.00    0.58013   0.52439   -1.000
 3799.00    0.60093   0.55125   -1.000
 3800.00    0.63281   0.60381   -1.000
 3801.00    0.66364   0.65268  252.542
 3802.00    0.70072   0.68768  231.920
 3803.00    0.70385   0.70632  220.498
 3804.00    0.72652   0.71640  214.916
 3805.00    0.71997   0.71866  213.165
 3806.00    0.69612   0.71609   -1.000
 3807.00    0.67794   0.71959   -1.000
 3808.00    0.71232   0.72956   -1.000
 3809.00    0.73829   0.74241  223.896
 3810.00    0.73037   0.75192   -1.000
 3811.00    0.74934   0.74935  212.196
 3812.00    0.73200   0.73490  215.354
 3813.00    0.71482   0.71866  225.869
 3814.00    0.72658   0.70717   -1.000
 3815.00    0.72459   0.70504   -1.000
 3816.00    0.71494   0.70917  266.355
 3817.00    0.69338   0.71275   -1.000
 3818.00    0.69778   0.70771  254.981
 3819.00    0.69440   0.69517  257.034
 3820.00    0.68528   0.68590  272.988
 3821.00    0.65795   0.68816   -1.000
 3822.00    0.66971   0.70126   -1.000
 3823.00    0.70286   0.70542  272.786
 3824.00    0.66340   0.69536   -1.000
 3825.00    0.63322   0.68237   -1.000
 3826.00    0.62971   0.67451   37.836
 3827.00    0.63456   0.67378   32.259
 3828.00    0.64163   0.67105   32.137
 3829.00    0.65523   0.66235   31.651
 3830.00    0.66665   0.64907   31.131
 3831.00    0.62769   0.62659   31.372
 3832.00    0.59856   0.59297   32.638
 3833.00    0.58613   0.55021   35.078
 3834.00    0.55452   0.51325   36.452
 3835.00    0.55302   0.50110   36.020
 3836.00    0.56968   0.51497   34.668
 3837.00    0.58500   0.54833   33.802
 3838.00    0.60779   0.58547   34.285
 3839.00    0.61988   0.61827   35.108
 3840.00    0.62845   0.64426   34.723
 3841.00    0.66886   0.66972   32.941
 3842.00    0.70507   0.69388  118.134
 3843.00    0.70824   0.71854  271.805
 3844.00    0.73289   0.73666  253.133
 3845.00    0.75366   0.74580  246.585
 3846.00    0.75458   0.74852  245.857
 3847.00    0.75063   0.75034  245.755
 3848.00    0.76416   0.75002   -1.000
 3849.00    0.76776   0.74754   -1.000
 3850.00    0.74199   0.74586  260.507
 3851.00    0.73420   0.75229   -1.000
 3852.00    0.73943   0.76109   -1.000
 3853.00    0.75876   0.76478  254.259
 3854.00    0.76259   0.76087  254.564
 3855.00    0.75718   0.75310  260.342
 3856.00    0.74049   0.74440  267.916
 3857.00    0.73643   0.73771  272.545
 3858.00    0.72512   0.73596  277.025
 3859.00    0.69864   0.73879   36.222
 3860.00    0.68843   0.74482   31.562
 3861.00    0.73986   0.75448   31.322
 3862.00    0.77259   0.75992  110.331
 3863.00    0.78586   0.75973   -1.000
 3864.00    0.79107   0.75784   -1.000
 3865.00    0.78407   0.75553   -1.000
 3866.00    0.77693   0.75680   -1.000
 3867.00    0.76738   0.76228  249.449
 3868.00    0.77003   0.76699  254.135
 3869.00    0.76400   0.76466  263.411
 3870.00    0.73131   0.75514   -1.000
 3871.00    0.74214   0.74370  277.025
 3872.00    0.71894   0.73441   36.884
 3873.00    0.72947   0.73441  109.098
 3874.00    0.74881   0.74315  271.801
 3875.00    0.74761   0.75157  247.020
 3876.00    0.75207   0.74816  235.479
 3877.00    0.75173   0.73728   -1.000
 3878.00    0.70265   0.72834   -1.000
 3879.00    0.70468   0.72786   -1.000
 3880.00    0.71172   0.73332   -1.000
 3881.00    0.69652   0.73170   -1.000
 3882.00    0.68589   0.72238   -1.000
 3883.00    0.69845   0.71133   -1.000
 3884.00    0.71342   0.69437   -1.000
 3885.00    0.68761   0.66185   -1.000
 3886.00    0.63741   0.61531   -1.000
 3887.00    0.61851   0.56465   -1.000
 3888.00    0.60387   0.53456   -1.000
 3889.00    0.60768   0.53774   -1.000
 3890.00    0.63609   0.57815   -1.000
 3891.00    0.68780   0.63579   -1.000
 3892.00    0.71825   0.68567   -1.000
 3893.00    0.73974   0.71290   -1.000
 3894.00    0.74053   0.72566   -1.000
 3895.00    0.73445   0.73481  207.942
 3896.00    0.74164   0.74482  208.394
 3897.00    0.75406   0.75569  203.534
 3898.00    0.77495   0.76157   -1.000
 3899.00    0.77652   0.76210   -1.000
 3900.00    0.77122   0.76625  202.954
 3901.00    0.78774   0.77512   -1.000
 3902.00    0.78134   0.78175  199.018
 3903.00    0.77111   0.78329  200.254
 3904.00    0.78479   0.78119  207.676
 3905.00    0.76651   0.77840  213.483
 3906.00    0.75589   0.77965   -1.000
 3907.00    0.78839   0.79260  219.452
 3908.00    0.80784   0.81202  208.447
 3909.00    0.80988   0.82610  194.624
 3910.00    0.81755   0.83080  188.431
 3911.00    0.82313   0.83278  186.265
 3912.00    0.81879   0.83028  184.516
 3913.00    0.82981   0.82304  183.299
 3914.00    0.82530   0.81747  184.866
 3915.00    0.83095   0.81761   -1.000
 3916.00    0.82192   0.81813  192.784
 3917.00    0.81510   0.81416  195.628
 3918.00    0.82809   0.80520   -1.000
 3919.00    0.81950   0.79461   -1.000
 3920.00    0.78352   0.78851  211.887
 3921.00    0.76547   0.78506   -1.000
 3922.00    0.78306   0.78329  227.668
 3923.00    0.79156   0.78285  226.838
 3924.00    0.78758   0.78498  222.995
 3925.00    0.76978   0.78388  223.623
 3926.00    0.74786   0.77261   -1.000
 3927.00    0.72188   0.75560   -1.000
 3928.00    0.68240   0.73298   -1.000
 3929.00    0.62880   0.70832   41.359
 3930.00    0.57419   0.67486   -1.000
 3931.00    0.51712   0.61928   -1.000
 3932.00    0.47018   0.54447   52.462
 3933.00    0.42681   0.49113   61.532
 3934.00    0.42064   0.51090   -1.000
 3935.00    0.45064   0.57565   -1.000
 3936.00    0.50757   0.63893   -1.000
 3937.00    0.57283   0.68899   -1.000
 3938.00    0.63655   0.73069   -1.000
 3939.00    0.69006   0.75976   34.054
 3940.00    0.72245   0.78116   -1.000
 3941.00    0.75094   0.79239   -1.000
 3942.00    0.76351   0.79282   -1.000
 3943.00    0.75853   0.79132   -1.000
 3944.00    0.76195   0.79240   -1.000
 3945.00    0.80256   0.79594  246.905
 3946.00    0.81703   0.80579   -1.000
 3947.00    0.81019   0.81294  211.469
 3948.00    0.81544   0.81432  207.213
 3949.00    0.83197   0.81416   -1.000
 3950.00    0.81771   0.81421  199.217
 3951.00    0.81702   0.81371  192.505
 3952.00    0.79541   0.81456  191.942
 3953.00    0.82510   0.81862  194.428
 3954.00    0.84331   0.82166   -1.000
 3955.00    0.83203   0.81833   -1.000
 3956.00    0.79599   0.80906  188.331
 3957.00    0.79901   0.80089  194.297
 3958.00    0.82542   0.79900   -1.000
 3959.00    0.80868   0.79561  196.115
 3960.00    0.77707   0.78260  198.990
 3961.00    0.77933   0.76282   -1.000
 3962.00    0.74177   0.73809  243.936
 3963.00    0.71805   0.71394  271.248
 3964.00    0.66747   0.68463   -1.000
 3965.00    0.60946   0.63890   39.469
 3966.00    0.52523   0.56824   35.700
 3967.00    0.44320   0.47499   43.530
 3968.00    0.39262   0.40596   53.380
 3969.00    0.38124   0.39402   60.427
 3970.00    0.42530   0.43350   58.230
 3971.00    0.49548   0.50267   49.083
 3972.00    0.57990   0.58150   40.333
 3973.00    0.64496   0.64707   33.630
 3974.00    0.68936   0.69992  102.290
 3975.00    0.73395   0.74007  253.596
 3976.00    0.76548   0.77062  227.597
 3977.00    0.77079   0.79219   -1.000
 3978.00    0.81787   0.80955  195.726
 3979.00    0.86406   0.82510   -1.000
 3980.00    0.85487   0.83241   -1.000
 3981.00    0.85585   0.83468   -1.000
 3982.00    0.83371   0.83393  172.229
 3983.00    0.86736   0.83661   -1.000
 3984.00    0.88606   0.84716   -1.000
 3985.00    0.89925   0.85644   -1.000
 3986.00    0.90084   0.85612   -1.000
 3987.00    0.89552   0.85993   -1.000
 3988.00    0.91846   0.87381   -1.000
 3989.00    0.91714   0.87888   -1.000
 3990.00    0.92662   0.88308   -1.000
 3991.00    0.94235   0.88939   -1.000
 3992.00    0.93741   0.89650   -1.000
 3993.00    0.95456   0.90045   -1.000
 3994.00    0.95114   0.89759   -1.000
 3995.00    0.92549   0.88883   -1.000
 3996.00    0.91270   0.87825   -1.000
 3997.00    0.88440   0.87482  163.864
 3998.00    0.90008   0.87981   -1.000
 3999.00    0.92520   0.88916   -1.000
 4000.00    0.94644   0.89687   -1.000
 4001.00    0.95485   0.90309   -1.000
 4002.00    0.94546   0.90457   -1.000
 4003.00    0.95198   0.90033   -1.000
 4004.00    0.97308   0.89083   -1.000
 4005.00    0.96912   0.88279   -1.000
 4006.00    0.93580   0.88373   -1.000
 4007.00    0.93673   0.89523   -1.000
 4008.00    0.95573   0.90860   -1.000
 4009.00    0.97783   0.91457   -1.000
 4010.00    0.97563   0.91758   -1.000
 4011.00    0.96404   0.92137   -1.000
 4012.00    0.96132   0.92359   -1.000
 4013.00    0.96170   0.92733   -1.000
 4014.00    0.96912   0.93179   -1.000
 4015.00    0.98882   0.93576   -1.000
 4016.00    0.98187   0.94028   -1.000
 4017.00    0.98194   0.94481   -1.000
 4018.00    0.98564   0.94985   -1.000
 4019.00    0.99614   0.95437   -1.000
 4020.00    1.00398   0.95404   -1.000
 4021.00    1.00146   0.94778   -1.000
 4022.00    0.98964   0.93878   -1.000
 4023.00    0.98018   0.92506   -1.000
 4024.00    0.97937   0.90948   -1.000
 4025.00    0.99563   0.90241   -1.000
 4026.00    1.00990   0.91266   -1.000
 4027.00    1.02045   0.93238   -1.000
 4028.00    1.02193   0.94487   -1.000
 4029.00    1.00456   0.94068   -1.000
 4030.00    0.97333   0.92662   -1.000
 4031.00    0.93700   0.91200   -1.000
 4032.00    0.95072   0.90661   -1.000
 4033.00    0.97812   0.90980   -1.000
 4034.00    0.97015   0.92096   -1.000
 4035.00    0.98636   0.93954   -1.000
 4036.00    1.02678   0.96079   -1.000
 4037.00    1.04624   0.97801   -1.000
 4038.00    1.04053   0.98504   -1.000
 4039.00    1.02610   0.98198   -1.000
 4040.00    1.00587   0.97676   -1.000
 4041.00    1.00000   0.97328   -1.000
 4042.00    1.02852   0.96496   -1.000
 4043.00    1.01552   0.94899   -1.000
 4044.00    0.98228   0.92638   -1.000
 4045.00    0.95558   0.90843   -1.000
 4046.00    0.94415   0.91112   -1.000
 4047.00    0.96763   0.93422   -1.000
 4048.00    0.98482   0.96150   -1.000
 4049.00    1.02558   0.97875   -1.000
 4050.00    1.04351   0.98572   -1.000
 4051.00    1.03068   0.98850   -1.000
 4052.00    1.04248   0.98584   -1.000
 4053.00    1.04045   0.97870   -1.000
 4054.00    1.01241   0.97391   -1.000
 4055.00    1.00345   0.97182   -1.000
 4056.00    1.02126   0.97094   -1.000
 4057.00    1.01825   0.97201   -1.000
 4058.00    1.01289   0.97777   -1.000
 4059.00    1.01558   0.98518   -1.000
 4060.00    1.03565   0.98468   -1.000
 4061.00    1.05248   0.97069   -1.000
 4062.00    1.00086   0.95188   -1.000
 4063.00    0.95249   0.93479   -1.000
 4064.00    0.96494   0.91617   -1.000
 4065.00    0.98474   0.91199   -1.000
 4066.00    0.99240   0.93230   -1.000
 4067.00    0.99477   0.94856   -1.000
 4068.00    1.02016   0.95286   -1.000
 4069.00    1.03851   0.94949   -1.000
 4070.00    1.02826   0.93888   -1.000
 4071.00    1.00214   0.92786   -1.000
 4072.00    1.00223   0.92633   -1.000
 4073.00    1.00369   0.93490   -1.000
 4074.00    0.99702   0.94388   -1.000
 4075.00    0.95661   0.93762  147.257
 4076.00    0.93247   0.92104  152.549
 4077.00    0.93896   0.91036   -1.000
 4078.00    0.95116   0.91677   -1.000
 4079.00    0.96636   0.94098   -1.000
 4080.00    1.00368   0.96680   -1.000
 4081.00    1.02358   0.98100   -1.000
 4082.00    1.02631   0.98001   -1.000
 4083.00    1.01641   0.97110   -1.000
 4084.00    0.97791   0.96184  146.456
 4085.00    0.96514   0.96113  149.396
 4086.00    0.99942   0.97004   -1.000
 4087.00    1.03889   0.98481   -1.000
 4088.00    1.06997   0.99605   -1.000
 4089.00    1.06727   0.99801   -1.000
 4090.00    1.03849   0.99160   -1.000
 4091.00    1.03363   0.98480   -1.000
 4092.00    1.03756   0.97735   -1.000
 4093.00    1.02804   0.96434   -1.000
 4094.00    1.02458   0.94832   -1.000
 4095.00    0.99319   0.92554   -1.000
 4096.00    0.94852   0.89949   -1.000
 4097.00    0.93827   0.87149   -1.000
 4098.00    0.94849   0.83298   -1.000
 4099.00    0.89882   0.78216   -1.000
 4100.00    0.83785   0.72285   -1.000
 4101.00    0.79689   0.67973   -1.000
 4102.00    0.78365   0.68206   -1.000
 4103.00    0.82989   0.73750   -1.000
 4104.00    0.89082   0.81444   -1.000
 4105.00    0.94905   0.87968   -1.000
 4106.00    0.96918   0.91636   -1.000
 4107.00    0.99107   0.93509   -1.000
 4108.00    1.00441   0.94403   -1.000
 4109.00    0.98854   0.94664   -1.000
 4110.00    0.97652   0.95101   -1.000
 4111.00    0.99528   0.95945   -1.000
 4112.00    1.01480   0.97175   -1.000
 4113.00    1.02462   0.98694   -1.000
 4114.00    1.03079   1.00246   -1.000
 4115.00    1.04113   1.01243   -1.000
 4116.00    1.04456   1.01237   -1.000
 4117.00    1.03973   1.00311   -1.000
 4118.00    1.01879   0.99031   -1.000
 4119.00    1.00586   0.98272   -1.000
 4120.00    1.02086   0.98417   -1.000
 4121.00    1.03452   0.98994   -1.000
 4122.00    1.04302   0.99557   -1.000
 4123.00    1.04705   1.00387   -1.000
 4124.00    1.04951   1.01556   -1.000
 4125.00    1.07497   1.02435   -1.000
 4126.00    1.07928   1.02266   -1.000
 4127.00    1.04825   1.01261   -1.000
 4128.00    1.04786   1.00299   -1.000
 4129.00    1.04490   0.99969   -1.000
 4130.00    1.03496   0.99680   -1.000
 4131.00    1.02562   0.99011   -1.000
 4132.00    1.01982   0.98370   -1.000
 4133.00    0.99521   0.98810  162.666
 4134.00    1.00781   1.00320  164.283
 4135.00    1.05783   1.02148   -1.000
 4136.00    1.08591   1.03684   -1.000
 4137.00    1.09109   1.04854   -1.000
 4138.00    1.10625   1.05637   -1.000
 4139.00    1.12231   1.06030   -1.000
 4140.00    1.10399   1.05464   -1.000
 4141.00    1.06706   1.03618   -1.000
 4142.00    1.03713   1.00932   -1.000
 4143.00    1.01237   0.99000   -1.000
 4144.00    1.00626   0.99067  170.739
 4145.00    1.03668   1.01190   -1.000
 4146.00    1.07742   1.03434   -1.000
 4147.00    1.08944   1.04381   -1.000
 4148.00    1.07213   1.04263   -1.000
 4149.00    1.06432   1.04016   -1.000
 4150.00    1.06184   1.04145   -1.000
 4151.00    1.06917   1.04421   -1.000
 4152.00    1.07255   1.04254   -1.000
 4153.00    1.05861   1.03895   -1.000
 4154.00    1.05855   1.03617   -1.000
 4155.00    1.04453   1.03692  159.520
 4156.00    1.04947   1.04258  157.191
 4157.00    1.06520   1.05221  155.129
 4158.00    1.23146   1.06424   -1.000
 4159.00    1.40240   1.07320   -1.000
 4160.00    1.10495   1.07597   -1.000
 4161.00    0.86301   1.07672   -1.000
 4162.00    1.03473   1.07907   -1.000
 4163.00    1.14416   1.08079   -1.000
 4164.00    1.12784   1.08081   -1.000
 4165.00    1.10885   1.07904   -1.000
 4166.00    1.09679   1.07278   -1.000
 4167.00    1.10763   1.06707   -1.000
 4168.00    1.10855   1.06689   -1.000
 4169.00    1.10199   1.06965   -1.000
 4170.00    1.08902   1.06243   -1.000
 4171.00    1.05718   1.04249  152.741
 4172.00    1.02047   1.02284  159.909
 4173.00    1.01707   1.01508  169.748
 4174.00    1.03354   1.02287  172.832
 4175.00    1.04947   1.03635  168.199
 4176.00    1.05475   1.04298  162.042
 4177.00    1.06320   1.04306   -1.000
 4178.00    1.06902   1.04426   -1.000
 4179.00    1.07374   1.05179   -1.000
 4180.00    1.08941   1.06171   -1.000
 4181.00    1.09034   1.06554   -1.000
 4182.00    1.09363   1.06611   -1.000
 4183.00    1.10734   1.07075   -1.000
 4184.00    1.10922   1.07687   -1.000
 4185.00    1.10989   1.07712   -1.000
 4186.00    1.09494   1.06929   -1.000
 4187.00    1.08771   1.06082   -1.000
 4188.00    1.08736   1.06034   -1.000
 4189.00    1.07202   1.06495  158.022
 4190.00    1.06990   1.06679  154.922
 4191.00    1.09117   1.06566   -1.000
 4192.00    1.11909   1.06887   -1.000
 4193.00    1.12848   1.07738   -1.000
 4194.00    1.12751   1.07772   -1.000
 4195.00    1.11230   1.06296   -1.000
 4196.00    1.06859   1.04315   -1.000
 4197.00    1.05395   1.02413   -1.000
 4198.00    1.05569   1.00764   -1.000
 4199.00    1.05269   0.99902   -1.000
 4200.00    1.05826   1.00259   -1.000
 4201.00    1.05851   1.01331   -1.000
 4202.00    1.06278   1.02662   -1.000
 4203.00    1.07898   1.04318   -1.000
 4204.00    1.07408   1.05947  158.638
 4205.00    1.06639   1.07149  157.122
 4206.00    1.08812   1.08166  154.583
 4207.00    1.11046   1.08985   -1.000
 4208.00    1.13425   1.09250   -1.000
 4209.00    1.14238   1.09119   -1.000
 4210.00    1.12542   1.08954   -1.000
 4211.00    1.12544   1.09090   -1.000
 4212.00    1.14468   1.09256   -1.000
 4213.00    1.14337   1.08706   -1.000
 4214.00    1.11359   1.07417   -1.000
 4215.00    1.08423   1.06287   -1.000
 4216.00    1.08955   1.06301   -1.000
 4217.00    1.10631   1.08106   -1.000
 4218.00    1.12158   1.10198  149.538
 4219.00    1.15347   1.11350   -1.000
 4220.00    1.16628   1.11665   -1.000
 4221.00    1.15426   1.11181   -1.000
 4222.00    1.13853   1.09581   -1.000
 4223.00    1.11209   1.06748   -1.000
 4224.00    1.07240   1.03122   -1.000
 4225.00    1.00982   0.99974  162.869
 4226.00    0.96312   0.98153  183.226
 4227.00    0.99316   0.99225  201.123
 4228.00    1.05115   1.03167   -1.000
 4229.00    1.09802   1.07924  172.684
 4230.00    1.13552   1.10569   -1.000
 4231.00    1.14603   1.10867   -1.000
 4232.00    1.13988   1.09860   -1.000
 4233.00    1.12641   1.08584   -1.000
 4234.00    1.11333   1.07864   -1.000
 4235.00    1.11031   1.08201   -1.000
 4236.00    1.09065   1.08949  151.462
 4237.00    1.07741   1.09873   -1.000
 4238.00    1.10674   1.10984  154.393
 4239.00    1.13034   1.11871  151.373
 4240.00    1.13399   1.12746  148.813
 4241.00    1.13100   1.13805  146.163
 4242.00    1.14428   1.15024  143.949
 4243.00    1.16073   1.16119  142.977
 4244.00    1.15902   1.16560  141.030
 4245.00    1.16118   1.15990  138.165
 4246.00    1.15026   1.14164  138.392
 4247.00    1.12011   1.11969  143.477
 4248.00    1.09502   1.10529  149.375
 4249.00    1.06962   1.09965   -1.000
 4250.00    1.07081   1.10015   -1.000
 4251.00    1.10928   1.10742  156.002
 4252.00    1.13901   1.11740   -1.000
 4253.00    1.13779   1.12097  148.239
 4254.00    1.13300   1.11954  147.685
 4255.00    1.11909   1.12555  150.922
 4256.00    1.12496   1.13793  150.703
 4257.00    1.14414   1.14278  145.755
 4258.00    1.13647   1.13093  143.246
 4259.00    1.11850   1.11461  146.927
 4260.00    1.09396   1.11036  154.494
 4261.00    1.09576   1.12309   -1.000
 4262.00    1.13392   1.14958  156.611
 4263.00    1.15966   1.17610  147.705
 4264.00    1.17721   1.19034  140.039
 4265.00    1.18742   1.19055  135.866
 4266.00    1.18022   1.18304  134.784
 4267.00    1.17776   1.17125  136.318
 4268.00    1.17212   1.15461  140.249
 4269.00    1.15603   1.13408   -1.000
 4270.00    1.11701   1.11061  149.901
 4271.00    1.06422   1.08940   -1.000
 4272.00    1.05343   1.08111   -1.000
 4273.00    1.07123   1.08788  172.992
 4274.00    1.06750   1.10354   -1.000
 4275.00    1.07731   1.12589   -1.000
 4276.00    1.12689   1.15570   -1.000
 4277.00    1.16444   1.18107  150.159
 4278.00    1.19485   1.18944  142.357
 4279.00    1.15836   1.18295   -1.000
 4280.00    1.10884   1.17191   -1.000
 4281.00    1.09455   1.16702   -1.000
 4282.00    1.13143   1.16666   -1.000
 4283.00    1.15913   1.16739  150.828
 4284.00    1.13410   1.16993   -1.000
 4285.00    1.11601   1.16867   -1.000
 4286.00    1.11246   1.16038   -1.000
 4287.00    1.09026   1.14568   -1.000
 4288.00    1.07103   1.12564   -1.000
 4289.00    1.04980   1.10437   -1.000
 4290.00    1.04224   1.09503   -1.000
 4291.00    1.05025   1.10892   -1.000
 4292.00    1.08866   1.13096   -1.000
 4293.00    1.11292   1.13971   -1.000
 4294.00    1.10488   1.13452   -1.000
 4295.00    1.10057   1.12985   -1.000
 4296.00    1.09964   1.12544   -1.000
 4297.00    1.06558   1.11168   -1.000
 4298.00    1.02902   1.08895   -1.000
 4299.00    0.98787   1.06358   -1.000
 4300.00    0.96570   1.04705   -1.000
 4301.00    0.97903   1.04633   -1.000
 4302.00    0.99190   1.05427   -1.000
 4303.00    0.99517   1.06553   -1.000
 4304.00    1.00700   1.07881   -1.000
 4305.00    1.02195   1.08223   -1.000
 4306.00    0.99967   1.07094   -1.000
 4307.00    0.96439   1.05479   -1.000
 4308.00    0.95672   1.04881   -1.000
 4309.00    0.95963   1.06047   -1.000
 4310.00    0.97750   1.08191   -1.000
 4311.00    0.99981   1.10266   -1.000
 4312.00    1.03214   1.11679   -1.000
 4313.00    1.05502   1.12923   -1.000
 4314.00    1.08792   1.15267   -1.000
 4315.00    1.15166   1.18843   -1.000
 4316.00    1.22651   1.22740  145.942
 4317.00    1.26590   1.25234  134.384
 4318.00    1.24232   1.25648  128.118
 4319.00    1.24574   1.24770  126.863
 4320.00    1.23265   1.23571  128.338
 4321.00    1.21643   1.22094  131.024
 4322.00    1.19097   1.20082  135.055
 4323.00    1.13622   1.17270   -1.000
 4324.00    1.08528   1.13974   -1.000
 4325.00    1.07768   1.12564   -1.000
 4326.00    1.10388   1.14705   -1.000
 4327.00    1.16518   1.19035   -1.000
 4328.00    1.22596   1.22487  150.427
 4329.00    1.24758   1.23894  138.063
 4330.00    1.23615   1.23610  133.357
 4331.00    1.24522   1.23233  133.126
 4332.00    1.24221   1.23344  132.829
 4333.00    1.22704   1.22959  130.930
 4334.00    1.22630   1.21429  129.278
 4335.00    1.20900   1.17983   -1.000
 4336.00    1.16647   1.11968   -1.000
 4337.00    1.10234   1.03441   -1.000
 4338.00    1.03579   0.94502   -1.000
 4339.00    0.94507   0.88129   -1.000
 4340.00    0.88834   0.86125   -1.000
 4341.00    0.95084   0.90215   -1.000
 4342.00    1.07641   0.98807   -1.000
 4343.00    1.14024   1.07850   -1.000
 4344.00    1.16803   1.13828   -1.000
 4345.00    1.19844   1.17827  141.875
 4346.00    1.21074   1.21017  137.909
 4347.00    1.22669   1.23583  135.160
 4348.00    1.24386   1.24695  133.509
 4349.00    1.26159   1.23584   -1.000
 4350.00    1.24081   1.21133   -1.000
 4351.00    1.18287   1.19262  136.344
 4352.00    1.15458   1.19101   -1.000
 4353.00    1.18876   1.21094   -1.000
 4354.00    1.24907   1.24102  146.860
 4355.00    1.27190   1.26642  140.229
 4356.00    1.26749   1.27894  135.295
 4357.00    1.27992   1.28165  132.117
 4358.00    1.28055   1.27964  131.352
 4359.00    1.26740   1.28049  133.430
 4360.00    1.25696   1.28830   -1.000
 4361.00    1.25794   1.29901   -1.000
 4362.00    1.29815   1.30941  130.410
 4363.00    1.34082   1.31856  128.171
 4364.00    1.34255   1.32353  127.435
 4365.00    1.32505   1.32159  126.286
 4366.00    1.29589   1.30913  125.756
 4367.00    1.27402   1.29027  128.449
 4368.00    1.27388   1.27889  133.042
 4369.00    1.28085   1.27686  135.580
 4370.00    1.28075   1.27578  135.024
 4371.00    1.28891   1.27107  133.981
 4372.00    1.27923   1.25942  133.660
 4373.00    1.24008   1.24088  134.566
 4374.00    1.22482   1.22242  138.816
 4375.00    1.21859   1.21986  144.509
 4376.00    1.22791   1.23939  146.332
 4377.00    1.28015   1.26798  141.988
 4378.00    1.30926   1.28578  135.095
 4379.00    1.31703   1.28372   -1.000
 4380.00    1.32809   1.26620   -1.000
 4381.00    1.31121   1.23362   -1.000
 4382.00    1.25390   1.18829   -1.000
 4383.00    1.17000   1.15168  150.863
 4384.00    1.13350   1.14429  168.169
 4385.00    1.17292   1.17029  175.359
 4386.00    1.23700   1.20584   -1.000
 4387.00    1.27022   1.22989   -1.000
 4388.00    1.26973   1.24163   -1.000
 4389.00    1.27016   1.24747  139.520
 4390.00    1.27196   1.25123  140.695
 4391.00    1.27912   1.25798  141.513
 4392.00    1.29838   1.26585   -1.000
 4393.00    1.30225   1.26474   -1.000
 4394.00    1.28558   1.25757   -1.000
 4395.00    1.27892   1.26163  138.770
 4396.00    1.29714   1.28122  139.427
 4397.00    1.30477   1.29928  134.710
 4398.00    1.31456   1.29812  129.976
 4399.00    1.30244   1.28344  130.087
 4400.00    1.28364   1.27307  134.100
 4401.00    1.29256   1.27166  138.482
 4402.00    1.31963   1.26913   -1.000
 4403.00    1.32043   1.25603   -1.000
 4404.00    1.27928   1.23882   -1.000
 4405.00    1.25322   1.23665  145.990
 4406.00    1.26138   1.24936  149.610
 4407.00    1.25420   1.26619  146.318
 4408.00    1.25194   1.28091   -1.000
 4409.00    1.27836   1.30083   -1.000
 4410.00    1.32796   1.32606  137.584
 4411.00    1.35956   1.34361  131.777
 4412.00    1.35273   1.34151  126.930
 4413.00    1.36374   1.32015   -1.000
 4414.00    1.34773   1.28608   -1.000
 4415.00    1.30335   1.26048   -1.000
 4416.00    1.27897   1.26083   -1.000
 4417.00    1.29168   1.28565  139.441
 4418.00    1.32897   1.31901  135.692
 4419.00    1.36329   1.34382  130.232
 4420.00    1.35705   1.35143  125.993
 4421.00    1.33151   1.34172  125.396
 4422.00    1.32272   1.32975  127.993
 4423.00    1.31476   1.32609  130.724
 4424.00    1.30850   1.32761  130.945
 4425.00    1.31392   1.32624  130.198
 4426.00    1.29844   1.32384   -1.000
 4427.00    1.27337   1.32522   -1.000
 4428.00    1.27691   1.33061   -1.000
 4429.00    1.28973   1.33657   -1.000
 4430.00    1.29618   1.34125   -1.000
 4431.00    1.31934   1.34516   -1.000
 4432.00    1.33205   1.34561  130.391
 4433.00    1.31508   1.33628  129.154
 4434.00    1.29344   1.31994   -1.000
 4435.00    1.28311   1.31434   -1.000
 4436.00    1.30407   1.33414   -1.000
 4437.00    1.35983   1.37069  137.456
 4438.00    1.40605   1.40107  129.736
 4439.00    1.42469   1.40550  123.409
 4440.00    1.40855   1.38679  121.547
 4441.00    1.35547   1.35977  124.136
 4442.00    1.32135   1.33932  129.560
 4443.00    1.30871   1.33895   -1.000
 4444.00    1.32492   1.36243   -1.000
 4445.00    1.37211   1.39608   -1.000
 4446.00    1.38994   1.41689   -1.000
 4447.00    1.41097   1.42121  124.964
 4448.00    1.42259   1.41988  124.294
 4449.00    1.40420   1.41951  124.527
 4450.00    1.40066   1.42012  125.538
 4451.00    1.40916   1.41896  126.863
 4452.00    1.41030   1.41178  126.618
 4453.00    1.40245   1.39284  126.820
 4454.00    1.36068   1.36725  130.279
 4455.00    1.32236   1.35166   -1.000
 4456.00    1.34526   1.35824  140.031
 4457.00    1.37585   1.37356  139.294
 4458.00    1.37413   1.38065  136.728
 4459.00    1.36844   1.38032  135.981
 4460.00    1.36472   1.37684  136.545
 4461.00    1.35707   1.37985   -1.000
 4462.00    1.37659   1.39266  139.073
 4463.00    1.40831   1.40806  137.626
 4464.00    1.42832   1.41822  132.969
 4465.00    1.43307   1.41992  129.083
 4466.00    1.42811   1.41261  127.995
 4467.00    1.42059   1.39816   -1.000
 4468.00    1.39296   1.38303  129.065
 4469.00    1.37880   1.37512  131.259
 4470.00    1.40054   1.38316  132.668
 4471.00    1.43180   1.40734   -1.000
 4472.00    1.45425   1.43514  128.193
 4473.00    1.48616   1.45623   -1.000
 4474.00    1.53132   1.46953   -1.000
 4475.00    1.53628   1.47536   -1.000
 4476.00    1.51808   1.48004   -1.000
 4477.00    1.51699   1.48486   -1.000
 4478.00    1.51957   1.47659   -1.000
 4479.00    1.51349   1.44840   -1.000
 4480.00    1.49224   1.41576   -1.000
 4481.00    1.45711   1.40287   -1.000
 4482.00    1.44525   1.41837   -1.000
 4483.00    1.48119   1.45166   -1.000
 4484.00    1.50983   1.48838  126.078
 4485.00    1.52294   1.51052  121.029
 4486.00    1.54483   1.51142   -1.000
 4487.00    1.54162   1.49318   -1.000
 4488.00    1.50806   1.46949   -1.000
 4489.00    1.48011   1.45502   -1.000
 4490.00    1.47872   1.45886  126.522
 4491.00    1.50901   1.47416   -1.000
 4492.00    1.52107   1.48315   -1.000
 4493.00    1.51130   1.47571   -1.000
 4494.00    1.49319   1.46268   -1.000
 4495.00    1.45988   1.46178  124.992
 4496.00    1.46354   1.47345  128.142
 4497.00    1.48628   1.48911  128.140
 4498.00    1.49458   1.49786  124.628
 4499.00    1.50720   1.49331  120.775
 4500.00    1.52979   1.48129   -1.000
 4501.00    1.50967   1.47915   -1.000
 4502.00    1.49373   1.49773  120.361
 4503.00    1.52674   1.53016  118.510
 4504.00    1.56193   1.55387  114.675
 4505.00    1.58990   1.56202   -1.000
 4506.00    1.58063   1.55480   -1.000
 4507.00    1.56059   1.54328  113.643
 4508.00    1.56446   1.53885   -1.000
 4509.00    1.57471   1.54319   -1.000
 4510.00    1.58688   1.55149   -1.000
 4511.00    1.60444   1.55315   -1.000
 4512.00    1.59055   1.54534   -1.000
 4513.00    1.57078   1.53399   -1.000
 4514.00    1.55885   1.52589   -1.000
 4515.00    1.54830   1.52520  119.854
 4516.00    1.54927   1.52800  119.694
 4517.00    1.54398   1.52812  119.395
 4518.00    1.53344   1.52489  120.324
 4519.00    1.54934   1.52631   -1.000
 4520.00    1.55258   1.53479  120.225
 4521.00    1.55312   1.53881  117.893
 4522.00    1.54403   1.53183  117.291
 4523.00    1.53027   1.51921  119.279
 4524.00    1.51016   1.51111  121.915
 4525.00    1.50040   1.50452  123.455
 4526.00    1.50767   1.49025  125.129
 4527.00    1.50333   1.47007   -1.000
 4528.00    1.48361   1.45258   -1.000
 4529.00    1.47351   1.44847   -1.000
 4530.00    1.48399   1.46115   -1.000
 4531.00    1.49107   1.47683  132.462
 4532.00    1.49532   1.47794  130.040
 4533.00    1.48257   1.46297  128.779
 4534.00    1.46258   1.44986  130.892
 4535.00    1.46697   1.45673  135.184
 4536.00    1.49657   1.48692  135.710
 4537.00    1.55285   1.52582   -1.000
 4538.00    1.59847   1.55175   -1.000
 4539.00    1.60041   1.55090   -1.000
 4540.00    1.57738   1.53128   -1.000
 4541.00    1.56990   1.51653   -1.000
 4542.00    1.58341   1.51844   -1.000
 4543.00    1.58161   1.52962   -1.000
 4544.00    1.55185   1.53806  119.177
 4545.00    1.51074   1.54108   -1.000
 4546.00    1.57434   1.54474   -2.000
 4547.00    1.12659   1.54414   -2.000
 4548.00    0.28176   1.52921   -2.000
 4549.00   -0.05487   1.51120    0.000
 4550.00    0.46065   1.51446   -1.000
 4551.00    0.81222   1.53593   -1.000
 4552.00    0.69036   1.54620   -1.000
 4553.00    1.19781   1.53380   -1.000
 4554.00    1.53141   1.51626  126.045
 4555.00    1.50231   1.51668  127.540
 4556.00    1.55504   1.54238  126.728
 4557.00    1.59872   1.57896  123.002
 4558.00    1.62399   1.60471  118.144
 4559.00    1.64378   1.61823   -1.000
 4560.00    1.64000   1.62952  114.792
 4561.00    1.61725   1.62888  115.047
 4562.00    1.59754   1.61125  115.030
 4563.00    1.58268   1.58732  116.725
 4564.00    1.56641   1.57648  119.641
 4565.00    1.56705   1.58559  122.047
 4566.00    1.59158   1.60466  121.948
 4567.00    1.62856   1.62403  119.411
 4568.00    1.65276   1.63651  116.255
 4569.00    1.65304   1.63185  114.377
 4570.00    1.61735   1.61235  114.777
 4571.00    1.56830   1.58833  117.132
 4572.00    1.54945   1.58482   -1.000
 4573.00    1.58780   1.60725  120.860
 4574.00    1.62964   1.62935  118.125
 4575.00    1.62986   1.63593  115.672
 4576.00    1.63214   1.63294  115.140
 4577.00    1.63850   1.62897  115.537
 4578.00    1.61610   1.61933  116.166
 4579.00    1.58579   1.60048  117.660
 4580.00    1.57226   1.58404  120.651
 4581.00    1.56325   1.57892  123.619
 4582.00    1.57320   1.57693  124.340
 4583.00    1.57942   1.57766  123.043
 4584.00    1.58230   1.58371  121.788
 4585.00    1.59450   1.59269  121.693
 4586.00    1.61677   1.60293  122.338
 4587.00    1.63662   1.61633  121.583
 4588.00    1.64642   1.62895  118.893
 4589.00    1.63731   1.63326  116.107
 4590.00    1.62668   1.63264  115.074
 4591.00    1.62034   1.62807  116.101
 4592.00    1.62116   1.61995  118.138
 4593.00    1.61486   1.61630  120.276
 4594.00    1.61546   1.61741  121.151
 4595.00    1.62288   1.62316  120.507
 4596.00    1.62429   1.63297  119.503
 4597.00    1.63193   1.64095  118.949
 4598.00    1.64379   1.64293  118.688
 4599.00    1.63912   1.64090  118.429
 4600.00    1.63115   1.63418  118.967
 4601.00    1.61390   1.62892  120.062
 4602.00    1.60849   1.63000  120.686
 4603.00    1.62719   1.63207  120.007
 4604.00    1.64752   1.63134  118.648
 4605.00    1.66101   1.63318   -1.000
 4606.00    1.66483   1.64373  118.244
 4607.00    1.67414   1.66018  117.364
 4608.00    1.69548   1.67981  115.414
 4609.00    1.71511   1.69768  112.987
 4610.00    1.71473   1.70371  111.231
 4611.00    1.70083   1.69909  111.051
 4612.00    1.68083   1.68874  112.224
 4613.00    1.67028   1.68447  113.615
 4614.00    1.67916   1.68933  114.548
 4615.00    1.69035   1.69549  114.477
 4616.00    1.70208   1.69749  113.599
 4617.00    1.69852   1.69615  112.917
 4618.00    1.67643   1.69396  113.215
 4619.00    1.68762   1.69404  114.056
 4620.00    1.71407   1.69907  114.322
 4621.00    1.71479   1.70956  113.587
 4622.00    1.72266   1.72048  112.033
 4623.00    1.72569   1.72391  111.296
 4624.00    1.71968   1.72059  111.498
 4625.00    1.71556   1.71410  111.748
 4626.00    1.70840   1.70685  112.458
 4627.00    1.70125   1.70158  113.054
 4628.00    1.70323   1.69722  113.106
 4629.00    1.71244   1.69513  113.519
 4630.00    1.71830   1.70130  113.978
 4631.00    1.72330   1.71346  113.713
 4632.00    1.71613   1.71987  112.667
 4633.00    1.68063   1.71656   -1.000
 4634.00    1.69130   1.70940  113.677
 4635.00    1.70350   1.70734  115.126
 4636.00    1.70567   1.70578  115.553
 4637.00    1.71143   1.69996  116.042
 4638.00    1.71739   1.69232  117.376
 4639.00    1.72134   1.69015   -1.000
 4640.00    1.71981   1.69880  118.364
 4641.00    1.72652   1.71275  117.061
 4642.00    1.74845   1.72675  114.489
 4643.00    1.75637   1.73215  112.407
 4644.00    1.74531   1.72104  112.098
 4645.00    1.72863   1.69946   -1.000
 4646.00    1.70103   1.67349  116.400
 4647.00    1.68738   1.66224  119.683
 4648.00    1.69429   1.67207  121.315
 4649.00    1.70162   1.69442  120.147
 4650.00    1.71942   1.72053  117.535
 4651.00    1.73551   1.74137  115.455
 4652.00    1.72234   1.74792  114.730
 4653.00    1.69516   1.74276   -1.000
 4654.00    1.69096   1.73291   -1.000
 4655.00    1.68292   1.72558   -1.000
 4656.00    1.68595   1.72664   -1.000
 4657.00    1.71870   1.74233  119.299
 4658.00    1.75694   1.77341  116.534
 4659.00    1.78259   1.80497  112.288
 4660.00    1.80391   1.81794  109.035
 4661.00    1.79138   1.80596  108.028
 4662.00    1.75705   1.78811   -1.000
 4663.00    1.74535   1.77264  111.022
 4664.00    1.75233   1.75729  113.472
 4665.00    1.74927   1.73818  114.518
 4666.00    1.72396   1.71004  115.690
 4667.00    1.68859   1.68497  119.450
 4668.00    1.65572   1.68008   -1.000
 4669.00    1.65304   1.69588   -1.000
 4670.00    1.70158   1.72270  124.351
 4671.00    1.75349   1.74805  119.589
 4672.00    1.76854   1.76210  115.606
 4673.00    1.76353   1.76412  113.975
 4674.00    1.76228   1.76760  113.815
 4675.00    1.78495   1.77431  113.799
 4676.00    1.80992   1.78404  112.860
 4677.00    1.79330   1.78712  111.215
 4678.00    1.76815   1.77535  110.853
 4679.00    1.75782   1.75818  112.565
 4680.00    1.73461   1.74328  114.937
 4681.00    1.72184   1.73529  116.984
 4682.00    1.72553   1.73688  118.437
 4683.00    1.76012   1.74485  118.006
 4684.00    1.81206   1.75083   -1.000
 4685.00    1.80826   1.75015   -1.000
 4686.00    1.79451   1.74809   -1.000
 4687.00    1.80373   1.74955   -1.000
 4688.00    1.80761   1.75911   -1.000
 4689.00    1.78979   1.77171  114.002
 4690.00    1.77815   1.77769  113.992
 4691.00    1.78730   1.77784  114.481
 4692.00    1.79568   1.78183  114.986
 4693.00    1.80079   1.79182  114.261
 4694.00    1.82423   1.80155  112.655
 4695.00    1.85195   1.80899   -1.000
 4696.00    1.84414   1.81021   -1.000
 4697.00    1.82066   1.79861  108.373
 4698.00    1.79717   1.77913  110.468
 4699.00    1.77444   1.76399  113.826
 4700.00    1.77886   1.75977  116.042
 4701.00    1.79413   1.75688   -1.000
 4702.00    1.77615   1.74945   -1.000
 4703.00    1.76816   1.74611  117.664
 4704.00    1.77133   1.75734  118.928
 4705.00    1.77489   1.77280  117.812
 4706.00    1.76997   1.77618  115.790
 4707.00    1.75602   1.76529  116.023
 4708.00    1.74234   1.75337  118.154
 4709.00    1.74677   1.75613  119.834
 4710.00    1.77725   1.77195  119.915
 4711.00    1.79499   1.78800  117.527
 4712.00    1.80685   1.79288  114.127
 4713.00    1.81920   1.78661   -1.000
 4714.00    1.80515   1.77864  112.377
 4715.00    1.78442   1.78292  114.124
 4716.00    1.80554   1.80234  115.068
 4717.00    1.84080   1.82491  113.671
 4718.00    1.84708   1.84017  111.394
 4719.00    1.84728   1.84902  110.098
 4720.00    1.84050   1.85539  109.626
 4721.00    1.82256   1.85623   -1.000
 4722.00    1.81203   1.85285   -1.000
 4723.00    1.81084   1.85397   -1.000
 4724.00    1.82459   1.86240   -1.000
 4725.00    1.83430   1.86489   -1.000
 4726.00    1.82293   1.85233   -1.000
 4727.00    1.79912   1.82495  110.662
 4728.00    1.77258   1.79714  114.299
 4729.00    1.76676   1.78485  117.683
 4730.00    1.78735   1.78249  118.498
 4731.00    1.80768   1.79183  117.529
 4732.00    1.82532   1.81125  116.467
 4733.00    1.83479   1.82907  115.276
 4734.00    1.81950   1.83682  114.097
 4735.00    1.81398   1.83504  113.315
 4736.00    1.81812   1.83119  112.687
 4737.00    1.80804   1.83454  113.109
 4738.00    1.82432   1.84232  113.769
 4739.00    1.85375   1.84978  112.948
 4740.00    1.84912   1.85118  112.303
 4741.00    1.83908   1.84793  112.744
 4742.00    1.85377   1.84969  113.128
 4743.00    1.86794   1.85619  112.656
 4744.00    1.85750   1.86355  111.534
 4745.00    1.86145   1.87070  111.128
 4746.00    1.87507   1.87723  111.324
 4747.00    1.87264   1.88714  110.885
 4748.00    1.87809   1.89561  109.860
 4749.00    1.87274   1.90159  109.240
 4750.00    1.87355   1.90529   -1.000
 4751.00    1.88761   1.90353  109.386
 4752.00    1.87460   1.89541  109.866
 4753.00    1.85279   1.88470   -1.000
 4754.00    1.85409   1.87566  112.031
 4755.00    1.85457   1.87358  112.863
 4756.00    1.83938   1.87714   -1.000
 4757.00    1.82851   1.88283   -1.000
 4758.00    1.83025   1.88669   -1.000
 4759.00    1.83318   1.88791   -1.000
 4760.00    1.83435   1.88473   -1.000
 4761.00    1.82133   1.87291   -1.000
 4762.00    1.80396   1.85349   -1.000
 4763.00    1.78863   1.83208   -1.000
 4764.00    1.77894   1.82020   -1.000
 4765.00    1.79663   1.82240   -1.000
 4766.00    1.81553   1.83195  119.455
 4767.00    1.84146   1.84729  118.862
 4768.00    1.87606   1.86947  117.551
 4769.00    1.89504   1.89238  115.306
 4770.00    1.89439   1.90041  113.231
 4771.00    1.88426   1.89392  112.676
 4772.00    1.86401   1.88388  113.343
 4773.00    1.86100   1.88871   -1.000
 4774.00    1.89537   1.90757  114.051
 4775.00    1.92936   1.92251  112.031
 4776.00    1.91879   1.92866  110.514
 4777.00    1.88244   1.92721   -1.000
 4778.00    1.86972   1.91889   -1.000
 4779.00    1.86409   1.90703   -1.000
 4780.00    1.85514   1.90000   -1.000
 4781.00    1.86091   1.89970   -1.000
 4782.00    1.87248   1.89662  113.483
 4783.00    1.87654   1.88772  113.908
 4784.00    1.88002   1.88406  114.676
 4785.00    1.88487   1.88577  115.072
 4786.00    1.88027   1.88743  115.237
 4787.00    1.87048   1.88900  116.062
 4788.00    1.85664   1.89264   -1.000
 4789.00    1.85260   1.89764   -1.000
 4790.00    1.87591   1.90627   -1.000
 4791.00    1.89827   1.92129  116.130
 4792.00    1.91346   1.94072   -1.000
 4793.00    1.93384   1.96267   -1.000
 4794.00    1.94550   1.98298   -1.000
 4795.00    1.95350   1.99431   -1.000
 4796.00    1.94766   1.99004   -1.000
 4797.00    1.92114   1.97239   -1.000
 4798.00    1.89866   1.95092   -1.000
 4799.00    1.88086   1.94062   -1.000
 4800.00    1.88219   1.94764   -1.000
 4801.00    1.91677   1.96713   -1.000
 4802.00    1.95195   1.98733   -1.000
 4803.00    1.94303   1.99265   -1.000
 4804.00    1.92328   1.97450   -1.000
 4805.00    1.92607   1.95594  110.717
 4806.00    1.92450   1.94834  112.202
 4807.00    1.91581   1.94859   -1.000
 4808.00    1.92275   1.95355   -1.000
 4809.00    1.94014   1.96277  113.649
 4810.00    1.93871   1.96983   -1.000
 4811.00    1.94665   1.97272  112.433
 4812.00    1.96143   1.97711  111.516
 4813.00    1.95815   1.98419  110.849
 4814.00    1.95530   1.99444   -1.000
 4815.00    1.95086   2.00315   -1.000
 4816.00    1.95157   2.00928   -1.000
 4817.00    1.96659   2.01573   -1.000
 4818.00    1.97711   2.02211   -1.000
 4819.00    1.96534   2.02726   -1.000
 4820.00    1.96629   2.02720   -1.000
 4821.00    1.99010   2.01593  107.987
 4822.00    1.98010   1.99185  108.505
 4823.00    1.93261   1.96331   -1.000
 4824.00    1.89960   1.95079   -1.000
 4825.00    1.91192   1.96245   -1.000
 4826.00    1.94164   1.98439   -1.000
 4827.00    1.94195   1.99781   -1.000
 4828.00    1.93025   1.99323   -1.000
 4829.00    1.93622   1.98452   -1.000
 4830.00    1.93927   1.98147   -1.000
 4831.00    1.93548   1.97714   -1.000
 4832.00    1.93726   1.97154   -1.000
 4833.00    1.93965   1.97646   -1.000
 4834.00    1.95159   1.98898   -1.000
 4835.00    1.97250   2.00079   -1.000
 4836.00    1.98080   2.00714  110.117
 4837.00    1.98463   2.00961  110.054
 4838.00    1.98636   2.00574  110.435
 4839.00    1.95910   1.99708   -1.000
 4840.00    1.92723   1.99165   -1.000
 4841.00    1.92415   1.99047   -1.000
 4842.00    1.93244   1.98916   -1.000
 4843.00    1.95484   1.98700   -1.000
 4844.00    1.97944   1.99003  112.995
 4845.00    1.97970   2.00256  111.991
 4846.00    1.98159   2.01214   -1.000
 4847.00    1.97707   2.00496  109.386
 4848.00    1.94415   1.98969   -1.000
 4849.00    1.92680   1.98420   -1.000
 4850.00    1.94037   1.99010   -1.000
 4851.00    1.95181   1.99313   -1.000
 4852.00    1.96307   1.98763  111.278
 4853.00    1.95798   1.96601  111.528
 4854.00    1.92301   1.92866  112.353
 4855.00    1.88467   1.88783  114.577
 4856.00    1.87260   1.86091  117.988
 4857.00    1.87355   1.84099   -1.000
 4858.00    1.82411   1.79118   -1.000
 4859.00    1.66781   1.68008  119.647
 4860.00    1.47841   1.51906   -1.000
 4861.00    1.39737   1.40081  139.804
 4862.00    1.48224   1.42328   -1.000
 4863.00    1.66678   1.56068   -1.000
 4864.00    1.79569   1.70041   -1.000
 4865.00    1.84443   1.79933   -1.000
 4866.00    1.86803   1.86603  121.807
 4867.00    1.88372   1.91370   -1.000
 4868.00    1.90938   1.94562   -1.000
 4869.00    1.92466   1.95407   -1.000
 4870.00    1.89047   1.93309   -1.000
 4871.00    1.84817   1.89888   -1.000
 4872.00    1.83974   1.89272   -1.000
 4873.00    1.87231   1.92474   -1.000
 4874.00    1.91547   1.96923   -1.000
 4875.00    1.92976   1.99888   -1.000
 4876.00    1.93351   2.01062   -1.000
 4877.00    1.92993   2.01961   -1.000
 4878.00    1.93269   2.03439   -1.000
 4879.00    1.95473   2.05363   -1.000
 4880.00    1.95785   2.06561   -1.000
 4881.00    1.93019   2.06039   -1.000
 4882.00    1.93151   2.04793   -1.000
 4883.00    1.95824   2.04082   -1.000
 4884.00    1.95429   2.03733   -1.000
 4885.00    1.92118   2.03227   -1.000
 4886.00    1.89363   2.02862   -1.000
 4887.00    1.90137   2.03147   -1.000
 4888.00    1.92417   2.03353   -1.000
 4889.00    1.91501   2.01974   -1.000
 4890.00    1.88400   1.99016   -1.000
 4891.00    1.88472   1.96986   -1.000
 4892.00    1.92525   1.99642   -1.000
 4893.00    1.98173   2.05969   -1.000
 4894.00    2.04340   2.12210   -1.000
 4895.00    2.08321   2.16591   -1.000
 4896.00    2.08098   2.18369   -1.000
 4897.00    2.06985   2.18839   -1.000
 4898.00    2.06471   2.17867   -1.000
 4899.00    2.04219   2.15592   -1.000
 4900.00    2.02577   2.13492   -1.000
 4901.00    2.03560   2.13070   -1.000
 4902.00    2.02978   2.13164   -1.000
 4903.00    2.00825   2.12551   -1.000
 4904.00    2.02467   2.12951   -1.000
 4905.00    2.06992   2.15635   -1.000
 4906.00    2.08409   2.18442   -1.000
 4907.00    2.06578   2.19038   -1.000
 4908.00    2.06447   2.17227   -1.000
 4909.00    2.05974   2.14431   -1.000
 4910.00    2.02565   2.11950   -1.000
 4911.00    2.01044   2.11562   -1.000
 4912.00    2.03389   2.13289   -1.000
 4913.00    2.06068   2.15302   -1.000
 4914.00    2.07887   2.17241   -1.000
 4915.00    2.09346   2.18823   -1.000
 4916.00    2.10318   2.18754   -1.000
 4917.00    2.08459   2.15697   -1.000
 4918.00    2.03732   2.09010   -1.000
 4919.00    1.97887   2.01303   -1.000
 4920.00    1.93085   1.96601   -1.000
 4921.00    1.95234   1.97115  125.279
 4922.00    2.00965   2.01385  123.838
 4923.00    2.02396   2.05039  119.464
 4924.00    2.00562   2.07480   -1.000
 4925.00    2.01949   2.10437   -1.000
 4926.00    2.07190   2.14583   -1.000
 4927.00    2.11359   2.18345   -1.000
 4928.00    2.13332   2.21557   -1.000
 4929.00    2.14566   2.24007   -1.000
 4930.00    2.15107   2.24926   -1.000
 4931.00    2.14590   2.23919   -1.000
 4932.00    2.11592   2.20763   -1.000
 4933.00    2.05907   2.16328   -1.000
 4934.00    2.03175   2.13695   -1.000
 4935.00    2.06337   2.15155   -1.000
 4936.00    2.09048   2.17016   -1.000
 4937.00    2.07130   2.15179   -1.000
 4938.00    2.04079   2.11441   -1.000
 4939.00    2.03747   2.10142   -1.000
 4940.00    2.06543   2.13114   -1.000
 4941.00    2.10441   2.18171   -1.000
 4942.00    2.12447   2.22400   -1.000
 4943.00    2.13001   2.24981   -1.000
 4944.00    2.13573   2.25737   -1.000
 4945.00    2.14178   2.25199   -1.000
 4946.00    2.13723   2.24710   -1.000
 4947.00    2.13880   2.25448   -1.000
 4948.00    2.16413   2.27077   -1.000
 4949.00    2.16924   2.28633   -1.000
 4950.00    2.16632   2.29527   -1.000
 4951.00    2.17938   2.29750   -1.000
 4952.00    2.17697   2.29176   -1.000
 4953.00    2.17495   2.27990   -1.000
 4954.00    2.18508   2.25959   -1.000
 4955.00    2.17006   2.21375   -1.000
 4956.00    2.11692   2.13866  110.955
 4957.00    2.04219   2.06416  115.280
 4958.00    2.01376   2.05013   -1.000
 4959.00    2.07762   2.11174   -1.000
 4960.00    2.16333   2.18838   -1.000
 4961.00    2.19217   2.23547   -1.000
 4962.00    2.19164   2.25033   -1.000
 4963.00    2.19147   2.24613   -1.000
 4964.00    2.17953   2.22897   -1.000
 4965.00    2.14692   2.20275   -1.000
 4966.00    2.13302   2.18380   -1.000
 4967.00    2.13369   2.18143   -1.000
 4968.00    2.14913   2.18825   -1.000
 4969.00    2.16419   2.20276   -1.000
 4970.00    2.14953   2.22566   -1.000
 4971.00    2.15618   2.24900   -1.000
 4972.00    2.18732   2.26831   -1.000
 4973.00    2.20313   2.28006   -1.000
 4974.00    2.20849   2.28521   -1.000
 4975.00    2.22431   2.28499   -1.000
 4976.00    2.21481   2.27699   -1.000
 4977.00    2.18363   2.25992   -1.000
 4978.00    2.17593   2.24355   -1.000
 4979.00    2.17473   2.23234   -1.000
 4980.00    2.13968   2.21276   -1.000
 4981.00    2.09394   2.17433   -1.000
 4982.00    2.06114   2.13024   -1.000
 4983.00    2.04687   2.10727   -1.000
 4984.00    2.06131   2.11828   -1.000
 4985.00    2.08925   2.15513   -1.000
 4986.00    2.11816   2.20084   -1.000
 4987.00    2.14311   2.24394   -1.000
 4988.00    2.15400   2.26437   -1.000
 4989.00    2.15432   2.25807   -1.000
 4990.00    2.15001   2.23889   -1.000
 4991.00    2.14715   2.22881   -1.000
 4992.00    2.16165   2.23593   -1.000
 4993.00    2.17702   2.24881   -1.000
 4994.00    2.16167   2.25913   -1.000
 4995.00    2.15121   2.27143   -1.000
 4996.00    2.16766   2.28553   -1.000
 4997.00    2.17417   2.28935   -1.000
 4998.00    2.15357   2.26474   -1.000
 4999.00    2.13643   2.20363   -1.000
 5000.00    2.12552   2.15625   -1.000
 5001.00    2.10649   2.16640   -1.000
 5002.00    2.13146   2.19189   -1.000
 5003.00    2.16307   2.20540   -1.000
 5004.00    2.16011   2.19919   -1.000
 5005.00    2.14201   2.17321   -1.000
 5006.00    2.11166   2.15031   -1.000
 5007.00    2.11600   2.15922   -1.000
 5008.00    2.17054   2.19923   -1.000
 5009.00    2.21213   2.23622  117.815
 5010.00    2.19870   2.24378   -1.000
 5011.00    2.16152   2.22182   -1.000
 5012.00    2.11249   2.18286   -1.000
 5013.00    2.06527   2.14769   -1.000
 5014.00    2.05431   2.13458   -1.000
 5015.00    2.08592   2.14897   -1.000
 5016.00    2.11843   2.17035   -1.000
 5017.00    2.13298   2.17679   -1.000
 5018.00    2.15237   2.17537  120.833
 5019.00    2.16264   2.19234   -1.000
 5020.00    2.17730   2.22291   -1.000
 5021.00    2.19071   2.23901   -1.000
 5022.00    2.18169   2.24028   -1.000
 5023.00    2.17825   2.24804   -1.000
 5024.00    2.18923   2.27178   -1.000
 5025.00    2.20259   2.29566   -1.000
 5026.00    2.22054   2.30194   -1.000
 5027.00    2.22943   2.29106   -1.000
 5028.00    2.21709   2.28529   -1.000
 5029.00    2.23702   2.29363   -1.000
 5030.00    2.28578   2.31163  115.341
 5031.00    2.28665   2.33675   -1.000
 5032.00    2.27994   2.36356   -1.000
 5033.00    2.30444   2.37661   -1.000
 5034.00    2.27969   2.36069   -1.000
 5035.00    2.20590   2.32377   -1.000
 5036.00    2.16587   2.29164   -1.000
 5037.00    2.16022   2.28364   -1.000
 5038.00    2.15097   2.27809   -1.000
 5039.00    2.11089   2.24087   -1.000
 5040.00    2.07016   2.18222   -1.000
 5041.00    2.07380   2.15181   -1.000
 5042.00    2.11333   2.18554   -1.000
 5043.00    2.17886   2.26034   -1.000
 5044.00    2.25688   2.33558   -1.000
 5045.00    2.31389   2.39008   -1.000
 5046.00    2.33106   2.41065   -1.000
 5047.00    2.34795   2.40114   -1.000
 5048.00    2.25493   2.36469   -1.000
 5049.00    1.36128   2.31723   -1.000
 5050.00    0.23978   2.27940   -1.000
 5051.00    0.05468   2.26726   -1.000
 5052.00    0.65353   2.28524   -1.000
 5053.00    1.77930   2.33126   -1.000
 5054.00    2.31503   2.37728   -1.000
 5055.00    2.38061   2.40023  111.592
 5056.00    2.38620   2.40863  110.019
 5057.00    2.37602   2.41643   -1.000
 5058.00    2.35969   2.42654   -1.000
 5059.00    2.35403   2.43879   -1.000
 5060.00    2.35399   2.45187   -1.000
 5061.00    2.35476   2.46173   -1.000
 5062.00    2.35836   2.45506   -1.000
 5063.00    2.33591   2.42277   -1.000
 5064.00    2.28000   2.37667   -1.000
 5065.00    2.23683   2.34367   -1.000
 5066.00    2.25878   2.33949   -1.000
 5067.00    2.30477   2.34812   -1.000
 5068.00    2.31757   2.35364   -1.000
 5069.00    2.32711   2.36100   -1.000
 5070.00    2.33750   2.37274   -1.000
 5071.00    2.33085   2.37782   -1.000
 5072.00    2.31734   2.37322   -1.000
 5073.00    2.31087   2.37456   -1.000
 5074.00    2.31490   2.38264   -1.000
 5075.00    2.32107   2.38788   -1.000
 5076.00    2.32534   2.38744   -1.000
 5077.00    2.32586   2.37301   -1.000
 5078.00    2.29940   2.33362   -1.000
 5079.00    2.23998   2.29183   -1.000
 5080.00    2.20639   2.28024   -1.000
 5081.00    2.23485   2.29269   -1.000
 5082.00    2.28650   2.30786  124.336
 5083.00    2.30484   2.32213  121.606
 5084.00    2.31537   2.34648   -1.000
 5085.00    2.35138   2.37788   -1.000
 5086.00    2.37463   2.40381   -1.000
 5087.00    2.37978   2.41712   -1.000
 5088.00    2.38057   2.42503   -1.000
 5089.00    2.37774   2.43235   -1.000
 5090.00    2.38983   2.43982   -1.000
 5091.00    2.40208   2.45029   -1.000
 5092.00    2.41215   2.46685   -1.000
 5093.00    2.42653   2.48232   -1.000
 5094.00    2.44512   2.48579   -1.000
 5095.00    2.42718   2.46537   -1.000
 5096.00    2.46729   2.42971   -1.000
 5097.00    2.48345   2.39850   -1.000
 5098.00    2.35292   2.37315  115.540
 5099.00    2.30611   2.36409   -1.000
 5100.00    2.35793   2.38168  119.722
 5101.00    2.39359   2.41368  118.555
 5102.00    2.40232   2.43736   -1.000
 5103.00    2.41004   2.44501   -1.000
 5104.00    2.40068   2.43948   -1.000
 5105.00    2.38033   2.42639   -1.000
 5106.00    2.34132   2.40302   -1.000
 5107.00    2.30238   2.37677   -1.000
 5108.00    2.27959   2.36655   -1.000
 5109.00    2.28791   2.37239   -1.000
 5110.00    2.31485   2.38585   -1.000
 5111.00    2.34244   2.40897   -1.000
 5112.00    2.37710   2.43710   -1.000
 5113.00    2.40896   2.46011   -1.000
 5114.00    2.43067   2.47962   -1.000
 5115.00    2.43584   2.49836   -1.000
 5116.00    2.43676   2.51587   -1.000
 5117.00    2.46459   2.53037   -1.000
 5118.00    2.47327   2.53523   -1.000
 5119.00    2.44667   2.52376   -1.000
 5120.00    2.43738   2.50148   -1.000
 5121.00    2.42839   2.47598   -1.000
 5122.00    2.38765   2.44216   -1.000
 5123.00    2.34645   2.40699   -1.000
 5124.00    2.33653   2.38747   -1.000
 5125.00    2.34384   2.38747   -1.000
 5126.00    2.35283   2.39548   -1.000
 5127.00    2.34627   2.39845   -1.000
 5128.00    2.35520   2.39761   -1.000
 5129.00    2.37795   2.40105  119.340
 5130.00    2.38358   2.41719   -1.000
 5131.00    2.40284   2.44673   -1.000
 5132.00    2.43543   2.47533   -1.000
 5133.00    2.43928   2.49303   -1.000
 5134.00    2.45057   2.50481   -1.000
 5135.00    2.47860   2.51212   -1.000
 5136.00    2.46852   2.50819   -1.000
 5137.00    2.40935   2.48549   -1.000
 5138.00    2.36636   2.45274   -1.000
 5139.00    2.36185   2.43432   -1.000
 5140.00    2.36919   2.44039   -1.000
 5141.00    2.37103   2.45427   -1.000
 5142.00    2.34724   2.45890   -1.000
 5143.00    2.33928   2.46041   -1.000
 5144.00    2.35753   2.47024   -1.000
 5145.00    2.37648   2.47520   -1.000
 5146.00    2.38246   2.46398   -1.000
 5147.00    2.38815   2.45611   -1.000
 5148.00    2.41313   2.46399   -1.000
 5149.00    2.43439   2.47062   -1.000
 5150.00    2.40996   2.46039   -1.000
 5151.00    2.36884   2.43747   -1.000
 5152.00    2.35649   2.42097   -1.000
 5153.00    2.36512   2.41804   -1.000
 5154.00    2.40124   2.42877   -1.000
 5155.00    2.45153   2.46530  119.973
 5156.00    2.49191   2.51902   -1.000
 5157.00    2.51125   2.56312   -1.000
 5158.00    2.52915   2.58537   -1.000
 5159.00    2.55724   2.59368   -1.000
 5160.00    2.56544   2.59156  109.762
 5161.00    2.54630   2.57945   -1.000
 5162.00    2.51523   2.56017   -1.000
 5163.00    2.49954   2.53548   -1.000
 5164.00    2.47679   2.49104  112.807
 5165.00    2.39169   2.39656  115.648
 5166.00    2.25726   2.25385  122.268
 5167.00    2.14913   2.13399  133.668
 5168.00    2.14410   2.10683   -1.000
 5169.00    2.21416   2.16299   -1.000
 5170.00    2.28759   2.21805   -1.000
 5171.00    2.29036   2.20126   -1.000
 5172.00    2.22269   2.14635   -1.000
 5173.00    2.20000   2.15460   -1.000
 5174.00    2.30051   2.25090   -1.000
 5175.00    2.43391   2.37377   -1.000
 5176.00    2.51474   2.45529   -1.000
 5177.00    2.54551   2.48835   -1.000
 5178.00    2.55799   2.50105   -1.000
 5179.00    2.56633   2.49421   -1.000
 5180.00    2.55307   2.45915   -1.000
 5181.00    2.49284   2.38059   -1.000
 5182.00    2.36977   2.26487   -1.000
 5183.00    2.27573   2.16819   -1.000
 5184.00    2.28409   2.16801   -1.000
 5185.00    2.34733   2.27626   -1.000
 5186.00    2.45915   2.40530   -1.000
 5187.00    2.52672   2.48156   -1.000
 5188.00    2.53027   2.51345  119.585
 5189.00    2.55409   2.52309   -1.000
 5190.00    2.53790   2.51655  116.462
 5191.00    2.47617   2.47907  116.722
 5192.00    2.41541   2.43483  119.061
 5193.00    2.40270   2.42388  122.740
 5194.00    2.42283   2.45040   -1.000
 5195.00    2.45004   2.48034   -1.000
 5196.00    2.51101   2.50739  120.662
 5197.00    2.55315   2.53921  118.899
 5198.00    2.56131   2.57047  116.884
 5199.00    2.58078   2.59335  114.662
 5200.00    2.59407   2.60317  113.151
 5201.00    2.59159   2.59375  112.601
 5202.00    2.58021   2.56299  112.943
 5203.00    2.53775   2.51230   -1.000
 5204.00    2.48039   2.44030   -1.000
 5205.00    2.45380   2.37577   -1.000
 5206.00    2.45005   2.35016   -1.000
 5207.00    2.45049   2.34780   -1.000
 5208.00    2.44330   2.34766   -1.000
 5209.00    2.44312   2.36180   -1.000
 5210.00    2.49969   2.41842   -1.000
 5211.00    2.56798   2.50535   -1.000
 5212.00    2.61268   2.59063  119.380
 5213.00    2.65845   2.64018  114.598
 5214.00    2.65277   2.64027  111.005
 5215.00    2.59426   2.60768  110.236
 5216.00    2.56872   2.58376  112.165
 5217.00    2.57865   2.59602  114.345
 5218.00    2.61902   2.64081  114.711
 5219.00    2.66251   2.68786  113.029
 5220.00    2.68204   2.71738   -1.000
 5221.00    2.71225   2.72766  109.528
 5222.00    2.70164   2.71614  108.882
 5223.00    2.66840   2.67430  109.217
 5224.00    2.62223   2.60075  111.487
 5225.00    2.53223   2.51181  115.463
 5226.00    2.44790   2.44093  120.550
 5227.00    2.42479   2.43331  125.294
 5228.00    2.48780   2.51245  126.116
 5229.00    2.59786   2.62074  121.355
 5230.00    2.66095   2.68380  115.197
 5231.00    2.68473   2.68609  111.660
 5232.00    2.67919   2.64625   -1.000
 5233.00    2.63299   2.60184   -1.000
 5234.00    2.60242   2.59767  113.639
 5235.00    2.63013   2.64353  114.717
 5236.00    2.68661   2.70524  113.385
 5237.00    2.73598   2.75245  110.649
 5238.00    2.74620   2.76928  108.579
 5239.00    2.73414   2.76664  107.873
 5240.00    2.74522   2.75950  107.998
 5241.00    2.75876   2.75535  108.140
 5242.00    2.75654   2.75871  107.740
 5243.00    2.76790   2.76954  107.412
 5244.00    2.77098   2.77842  107.454
 5245.00    2.73111   2.76321  107.235
 5246.00    2.67594   2.72135   -1.000
 5247.00    2.63484   2.67737   -1.000
 5248.00    2.61841   2.65821   -1.000
 5249.00    2.60864   2.65923   -1.000
 5250.00    2.58032   2.65721   -1.000
 5251.00    2.58638   2.66244   -1.000
 5252.00    2.64283   2.68240   -1.000
 5253.00    2.67743   2.69824  115.385
 5254.00    2.67879   2.70109  113.926
 5255.00    2.67312   2.70702  113.284
 5256.00    2.68696   2.73780   -1.000
 5257.00    2.73765   2.78966   -1.000
 5258.00    2.79690   2.82722  108.562
 5259.00    2.81317   2.82820  106.413
 5260.00    2.77232   2.79150  106.334
 5261.00    2.71478   2.72724  108.177
 5262.00    2.62948   2.65301  111.871
 5263.00    2.56163   2.58176  116.927
 5264.00    2.52967   2.53014  121.927
 5265.00    2.50974   2.50695  125.398
 5266.00    2.52837   2.51334  127.014
 5267.00    2.58187   2.53028   -1.000
 5268.00    2.56690   2.50913   -1.000
 5269.00    2.49291   2.44141   -1.000
 5270.00    2.46712   2.41687   -1.000
 5271.00    2.55234   2.48800   -1.000
 5272.00    2.65685   2.60668   -1.000
 5273.00    2.69432   2.68395  118.146
 5274.00    2.69721   2.69775  114.723
 5275.00    2.70563   2.70279  114.201
 5276.00    2.73090   2.72706  114.176
 5277.00    2.77711   2.78211  113.116
 5278.00    2.82985   2.83702  110.169
 5279.00    2.83466   2.84982  107.017
 5280.00    2.81435   2.82053  106.145
 5281.00    2.78351   2.77107  107.654
 5282.00    2.73332   2.72221  110.421
 5283.00    2.70291   2.69971  112.970
 5284.00    2.73866   2.73110  114.400
 5285.00    2.81103   2.80345  113.745
 5286.00    2.87615   2.87652  110.843
 5287.00    2.85959   2.91569   -1.000
 5288.00    2.74919   2.91685   -1.000
 5289.00    2.79814   2.91192   -1.000
 5290.00    2.91273   2.91457  105.237
 5291.00    2.88064   2.91572  104.954
 5292.00    2.87938   2.91155  104.467
 5293.00    2.89140   2.90706  104.593
 5294.00    2.88494   2.89772  105.393
 5295.00    2.84195   2.86932  106.565
 5296.00    2.76853   2.80836   -1.000
 5297.00    2.69064   2.74363   -1.000
 5298.00    2.70472   2.72032  115.941
 5299.00    2.77049   2.74299   -1.000
 5300.00    2.78077   2.78523  115.679
 5301.00    2.78606   2.81306  112.958
 5302.00    2.80626   2.83630  111.437
 5303.00    2.83940   2.87550  110.527
 5304.00    2.89947   2.92371  108.488
 5305.00    2.92824   2.95214  105.855
 5306.00    2.91149   2.94765  104.608
 5307.00    2.89729   2.93093  104.913
 5308.00    2.91301   2.93079  105.953
 5309.00    2.95255   2.94601  106.236
 5310.00    2.96929   2.96215  105.302
 5311.00    2.96877   2.96407  104.347
 5312.00    2.95506   2.95557  104.001
 5313.00    2.95448   2.94526  104.326
 5314.00    2.95919   2.93035   -1.000
 5315.00    2.93222   2.90909   -1.000
 5316.00    2.90936   2.88792   -1.000
 5317.00    2.89892   2.88555   -1.000
 5318.00    2.91867   2.90201   -1.000
 5319.00    2.94434   2.92023   -1.000
 5320.00    2.93964   2.93117  106.917
 5321.00    2.92096   2.92678  106.806
 5322.00    2.89947   2.90117  107.377
 5323.00    2.88458   2.86009   -1.000
 5324.00    2.86519   2.82910   -1.000
 5325.00    2.86377   2.81354   -1.000
 5326.00    2.83533   2.76880   -1.000
 5327.00    2.74055   2.67500   -1.000
 5328.00    2.67044   2.59403   -1.000
 5329.00    2.69544   2.61219   -1.000
 5330.00    2.79093   2.72857   -1.000
 5331.00    2.86235   2.84050   -1.000
 5332.00    2.86804   2.88900  112.533
 5333.00    2.88262   2.91141  110.001
 5334.00    2.92866   2.93203  108.989
 5335.00    2.96517   2.94908   -1.000
 5336.00    2.96989   2.95354   -1.000
 5337.00    2.94491   2.94482  106.907
 5338.00    2.93776   2.92127   -1.000
 5339.00    2.91865   2.87785   -1.000
 5340.00    2.85429   2.83020   -1.000
 5341.00    2.82831   2.82066  112.885
 5342.00    2.88746   2.86584   -1.000
 5343.00    2.96441   2.91568   -1.000
 5344.00    2.97423   2.93248   -1.000
 5345.00    2.95081   2.92635   -1.000
 5346.00    2.92381   2.91217  108.263
 5347.00    2.91982   2.90000   -1.000
 5348.00    2.93189   2.88891   -1.000
 5349.00    2.93502   2.88683   -1.000
 5350.00    2.97640   2.91337   -1.000
 5351.00    2.99982   2.95919   -1.000
 5352.00    3.00794   3.00113  108.413
 5353.00    3.00690   3.02801  106.298
 5354.00    3.03791   3.04643  105.406
 5355.00    3.08349   3.06961   -1.000
 5356.00    3.09484   3.08632   -1.000
 5357.00    3.07941   3.09317  102.730
 5358.00    3.07795   3.09363  102.312
 5359.00    3.06006   3.08551  102.471
 5360.00    3.03130   3.06459  102.711
 5361.00    3.02982   3.03519  103.407
 5362.00    3.02164   3.00929   -1.000
 5363.00    2.99793   2.99232  106.566
 5364.00    2.99303   2.97703   -1.000
 5365.00    2.97397   2.96792  108.479
 5366.00    2.95834   2.96995  109.113
 5367.00    2.96602   2.97324  109.401
 5368.00    2.96513   2.96015  109.134
 5369.00    2.92781   2.90717   -1.000
 5370.00    2.86124   2.83232   -1.000
 5371.00    2.81651   2.79008   -1.000
 5372.00    2.88024   2.82332   -1.000
 5373.00    3.01100   2.91918   -1.000
 5374.00    3.07841   3.01382   -1.000
 5375.00    3.08470   3.06453   -1.000
 5376.00    3.09198   3.06962   -1.000
 5377.00    3.10352   3.06737   -1.000
 5378.00    3.09779   3.07549   -1.000
 5379.00    3.08803   3.08016  104.369
 5380.00    3.07155   3.07162  104.733
 5381.00    3.04237   3.05111  105.522
 5382.00    3.02254   3.03182  106.589
 5383.00    3.03560   3.02422   -1.000
 5384.00    3.05154   3.02948   -1.000
 5385.00    3.07011   3.05112   -1.000
 5386.00    3.09225   3.07497   -1.000
 5387.00    3.08383   3.08134  105.844
 5388.00    3.07884   3.06337   -1.000
 5389.00    3.07200   3.03251   -1.000
 5390.00    3.05871   3.00416   -1.000
 5391.00    3.05161   2.98710   -1.000
 5392.00    3.04995   2.98051   -1.000
 5393.00    3.01748   2.97880   -1.000
 5394.00    2.98719   2.97206   -1.000
 5395.00    2.96505   2.94431   -1.000
 5396.00    2.92793   2.89661   -1.000
 5397.00    2.92483   2.86698   -1.000
 5398.00    2.97032   2.90109   -1.000
 5399.00    3.03064   2.96922   -1.000
 5400.00    3.05890   3.01875   -1.000
 5401.00    3.06230   3.04121   -1.000
 5402.00    3.07915   3.03380   -1.000
 5403.00    3.03892   2.98698   -1.000
 5404.00    2.95140   2.90975   -1.000
 5405.00    2.88666   2.83926   -1.000
 5406.00    2.89076   2.82541   -1.000
 5407.00    2.94727   2.87430   -1.000
 5408.00    2.98411   2.91293   -1.000
 5409.00    2.98084   2.91071   -1.000
 5410.00    2.99261   2.90174   -1.000
 5411.00    3.03311   2.92592   -1.000
 5412.00    3.07580   2.97671   -1.000
 5413.00    3.11848   3.01524   -1.000
 5414.00    3.12563   3.03365   -1.000
 5415.00    3.09268   3.05854   -1.000
 5416.00    3.11316   3.09428   -1.000
 5417.00    3.14898   3.12420   -1.000
 5418.00    3.13918   3.13299   -1.000
 5419.00    3.12215   3.12492  105.965
 5420.00    3.10548   3.11461  106.692
 5421.00    3.12602   3.10853   -1.000
 5422.00    3.12833   3.10588   -1.000
 5423.00    3.10214   3.09414   -1.000
 5424.00    3.08972   3.07969   -1.000
 5425.00    3.09487   3.09381  109.078
 5426.00    3.11485   3.13363  109.254
 5427.00    3.12884   3.14775  107.709
 5428.00    3.09811   3.10133  106.619
 5429.00    3.01730   3.02322  108.017
 5430.00    2.99290   2.98676  111.344
 5431.00    3.04049   3.00778   -1.000
 5432.00    3.06503   3.02886   -1.000
 5433.00    3.04074   3.01383   -1.000
 5434.00    3.01143   2.97814   -1.000
 5435.00    3.01088   2.97597   -1.000
 5436.00    3.06282   3.02375   -1.000
 5437.00    3.12168   3.09234   -1.000
 5438.00    3.17255   3.15129   -1.000
 5439.00    3.21256   3.19245   -1.000
 5440.00    3.23278   3.22140   -1.000
 5441.00    3.23952   3.23764  104.530
 5442.00    3.23942   3.24372  103.941
 5443.00    3.20887   3.23036  103.867
 5444.00    3.16978   3.17778  104.256
 5445.00    3.08891   3.08717  106.017
 5446.00    3.02265   2.99379   -1.000
 5447.00    2.99993   2.95271   -1.000
 5448.00    3.06576   2.98955   -1.000
 5449.00    3.15815   3.06097   -1.000
 5450.00    3.19517   3.11661   -1.000
 5451.00    3.21506   3.13125   -1.000
 5452.00    3.22739   3.11679   -1.000
 5453.00    3.18994   3.07977   -1.000
 5454.00    3.12141   3.01486   -1.000
 5455.00    3.06180   2.95741   -1.000
 5456.00    3.06724   2.96539   -1.000
 5457.00    3.15286   3.03749   -1.000
 5458.00    3.22944   3.12111   -1.000
 5459.00    3.25188   3.16381   -1.000
 5460.00    3.24958   3.16007   -1.000
 5461.00    3.22485   3.13281   -1.000
 5462.00    3.19541   3.10282   -1.000
 5463.00    3.20766   3.09032   -1.000
 5464.00    3.22618   3.10019   -1.000
 5465.00    3.23238   3.12507   -1.000
 5466.00    3.25296   3.15119   -1.000
 5467.00    3.26528   3.17017   -1.000
 5468.00    3.28936   3.18040   -1.000
 5469.00    3.27968   3.18015   -1.000
 5470.00    3.25373   3.16841   -1.000
 5471.00    3.26199   3.15510   -1.000
 5472.00    3.25187   3.14791   -1.000
 5473.00    3.22415   3.13679   -1.000
 5474.00    3.21170   3.11182   -1.000
 5475.00    3.19073   3.07209   -1.000
 5476.00    3.13957   3.03263   -1.000
 5477.00    3.09328   3.03000   -1.000
 5478.00    3.16536   3.08204   -1.000
 5479.00    3.24645   3.13639   -1.000
 5480.00    3.24617   3.14209   -1.000
 5481.00    3.23283   3.12087   -1.000
 5482.00    3.22621   3.11426   -1.000
 5483.00    3.23701   3.14660   -1.000
 5484.00    3.27122   3.19480   -1.000
 5485.00    3.28025   3.22182   -1.000
 5486.00    3.27471   3.21768   -1.000
 5487.00    3.25301   3.19072   -1.000
 5488.00    3.23630   3.17002   -1.000
 5489.00    3.22968   3.17115   -1.000
 5490.00    3.23319   3.18889   -1.000
 5491.00    3.26219   3.20892   -1.000
 5492.00    3.29142   3.22003   -1.000
 5493.00    3.30641   3.22247   -1.000
 5494.00    3.30443   3.21890   -1.000
 5495.00    3.30494   3.20766   -1.000
 5496.00    3.28273   3.18711   -1.000
 5497.00    3.24383   3.17007   -1.000
 5498.00    3.23645   3.17830   -1.000
 5499.00    3.28231   3.20119   -1.000
 5500.00    3.31219   3.20144   -1.000
 5501.00    3.29804   3.17591   -1.000
 5502.00    3.29246   3.15724   -1.000
 5503.00    3.31515   3.16569   -1.000
 5504.00    3.34269   3.17876   -1.000
 5505.00    3.29669   3.15980   -1.000
 5506.00    3.21679   3.12748   -1.000
 5507.00    3.21358   3.12868   -1.000
 5508.00    3.25965   3.16928   -1.000
 5509.00    3.29975   3.21144   -1.000
 5510.00    3.31428   3.21551   -1.000
 5511.00    3.28698   3.18445   -1.000
 5512.00    3.25049   3.14720   -1.000
 5513.00    3.23584   3.12582   -1.000
 5514.00    3.24442   3.13069   -1.000
 5515.00    3.28695   3.15158   -1.000
 5516.00    3.34880   3.18278   -1.000
 5517.00    3.38789   3.22521   11.170
 5518.00    3.41553   3.26739   10.990
 5519.00    3.43693   3.29733   10.788
 5520.00    3.43889   3.30890   10.661
 5521.00    3.43337   3.30531   10.660
 5522.00    3.41532   3.30423   10.680
 5523.00    3.40521   3.30598   10.707
 5524.00    3.37249   3.30158   10.739
 5525.00    3.35991   3.27509   10.771
 5526.00    3.32950   3.22145   10.866
 5527.00    3.27621   3.16735   11.054
 5528.00    3.25402   3.14496   11.327
 5529.00    3.28922   3.17760   11.548
 5530.00    3.34955   3.23733   11.491
 5531.00    3.38095   3.27660   11.203
 5532.00    3.38381   3.28396   10.953
 5533.00    3.37322   3.26845   10.875
 5534.00    3.36306   3.25314   10.935
 5535.00    3.36405   3.25087   11.027
 5536.00    3.36617   3.26195   11.047
 5537.00    3.38993   3.27738   10.985
 5538.00    3.41051   3.29482   10.912
 5539.00    3.41423   3.31594   10.884
 5540.00    3.43641   3.33595   10.815
 5541.00    3.45684   3.34487   10.711
 5542.00    3.45015   3.33813   10.657
 5543.00    3.43036   3.32217   10.702
 5544.00    3.42864   3.31226   10.820
 5545.00    3.41784   3.31424   10.903
 5546.00    3.40559   3.32114   10.906
 5547.00    3.43788   3.33385   10.873
 5548.00    3.47054   3.36049   10.836
 5549.00    3.48980   3.38657   10.751
 5550.00    3.50696   3.39428   10.647
 5551.00    3.50743   3.38826   10.580
 5552.00    3.50232   3.37769   10.586
 5553.00    3.49625   3.36534   10.660
 5554.00    3.46345   3.35408   10.765
 5555.00    3.45911   3.35085   10.868
 5556.00    3.50166   3.35247   10.893
 5557.00    3.51863   3.35319   10.866
 5558.00    3.51566   3.35262   10.836
 5559.00    3.50006   3.35545   10.820
 5560.00    3.50137   3.35772   10.807
 5561.00    3.49390   3.34909   10.807
 5562.00    3.47935   3.33393   10.843
 5563.00    3.44165   3.32717   10.919
 5564.00    3.43427   3.32847   11.023
 5565.00    3.45499   3.32386   11.083
 5566.00    3.45898   3.31433   11.108
 5567.00    3.44292   3.31052   11.127
 5568.00    3.42181   3.30774   11.127
 5569.00    3.42923   3.30731   11.100
 5570.00    3.44923   3.31503   11.095
 5571.00    3.44972   3.31536   11.119
 5572.00    3.42957   3.30593   11.110
 5573.00    3.40474   3.30557   11.122
 5574.00    3.36031   3.32369   11.132
 5575.00    3.14308   3.35143   11.055
 5576.00    2.56615   3.36906   -1.000
 5577.00    2.14191   3.37894   -1.000
 5578.00    2.88501   3.39365   -1.000
 5579.00    3.78473   3.40757   -1.000
 5580.00    4.25710   3.40490   -1.000
 5581.00    3.65612   3.39299   -1.000
 5582.00    3.24638   3.38287   11.191
 5583.00    3.47544   3.37681   11.045
 5584.00    3.56106   3.36353   10.955
 5585.00    3.49889   3.32220   10.966
 5586.00    3.43265   3.26575   11.091
 5587.00    3.37859   3.21347   11.364
 5588.00    3.34298   3.18908   11.644
 5589.00    3.35541   3.20248   11.850
 5590.00    3.42104   3.23962   11.855
 5591.00    3.46693   3.28081   11.674
 5592.00    3.47458   3.30414   11.473
 5593.00    3.45610   3.31245   11.355
 5594.00    3.44371   3.32761   11.355
 5595.00    3.48004   3.35922   11.372
 5596.00    3.52070   3.38508   11.264
 5597.00    3.52540   3.36980   11.115
 5598.00    3.49232   3.32786   11.089
 5599.00    3.46994   3.29870   11.237
 5600.00    3.46202   3.28097   11.418
 5601.00    3.45249   3.27049   11.493
 5602.00    3.43626   3.27478   11.497
 5603.00    3.46031   3.30413   11.567
 5604.00    3.50633   3.36083   11.546
 5605.00    3.58012   3.41930   11.297
 5606.00    3.64312   3.45577   10.994
 5607.00    3.64014   3.47347   10.784
 5608.00    3.64006   3.47712   10.697
 5609.00    3.63182   3.47669   10.693
 5610.00    3.61091   3.48242   10.714
 5611.00    3.63750   3.49548   10.726
 5612.00    3.64068   3.49387   10.706
 5613.00    3.63380   3.45458   10.696
 5614.00    3.55968   3.37389   10.805
 5615.00    3.45822   3.30333   11.088
 5616.00    3.44158   3.30054   11.451
 5617.00    3.51805   3.34460   11.596
 5618.00    3.59845   3.38831   11.416
 5619.00    3.62314   3.40845   11.163
 5620.00    3.62176   3.41752   11.059
 5621.00    3.64083   3.43593   11.035
 5622.00    3.64020   3.44376   10.981
 5623.00    3.61197   3.41769   10.956
 5624.00    3.56031   3.38033   11.062
 5625.00    3.55641   3.36623   11.293
 5626.00    3.60648   3.39011   11.423
 5627.00    3.62320   3.42681   11.308
 5628.00    3.62599   3.44981   11.114
 5629.00    3.66037   3.46495   10.967
 5630.00    3.68274   3.47508   10.856
 5631.00    3.69391   3.48277   10.794
 5632.00    3.68714   3.48237   10.764
 5633.00    3.67233   3.47528   10.735
 5634.00    3.64806   3.47135   10.773
 5635.00    3.63505   3.46148   10.862
 5636.00    3.65453   3.44587   10.936
 5637.00    3.64935   3.43704   11.007
 5638.00    3.62480   3.43613   11.088
 5639.00    3.61859   3.43561   11.140
 5640.00    3.62245   3.42780   11.131
 5641.00    3.62889   3.42038   11.133
 5642.00    3.64013   3.42575   11.167
 5643.00    3.65626   3.44097   11.154
 5644.00    3.67579   3.45544   11.103
 5645.00    3.66508   3.46760   11.061
 5646.00    3.66387   3.47691   11.029
 5647.00    3.69664   3.48162   10.959
 5648.00    3.70821   3.48268   10.934
 5649.00    3.69502   3.48105   10.909
 5650.00    3.69254   3.49064   10.907
 5651.00    3.72206   3.51136   10.929
 5652.00    3.71826   3.52670   10.901
 5653.00    3.71327   3.52863   10.822
 5654.00    3.69914   3.51737   10.820
 5655.00    3.67740   3.49920   10.881
 5656.00    3.65157   3.46510   10.977
 5657.00    3.56423   3.40867   11.114
 5658.00    3.49672   3.36935   11.375
 5659.00    3.52276   3.37918   11.693
 5660.00    3.58047   3.41697   11.762
 5661.00    3.63756   3.43927   11.535
 5662.00    3.64933   3.43636   11.336
 5663.00    3.65029   3.44969   11.330
 5664.00    3.69502   3.48570   11.311
 5665.00    3.71464   3.51220   11.161
 5666.00    3.69980   3.51004   11.032
 5667.00    3.67947   3.48799   11.029
 5668.00    3.65643   3.47504   11.098
 5669.00    3.64880   3.48022   11.150
 5670.00    3.67028   3.49296   11.146
 5671.00    3.69746   3.51163   11.102
 5672.00    3.70511   3.53708   11.019
 5673.00    3.74224   3.55995   10.917
 5674.00    3.73957   3.57129   10.807
 5675.00    3.74254   3.57520   10.734
 5676.00    3.76637   3.58169   10.756
 5677.00    3.77389   3.59011   10.775
 5678.00    3.75421   3.59010   10.738
 5679.00    3.74262   3.57843   10.744
 5680.00    3.75342   3.56078   10.803
 5681.00    3.75981   3.53726   10.850
 5682.00    3.72215   3.51137   10.934
 5683.00    3.69653   3.50204   11.069
 5684.00    3.69874   3.52025   11.171
 5685.00    3.67986   3.54215   11.160
 5686.00    3.67925   3.53897   11.091
 5687.00    3.67111   3.52016   11.072
 5688.00    3.66458   3.50886   11.157
 5689.00    3.68931   3.52344   11.270
 5690.00    3.73589   3.55543   11.251
 5691.00    3.77276   3.59092   11.086
 5692.00    3.78533   3.61915   10.902
 5693.00    3.81992   3.62995   10.819
 5694.00    3.81600   3.62687   10.766
 5695.00    3.80043   3.61670   10.761
 5696.00    3.80079   3.60603   10.775
 5697.00    3.76855   3.59209   10.789
 5698.00    3.72435   3.57066   10.843
 5699.00    3.69871   3.55011   10.963
 5700.00    3.71008   3.53670   11.084
 5701.00    3.69143   3.52273   11.184
 5702.00    3.68839   3.52132   11.288
 5703.00    3.67636   3.54278   11.295
 5704.00    3.68196   3.56411   11.188
 5705.00    3.67065   3.56329   11.093
 5706.00    3.63061   3.53742   11.103
 5707.00    3.60132   3.50304   11.210
 5708.00    3.59783   3.47243   11.391
 5709.00    3.58618   3.45202   11.599
 5710.00    3.54907   3.45233   11.745
 5711.00    3.55991   3.47430   11.776
 5712.00    3.64861   3.51244   11.714
 5713.00    3.70557   3.56072   11.551
 5714.00    3.76190   3.59809   11.288
 5715.00    3.82072   3.61787   11.033
 5716.00    3.82942   3.63377   10.911
 5717.00    3.81497   3.64199   10.888
 5718.00    3.81743   3.64679   10.862
 5719.00    3.82318   3.65574   10.821
 5720.00    3.84449   3.67210   10.762
 5721.00    3.86837   3.68905   10.696
 5722.00    3.86269   3.70289   10.654
 5723.00    3.86085   3.71230   10.634
 5724.00    3.86947   3.71163   10.619
 5725.00    3.84739   3.68946   10.617
 5726.00    3.82384   3.65658   10.663
 5727.00    3.80190   3.63738   10.766
 5728.00    3.81183   3.63912   10.875
 5729.00    3.84293   3.65860   10.919
 5730.00    3.83367   3.67128   10.843
 5731.00    3.82547   3.66819   10.804
 5732.00    3.83684   3.66926   10.851
 5733.00    3.84755   3.69114   10.883
 5734.00    3.86312   3.71817   10.814
 5735.00    3.88503   3.72367   10.712
 5736.00    3.88224   3.71550   10.669
 5737.00    3.86989   3.70533   10.688
 5738.00    3.88776   3.69958   10.705
 5739.00    3.87506   3.70266   10.733
 5740.00    3.86986   3.70834   10.742
 5741.00    3.88488   3.70999   10.766
 5742.00    3.87150   3.70719   10.783
 5743.00    3.85528   3.71306   10.795
 5744.00    3.87894   3.73258   10.768
 5745.00    3.87974   3.75003   10.742
 5746.00    3.86115   3.74862   10.660
 5747.00    3.86694   3.72777   10.636
 5748.00    3.86700   3.71700   10.719
 5749.00    3.87178   3.73476   10.813
 5750.00    3.86433   3.75521   10.819
 5751.00    3.88428   3.75181   10.753
 5752.00    3.86718   3.71369   10.755
 5753.00    3.83614   3.67397   10.864
 5754.00    3.80729   3.67553   10.995
 5755.00    3.84592   3.71437   11.073
 5756.00    3.89937   3.76387   11.022
 5757.00    3.95061   3.79770   10.851
 5758.00    3.96923   3.80218   10.663
 5759.00    3.94591   3.77408   10.586
 5760.00    3.90342   3.73136   10.657
 5761.00    3.88621   3.69219   10.789
 5762.00    3.88324   3.67238   10.934
 5763.00    3.88585   3.69252   11.060
 5764.00    3.90845   3.74399   11.060
 5765.00    3.93226   3.78607   10.903
 5766.00    3.94857   3.80023   10.717
 5767.00    3.93138   3.80604   10.618
 5768.00    3.93890   3.80865   10.601
 5769.00    3.95072   3.80250   10.589
 5770.00    3.94248   3.79257   10.580
 5771.00    3.92924   3.78474   10.610
 5772.00    3.90602   3.77949   10.652
 5773.00    3.89609   3.77543   10.716
 5774.00    3.89232   3.76323   10.773
 5775.00    3.87521   3.75401   10.792
 5776.00    3.88074   3.75847   10.795
 5777.00    3.85972   3.75918   10.761
 5778.00    3.80760   3.74275   10.714
 5779.00    3.71339   3.70896   10.720
 5780.00    3.57719   3.66536   10.788
 5781.00    3.50214   3.63092   10.980
 5782.00    3.52901   3.62370   11.212
 5783.00    3.62959   3.63639   11.304
 5784.00    3.74410   3.64455   11.262
 5785.00    3.81774   3.65010   11.218
 5786.00    3.85775   3.67427   11.178
 5787.00    3.89688   3.70939   11.117
 5788.00    3.92805   3.73862   10.978
 5789.00    3.93788   3.75455   10.845
 5790.00    3.93473   3.75289   10.792
 5791.00    3.93327   3.75448   10.822
 5792.00    3.94129   3.77648   10.858
 5793.00    3.94207   3.81930   10.817
 5794.00    3.96441   3.85751   10.724
 5795.00    3.95626   3.86471   10.655
 5796.00    3.88879   3.84433   10.605
 5797.00    3.82856   3.81744   10.621
 5798.00    3.85273   3.81656   10.693
 5799.00    3.91095   3.84308   10.732
 5800.00    3.99706   3.88149   10.648
 5801.00    4.05315   3.91108   10.502
 5802.00    4.03733   3.91309   10.386
 5803.00    3.99603   3.89079   10.400
 5804.00    3.95967   3.86722   10.496
 5805.00    3.99156   3.86115   10.577
 5806.00    4.00791   3.86790   10.655
 5807.00    3.99777   3.88009   10.681
 5808.00    3.99867   3.88956   10.646
 5809.00    4.01552   3.89381   10.607
 5810.00    4.02250   3.89433   10.584
 5811.00    4.05178   3.89160   10.584
 5812.00    4.06409   3.88701   10.566
 5813.00    4.06758   3.87772   10.525
 5814.00    4.06155   3.85960   10.507
 5815.00    4.06646   3.83851   10.549
 5816.00    4.06041   3.83318   10.635
 5817.00    4.05496   3.85814   10.654
 5818.00    4.09643   3.89374   10.585
 5819.00    4.08939   3.91671   10.515
 5820.00    4.10587   3.92615   10.461
 5821.00    4.10489   3.92530   10.413
 5822.00    4.10814   3.91488   10.392
 5823.00    4.13240   3.90463   10.419
 5824.00    4.12742   3.90454   10.445
 5825.00    4.12733   3.91465   10.420
 5826.00    4.14737   3.92745   10.405
 5827.00    4.13214   3.93538   10.387
 5828.00    4.12730   3.94298   10.381
 5829.00    4.14248   3.94974   10.390
 5830.00    4.13057   3.95308   10.403
 5831.00    4.12383   3.95433   10.383
 5832.00    4.13391   3.94982   10.385
 5833.00    4.12925   3.93885   10.376
 5834.00    4.12935   3.92643   10.412
 5835.00    4.14024   3.92176   10.475
 5836.00    4.13635   3.92832   10.474
 5837.00    4.11405   3.93358   10.438
 5838.00    4.12087   3.93598   10.432
 5839.00    4.16426   3.94486   10.469
 5840.00    4.17336   3.95886   10.478
 5841.00    4.16003   3.97631   10.429
 5842.00    4.13871   3.98623   10.352
 5843.00    4.11572   3.98090   10.314
 5844.00    4.12117   3.96553   10.329
 5845.00    4.10531   3.94430   10.368
 5846.00    4.09428   3.92410   10.415
 5847.00    4.11001   3.91084   10.484
 5848.00    4.10075   3.90461   10.534
 5849.00    4.09370   3.90122   10.572
 5850.00    4.07931   3.89698   10.560
 5851.00    4.07391   3.87568   10.591
 5852.00    4.04598   3.84347   10.657
 5853.00    4.00542   3.82745   10.732
 5854.00    4.06189   3.83475   10.831
 5855.00    4.05551   3.83664   10.868
 5856.00    4.05023   3.80535   10.883
 5857.00    4.03060   3.77012   -1.000
 5858.00    4.04801   3.76881   -1.000
 5859.00    4.05925   3.80234   -1.000
 5860.00    4.09865   3.84551   -1.000
 5861.00    4.11222   3.86741   10.856
 5862.00    4.11576   3.87020   10.784
 5863.00    4.11771   3.87029   10.751
 5864.00    4.14664   3.86938   -1.000
 5865.00    4.17395   3.85979   -1.000
 5866.00    4.13079   3.84554   -1.000
 5867.00    4.12967   3.84944   -1.000
 5868.00    4.16486   3.87824   -1.000
 5869.00    4.20042   3.90789   -1.000
 5870.00    4.19948   3.92195   -1.000
 5871.00    4.20417   3.91887   -1.000
 5872.00    4.19479   3.90249   -1.000
 5873.00    4.19952   3.88205   -1.000
 5874.00    4.19675   3.86556   -1.000
 5875.00    4.17976   3.85962   -1.000
 5876.00    4.17024   3.86096   -1.000
 5877.00    4.18522   3.85798   -1.000
 5878.00    4.19796   3.84430   -1.000
 5879.00    4.18170   3.82727   -1.000
 5880.00    4.17239   3.81654   -1.000
 5881.00    4.15452   3.81839   -1.000
 5882.00    4.13512   3.82328   -1.000
 5883.00    4.13820   3.81396   -1.000
 5884.00    4.14632   3.79717   -1.000
 5885.00    4.13799   3.78349   -1.000
 5886.00    4.12546   3.73807   -1.000
 5887.00    3.99900   3.58827   -1.000
 5888.00    3.67505   3.33591   -1.000
 5889.00    3.22475   3.13024   11.621
 5890.00    2.92598   3.10927   12.420
 5891.00    3.02395   3.24265   -1.000
 5892.00    3.48624   3.40070   13.143
 5893.00    3.84256   3.44173   -1.000
 5894.00    3.72711   3.33955   -1.000
 5895.00    3.42910   3.21802   12.094
 5896.00    3.18504   3.22517   12.317
 5897.00    3.25078   3.37486   12.610
 5898.00    3.64648   3.52943   12.449
 5899.00    3.98961   3.63087   -1.000
 5900.00    4.08217   3.70796   -1.000
 5901.00    4.10499   3.76563   -1.000
 5902.00    4.13076   3.80817   -1.000
 5903.00    4.14566   3.83343   -1.000
 5904.00    4.16577   3.84155   -1.000
 5905.00    4.18988   3.84397   -1.000
 5906.00    4.21687   3.84578   -1.000
 5907.00    4.20152   3.85540   -1.000
 5908.00    4.21397   3.87163   -1.000
 5909.00    4.22162   3.88638   -1.000
 5910.00    4.19688   3.89474   -1.000
 5911.00    4.18643   3.89290   -1.000
 5912.00    4.18323   3.87504   -1.000
 5913.00    4.17804   3.84297   -1.000
 5914.00    4.16298   3.81339   -1.000
 5915.00    4.13431   3.80152   -1.000
 5916.00    4.14186   3.80834   -1.000
 5917.00    4.17123   3.83002   -1.000
 5918.00    4.18434   3.86085   -1.000
 5919.00    4.17993   3.88483   -1.000
 5920.00    4.17087   3.89341   -1.000
 5921.00    4.18182   3.88790   -1.000
 5922.00    4.17274   3.87884   -1.000
 5923.00    4.18457   3.88193   -1.000
 5924.00    4.21155   3.90126   -1.000
 5925.00    4.21097   3.92364   -1.000
 5926.00    4.21668   3.94037   -1.000
 5927.00    4.24580   3.94348   -1.000
 5928.00    4.23321   3.92477   -1.000
 5929.00    4.19993   3.90320   -1.000
 5930.00    4.20215   3.90333   -1.000
 5931.00    4.21940   3.92331   -1.000
 5932.00    4.25954   3.93929   -1.000
 5933.00    4.25720   3.93600   -1.000
 5934.00    4.21599   3.92272   -1.000
 5935.00    4.21600   3.91950   -1.000
 5936.00    4.25586   3.93707   -1.000
 5937.00    4.26747   3.95765   -1.000
 5938.00    4.27035   3.96067   -1.000
 5939.00    4.29201   3.94571   -1.000
 5940.00    4.27664   3.92265   -1.000
 5941.00    4.20718   3.90398   -1.000
 5942.00    4.18106   3.90149   -1.000
 5943.00    4.20547   3.92439   -1.000
 5944.00    4.23690   3.95554   -1.000
 5945.00    4.24820   3.97488   -1.000
 5946.00    4.22490   3.97633   -1.000
 5947.00    4.21682   3.95975   -1.000
 5948.00    4.20508   3.93949   -1.000
 5949.00    4.18770   3.93634   -1.000
 5950.00    4.20342   3.94640   -1.000
 5951.00    4.23402   3.95247   -1.000
 5952.00    4.23868   3.95259   -1.000
 5953.00    4.22020   3.95360   -1.000
 5954.00    4.22342   3.95445   -1.000
 5955.00    4.23556   3.94312   -1.000
 5956.00    4.22977   3.92646   -1.000
 5957.00    4.21460   3.92184   -1.000
 5958.00    4.22770   3.94310   -1.000
 5959.00    4.23849   3.97861   -1.000
 5960.00    4.27165   4.01097   -1.000
 5961.00    4.32342   4.03187   -1.000
 5962.00    4.35605   4.03553   -1.000
 5963.00    4.36483   4.02725   -1.000
 5964.00    4.33559   4.01096   -1.000
 5965.00    4.30328   3.99373   -1.000
 5966.00    4.32371   3.99212   -1.000
 5967.00    4.31076   4.01117   -1.000
 5968.00    4.32533   4.03218   -1.000
 5969.00    4.31745   4.04537   -1.000
 5970.00    4.32780   4.05693   -1.000
 5971.00    4.32305   4.06480   -1.000
 5972.00    4.34019   4.06190   -1.000
 5973.00    4.34256   4.05283   -1.000
 5974.00    4.34259   4.03682   -1.000
 5975.00    4.29633   4.01221   -1.000
 5976.00    4.27484   3.99263   -1.000
 5977.00    4.25702   3.98148   -1.000
 5978.00    4.26945   3.98714   -1.000
 5979.00    4.30026   4.01221   -1.000
 5980.00    4.32591   4.03521   -1.000
 5981.00    4.36801   4.04001   -1.000
 5982.00    4.33792   4.01818   -1.000
 5983.00    4.31422   3.98785   -1.000
 5984.00    4.29021   3.97447   -1.000
 5985.00    4.29381   3.99046   -1.000
 5986.00    4.34974   4.02385   -1.000
 5987.00    4.34753   4.04702   -1.000
 5988.00    4.34699   4.05856   -1.000
 5989.00    4.35409   4.06314   -1.000
 5990.00    4.34421   4.06400   -1.000
 5991.00    4.31038   4.07051   -1.000
 5992.00    4.35810   4.09452   -1.000
 5993.00    4.38470   4.12791   -1.000
 5994.00    4.36704   4.14611   10.858
 5995.00    4.36317   4.13676   10.774
 5996.00    4.38098   4.10837   -1.000
 5997.00    4.37063   4.08629   -1.000
 5998.00    4.35362   4.08370   -1.000
 5999.00    4.36615   4.08850   -1.000
 6000.00    4.39327   4.08931   -1.000
 6001.00    4.38038   4.08475   -1.000
 6002.00    4.37391   4.07682   -1.000
 6003.00    4.36004   4.07684   -1.000
 6004.00    4.34494   4.08723   -1.000
 6005.00    4.34314   4.08690   -1.000
 6006.00    4.34493   4.05896   -1.000
 6007.00    4.30088   4.02766   -1.000
 6008.00    4.28110   4.02747   -1.000
 6009.00    4.31401   4.06479   -1.000
 6010.00    4.33205   4.10404   11.215
 6011.00    4.34570   4.10995   -1.000
 6012.00    4.33356   4.09621   -1.000
 6013.00    4.31709   4.08569   11.018
 6014.00    4.35840   4.09154   -1.000
 6015.00    4.37476   4.10179   -1.000
 6016.00    4.35589   4.09524   -1.000
 6017.00    4.36519   4.08590   -1.000
 6018.00    4.37839   4.08379   -1.000
 6019.00    4.38534   4.08276   -1.000
 6020.00    4.35924   4.08461   -1.000
 6021.00    4.34187   4.09320   -1.000
 6022.00    4.37507   4.10377   -1.000
 6023.00    4.38970   4.11468   -1.000
 6024.00    4.38418   4.13095   -1.000
 6025.00    4.40424   4.15091   -1.000
 6026.00    4.43301   4.16970   -1.000
 6027.00    4.46123   4.18648   -1.000
 6028.00    4.43999   4.20322   -1.000
 6029.00    4.44726   4.21237   -1.000
 6030.00    4.46360   4.21270   -1.000
 6031.00    4.46672   4.21497   -1.000
 6032.00    4.48561   4.22173   -1.000
 6033.00    4.50697   4.23234   -1.000
 6034.00    4.47171   4.24350   10.843
 6035.00    4.49755   4.24853   -1.000
 6036.00    4.46534   4.24457   10.774
 6037.00    4.46847   4.23550   10.770
 6038.00    4.48057   4.22773   -1.000
 6039.00    4.46133   4.22022   -1.000
 6040.00    4.45682   4.21949   -1.000
 6041.00    4.44829   4.20619   -1.000
 6042.00    4.49555   4.16033   -1.000
 6043.00    4.50944   4.16295   -1.000
 6044.00    4.50574   4.23177   -1.000
 6045.00    4.49262   4.28295   10.768
 6046.00    4.49568   4.29660   10.693
 6047.00    4.53564   4.29735   -1.000
 6048.00    4.50456   4.29501   10.709
 6049.00    4.50627   4.29008   10.693
 6050.00    4.51156   4.29421   10.713
 6051.00    4.52406   4.29732   10.751
 6052.00    4.51551   4.28502   -1.000
 6053.00    4.53943   4.26961   -1.000
 6054.00    4.53896   4.25797   -1.000
 6055.00    4.51748   4.24043   -1.000
 6056.00    4.49692   4.22216   -1.000
 6057.00    4.52533   4.21710   -1.000
 6058.00    4.52891   4.22828   -1.000
 6059.00    4.51424   4.25408   -1.000
 6060.00    4.51770   4.27222   -1.000
 6061.00    4.49182   4.26615   10.831
 6062.00    4.48167   4.23402   -1.000
 6063.00    4.46086   4.18965   -1.000
 6064.00    4.38046   4.15384   -1.000
 6065.00    4.28757   4.15147   11.217
 6066.00    4.41525   4.19754   11.433
 6067.00    4.41833   4.26046   11.704
 6068.00    2.91862   4.30378   -1.000
 6069.00    1.82135   4.32386   -1.000
 6070.00    2.65164   4.33384   -1.000
 6071.00    4.08856   4.34224   10.829
 6072.00    4.01910   4.34777   10.525
 6073.00    4.05316   4.34589   10.461
 6074.00    1.70986   4.34072   -1.000
 6075.00    2.94963   4.33246   -1.000
 6076.00    4.80840   4.31737   -1.000
 6077.00    4.53709   4.29834   -1.000
 6078.00    4.52264   4.28134   -1.000
 6079.00    4.51742   4.26921   -1.000
 6080.00    4.51932   4.25769   -1.000
 6081.00    4.49409   4.24122   -1.000
 6082.00    4.48287   4.23507   -1.000
 6083.00    4.48037   4.24676   -1.000
 6084.00    4.46954   4.26103   11.113
 6085.00    4.48337   4.27307   11.106
 6086.00    4.52558   4.28606   -1.000
 6087.00    4.55165   4.29417   -1.000
 6088.00    4.55576   4.28996   -1.000
 6089.00    4.53527   4.27254   -1.000
 6090.00    4.50584   4.25132   -1.000
 6091.00    4.51157   4.24713   -1.000
 6092.00    4.51825   4.26186   -1.000
 6093.00    4.50202   4.28621   11.130
 6094.00    4.53608   4.31085   11.053
 6095.00    4.58560   4.32698   -1.000
 6096.00    4.57231   4.33375   -1.000
 6097.00    4.55267   4.33785   10.900
 6098.00    4.56228   4.34814   10.914
 6099.00    4.58031   4.34676   -1.000
 6100.00    4.54394   4.30901   -1.000
 6101.00    4.49047   4.23299   -1.000
 6102.00    4.43765   4.16544   -1.000
 6103.00    4.39953   4.17161   -1.000
 6104.00    4.45522   4.22878   -1.000
 6105.00    4.55170   4.28128   -1.000
 6106.00    4.56662   4.31120   -1.000
 6107.00    4.53022   4.32390   11.036
 6108.00    4.51915   4.33918   11.024
 6109.00    4.52689   4.35365   11.072
 6110.00    4.55994   4.35055   11.092
 6111.00    4.57105   4.34202   -1.000
 6112.00    4.56143   4.35009   11.052
 6113.00    4.58488   4.36898   11.006
 6114.00    4.57232   4.38267   11.004
 6115.00    4.56964   4.37672   10.941
 6116.00    4.55775   4.36579   10.928
 6117.00    4.57909   4.36411   10.983
 6118.00    4.54374   4.33689   11.051
 6119.00    4.47776   4.27820   11.064
 6120.00    4.44789   4.19471   -1.000
 6121.00    4.39298   4.11892   -1.000
 6122.00    4.37096   4.13367   -1.000
 6123.00    4.41660   4.21582   11.540
 6124.00    4.51621   4.28539   -1.000
 6125.00    4.51441   4.31701   11.306
 6126.00    4.48593   4.32215   11.187
 6127.00    4.45112   4.31105   11.209
 6128.00    4.48172   4.30537   11.271
 6129.00    4.51356   4.34168   11.244
 6130.00    4.55999   4.39537   11.212
 6131.00    4.60366   4.42528   11.109
 6132.00    4.58217   4.42326   11.014
 6133.00    4.56249   4.38834   11.007
 6134.00    4.46837   4.30359   11.043
 6135.00    4.40829   4.18331   -1.000
 6136.00    4.30684   4.09580   11.457
 6137.00    4.25644   4.11475   11.799
 6138.00    4.32415   4.20416   12.056
 6139.00    4.41485   4.27278   12.017
 6140.00    4.47206   4.28539   11.672
 6141.00    4.46068   4.27908   11.366
 6142.00    4.41605   4.31446   11.283
 6143.00    4.47398   4.37075   11.318
 6144.00    4.55278   4.40791   11.319
 6145.00    4.61907   4.41572   11.184
 6146.00    4.60571   4.40059   11.064
 6147.00    4.58873   4.36676   -1.000
 6148.00    4.55846   4.32972   -1.000
 6149.00    4.52808   4.31158   11.204
 6150.00    4.53554   4.31767   11.285
 6151.00    4.51102   4.34411   11.341
 6152.00    4.50964   4.36506   11.328
 6153.00    4.54973   4.36135   11.278
 6154.00    4.55381   4.34112   11.202
 6155.00    4.54367   4.32254   11.210
 6156.00    4.53762   4.31067   -1.000
 6157.00    4.55010   4.29569   -1.000
 6158.00    4.53616   4.26851   -1.000
 6159.00    4.50083   4.20031   -1.000
 6160.00    4.44224   4.08798   -1.000
 6161.00    4.35027   3.97199   -1.000
 6162.00    4.27911   3.92359   -1.000
 6163.00    4.27040   3.97021   -1.000
 6164.00    4.33500   4.05421   -1.000
 6165.00    4.37856   4.12218   -1.000
 6166.00    4.39312   4.16064   -1.000
 6167.00    4.40954   4.16328   -1.000
 6168.00    4.37057   4.12503   -1.000
 6169.00    4.31348   4.09188   -1.000
 6170.00    4.32275   4.10918   12.036
 6171.00    4.37602   4.16629   12.127
 6172.00    4.41002   4.21378   11.994
 6173.00    4.42300   4.23166   11.752
 6174.00    4.43156   4.24292   11.618
 6175.00    4.44905   4.25068   11.652
 6176.00    4.45537   4.25631   11.653
 6177.00    4.45959   4.26875   11.620
 6178.00    4.48512   4.28522   11.599
 6179.00    4.46988   4.29729   11.563
 6180.00    4.45381   4.30867   11.504
 6181.00    4.48853   4.32135   11.466
 6182.00    4.53925   4.32784   11.427
 6183.00    4.56158   4.32498   -1.000
 6184.00    4.54004   4.31321   -1.000
 6185.00    4.54209   4.28737   -1.000
 6186.00    4.52139   4.25417   -1.000
 6187.00    4.49998   4.22878   -1.000
 6188.00    4.49589   4.20191   -1.000
 6189.00    4.42651   4.16107   -1.000
 6190.00    4.38946   4.10817   -1.000
 6191.00    4.34845   4.08949   -1.000
 6192.00    4.37941   4.13290   -1.000
 6193.00    4.48683   4.19888   -1.000
 6194.00    4.53260   4.24889   -1.000
 6195.00    4.55276   4.28409   -1.000
 6196.00    4.52666   4.30782   11.532
 6197.00    4.52568   4.30345   11.481
 6198.00    4.50188   4.26918   -1.000
 6199.00    4.47469   4.24114   -1.000
 6200.00    4.47845   4.25553   -1.000
 6201.00    4.47761   4.29130   11.788
 6202.00    4.47008   4.32365   11.751
 6203.00    4.45920   4.34487   11.615
 6204.00    4.47344   4.35342   11.478
 6205.00    4.45078   4.35961   11.467
 6206.00    4.51139   4.36633   11.468
 6207.00    4.56207   4.37417   11.447
 6208.00    4.58705   4.37484   11.454
 6209.00    4.58128   4.36285   11.501
 6210.00    4.55105   4.34342   11.497
 6211.00    4.49568   4.31539   11.562
 6212.00    4.50277   4.26498   -1.000
 6213.00    4.48021   4.20973   -1.000
 6214.00    4.45370   4.17635   -1.000
 6215.00    4.44508   4.16878   -1.000
 6216.00    4.48702   4.17996   -1.000
 6217.00    4.53097   4.19484   -1.000
 6218.00    4.53907   4.19856   -1.000
 6219.00    4.47932   4.19204   -1.000
 6220.00    4.47056   4.19583   -1.000
 6221.00    4.52651   4.20983   -1.000
 6222.00    4.55085   4.21406   -1.000
 6223.00    4.58278   4.21324   -1.000
 6224.00    4.60649   4.22073   -1.000
 6225.00    4.47005   4.23234   -1.000
 6226.00    4.01390   4.24142   11.825
 6227.00    4.53552   4.23329   -1.000
 6228.00    4.57003   4.19626   -1.000
 6229.00    4.47517   4.13179   -1.000
 6230.00    4.39640   4.08356   -1.000
 6231.00    4.39441   4.08963   -1.000
 6232.00    4.43899   4.13821   -1.000
 6233.00    4.51271   4.20508   -1.000
 6234.00    4.53732   4.26712   -1.000
 6235.00    4.57652   4.29805   -1.000
 6236.00    4.61708   4.28962   -1.000
 6237.00    4.61034   4.25739   -1.000
 6238.00    4.61532   4.21997   -1.000
 6239.00    4.55995   4.19545   -1.000
 6240.00    4.51195   4.19192   -1.000
 6241.00    4.50893   4.19616   -1.000
 6242.00    4.45362   4.18480   -1.000
 6243.00    4.45853   4.16397   -1.000
 6244.00    4.47573   4.15570   -1.000
 6245.00    4.45881   4.16626   -1.000
 6246.00    4.47465   4.20559   -1.000
 6247.00    4.50548   4.25731   -1.000
 6248.00    4.52485   4.29368   -1.000
 6249.00    4.55816   4.30662   -1.000
 6250.00    4.54231   4.28941   -1.000
 6251.00    4.48381   4.24239   -1.000
 6252.00    4.41005   4.19983   12.061
 6253.00    4.34018   4.19155   12.293
 6254.00    4.35803   4.20035   12.426
 6255.00    4.38668   4.20242   12.499
 6256.00    4.34126   4.17944   12.524
 6257.00    4.33794   4.15361   12.524
 6258.00    4.42637   4.16259   -1.000
 6259.00    4.45104   4.20220   -1.000
 6260.00    4.45400   4.25475   12.664
 6261.00    4.51251   4.30990   12.458
 6262.00    4.51977   4.35388   12.274
 6263.00    4.53183   4.36820   12.108
 6264.00    4.52408   4.35578   11.926
 6265.00    4.49214   4.34182   11.897
 6266.00    4.52713   4.34316   12.009
 6267.00    4.57275   4.34946   -1.000
 6268.00    4.54093   4.34793   12.000
 6269.00    4.52878   4.34609   11.920
 6270.00    4.49452   4.35600   11.981
 6271.00    4.49191   4.37077   12.036
 6272.00    4.52612   4.37470   12.008
 6273.00    4.56583   4.35675   -1.000
 6274.00    4.54362   4.31691   -1.000
 6275.00    4.49062   4.27035   -1.000
 6276.00    4.48193   4.23080   -1.000
 6277.00    4.44032   4.20667   -1.000
 6278.00    4.32209   4.19654   12.404
 6279.00    4.16391   4.19728   12.727
 6280.00    4.07860   4.21114   12.932
 6281.00    4.05389   4.24044   12.986
 6282.00    4.02980   4.28403   12.910
 6283.00    4.00737   4.32795   -1.000
 6284.00    3.99552   4.36337   -1.000
 6285.00    4.00853   4.39870   -1.000
 6286.00    4.09456   4.43107   -1.000
 6287.00    4.21853   4.45899   12.048
 6288.00    4.35579   4.47046   11.937
 6289.00    4.45477   4.45774   11.862
 6290.00    4.49133   4.43355   11.851
 6291.00    4.50199   4.41097   11.928
 6292.00    4.49891   4.39504   12.032
 6293.00    4.50469   4.38815   12.115
 6294.00    4.50688   4.38304   12.130
 6295.00    4.47329   4.35855   12.143
 6296.00    4.44785   4.32788   12.171
 6297.00    4.43137   4.32928   12.274
 6298.00    4.40508   4.35089   12.348
 6299.00    4.40435   4.36510   12.356
 6300.00    4.42503   4.36328   12.332
 6301.00    4.42325   4.35406   12.276
 6302.00    4.44828   4.36312   12.231
 6303.00    4.50971   4.38829   12.358
 6304.00    4.52441   4.40973   12.486
 6305.00    4.53086   4.42857   12.345
 6306.00    4.57810   4.45930   12.144
 6307.00    4.60260   4.49970   12.004
 6308.00    4.55883   4.52654   11.906
 6309.00    4.53489   4.52461   11.801
 6310.00    4.57985   4.50735   11.798
 6311.00    4.56895   4.49034   11.859
 6312.00    4.52702   4.48219   11.941
 6313.00    4.51710   4.47696   11.982
 6314.00    4.48037   4.46511   12.030
 6315.00    4.47337   4.45438   12.042
 6316.00    4.45596   4.44289   12.164
 6317.00    4.44475   4.42786   12.194
 6318.00    4.44940   4.42930   12.180
 6319.00    4.46976   4.46245   12.170
 6320.00    4.50378   4.50089   12.187
 6321.00    4.51659   4.52343   12.129
 6322.00    4.55918   4.54453   11.972
 6323.00    4.60920   4.57191   11.863
 6324.00    4.60486   4.59011   11.826
 6325.00    4.62648   4.59286   11.785
 6326.00    4.59162   4.59379   11.719
 6327.00    4.61939   4.59728   11.688
 6328.00    4.64982   4.60377   11.682
 6329.00    4.60366   4.61041   11.620
 6330.00    4.60305   4.61916   11.641
 6331.00    4.62916   4.64081   11.647
 6332.00    4.64170   4.65208   11.653
 6333.00    4.64841   4.62777   11.605
 6334.00    4.60387   4.57707   11.592
 6335.00    4.55216   4.53023   11.630
 6336.00    4.57980   4.52754   11.670
 6337.00    4.18585   4.55918   -1.000
 6338.00    3.92999   4.59613   -1.000
 6339.00    4.69056   4.62840   11.836
 6340.00    4.65022   4.64858   11.714
 6341.00    4.64988   4.64894   11.587
 6342.00    4.66224   4.62780   11.539
 6343.00    4.60993   4.59173   11.484
 6344.00    4.58495   4.57299   11.506
 6345.00    4.59268   4.58849   11.617
 6346.00    4.63964   4.61977   11.619
 6347.00    4.66902   4.65597   11.582
 6348.00    4.66884   4.69138   11.515
 6349.00    4.65521   4.71560   11.434
 6350.00    4.68187   4.72187   11.397
 6351.00    4.68249   4.71342   11.403
 6352.00    4.64162   4.69517   11.376
 6353.00    4.62296   4.66465   11.393
 6354.00    4.61433   4.63523   11.446
 6355.00    4.57382   4.62509   11.502
 6356.00    4.58149   4.61738   11.643
 6357.00    4.56095   4.58946   11.735
 6358.00    4.58025   4.55410   11.730
 6359.00    4.55855   4.53340   11.773
 6360.00    4.55586   4.52251   11.916
 6361.00    4.59449   4.51563   11.952
 6362.00    4.55476   4.52127   11.894
 6363.00    4.56098   4.54490   11.859
 6364.00    4.58886   4.57810   11.850
 6365.00    4.59293   4.61251   11.803
 6366.00    4.59659   4.64658   11.722
 6367.00    4.61692   4.68310   11.648
 6368.00    4.61500   4.70442   11.586
 6369.00    4.64313   4.70325   11.511
 6370.00    4.64004   4.70149   11.436
 6371.00    4.59541   4.71341   11.413
 6372.00    4.62825   4.73907   11.423
 6373.00    4.66221   4.76048   11.378
 6374.00    4.67301   4.76730   11.336
 6375.00    4.64127   4.76848   11.374
 6376.00    4.60557   4.76343   11.380
 6377.00    4.63431   4.73489   11.407
 6378.00    4.57163   4.69986   11.452
 6379.00    4.54914   4.68133   11.513
 6380.00    4.56702   4.67918   11.592
 6381.00    4.57342   4.68961   11.631
 6382.00    4.57679   4.70496   11.636
 6383.00    4.57880   4.71631   11.659
 6384.00    4.60743   4.72081   11.652
 6385.00    4.58345   4.72987   11.621
 6386.00    4.57257   4.74513   11.684
 6387.00    4.58682   4.75491   11.706
 6388.00    4.57461   4.75644   11.694
 6389.00    4.55603   4.75451   11.735
 6390.00    4.51384   4.73902   11.774
 6391.00    4.44406   4.69684   11.878
 6392.00    4.39657   4.64478   11.971
 6393.00    4.36494   4.62480   12.115
 6394.00    4.33487   4.66795   -1.000
 6395.00    4.32631   4.73390   -1.000
 6396.00    4.37306   4.77447   -1.000
 6397.00    4.38284   4.76620   -1.000
 6398.00    4.32962   4.71232   -1.000
 6399.00    4.25524   4.65830   -1.000
 6400.00    4.18495   4.65281   -1.000
 6401.00    4.18896   4.71218   -1.000
 6402.00    4.26235   4.78394   -1.000
 6403.00    4.32688   4.82845   -1.000
 6404.00    4.31726   4.83959   -1.000
 6405.00    4.31580   4.82066   -1.000
 6406.00    4.28449   4.77965   -1.000
 6407.00    4.21503   4.73070   -1.000
 6408.00    4.18373   4.71678   -1.000
 6409.00    4.14679   4.74771   -1.000
 6410.00    4.10368   4.76473   -1.000
 6411.00    4.08650   4.75125   -1.000
 6412.00    4.03519   4.74807   -1.000
 6413.00    4.01904   4.76365   -1.000
 6414.00    4.02111   4.78162   -1.000
 6415.00    4.04439   4.80160   -1.000
 6416.00    4.01641   4.81621   -1.000
 6417.00    4.00249   4.80994   -1.000
 6418.00    3.97652   4.77598   -1.000
 6419.00    3.89517   4.73140   -1.000
 6420.00    3.81543   4.70623   -1.000
 6421.00    3.74166   4.72867   -1.000
 6422.00    3.77580   4.78587   -1.000
 6423.00    3.79137   4.83750   -1.000
 6424.00    3.78815   4.87012   -1.000
 6425.00    3.73548   4.88984   -1.000
 6426.00    3.72557   4.90420   -1.000
 6427.00    3.69736   4.90135   -1.000
 6428.00    3.66272   4.85368   -1.000
