###################################################################
## OUTPUT of StarlightChains_v04.for    [Cid@UFSC - 01/Apr/2007] ##
###################################################################

## Some input info
NGC6121_a_1.cxt                          [arq_obs]
Base.BC03.S                              [arq_base]
NGC6121_a_1.msk                          [arq_masks]
StCv04.C99.config                        [arq_config]
  150                                    [N_base]
    0                                    [N_YAV_components = # of components with extra extinction!]
    0                                    [i_FitPowerLaw (1/0 = Yes/No)]
-9.99                                    [alpha_PowerLaw]
CCM                                      [red_law_option]
 1.458241                                [q_norm = A(l_norm)/A(V)]

## (Re)Sampling Parameters
 3359.00                                 [l_ini (A)]
 6428.00                                 [l_fin (A)]
    1.00                                 [dl    (A)]     (OBS: dl_cushion =    50.00 A)

## Normalization info
 4020.00                                 [l_norm (A) - for base]
 4010.00                                 [llow_norm (A) - window for f_obs]
 4060.00                                 [lupp_norm (A) - window for f_obs]
2.192402E-14                             [fobs_norm (in input units)]

## S/N
 4730.00                                 [llow_SN (A) - window for S/N]
 4780.00                                 [lupp_SN (A) - window for S/N]
  81.858                                 [S/N in S/N window]
  65.062                                 [S/N in norm. window]
 104.198                                 [S/N_err in S/N window]
  82.818                                 [S/N_err in norm. window]
  1.0000                                 [fscale_chi2]

## etc...
  2147483628                             [idum_orig]
  3067                                   [NOl_eff]
  2170                                   [Nl_eff]
   897    NSIGMA                         [Ntot_cliped & clip_method]
  3955280                                [Nglobal_steps]
   7                                     [N_chains]
  25                                     [NEX0s_base = N_base in EX0s-fits]
 0   0   1      121   2.0   2.018E+02    [Clip-Bug, RC-Crash & Burn-In warning-flags, n_censored_weights, wei_nsig_threshold & wei_limit]
   165    164.902    164.882      0.020  [idt_all, wdt_TotTime, wdt_UsrTime & wdt_SysTime (sec)]

## Synthesis Results - Best model ##

 2.00303E+00                             [chi2/Nl_eff]
     1.16440                             [adev (%)]

    98.05707                             [sum-of-x (%)]
 8.49616E-14                             [Flux_tot (units of input spectrum!)]
 1.60827E-09                             [Mini_tot (???)]
 8.13231E-10                             [Mcor_tot (???)]

 -26.62                                  [v0_min  (km/s)]
  35.09                                  [vd_min  (km/s)]
 1.0232                                  [AV_min  (mag)]
 0.0000                                  [YAV_min (mag)]

# j     x_j(%)      Mini_j(%)     Mcor_j(%)     age_j(yr)     Z_j      (L/M)_j    YAV?  Mstars   component_j        a/Fe...       SSP_chi2r SSP_adev(%)   SSP_AV   SSP_x(%)
  1      0.0000     0.0000E+00    0.0000E+00    1.000000E+06  0.00010  8.160E-03    0   1.0000   age020_m22            0.0000     2.0269E+02    11.6139   4.0000    84.0524
  2      8.9447     1.0126E-02    2.0025E-02    3.160000E+06  0.00010  4.759E-02    0   1.0000   age045_m22            0.0000     1.8521E+01     3.5245   2.3821    95.1281
  3      0.7521     2.0972E-03    3.9741E-03    5.010000E+06  0.00010  1.932E-02    0   0.9582   age055_m22            0.0000     1.2344E+02     9.5763   2.6461    82.7710
  4      0.0000     0.0000E+00    0.0000E+00    6.610000E+06  0.00010  9.973E-03    0   0.9297   age061_m22            0.0000     1.8900E+02    11.0695   4.0000    86.2411
  5      0.0000     0.0000E+00    0.0000E+00    8.710000E+06  0.00010  7.690E-03    0   0.9030   age067_m22            0.0000     1.7879E+02    10.7851   4.0000    86.5228
  6      0.0000     0.0000E+00    0.0000E+00    1.000000E+07  0.00010  6.375E-03    0   0.8902   age070_m22            0.0000     1.7709E+02    10.7457   4.0000    87.0007
  7      0.0000     0.0000E+00    0.0000E+00    1.445000E+07  0.00010  4.874E-03    0   0.8589   age078_m22            0.0000     1.0088E+02     8.3493   4.0000    85.8096
  8      0.0003     4.2631E-06    6.8913E-06    2.512000E+07  0.00010  4.103E-03    0   0.8174   age090_m22            0.0000     4.1533E+01     5.7222   3.7465    88.6416
  9      0.3133     4.6187E-03    7.1519E-03    4.000000E+07  0.00010  3.654E-03    0   0.7830   age104_m22            0.0000     2.6535E+01     4.1761   3.4656    93.2082
 10      0.0000     0.0000E+00    0.0000E+00    5.500000E+07  0.00010  3.093E-03    0   0.7597   age110_m22            0.0000     2.5311E+01     3.8706   3.3710    94.6802
 11      0.6581     1.4584E-02    2.0588E-02    1.015200E+08  0.00010  2.431E-03    0   0.7138   age116_m22            0.0000     3.1259E+01     3.9942   3.0280    97.7206
 12      0.0000     0.0000E+00    0.0000E+00    1.609000E+08  0.00010  1.319E-03    0   0.6775   age120_m22            0.0000     3.0189E+01     3.8368   2.5543   100.0067
 13      0.0000     0.0000E+00    0.0000E+00    2.861200E+08  0.00010  1.075E-03    0   0.6412   age125_m22            0.0000     8.9555E+01     6.6359   2.6424   103.2077
 14      0.0000     0.0000E+00    0.0000E+00    5.088000E+08  0.00010  7.183E-04    0   0.6083   age130_m22            0.0000     1.1450E+02     7.6840   2.4227   104.6795
 15      0.0000     0.0000E+00    0.0000E+00    9.047900E+08  0.00010  4.524E-04    0   0.5785   age135_m22            0.0000     1.1672E+02     7.8421   2.2268   105.7629
 16      0.0000     0.0000E+00    0.0000E+00    1.278050E+09  0.00010  3.018E-04    0   0.5588   age138_m22            0.0000     5.1270E+01     5.2757   1.6859   104.0000
 17      0.0000     0.0000E+00    0.0000E+00    1.434000E+09  0.00010  2.691E-04    0   0.5532   age139_m22            0.0000     4.0954E+01     4.7625   1.5301   103.3524
 18      0.0000     0.0000E+00    0.0000E+00    2.500000E+09  0.00010  1.582E-04    0   0.5296   age150_m22            0.0000     3.3036E+01     4.2693   1.4087   104.2553
 19      0.0000     0.0000E+00    0.0000E+00    4.250000E+09  0.00010  1.007E-04    0   0.5110   age158_m22            0.0000     1.5881E+01     3.0986   1.2537   102.4304
 20      0.0000     0.0000E+00    0.0000E+00    6.250000E+09  0.00010  6.869E-05    0   0.4985   age166_m22            0.0000     6.4885E+00     2.0475   1.1907    99.5872
 21      0.0000     0.0000E+00    0.0000E+00    7.500000E+09  0.00010  5.873E-05    0   0.4931   age171_m22            0.0000     5.8575E+00     1.9283   1.1752    99.1146
 22      0.0002     1.8233E-04    1.7503E-04    1.000000E+10  0.00010  4.481E-05    0   0.4854   age181_m22            0.0000     5.5293E+00     1.8777   1.1374    98.7424
 23      0.0000     0.0000E+00    0.0000E+00    1.300000E+10  0.00010  3.489E-05    0   0.4791   age193_m22            0.0000     4.8623E+00     1.7665   1.0820    98.1448
 24      0.0000     0.0000E+00    0.0000E+00    1.500000E+10  0.00010  3.035E-05    0   0.4766   age201_m22            0.0000     4.4820E+00     1.6997   1.0428    97.9550
 25      0.0000     0.0000E+00    0.0000E+00    1.800000E+10  0.00010  2.510E-05    0   0.4735   age213_m22            0.0000     3.8353E+00     1.5801   0.9742    97.3241
 26      0.0000     0.0000E+00    0.0000E+00    1.000000E+06  0.00040  8.458E-03    0   1.0000   age020_m32            0.0000     2.0671E+02    11.6943   4.0000    85.0793
 27      0.0000     0.0000E+00    0.0000E+00    3.160000E+06  0.00040  3.973E-02    0   1.0000   age045_m32            0.0000     4.6708E+01     5.9947   3.6423    88.6312
 28      0.0000     0.0000E+00    0.0000E+00    5.010000E+06  0.00040  1.935E-02    0   0.9532   age055_m32            0.0000     1.0427E+02     8.9108   3.8529    83.0212
 29      0.0000     0.0000E+00    0.0000E+00    6.610000E+06  0.00040  1.204E-02    0   0.9243   age061_m32            0.0000     1.2945E+02     9.3434   4.0000    85.1033
 30      0.0000     0.0000E+00    0.0000E+00    8.710000E+06  0.00040  9.433E-03    0   0.9001   age067_m32            0.0000     1.1312E+02     8.8248   4.0000    85.3647
 31      0.0000     0.0000E+00    0.0000E+00    1.000000E+07  0.00040  8.053E-03    0   0.8877   age070_m32            0.0000     1.0378E+02     8.5495   4.0000    84.9758
 32      0.0000     0.0000E+00    0.0000E+00    1.445000E+07  0.00040  7.027E-03    0   0.8578   age078_m32            0.0000     6.0548E+01     6.9090   3.5912    87.5583
 33      0.0000     0.0000E+00    0.0000E+00    2.512000E+07  0.00040  4.707E-03    0   0.8166   age090_m32            0.0000     3.6001E+01     5.3329   3.3052    91.4248
 34      0.0003     4.0737E-06    6.3056E-06    4.000000E+07  0.00040  3.714E-03    0   0.7827   age104_m32            0.0000     2.4082E+01     4.0450   3.1131    94.6914
 35      0.0000     0.0000E+00    0.0000E+00    5.500000E+07  0.00040  2.982E-03    0   0.7593   age110_m32            0.0000     2.3409E+01     3.7929   3.0575    95.8096
 36      0.0000     0.0000E+00    0.0000E+00    1.015200E+08  0.00040  2.188E-03    0   0.7143   age116_m32            0.0000     4.3989E+01     4.6234   2.8123    99.9037
 37      0.2094     6.6742E-03    9.0494E-03    1.609000E+08  0.00040  1.690E-03    0   0.6856   age120_m32            0.0000     6.8025E+01     5.6249   2.6105   102.6215
 38      0.0000     0.0000E+00    0.0000E+00    2.861200E+08  0.00040  1.152E-03    0   0.6509   age125_m32            0.0000     9.5447E+01     6.9063   2.3990   104.2422
 39      0.0000     0.0000E+00    0.0000E+00    5.088000E+08  0.00040  7.331E-04    0   0.6182   age130_m32            0.0000     1.0697E+02     7.4676   2.2446   104.7464
 40      0.0000     0.0000E+00    0.0000E+00    9.047900E+08  0.00040  3.960E-04    0   0.5890   age135_m32            0.0000     5.6576E+01     5.7141   1.7869   103.0018
 41      0.0000     0.0000E+00    0.0000E+00    1.278050E+09  0.00040  2.854E-04    0   0.5687   age138_m32            0.0000     4.0223E+01     4.7513   1.4812   105.0876
 42      0.0000     0.0000E+00    0.0000E+00    1.434000E+09  0.00040  2.531E-04    0   0.5632   age139_m32            0.0000     3.8371E+01     4.6153   1.4183   105.1011
 43      6.2714     2.2706E+00    2.4186E+00    2.500000E+09  0.00040  1.488E-04    0   0.5386   age150_m32            0.0000     2.4516E+01     3.7562   1.1611   103.1906
 44     43.3306     2.5704E+01    2.6428E+01    4.250000E+09  0.00040  9.082E-05    0   0.5199   age158_m32            0.0000     5.6815E+00     1.9834   1.0578    99.6801
 45     25.4655     2.1565E+01    2.1648E+01    6.250000E+09  0.00040  6.362E-05    0   0.5076   age166_m32            0.0000     3.8021E+00     1.5745   1.0075    96.2873
 46      0.0000     0.0000E+00    0.0000E+00    7.500000E+09  0.00040  5.289E-05    0   0.5027   age171_m32            0.0000     4.6456E+00     1.6985   0.9719    94.9842
 47      0.0000     0.0000E+00    0.0000E+00    1.000000E+10  0.00040  3.972E-05    0   0.4948   age181_m32            0.0000     5.4341E+00     1.8020   0.9126    93.5705
 48      0.0000     0.0000E+00    0.0000E+00    1.300000E+10  0.00040  3.283E-05    0   0.4870   age193_m32            0.0000     2.9699E+00     1.4561   0.8723    96.3109
 49      0.0003     5.8620E-04    5.6272E-04    1.500000E+10  0.00040  2.925E-05    0   0.4854   age201_m32            0.0000     3.3248E+00     1.5716   0.8559    97.9174
 50      0.0003     6.8960E-04    6.5720E-04    1.800000E+10  0.00040  2.469E-05    0   0.4819   age213_m32            0.0000     3.8302E+00     1.6922   0.8170    98.4320
 51      0.0000     0.0000E+00    0.0000E+00    1.000000E+06  0.00400  1.114E-02    0   1.0000   age020_m42            0.0000     1.7577E+02    10.7247   4.0000    84.0332
 52      0.6498     8.5951E-04    1.6996E-03    3.160000E+06  0.00400  4.073E-02    0   0.9999   age045_m42            0.0000     2.9486E+01     4.7286   3.3532    91.0731
 53      0.0000     0.0000E+00    0.0000E+00    5.010000E+06  0.00400  2.534E-02    0   0.9488   age055_m42            0.0000     6.7974E+01     7.1868   3.7428    85.0466
 54      0.5469     1.1406E-03    2.0797E-03    6.610000E+06  0.00400  2.583E-02    0   0.9220   age061_m42            0.0000     2.4390E+01     4.1845   3.1734    92.0283
 55      0.0000     0.0000E+00    0.0000E+00    8.710000E+06  0.00400  1.706E-02    0   0.8983   age067_m42            0.0000     4.0693E+01     5.6177   2.9845    90.4706
 56      0.0000     0.0000E+00    0.0000E+00    1.000000E+07  0.00400  1.271E-02    0   0.8862   age070_m42            0.0000     6.2247E+01     7.1038   2.9622    89.1665
 57      0.0000     0.0000E+00    0.0000E+00    1.445000E+07  0.00400  7.666E-03    0   0.8571   age078_m42            0.0000     8.0689E+01     7.8625   3.3637    85.8096
 58      0.0000     0.0000E+00    0.0000E+00    2.512000E+07  0.00400  5.070E-03    0   0.8174   age090_m42            0.0000     5.2465E+01     6.5350   2.8329    90.8008
 59      0.0000     0.0000E+00    0.0000E+00    4.000000E+07  0.00400  3.505E-03    0   0.7851   age104_m42            0.0000     3.0303E+01     4.8242   2.5269    93.5882
 60      0.0000     0.0000E+00    0.0000E+00    5.500000E+07  0.00400  3.059E-03    0   0.7629   age110_m42            0.0000     1.5717E+01     2.8464   2.6009    98.0661
 61      0.0000     0.0000E+00    0.0000E+00    1.015200E+08  0.00400  2.268E-03    0   0.7207   age116_m42            0.0000     5.7092E+01     5.2075   2.5328   103.0678
 62      0.0000     0.0000E+00    0.0000E+00    1.609000E+08  0.00400  1.720E-03    0   0.6930   age120_m42            0.0000     6.6331E+01     5.8105   2.3962   104.5379
 63      0.0000     0.0000E+00    0.0000E+00    2.861200E+08  0.00400  1.079E-03    0   0.6613   age125_m42            0.0000     6.7384E+01     5.9729   2.0422   105.0222
 64      0.0000     0.0000E+00    0.0000E+00    5.088000E+08  0.00400  6.261E-04    0   0.6313   age130_m42            0.0000     7.9047E+01     6.4805   1.8485   107.9366
 65      0.0000     0.0000E+00    0.0000E+00    9.047900E+08  0.00400  3.535E-04    0   0.6024   age135_m42            0.0000     4.3854E+01     5.1229   1.4547   107.6771
 66      0.0000     0.0000E+00    0.0000E+00    1.278050E+09  0.00400  2.677E-04    0   0.5837   age138_m42            0.0000     2.7439E+01     4.4828   0.7961   103.8709
 67      0.0054     1.5228E-03    1.7214E-03    1.434000E+09  0.00400  1.910E-04    0   0.5716   age139_m42            0.0000     2.7571E+01     4.4721   0.9601   104.9728
 68      0.0000     0.0000E+00    0.0000E+00    2.500000E+09  0.00400  9.818E-05    0   0.5463   age150_m42            0.0000     2.1540E+01     3.8251   0.7038    99.3753
 69      0.0000     0.0000E+00    0.0000E+00    4.250000E+09  0.00400  5.491E-05    0   0.5269   age158_m42            0.0000     2.5416E+01     3.8845   0.5781    96.5079
 70      0.0000     0.0000E+00    0.0000E+00    6.250000E+09  0.00400  3.857E-05    0   0.5151   age166_m42            0.0000     3.5487E+01     4.4771   0.4609    94.9012
 71      0.0000     0.0000E+00    0.0000E+00    7.500000E+09  0.00400  3.243E-05    0   0.5110   age171_m42            0.0000     4.2768E+01     4.8590   0.3890    94.1656
 72      2.6120     5.8052E+00    5.7724E+00    1.000000E+10  0.00400  2.424E-05    0   0.5028   age181_m42            0.0000     5.3204E+01     5.3530   0.3175    93.2997
 73      1.5161     4.3378E+00    4.2267E+00    1.300000E+10  0.00400  1.883E-05    0   0.4927   age193_m42            0.0000     6.1552E+01     5.7197   0.2814    92.8532
 74      1.7488     5.5914E+00    5.4393E+00    1.500000E+10  0.00400  1.685E-05    0   0.4919   age201_m42            0.0000     5.9280E+01     5.6265   0.2840    92.9317
 75      2.7358     1.0151E+01    9.7845E+00    1.800000E+10  0.00400  1.452E-05    0   0.4874   age213_m42            0.0000     5.5154E+01     5.4583   0.2948    93.3154
 76      0.0000     0.0000E+00    0.0000E+00    1.000000E+06  0.00800  1.286E-02    0   1.0000   age020_m52            0.0000     1.5334E+02    10.0196   4.0000    85.3807
 77      0.0000     0.0000E+00    0.0000E+00    3.160000E+06  0.00800  3.147E-02    0   0.9966   age045_m52            0.0000     1.2829E+02     9.1998   4.0000    85.0027
 78      0.0000     0.0000E+00    0.0000E+00    5.010000E+06  0.00800  2.664E-02    0   0.9443   age055_m52            0.0000     8.0687E+01     7.6915   3.8622    83.9984
 79      0.0000     0.0000E+00    0.0000E+00    6.610000E+06  0.00800  2.151E-02    0   0.9177   age061_m52            0.0000     4.9340E+01     5.9532   2.5670    90.4952
 80      0.0000     0.0000E+00    0.0000E+00    8.710000E+06  0.00800  1.628E-02    0   0.8948   age067_m52            0.0000     4.7553E+01     6.0315   2.9380    90.9837
 81      0.0000     0.0000E+00    0.0000E+00    1.000000E+07  0.00800  1.215E-02    0   0.8827   age070_m52            0.0000     5.9375E+01     6.7529   3.2764    89.1067
 82      0.0000     0.0000E+00    0.0000E+00    1.445000E+07  0.00800  8.739E-03    0   0.8552   age078_m52            0.0000     4.7865E+01     5.9978   3.3208    90.3608
 83      0.0000     0.0000E+00    0.0000E+00    2.512000E+07  0.00800  5.676E-03    0   0.8162   age090_m52            0.0000     3.1380E+01     4.5917   2.9261    95.2827
 84      0.0000     0.0000E+00    0.0000E+00    4.000000E+07  0.00800  3.939E-03    0   0.7841   age104_m52            0.0000     2.3709E+01     3.6500   2.7753    97.6352
 85      0.0000     0.0000E+00    0.0000E+00    5.500000E+07  0.00800  3.155E-03    0   0.7627   age110_m52            0.0000     2.5224E+01     3.4730   2.7530    99.2772
 86      0.0000     0.0000E+00    0.0000E+00    1.015200E+08  0.00800  2.206E-03    0   0.7226   age116_m52            0.0000     4.2039E+01     4.4407   2.5862   102.8845
 87      0.0000     0.0000E+00    0.0000E+00    1.609000E+08  0.00800  1.596E-03    0   0.6963   age120_m52            0.0000     5.2638E+01     5.1421   2.3761   104.5080
 88      0.0000     0.0000E+00    0.0000E+00    2.861200E+08  0.00800  1.002E-03    0   0.6665   age125_m52            0.0000     8.8979E+01     7.0867   2.1020   106.9303
 89      0.0000     0.0000E+00    0.0000E+00    5.088000E+08  0.00800  5.759E-04    0   0.6377   age130_m52            0.0000     1.0188E+02     7.8675   1.7731   110.2791
 90      0.0000     0.0000E+00    0.0000E+00    9.047900E+08  0.00800  2.972E-04    0   0.6086   age135_m52            0.0000     6.6573E+01     6.7667   1.2616   107.8388
 91      0.0000     0.0000E+00    0.0000E+00    1.278050E+09  0.00800  2.242E-04    0   0.5907   age138_m52            0.0000     4.4689E+01     5.5382   0.6502   105.8881
 92      0.0000     0.0000E+00    0.0000E+00    1.434000E+09  0.00800  1.645E-04    0   0.5787   age139_m52            0.0000     3.6146E+01     5.0279   0.7921   105.4245
 93      0.0000     0.0000E+00    0.0000E+00    2.500000E+09  0.00800  7.723E-05    0   0.5519   age150_m52            0.0000     4.4214E+01     5.2294   0.4644   101.0798
 94      0.0000     0.0000E+00    0.0000E+00    4.250000E+09  0.00800  4.151E-05    0   0.5320   age158_m52            0.0000     4.6967E+01     5.2510   0.3974    98.3942
 95      0.0000     0.0000E+00    0.0000E+00    6.250000E+09  0.00800  3.010E-05    0   0.5197   age166_m52            0.0000     6.6134E+01     6.0682   0.2174    96.5818
 96      0.0000     0.0000E+00    0.0000E+00    7.500000E+09  0.00800  2.467E-05    0   0.5139   age171_m52            0.0000     7.1554E+01     6.2882   0.1791    96.1010
 97      0.0000     0.0000E+00    0.0000E+00    1.000000E+10  0.00800  1.862E-05    0   0.5054   age181_m52            0.0000     8.9891E+01     6.9894   0.0630    95.3423
 98      0.0000     0.0000E+00    0.0000E+00    1.300000E+10  0.00800  1.433E-05    0   0.4988   age193_m52            0.0000     1.1142E+02     7.6982  -0.0213    95.6016
 99      0.0000     0.0000E+00    0.0000E+00    1.500000E+10  0.00800  1.244E-05    0   0.4936   age201_m52            0.0000     1.2010E+02     7.9507  -0.0469    95.9294
100      0.0000     0.0000E+00    0.0000E+00    1.800000E+10  0.00800  1.070E-05    0   0.4888   age213_m52            0.0000     1.2627E+02     8.1362  -0.0768    95.6514
101      0.0000     0.0000E+00    0.0000E+00    1.000000E+06  0.02000  1.989E-02    0   1.0000   age020_m62            0.0000     1.6541E+02    10.2420   4.0000    84.0067
102      0.0000     0.0000E+00    0.0000E+00    3.160000E+06  0.02000  3.772E-02    0   0.9858   age045_m62            0.0000     1.2556E+02     9.2125   4.0000    83.1152
103      0.0000     0.0000E+00    0.0000E+00    5.010000E+06  0.02000  3.227E-02    0   0.9342   age055_m62            0.0000     4.7533E+01     6.0382   3.6031    88.0238
104      0.0000     0.0000E+00    0.0000E+00    6.610000E+06  0.02000  2.387E-02    0   0.9090   age061_m62            0.0000     7.5701E+01     7.6783   3.3422    87.7287
105      0.0000     0.0000E+00    0.0000E+00    8.710000E+06  0.02000  1.102E-02    0   0.8861   age067_m62            0.0000     2.2803E+02    13.4942   2.9490    83.5257
106      0.0000     0.0000E+00    0.0000E+00    1.000000E+07  0.02000  1.011E-02    0   0.8751   age070_m62            0.0000     1.5408E+02    11.0522   2.9749    85.8787
107      0.0000     0.0000E+00    0.0000E+00    1.445000E+07  0.02000  7.331E-03    0   0.8472   age078_m62            0.0000     1.0418E+02     8.9892   3.0002    87.1661
108      0.0000     0.0000E+00    0.0000E+00    2.512000E+07  0.02000  4.206E-03    0   0.8099   age090_m62            0.0000     1.0787E+02     9.0485   2.9128    86.6637
109      0.0000     0.0000E+00    0.0000E+00    4.000000E+07  0.02000  3.373E-03    0   0.7799   age104_m62            0.0000     2.9150E+01     4.5121   2.7324    95.4849
110      0.0000     0.0000E+00    0.0000E+00    5.500000E+07  0.02000  2.747E-03    0   0.7595   age110_m62            0.0000     2.3325E+01     3.5160   2.6748    99.0345
111      0.0000     0.0000E+00    0.0000E+00    1.015200E+08  0.02000  1.878E-03    0   0.7221   age116_m62            0.0000     4.8352E+01     4.6551   2.5506   103.9193
112      0.0000     0.0000E+00    0.0000E+00    1.609000E+08  0.02000  1.378E-03    0   0.6978   age120_m62            0.0000     7.5226E+01     6.0103   2.4058   106.4193
113      0.0000     0.0000E+00    0.0000E+00    2.861200E+08  0.02000  8.869E-04    0   0.6700   age125_m62            0.0000     1.2445E+02     8.0085   2.0518   110.4538
114      0.0000     0.0000E+00    0.0000E+00    5.088000E+08  0.02000  4.834E-04    0   0.6430   age130_m62            0.0000     1.1567E+02     8.2874   1.6467   111.6369
115      0.0000     0.0000E+00    0.0000E+00    9.047900E+08  0.02000  2.312E-04    0   0.6152   age135_m62            0.0000     5.9394E+01     6.4502   1.0625   109.7593
116      0.0000     0.0000E+00    0.0000E+00    1.278050E+09  0.02000  1.387E-04    0   0.5927   age138_m62            0.0000     3.8429E+01     5.2469   0.6848   104.8240
117      0.0000     0.0000E+00    0.0000E+00    1.434000E+09  0.02000  1.168E-04    0   0.5865   age139_m62            0.0000     3.7640E+01     5.1189   0.6617   103.0552
118      0.0000     0.0000E+00    0.0000E+00    2.500000E+09  0.02000  5.505E-05    0   0.5610   age150_m62            0.0000     6.0461E+01     6.0596   0.3096    99.3349
119      0.0000     0.0000E+00    0.0000E+00    4.250000E+09  0.02000  3.070E-05    0   0.5407   age158_m62            0.0000     1.0235E+02     7.6407   0.0420    98.4457
120      0.0000     0.0000E+00    0.0000E+00    6.250000E+09  0.02000  2.104E-05    0   0.5277   age166_m62            0.0000     1.2759E+02     8.3925  -0.0782    98.4682
121      0.0000     0.0000E+00    0.0000E+00    7.500000E+09  0.02000  1.770E-05    0   0.5223   age171_m62            0.0000     1.4149E+02     8.8213  -0.1602    98.6472
122      0.0000     0.0000E+00    0.0000E+00    1.000000E+10  0.02000  1.297E-05    0   0.5121   age181_m62            0.0000     1.7164E+02     9.6561  -0.3038    98.6631
123      0.0000     0.0000E+00    0.0000E+00    1.300000E+10  0.02000  9.691E-06    0   0.5047   age193_m62            0.0000     1.9236E+02    10.1763  -0.3789    98.7468
124      0.0000     0.0000E+00    0.0000E+00    1.500000E+10  0.02000  8.360E-06    0   0.4999   age201_m62            0.0000     2.1051E+02    10.6347  -0.4424    98.7688
125      0.0000     0.0000E+00    0.0000E+00    1.800000E+10  0.02000  6.911E-06    0   0.4946   age213_m62            0.0000     2.3350E+02    11.1982  -0.5058    98.7175
126      0.0000     0.0000E+00    0.0000E+00    1.000000E+06  0.05000  2.651E-02    0   0.9998   age020_m72            0.0000     1.5782E+02     9.9994   4.0000    84.9647
127      0.0000     0.0000E+00    0.0000E+00    3.160000E+06  0.05000  4.817E-02    0   0.9577   age045_m72            0.0000     8.7692E+01     7.9526   3.9749    83.5100
128      0.0000     0.0000E+00    0.0000E+00    5.010000E+06  0.05000  3.101E-02    0   0.9147   age055_m72            0.0000     8.0831E+01     7.6691   3.6135    86.3476
129      0.0000     0.0000E+00    0.0000E+00    6.610000E+06  0.05000  1.472E-02    0   0.8877   age061_m72            0.0000     1.8064E+02    11.5272   3.1533    84.7626
130      0.0000     0.0000E+00    0.0000E+00    8.710000E+06  0.05000  1.050E-02    0   0.8638   age067_m72            0.0000     1.1825E+02     9.1597   3.5573    85.1179
131      0.0000     0.0000E+00    0.0000E+00    1.000000E+07  0.05000  8.954E-03    0   0.8524   age070_m72            0.0000     8.4642E+01     7.7340   3.8470    84.9493
132      0.0000     0.0000E+00    0.0000E+00    1.445000E+07  0.05000  6.392E-03    0   0.8262   age078_m72            0.0000     7.1120E+01     7.1080   3.7990    85.9456
133      0.0000     0.0000E+00    0.0000E+00    2.512000E+07  0.05000  4.207E-03    0   0.7902   age090_m72            0.0000     4.0470E+01     5.4447   3.4213    90.6741
134      0.0000     0.0000E+00    0.0000E+00    4.000000E+07  0.05000  3.198E-03    0   0.7618   age104_m72            0.0000     2.9618E+01     3.8138   2.9247    99.1399
135      0.0000     0.0000E+00    0.0000E+00    5.500000E+07  0.05000  2.593E-03    0   0.7432   age110_m72            0.0000     3.8755E+01     4.2347   2.8301   101.2445
136      0.0000     0.0000E+00    0.0000E+00    1.015200E+08  0.05000  1.716E-03    0   0.7092   age116_m72            0.0000     6.1900E+01     5.2927   2.6379   104.0505
137      0.0000     0.0000E+00    0.0000E+00    1.609000E+08  0.05000  1.218E-03    0   0.6876   age120_m72            0.0000     9.1530E+01     6.6744   2.3835   106.6486
138      0.0000     0.0000E+00    0.0000E+00    2.861200E+08  0.05000  7.047E-04    0   0.6618   age125_m72            0.0000     1.2391E+02     8.2380   1.8691   109.9559
139      0.0000     0.0000E+00    0.0000E+00    5.088000E+08  0.05000  3.590E-04    0   0.6356   age130_m72            0.0000     1.0380E+02     7.9784   1.3228   111.3803
140      0.0000     0.0000E+00    0.0000E+00    9.047900E+08  0.05000  1.484E-04    0   0.6088   age135_m72            0.0000     5.8202E+01     6.4650   0.6089   103.6151
141      0.0000     0.0000E+00    0.0000E+00    1.278050E+09  0.05000  9.435E-05    0   0.5924   age138_m72            0.0000     8.4372E+01     7.3486   0.2327    99.6661
142      0.0000     0.0000E+00    0.0000E+00    1.434000E+09  0.05000  7.827E-05    0   0.5847   age139_m72            0.0000     8.3165E+01     7.1722   0.2420    99.0886
143      0.0000     0.0000E+00    0.0000E+00    2.500000E+09  0.05000  3.759E-05    0   0.5583   age150_m72            0.0000     1.2404E+02     8.3297  -0.0672    97.7176
144      0.0000     0.0000E+00    0.0000E+00    4.250000E+09  0.05000  1.842E-05    0   0.5374   age158_m72            0.0000     1.6815E+02     9.4682  -0.3750    96.9569
145      0.0000     0.0000E+00    0.0000E+00    6.250000E+09  0.05000  1.207E-05    0   0.5242   age166_m72            0.0000     2.1334E+02    10.6349  -0.5948    96.1567
146      0.1779     9.5901E-01    9.8299E-01    7.500000E+09  0.05000  9.993E-06    0   0.5183   age171_m72            0.0000     2.2021E+02    10.8138  -0.6374    96.0773
147      0.4155     3.0705E+00    3.0854E+00    1.000000E+10  0.05000  7.291E-06    0   0.5081   age181_m72            0.0000     2.5208E+02    11.6355  -0.7458    95.6147
148      0.6113     6.1949E+00    6.1477E+00    1.300000E+10  0.05000  5.316E-06    0   0.5018   age193_m72            0.0000     3.0374E+02    12.8845  -0.9079    94.9246
149      0.5823     6.9756E+00    6.8590E+00    1.500000E+10  0.05000  4.497E-06    0   0.4972   age201_m72            0.0000     3.2988E+02    13.5008  -0.9694    94.8472
150      0.5089     7.3324E+00    7.1402E+00    1.800000E+10  0.05000  3.739E-06    0   0.4924   age213_m72            0.0000     3.6564E+02    14.2430  -1.0000    92.8268


## Synthesis Results - Average & Chains ##

# j      x_j: min, <> & last-chain-values for 1 ...  7 chains
  1      0.0000      0.0068      0.0000      0.0000      0.0000      0.0000      0.0067      0.0183      0.0000
  2      8.9447      2.2815      3.6466      3.7698      2.6301      3.0402      3.5262      2.5469      2.2071
  3      0.7521      0.4771      0.6701      0.5868      0.6689      0.5379      0.7208      0.5219      0.5210
  4      0.0000      0.0102      0.0000      0.0000      0.0000      0.0000      0.0000      0.0000      0.0145
  5      0.0000      0.0067      0.0000      0.0000      0.0675      0.0000      0.0000      0.0000      0.0000
  6      0.0000      0.0191      0.0000      0.0000      0.0000      0.0000      0.0118      0.0000      0.0491
  7      0.0000      0.0166      0.0582      0.0000      0.0000      0.0820      0.0000      0.0181      0.0000
  8      0.0003      0.0355      0.0000      0.2161      0.0000      0.0000      0.0000      0.0000      0.0000
  9      0.3133      0.3159      0.3853      0.2988      0.3441      0.3412      0.2294      0.4808      0.5729
 10      0.0000      0.2167      0.1449      0.0771      0.3122      0.3309      0.4099      0.1793      0.2707
 11      0.6581      0.4657      0.6863      0.5248      0.5525      0.4817      0.5605      0.4356      0.4354
 12      0.0000      0.0282      0.0439      0.0000      0.0000      0.1035      0.1424      0.0000      0.0000
 13      0.0000      0.0386      0.1283      0.0000      0.0636      0.0000      0.0000      0.0319      0.0065
 14      0.0000      0.0222      0.0000      0.0000      0.0000      0.1599      0.0000      0.0000      0.0000
 15      0.0000      0.0228      0.0000      0.0000      0.0000      0.0769      0.0000      0.0062      0.0000
 16      0.0000      0.0303      0.0228      0.0192      0.0000      0.0000      0.0966      0.0000      0.0000
 17      0.0000      0.0267      0.0192      0.0000      0.2170      0.0000      0.0000      0.0000      0.0081
 18      0.0000      0.0412      0.0000      0.0000      0.0415      0.0000      0.0000      0.0000      0.0000
 19      0.0000      0.0626      0.0000      0.0246      0.0000      0.0000      0.5334      0.0000      0.0000
 20      0.0000      0.0694      0.0000      0.0000      0.0000      0.0000      0.0000      0.0000      0.0405
 21      0.0000      0.1129      0.0623      0.0268      0.1455      0.1132      0.0000      0.0000      0.0000
 22      0.0002      0.1353      0.0000      0.4567      0.0938      0.0000      0.1388      0.0000      0.4438
 23      0.0000      0.1524      0.2251      0.1375      0.0000      0.0000      0.3948      0.0332      0.0709
 24      0.0000      0.1631      0.0000      0.0917      0.0000      0.0289      0.1530      0.0874      0.0000
 25      0.0000      0.3849      0.0000      0.0000      0.0740      0.0000      0.3318      0.0000      0.0000
 26      0.0000      0.0097      0.0000      0.0000      0.0000      0.0000      0.0000      0.0000      0.0000
 27      0.0000      0.0681      0.0000      0.1446      0.0000      0.0182      0.0000      0.0106      0.0000
 28      0.0000      0.0172      0.0000      0.0000      0.0000      0.0000      0.0000      0.0000      0.0000
 29      0.0000      0.0098      0.0000      0.0017      0.0000      0.0000      0.0000      0.0000      0.0000
 30      0.0000      0.0151      0.0000      0.0000      0.1135      0.0000      0.0149      0.0000      0.0000
 31      0.0000      0.0110      0.0000      0.0000      0.0000      0.0000      0.0000      0.0705      0.0242
 32      0.0000      0.1901      0.0885      0.1488      0.0000      0.0046      0.0000      0.0000      0.4104
 33      0.0000      0.0370      0.2896      0.0000      0.0065      0.0583      0.0002      0.0728      0.0149
 34      0.0003      0.3475      0.3532      0.3813      0.4237      0.3478      0.4004      0.2871      0.5067
 35      0.0000      0.0741      0.1988      0.0000      0.1938      0.0359      0.2384      0.2915      0.0000
 36      0.0000      0.0539      0.0000      0.0970      0.0000      0.2443      0.0000      0.3791      0.1998
 37      0.2094      0.1360      0.0000      0.6537      0.3133      0.0780      0.1264      0.0581      0.0128
 38      0.0000      0.0408      0.1818      0.0000      0.0404      0.1832      0.0696      0.0000      0.0000
 39      0.0000      0.0310      0.0000      0.0000      0.0000      0.0000      0.0000      0.1736      0.0000
 40      0.0000      0.0129      0.0000      0.0000      0.0000      0.0000      0.0000      0.0000      0.0000
 41      0.0000      0.0337      0.0000      0.0000      0.0388      0.0228      0.0000      0.0000      0.0000
 42      0.0000      0.0508      0.0000      0.0000      0.0000      0.0000      0.0000      0.0000      0.3201
 43      6.2714      2.9395      3.0294      3.9785      4.1337      3.3450      3.1084      3.1000      3.3550
 44     43.3306     40.9744     42.0584     41.6311     40.1396     41.8952     41.7523     41.5604     43.3199
 45     25.4655     33.7639     32.8317     32.2681     33.7712     32.5146     32.4876     33.8541     32.7218
 46      0.0000      0.1955      0.1332      0.1824      0.0000      0.2336      0.0000      0.0000      0.0730
 47      0.0000      0.0805      0.0000      0.0791      0.0339      0.0120      0.0000      0.0000      0.0595
 48      0.0000      0.1347      0.0000      0.1846      0.1366      0.0017      0.0000      0.0342      0.0547
 49      0.0003      0.2435      0.0000      0.2237      0.2739      0.0703      0.2029      0.0000      0.2231
 50      0.0003      1.1721      0.6310      0.2463      1.1005      1.0612      1.6244      1.1689      0.7979
 51      0.0000      0.0093      0.0000      0.0000      0.0000      0.0000      0.0000      0.0000      0.0000
 52      0.6498      0.5001      0.5197      0.7358      0.7048      0.9139      0.6006      0.5392      0.5351
 53      0.0000      0.0224      0.0002      0.0000      0.0000      0.0000      0.0000      0.0000      0.0000
 54      0.5469      0.4040      0.3586      0.4441      0.5386      0.3656      0.3790      1.0044      0.4404
 55      0.0000      0.1684      0.0000      0.1249      0.1680      0.0000      0.0000      0.0791      0.2678
 56      0.0000      0.0348      0.0450      0.0000      0.0155      0.0000      0.0200      0.1298      0.0023
 57      0.0000      0.0143      0.0000      0.0000      0.0000      0.0000      0.0000      0.0088      0.0000
 58      0.0000      0.0241      0.0000      0.0000      0.0573      0.2062      0.0000      0.0000      0.0000
 59      0.0000      0.0232      0.0998      0.0264      0.0000      0.0000      0.0000      0.0000      0.0000
 60      0.0000      0.0210      0.0000      0.0000      0.0000      0.0000      0.0000      0.0000      0.0000
 61      0.0000      0.0432      0.0000      0.0000      0.0000      0.0776      0.0038      0.0000      0.0762
 62      0.0000      0.0394      0.1230      0.0000      0.0000      0.0000      0.0000      0.1042      0.0000
 63      0.0000      0.0796      0.4452      0.0000      0.1035      0.0000      0.0000      0.4640      0.0000
 64      0.0000      0.0507      0.0000      0.0000      0.0000      0.0000      0.0000      0.0786      0.0000
 65      0.0000      0.0715      0.0000      0.0408      0.1177      0.0000      0.0295      0.0395      0.1013
 66      0.0000      0.0810      0.0241      0.0000      0.0000      0.2337      0.0053      0.0000      0.0000
 67      0.0054      0.0652      0.1281      0.2184      0.0000      0.0000      0.0192      0.0000      0.0000
 68      0.0000      0.0650      0.1548      0.0000      0.0000      0.0000      0.0000      0.0000      0.0000
 69      0.0000      0.0818      0.0917      0.0000      0.2180      0.3499      0.0000      0.0000      0.0000
 70      0.0000      0.0735      0.2457      0.0000      0.0000      0.1546      0.0201      0.1079      0.0000
 71      0.0000      0.0710      0.0000      0.0000      0.1123      0.0000      0.1584      0.0803      0.0317
 72      2.6120      2.3546      2.3646      2.4383      2.7145      2.3709      2.3554      2.4064      2.4013
 73      1.5161      1.1700      1.2576      1.1041      1.2440      1.3277      0.8821      1.2217      1.1694
 74      1.7488      1.1805      1.0371      1.4591      0.8921      1.3632      1.2161      1.2435      1.0951
 75      2.7358      1.6708      1.7573      1.8745      1.8552      1.9233      1.5583      1.5581      1.6943
 76      0.0000      0.0057      0.0000      0.0000      0.0000      0.0000      0.0000      0.0000      0.0000
 77      0.0000      0.0064      0.0000      0.0000      0.0000      0.0134      0.0000      0.0008      0.0000
 78      0.0000      0.0072      0.0000      0.0000      0.0000      0.0000      0.0000      0.0000      0.0000
 79      0.0000      0.0111      0.0000      0.0000      0.0000      0.0000      0.0000      0.0000      0.0000
 80      0.0000      0.0197      0.0858      0.0000      0.0000      0.0000      0.0000      0.0000      0.0000
 81      0.0000      0.0118      0.0000      0.0000      0.0000      0.0000      0.0283      0.0000      0.0000
 82      0.0000      0.0148      0.0133      0.0000      0.0000      0.0000      0.0000      0.1299      0.0000
 83      0.0000      0.1917      0.1663      0.0000      0.1937      0.0700      0.0000      0.1682      0.2260
 84      0.0000      0.1811      0.1788      0.0676      0.1504      0.1620      0.1172      0.0000      0.0000
 85      0.0000      0.0579      0.0000      0.0000      0.0335      0.0000      0.0000      0.0000      0.1402
 86      0.0000      0.0258      0.0000      0.0000      0.0000      0.0000      0.1802      0.0000      0.0000
 87      0.0000      0.0245      0.0000      0.0000      0.0000      0.0213      0.0000      0.0000      0.0000
 88      0.0000      0.0196      0.0000      0.0000      0.0000      0.0000      0.0000      0.0000      0.0114
 89      0.0000      0.0131      0.0000      0.0000      0.0000      0.0000      0.0000      0.0000      0.0000
 90      0.0000      0.0058      0.0000      0.0000      0.0000      0.0000      0.0007      0.0019      0.0000
 91      0.0000      0.0066      0.0000      0.0000      0.0000      0.0000      0.0148      0.0000      0.0000
 92      0.0000      0.0073      0.0000      0.0000      0.0000      0.0000      0.0000      0.0000      0.0000
 93      0.0000      0.0095      0.0000      0.0262      0.0000      0.0000      0.0000      0.0000      0.0510
 94      0.0000      0.0132      0.0000      0.0000      0.0000      0.0000      0.0000      0.0000      0.0000
 95      0.0000      0.0113      0.0000      0.0000      0.0000      0.0000      0.0000      0.0000      0.0000
 96      0.0000      0.0102      0.0000      0.0000      0.0000      0.0000      0.0973      0.0000      0.0078
 97      0.0000      0.0095      0.0000      0.0000      0.0000      0.0000      0.0000      0.0000      0.0000
 98      0.0000      0.0074      0.0000      0.0000      0.0000      0.0000      0.0419      0.0000      0.0000
 99      0.0000      0.0068      0.0000      0.0000      0.0000      0.0000      0.0000      0.0000      0.0000
100      0.0000      0.0070      0.0000      0.0000      0.0000      0.0000      0.1066      0.0000      0.0000
101      0.0000      0.0038      0.0000      0.0000      0.0000      0.0000      0.0000      0.0000      0.0000
102      0.0000      0.0056      0.0000      0.0000      0.0000      0.1038      0.0000      0.0000      0.0000
103      0.0000      0.0190      0.0000      0.0000      0.0000      0.0000      0.0000      0.0000      0.0000
104      0.0000      0.0111      0.0000      0.0000      0.0000      0.0000      0.0000      0.0000      0.0000
105      0.0000      0.0102      0.0000      0.0000      0.0000      0.0026      0.0000      0.0000      0.0000
106      0.0000      0.0087      0.0079      0.0000      0.0000      0.0000      0.0000      0.0000      0.0000
107      0.0000      0.0095      0.0000      0.0000      0.0000      0.0000      0.0705      0.0000      0.0000
108      0.0000      0.0056      0.0000      0.0000      0.0000      0.0000      0.0000      0.0000      0.0000
109      0.0000      0.0077      0.0000      0.0000      0.0432      0.0000      0.0000      0.0000      0.0000
110      0.0000      0.0099      0.0637      0.0234      0.0000      0.0000      0.0000      0.0082      0.0591
111      0.0000      0.0223      0.0000      0.0000      0.0000      0.0000      0.0000      0.0000      0.0000
112      0.0000      0.0162      0.0000      0.0000      0.0000      0.0000      0.0000      0.0000      0.0000
113      0.0000      0.0160      0.0000      0.0000      0.0000      0.0177      0.0000      0.0000      0.0000
114      0.0000      0.0084      0.0000      0.0000      0.0000      0.0000      0.0000      0.0000      0.0000
115      0.0000      0.0073      0.0000      0.0000      0.0000      0.0000      0.0000      0.0000      0.0000
116      0.0000      0.0069      0.0000      0.0000      0.0000      0.0000      0.0000      0.0000      0.0000
117      0.0000      0.0057      0.0000      0.0000      0.0000      0.0000      0.0000      0.0000      0.0000
118      0.0000      0.0062      0.0000      0.0000      0.0000      0.0000      0.0000      0.0000      0.0000
119      0.0000      0.0053      0.0000      0.0330      0.0000      0.0000      0.0000      0.0000      0.0000
120      0.0000      0.0052      0.0000      0.0000      0.0000      0.0000      0.0000      0.0018      0.0000
121      0.0000      0.0053      0.0041      0.0000      0.0138      0.0000      0.0000      0.0122      0.0000
122      0.0000      0.0036      0.0000      0.0000      0.0000      0.0000      0.0000      0.0000      0.0128
123      0.0000      0.0073      0.0000      0.0000      0.0000      0.0000      0.0000      0.0000      0.0000
124      0.0000      0.0093      0.0000      0.0000      0.0264      0.0000      0.0000      0.0000      0.0030
125      0.0000      0.0163      0.0000      0.0083      0.0117      0.0000      0.0000      0.0355      0.0551
126      0.0000      0.0048      0.0000      0.0000      0.0000      0.0000      0.0000      0.0000      0.0000
127      0.0000      0.0059      0.0000      0.0035      0.0000      0.0000      0.0000      0.0000      0.0000
128      0.0000      0.0107      0.0000      0.0000      0.0000      0.0000      0.0000      0.0000      0.0000
129      0.0000      0.0065      0.0000      0.0000      0.0000      0.0000      0.0000      0.0000      0.0000
130      0.0000      0.0035      0.0000      0.0000      0.0000      0.0000      0.0000      0.0000      0.0000
131      0.0000      0.0030      0.0000      0.0000      0.0000      0.0000      0.0000      0.0000      0.0000
132      0.0000      0.0039      0.0000      0.0000      0.0146      0.0000      0.0000      0.0442      0.0000
133      0.0000      0.0044      0.0000      0.0000      0.0000      0.0000      0.0000      0.0039      0.0000
134      0.0000      0.0110      0.0000      0.0000      0.0000      0.0000      0.0000      0.0000      0.0027
135      0.0000      0.0177      0.0000      0.0000      0.0000      0.1893      0.0000      0.0000      0.0000
136      0.0000      0.0161      0.0000      0.0000      0.0000      0.0981      0.0000      0.1208      0.0000
137      0.0000      0.0193      0.0000      0.0000      0.0000      0.0000      0.0000      0.0000      0.0000
138      0.0000      0.0131      0.0000      0.0000      0.0000      0.0000      0.0000      0.0000      0.0192
139      0.0000      0.0109      0.0124      0.0000      0.0000      0.0000      0.0000      0.0000      0.0081
140      0.0000      0.0102      0.0000      0.0000      0.0000      0.0000      0.0000      0.0000      0.0000
141      0.0000      0.0071      0.0000      0.0005      0.0538      0.0000      0.0000      0.0628      0.0000
142      0.0000      0.0080      0.0000      0.0000      0.0000      0.0000      0.0000      0.0000      0.0000
143      0.0000      0.0048      0.0000      0.0000      0.0000      0.0000      0.0000      0.0087      0.0000
144      0.0000      0.0695      0.0629      0.2011      0.0000      0.0328      0.0000      0.0558      0.0000
145      0.0000      0.2941      0.4036      0.1792      0.2537      0.1369      0.4109      0.4580      0.3171
146      0.1779      0.4510      0.4708      0.4267      0.4783      0.4159      0.3312      0.4461      0.4526
147      0.4155      0.5230      0.4965      0.6798      0.5113      0.4678      0.4490      0.5447      0.5550
148      0.6113      0.5047      0.4958      0.5368      0.4735      0.5656      0.6501      0.4803      0.4639
149      0.5823      0.5584      0.5694      0.5567      0.5605      0.5510      0.6001      0.5707      0.5841
150      0.5089      0.3984      0.4087      0.3472      0.4502      0.4327      0.3955      0.3903      0.4666

# j      m_j: min, <> & last-chain-values for 1 ...  7 chains
  1  0.0000E+00  8.4984E-05  0.0000E+00  0.0000E+00  0.0000E+00  0.0000E+00  8.4081E-05  2.3243E-04  0.0000E+00
  2  2.0025E-02  4.9015E-03  8.0571E-03  8.2357E-03  5.6992E-03  6.6207E-03  7.5530E-03  5.5459E-03  4.7755E-03
  3  3.9741E-03  2.4192E-03  3.4946E-03  3.0258E-03  3.4209E-03  2.7649E-03  3.6439E-03  2.6824E-03  2.6605E-03
  4  0.0000E+00  9.7061E-05  0.0000E+00  0.0000E+00  0.0000E+00  0.0000E+00  0.0000E+00  0.0000E+00  1.3923E-04
  5  0.0000E+00  8.0595E-05  0.0000E+00  0.0000E+00  8.1792E-04  0.0000E+00  0.0000E+00  0.0000E+00  0.0000E+00
  6  0.0000E+00  2.7304E-04  0.0000E+00  0.0000E+00  0.0000E+00  0.0000E+00  1.6730E-04  0.0000E+00  7.0530E-04
  7  0.0000E+00  2.9976E-04  1.0787E-03  0.0000E+00  0.0000E+00  1.4973E-03  0.0000E+00  3.3142E-04  0.0000E+00
  8  6.8913E-06  7.2315E-04  0.0000E+00  4.4769E-03  0.0000E+00  0.0000E+00  0.0000E+00  0.0000E+00  0.0000E+00
  9  7.1519E-03  6.9220E-03  8.6823E-03  6.6574E-03  7.6033E-03  7.5765E-03  5.0108E-03  1.0677E-02  1.2641E-02
 10  0.0000E+00  5.4408E-03  3.7429E-03  1.9696E-03  7.9080E-03  8.4222E-03  1.0263E-02  4.5627E-03  6.8459E-03
 11  2.0588E-02  1.3981E-02  2.1188E-02  1.6019E-02  1.6731E-02  1.4658E-02  1.6777E-02  1.3255E-02  1.3165E-02
 12  0.0000E+00  1.4798E-03  2.3717E-03  0.0000E+00  0.0000E+00  5.5071E-03  7.4545E-03  0.0000E+00  0.0000E+00
 13  0.0000E+00  2.3568E-03  8.0487E-03  0.0000E+00  3.9107E-03  0.0000E+00  0.0000E+00  1.9728E-03  3.9658E-04
 14  0.0000E+00  1.9249E-03  0.0000E+00  0.0000E+00  0.0000E+00  1.4036E-02  0.0000E+00  0.0000E+00  0.0000E+00
 15  0.0000E+00  2.9850E-03  0.0000E+00  0.0000E+00  0.0000E+00  1.0194E-02  0.0000E+00  8.2710E-04  0.0000E+00
 16  0.0000E+00  5.7425E-03  4.4334E-03  3.6884E-03  0.0000E+00  0.0000E+00  1.8230E-02  0.0000E+00  0.0000E+00
 17  0.0000E+00  5.6148E-03  4.1421E-03  0.0000E+00  4.6006E-02  0.0000E+00  0.0000E+00  0.0000E+00  1.7139E-03
 18  0.0000E+00  1.4099E-02  0.0000E+00  0.0000E+00  1.4320E-02  0.0000E+00  0.0000E+00  0.0000E+00  0.0000E+00
 19  0.0000E+00  3.2499E-02  0.0000E+00  1.2954E-02  0.0000E+00  0.0000E+00  2.7590E-01  0.0000E+00  0.0000E+00
 20  0.0000E+00  5.1502E-02  0.0000E+00  0.0000E+00  0.0000E+00  0.0000E+00  0.0000E+00  0.0000E+00  3.0274E-02
 21  0.0000E+00  9.6934E-02  5.4971E-02  2.3430E-02  1.2596E-01  9.8489E-02  0.0000E+00  0.0000E+00  0.0000E+00
 22  1.7503E-04  1.4990E-01  0.0000E+00  5.1431E-01  1.0473E-01  0.0000E+00  1.5326E-01  0.0000E+00  4.9497E-01
 23  0.0000E+00  2.1402E-01  3.2501E-01  1.9637E-01  0.0000E+00  0.0000E+00  5.5259E-01  4.7261E-02  1.0022E-01
 24  0.0000E+00  2.6179E-01  0.0000E+00  1.4970E-01  0.0000E+00  4.7057E-02  2.4485E-01  1.4221E-01  0.0000E+00
 25  0.0000E+00  7.4244E-01  0.0000E+00  0.0000E+00  1.4394E-01  0.0000E+00  6.3809E-01  0.0000E+00  0.0000E+00
 26  0.0000E+00  1.1709E-04  0.0000E+00  0.0000E+00  0.0000E+00  0.0000E+00  0.0000E+00  0.0000E+00  0.0000E+00
 27  0.0000E+00  1.7534E-04  0.0000E+00  3.7850E-04  0.0000E+00  4.7385E-05  0.0000E+00  2.7546E-05  0.0000E+00
 28  0.0000E+00  8.6458E-05  0.0000E+00  0.0000E+00  0.0000E+00  0.0000E+00  0.0000E+00  0.0000E+00  0.0000E+00
 29  0.0000E+00  7.7021E-05  0.0000E+00  1.3559E-05  0.0000E+00  0.0000E+00  0.0000E+00  0.0000E+00  0.0000E+00
 30  0.0000E+00  1.4726E-04  0.0000E+00  0.0000E+00  1.1166E-03  0.0000E+00  1.4512E-04  0.0000E+00  0.0000E+00
 31  0.0000E+00  1.2432E-04  0.0000E+00  0.0000E+00  0.0000E+00  0.0000E+00  0.0000E+00  8.0530E-04  2.7434E-04
 32  0.0000E+00  2.3721E-03  1.1355E-03  1.8880E-03  0.0000E+00  5.7768E-05  0.0000E+00  0.0000E+00  5.1587E-03
 33  0.0000E+00  6.5687E-04  5.2828E-03  0.0000E+00  1.1675E-04  1.0477E-03  3.1554E-06  1.3097E-03  2.6587E-04
 34  6.3056E-06  7.4868E-03  7.8267E-03  8.3548E-03  9.2082E-03  7.5966E-03  8.6014E-03  6.2691E-03  1.0996E-02
 35  0.0000E+00  1.9299E-03  5.3239E-03  0.0000E+00  5.0884E-03  9.4623E-04  6.1871E-03  7.6923E-03  0.0000E+00
 36  0.0000E+00  1.7978E-03  0.0000E+00  3.2930E-03  0.0000E+00  8.2646E-03  0.0000E+00  1.2826E-02  6.7174E-03
 37  9.0494E-03  5.6428E-03  0.0000E+00  2.7574E-02  1.3108E-02  3.2782E-03  5.2252E-03  2.4437E-03  5.3579E-04
 38  0.0000E+00  2.3556E-03  1.0798E-02  0.0000E+00  2.3544E-03  1.0725E-02  4.0095E-03  0.0000E+00  0.0000E+00
 39  0.0000E+00  2.6746E-03  0.0000E+00  0.0000E+00  0.0000E+00  0.0000E+00  0.0000E+00  1.5174E-02  0.0000E+00
 40  0.0000E+00  1.9678E-03  0.0000E+00  0.0000E+00  0.0000E+00  0.0000E+00  0.0000E+00  0.0000E+00  0.0000E+00
 41  0.0000E+00  6.8600E-03  0.0000E+00  0.0000E+00  7.9700E-03  4.7015E-03  0.0000E+00  0.0000E+00  0.0000E+00
 42  0.0000E+00  1.1555E-02  0.0000E+00  0.0000E+00  0.0000E+00  0.0000E+00  0.0000E+00  0.0000E+00  7.3339E-02
 43  2.4186E+00  1.0878E+00  1.1530E+00  1.4972E+00  1.5430E+00  1.2548E+00  1.1469E+00  1.1628E+00  1.2504E+00
 44  2.6428E+01  2.3981E+01  2.5316E+01  2.4778E+01  2.3696E+01  2.4855E+01  2.4364E+01  2.4655E+01  2.5535E+01
 45  2.1648E+01  2.7543E+01  2.7544E+01  2.6767E+01  2.7786E+01  2.6885E+01  2.6422E+01  2.7991E+01  2.6883E+01
 46  0.0000E+00  1.8994E-01  1.3314E-01  1.8020E-01  0.0000E+00  2.3014E-01  0.0000E+00  0.0000E+00  7.1453E-02
 47  0.0000E+00  1.0250E-01  0.0000E+00  1.0251E-01  4.3495E-02  1.5545E-02  0.0000E+00  0.0000E+00  7.6340E-02
 48  0.0000E+00  2.0435E-01  0.0000E+00  2.8467E-01  2.0895E-01  2.5651E-03  0.0000E+00  5.2641E-02  8.3491E-02
 49  5.6272E-04  4.1315E-01  0.0000E+00  3.8593E-01  4.6866E-01  1.2087E-01  3.4320E-01  0.0000E+00  3.8129E-01
 50  6.5720E-04  2.3390E+00  1.2950E+00  4.9980E-01  2.2150E+00  2.1466E+00  3.2319E+00  2.3643E+00  1.6036E+00
 51  0.0000E+00  8.5801E-05  0.0000E+00  0.0000E+00  0.0000E+00  0.0000E+00  0.0000E+00  0.0000E+00  0.0000E+00
 52  1.6996E-03  1.2551E-03  1.3416E-03  1.8782E-03  1.7842E-03  2.3253E-03  1.5030E-03  1.3718E-03  1.3525E-03
 53  0.0000E+00  8.5796E-05  8.4744E-07  0.0000E+00  0.0000E+00  0.0000E+00  0.0000E+00  0.0000E+00  0.0000E+00
 54  2.0797E-03  1.4743E-03  1.3459E-03  1.6481E-03  1.9826E-03  1.3524E-03  1.3789E-03  3.7153E-03  1.6186E-03
 55  0.0000E+00  9.0658E-04  0.0000E+00  6.8352E-04  9.1243E-04  0.0000E+00  0.0000E+00  4.3171E-04  1.4522E-03
 56  0.0000E+00  2.4803E-04  3.2968E-04  0.0000E+00  1.1167E-04  0.0000E+00  1.4236E-04  9.3777E-04  1.6200E-05
 57  0.0000E+00  1.6366E-04  0.0000E+00  0.0000E+00  0.0000E+00  0.0000E+00  0.0000E+00  1.0238E-04  0.0000E+00
 58  0.0000E+00  3.9647E-04  0.0000E+00  0.0000E+00  9.5291E-04  3.4458E-03  0.0000E+00  0.0000E+00  0.0000E+00
 59  0.0000E+00  5.3218E-04  2.3510E-03  6.1439E-04  0.0000E+00  0.0000E+00  0.0000E+00  0.0000E+00  0.0000E+00
 60  0.0000E+00  5.3595E-04  0.0000E+00  0.0000E+00  0.0000E+00  0.0000E+00  0.0000E+00  0.0000E+00  0.0000E+00
 61  0.0000E+00  1.4026E-03  0.0000E+00  0.0000E+00  0.0000E+00  2.5566E-03  1.2388E-04  0.0000E+00  2.4945E-03
 62  0.0000E+00  1.6243E-03  5.2108E-03  0.0000E+00  0.0000E+00  0.0000E+00  0.0000E+00  4.3505E-03  0.0000E+00
 63  0.0000E+00  4.9869E-03  2.8690E-02  0.0000E+00  6.5396E-03  0.0000E+00  0.0000E+00  2.9468E-02  0.0000E+00
 64  0.0000E+00  5.2252E-03  0.0000E+00  0.0000E+00  0.0000E+00  0.0000E+00  0.0000E+00  8.2116E-03  0.0000E+00
 65  0.0000E+00  1.2465E-02  0.0000E+00  7.2246E-03  2.0679E-02  0.0000E+00  5.1201E-03  6.9720E-03  1.7784E-02
 66  0.0000E+00  1.8048E-02  5.5218E-03  0.0000E+00  0.0000E+00  5.2806E-02  1.1813E-03  0.0000E+00  0.0000E+00
 67  1.7214E-03  1.9960E-02  4.0323E-02  6.7964E-02  0.0000E+00  0.0000E+00  5.8561E-03  0.0000E+00  0.0000E+00
 68  0.0000E+00  3.6986E-02  9.0570E-02  0.0000E+00  0.0000E+00  0.0000E+00  0.0000E+00  0.0000E+00  0.0000E+00
 69  0.0000E+00  8.0214E-02  9.2541E-02  0.0000E+00  2.1570E-01  3.4792E-01  0.0000E+00  0.0000E+00  0.0000E+00
 70  0.0000E+00  1.0037E-01  3.4501E-01  0.0000E+00  0.0000E+00  2.1396E-01  2.7395E-02  1.4927E-01  0.0000E+00
 71  0.0000E+00  1.1442E-01  0.0000E+00  0.0000E+00  1.8252E-01  0.0000E+00  2.5441E-01  1.3109E-01  5.1463E-02
 72  5.7724E+00  4.9935E+00  5.1574E+00  5.2583E+00  5.8064E+00  5.0967E+00  4.9802E+00  5.1726E+00  5.1288E+00
 73  4.2267E+00  3.1301E+00  3.4601E+00  3.0036E+00  3.3567E+00  3.6004E+00  2.3526E+00  3.3127E+00  3.1505E+00
 74  5.4393E+00  3.5236E+00  3.1834E+00  4.4286E+00  2.6857E+00  4.1242E+00  3.6187E+00  3.7618E+00  3.2917E+00
 75  9.7845E+00  5.7341E+00  6.2025E+00  6.5419E+00  6.4219E+00  6.6907E+00  5.3322E+00  5.4201E+00  5.8560E+00
 76  0.0000E+00  4.5405E-05  0.0000E+00  0.0000E+00  0.0000E+00  0.0000E+00  0.0000E+00  0.0000E+00  0.0000E+00
 77  0.0000E+00  2.0783E-05  0.0000E+00  0.0000E+00  0.0000E+00  4.4088E-05  0.0000E+00  2.4932E-06  0.0000E+00
 78  0.0000E+00  2.6029E-05  0.0000E+00  0.0000E+00  0.0000E+00  0.0000E+00  0.0000E+00  0.0000E+00  0.0000E+00
 79  0.0000E+00  4.8554E-05  0.0000E+00  0.0000E+00  0.0000E+00  0.0000E+00  0.0000E+00  0.0000E+00  0.0000E+00
 80  0.0000E+00  1.1086E-04  4.9606E-04  0.0000E+00  0.0000E+00  0.0000E+00  0.0000E+00  0.0000E+00  0.0000E+00
 81  0.0000E+00  8.7431E-05  0.0000E+00  0.0000E+00  0.0000E+00  0.0000E+00  2.0991E-04  0.0000E+00  0.0000E+00
 82  0.0000E+00  1.4781E-04  1.3644E-04  0.0000E+00  0.0000E+00  0.0000E+00  0.0000E+00  1.3169E-03  0.0000E+00
 83  0.0000E+00  2.8189E-03  2.5145E-03  0.0000E+00  2.8723E-03  1.0432E-03  0.0000E+00  2.5058E-03  3.3459E-03
 84  0.0000E+00  3.6857E-03  3.7434E-03  1.3981E-03  3.0868E-03  3.3413E-03  2.3773E-03  0.0000E+00  0.0000E+00
 85  0.0000E+00  1.4314E-03  0.0000E+00  0.0000E+00  8.3509E-04  0.0000E+00  0.0000E+00  0.0000E+00  3.4892E-03
 86  0.0000E+00  8.6511E-04  0.0000E+00  0.0000E+00  0.0000E+00  0.0000E+00  6.0161E-03  0.0000E+00  0.0000E+00
 87  0.0000E+00  1.0928E-03  0.0000E+00  0.0000E+00  0.0000E+00  9.6115E-04  0.0000E+00  0.0000E+00  0.0000E+00
 88  0.0000E+00  1.3311E-03  0.0000E+00  0.0000E+00  0.0000E+00  0.0000E+00  0.0000E+00  0.0000E+00  7.8358E-04
 89  0.0000E+00  1.4821E-03  0.0000E+00  0.0000E+00  0.0000E+00  0.0000E+00  0.0000E+00  0.0000E+00  0.0000E+00
 90  0.0000E+00  1.2233E-03  0.0000E+00  0.0000E+00  0.0000E+00  0.0000E+00  1.5363E-04  4.0367E-04  0.0000E+00
 91  0.0000E+00  1.7698E-03  0.0000E+00  0.0000E+00  0.0000E+00  0.0000E+00  3.9832E-03  0.0000E+00  0.0000E+00
 92  0.0000E+00  2.6323E-03  0.0000E+00  0.0000E+00  0.0000E+00  0.0000E+00  0.0000E+00  0.0000E+00  0.0000E+00
 93  0.0000E+00  6.9720E-03  0.0000E+00  1.9458E-02  0.0000E+00  0.0000E+00  0.0000E+00  0.0000E+00  3.7541E-02
 94  0.0000E+00  1.7292E-02  0.0000E+00  0.0000E+00  0.0000E+00  0.0000E+00  0.0000E+00  0.0000E+00  0.0000E+00
 95  0.0000E+00  2.0002E-02  0.0000E+00  0.0000E+00  0.0000E+00  0.0000E+00  0.0000E+00  0.0000E+00  0.0000E+00
 96  0.0000E+00  2.1787E-02  0.0000E+00  0.0000E+00  0.0000E+00  0.0000E+00  2.0651E-01  0.0000E+00  1.6771E-02
 97  0.0000E+00  2.6228E-02  0.0000E+00  0.0000E+00  0.0000E+00  0.0000E+00  0.0000E+00  0.0000E+00  0.0000E+00
 98  0.0000E+00  2.6218E-02  0.0000E+00  0.0000E+00  0.0000E+00  0.0000E+00  1.4877E-01  0.0000E+00  0.0000E+00
 99  0.0000E+00  2.7713E-02  0.0000E+00  0.0000E+00  0.0000E+00  0.0000E+00  0.0000E+00  0.0000E+00  0.0000E+00
100  0.0000E+00  3.2804E-02  0.0000E+00  0.0000E+00  0.0000E+00  0.0000E+00  4.9634E-01  0.0000E+00  0.0000E+00
101  0.0000E+00  1.9331E-05  0.0000E+00  0.0000E+00  0.0000E+00  0.0000E+00  0.0000E+00  0.0000E+00  0.0000E+00
102  0.0000E+00  1.4861E-05  0.0000E+00  0.0000E+00  0.0000E+00  2.8120E-04  0.0000E+00  0.0000E+00  0.0000E+00
103  0.0000E+00  5.6317E-05  0.0000E+00  0.0000E+00  0.0000E+00  0.0000E+00  0.0000E+00  0.0000E+00  0.0000E+00
104  0.0000E+00  4.3048E-05  0.0000E+00  0.0000E+00  0.0000E+00  0.0000E+00  0.0000E+00  0.0000E+00  0.0000E+00
105  0.0000E+00  8.3645E-05  0.0000E+00  0.0000E+00  0.0000E+00  2.1581E-05  0.0000E+00  0.0000E+00  0.0000E+00
106  0.0000E+00  7.6869E-05  7.2310E-05  0.0000E+00  0.0000E+00  0.0000E+00  0.0000E+00  0.0000E+00  0.0000E+00
107  0.0000E+00  1.1273E-04  0.0000E+00  0.0000E+00  0.0000E+00  0.0000E+00  8.3039E-04  0.0000E+00  0.0000E+00
108  0.0000E+00  1.1010E-04  0.0000E+00  0.0000E+00  0.0000E+00  0.0000E+00  0.0000E+00  0.0000E+00  0.0000E+00
109  0.0000E+00  1.8222E-04  0.0000E+00  0.0000E+00  1.0296E-03  0.0000E+00  0.0000E+00  0.0000E+00  0.0000E+00
110  0.0000E+00  2.8003E-04  1.8505E-03  6.7354E-04  0.0000E+00  0.0000E+00  0.0000E+00  2.3541E-04  1.6816E-03
111  0.0000E+00  8.7849E-04  0.0000E+00  0.0000E+00  0.0000E+00  0.0000E+00  0.0000E+00  0.0000E+00  0.0000E+00
112  0.0000E+00  8.3741E-04  0.0000E+00  0.0000E+00  0.0000E+00  0.0000E+00  0.0000E+00  0.0000E+00  0.0000E+00
113  0.0000E+00  1.2393E-03  0.0000E+00  0.0000E+00  0.0000E+00  1.3893E-03  0.0000E+00  0.0000E+00  0.0000E+00
114  0.0000E+00  1.1402E-03  0.0000E+00  0.0000E+00  0.0000E+00  0.0000E+00  0.0000E+00  0.0000E+00  0.0000E+00
115  0.0000E+00  1.9989E-03  0.0000E+00  0.0000E+00  0.0000E+00  0.0000E+00  0.0000E+00  0.0000E+00  0.0000E+00
116  0.0000E+00  3.0119E-03  0.0000E+00  0.0000E+00  0.0000E+00  0.0000E+00  0.0000E+00  0.0000E+00  0.0000E+00
117  0.0000E+00  2.9377E-03  0.0000E+00  0.0000E+00  0.0000E+00  0.0000E+00  0.0000E+00  0.0000E+00  0.0000E+00
118  0.0000E+00  6.4232E-03  0.0000E+00  0.0000E+00  0.0000E+00  0.0000E+00  0.0000E+00  0.0000E+00  0.0000E+00
119  0.0000E+00  9.5791E-03  0.0000E+00  6.0374E-02  0.0000E+00  0.0000E+00  0.0000E+00  0.0000E+00  0.0000E+00
120  0.0000E+00  1.3287E-02  0.0000E+00  0.0000E+00  0.0000E+00  0.0000E+00  0.0000E+00  4.6804E-03  0.0000E+00
121  0.0000E+00  1.5842E-02  1.2694E-02  0.0000E+00  4.1986E-02  0.0000E+00  0.0000E+00  3.7387E-02  0.0000E+00
122  0.0000E+00  1.4456E-02  0.0000E+00  0.0000E+00  0.0000E+00  0.0000E+00  0.0000E+00  0.0000E+00  5.2162E-02
123  0.0000E+00  3.8718E-02  0.0000E+00  0.0000E+00  0.0000E+00  0.0000E+00  0.0000E+00  0.0000E+00  0.0000E+00
124  0.0000E+00  5.6969E-02  0.0000E+00  0.0000E+00  1.6280E-01  0.0000E+00  0.0000E+00  0.0000E+00  1.8604E-02
125  0.0000E+00  1.1911E-01  0.0000E+00  6.1594E-02  8.6090E-02  0.0000E+00  0.0000E+00  2.6323E-01  4.0611E-01
126  0.0000E+00  1.8543E-05  0.0000E+00  0.0000E+00  0.0000E+00  0.0000E+00  0.0000E+00  0.0000E+00  0.0000E+00
127  0.0000E+00  1.1925E-05  0.0000E+00  7.3201E-06  0.0000E+00  0.0000E+00  0.0000E+00  0.0000E+00  0.0000E+00
128  0.0000E+00  3.2279E-05  0.0000E+00  0.0000E+00  0.0000E+00  0.0000E+00  0.0000E+00  0.0000E+00  0.0000E+00
129  0.0000E+00  4.0230E-05  0.0000E+00  0.0000E+00  0.0000E+00  0.0000E+00  0.0000E+00  0.0000E+00  0.0000E+00
130  0.0000E+00  2.9196E-05  0.0000E+00  0.0000E+00  0.0000E+00  0.0000E+00  0.0000E+00  0.0000E+00  0.0000E+00
131  0.0000E+00  2.9117E-05  0.0000E+00  0.0000E+00  0.0000E+00  0.0000E+00  0.0000E+00  0.0000E+00  0.0000E+00
132  0.0000E+00  5.1225E-05  0.0000E+00  0.0000E+00  1.9445E-04  0.0000E+00  0.0000E+00  5.9237E-04  0.0000E+00
133  0.0000E+00  8.3791E-05  0.0000E+00  0.0000E+00  0.0000E+00  0.0000E+00  0.0000E+00  7.5441E-05  0.0000E+00
134  0.0000E+00  2.6900E-04  0.0000E+00  0.0000E+00  0.0000E+00  0.0000E+00  0.0000E+00  0.0000E+00  6.5642E-05
135  0.0000E+00  5.1901E-04  0.0000E+00  0.0000E+00  0.0000E+00  5.6232E-03  0.0000E+00  0.0000E+00  0.0000E+00
136  0.0000E+00  6.8211E-04  0.0000E+00  0.0000E+00  0.0000E+00  4.2029E-03  0.0000E+00  5.1722E-03  0.0000E+00
137  0.0000E+00  1.1139E-03  0.0000E+00  0.0000E+00  0.0000E+00  0.0000E+00  0.0000E+00  0.0000E+00  0.0000E+00
138  0.0000E+00  1.2598E-03  0.0000E+00  0.0000E+00  0.0000E+00  0.0000E+00  0.0000E+00  0.0000E+00  1.8595E-03
139  0.0000E+00  1.9814E-03  2.3065E-03  0.0000E+00  0.0000E+00  0.0000E+00  0.0000E+00  0.0000E+00  1.4728E-03
140  0.0000E+00  4.2928E-03  0.0000E+00  0.0000E+00  0.0000E+00  0.0000E+00  0.0000E+00  0.0000E+00  0.0000E+00
141  0.0000E+00  4.5282E-03  0.0000E+00  3.4698E-04  3.4841E-02  0.0000E+00  0.0000E+00  4.0859E-02  0.0000E+00
142  0.0000E+00  6.0900E-03  0.0000E+00  0.0000E+00  0.0000E+00  0.0000E+00  0.0000E+00  0.0000E+00  0.0000E+00
143  0.0000E+00  7.2601E-03  0.0000E+00  0.0000E+00  0.0000E+00  0.0000E+00  0.0000E+00  1.3382E-02  0.0000E+00
144  0.0000E+00  2.0743E-01  1.9300E-01  6.1008E-01  0.0000E+00  9.9067E-02  0.0000E+00  1.6871E-01  0.0000E+00
145  0.0000E+00  1.3057E+00  1.8432E+00  8.0903E-01  1.1361E+00  6.1632E-01  1.8193E+00  2.0611E+00  1.4182E+00
146  9.8299E-01  2.3914E+00  2.5677E+00  2.3009E+00  2.5584E+00  2.2355E+00  1.7510E+00  2.3977E+00  2.4169E+00
147  3.0854E+00  3.7263E+00  3.6385E+00  4.9256E+00  3.6743E+00  3.3786E+00  3.1895E+00  3.9338E+00  3.9828E+00
148  6.1477E+00  4.8709E+00  4.9213E+00  5.2684E+00  4.6094E+00  5.5330E+00  6.2553E+00  4.6984E+00  4.5089E+00
149  6.8590E+00  6.3126E+00  6.6191E+00  6.3990E+00  6.3909E+00  6.3140E+00  6.7635E+00  6.5389E+00  6.6493E+00
150  7.1402E+00  5.3642E+00  5.6597E+00  4.7532E+00  6.1145E+00  5.9055E+00  5.3093E+00  5.3268E+00  6.3270E+00

# AV, chi2 & Mass for <> & i_chain = 1 ...  7 solutions
AV       1.0232      0.9762      0.9917      0.9855      0.9838      0.9876      0.9811      0.9846      0.9798
chi2 2.0030E+00  2.1372E+00  2.0964E+00  2.0942E+00  2.1127E+00  2.1052E+00  2.1096E+00  2.1136E+00  2.1210E+00
Mass 8.1323E-10  7.9560E-10  7.8992E-10  7.9225E-10  7.9686E-10  7.9704E-10  8.0333E-10  7.9386E-10  7.9381E-10
 -26.24                                  [v0_min (km/s) before EX0s...]
  33.78                                  [vd_min (km/s) before EX0s...]


## Synthetic spectrum (Best Model) ##l_obs f_obs f_syn wei
 3070    [Nl_obs]
 3359.00    0.17615   0.37689   -1.000
 3360.00    0.24987   0.36677   -1.000
 3361.00    0.25832   0.38084   -1.000
 3362.00    0.27183   0.40716   -1.000
 3363.00    0.28380   0.43578   -1.000
 3364.00    0.29390   0.44984   -1.000
 3365.00    0.29340   0.44580   -1.000
 3366.00    0.29742   0.43760   -1.000
 3367.00    0.30033   0.42899   -1.000
 3368.00    0.30561   0.41984   -1.000
 3369.00    0.29110   0.40833   -1.000
 3370.00    0.28464   0.39059   -1.000
 3371.00    0.29591   0.38128   -1.000
 3372.00    0.30134   0.38785   -1.000
 3373.00    0.30224   0.40790   -1.000
 3374.00    0.31023   0.43218   -1.000
 3375.00    0.31351   0.45345   -1.000
 3376.00    0.32383   0.46130   -1.000
 3377.00    0.34044   0.45534   -1.000
 3378.00    0.35220   0.44212   -1.000
 3379.00    0.34108   0.43339   -1.000
 3380.00    0.32997   0.43431   -1.000
 3381.00    0.34432   0.44030   -1.000
 3382.00    0.35437   0.44708   -1.000
 3383.00    0.35301   0.45273   -1.000
 3384.00    0.35360   0.45833   -1.000
 3385.00    0.36512   0.46218   -1.000
 3386.00    0.36827   0.45587   -1.000
 3387.00    0.36955   0.44516   -1.000
 3388.00    0.37430   0.44250   -1.000
 3389.00    0.39050   0.45071   -1.000
 3390.00    0.39431   0.46035   -1.000
 3391.00    0.38319   0.46301   -1.000
 3392.00    0.37486   0.45422   -1.000
 3393.00    0.38452   0.44905   -1.000
 3394.00    0.38318   0.45555   -1.000
 3395.00    0.38966   0.46907   -1.000
 3396.00    0.40686   0.48465   -1.000
 3397.00    0.41656   0.49637   -1.000
 3398.00    0.42817   0.50380   -1.000
 3399.00    0.44488   0.50364   -1.000
 3400.00    0.45123   0.49711   -1.000
 3401.00    0.44491   0.48376   -1.000
 3402.00    0.44237   0.46687  201.786
 3403.00    0.43760   0.45847  201.786
 3404.00    0.43163   0.45655  201.786
 3405.00    0.43387   0.46104  201.786
 3406.00    0.43146   0.46026   -1.000
 3407.00    0.43327   0.45373  201.786
 3408.00    0.42313   0.44792  201.786
 3409.00    0.41874   0.45238   -1.000
 3410.00    0.42277   0.46121   -1.000
 3411.00    0.42905   0.45972   -1.000
 3412.00    0.43455   0.45234  201.786
 3413.00    0.43578   0.44431  201.786
 3414.00    0.43113   0.44710   36.765
 3415.00    0.43060   0.46011   26.251
 3416.00    0.44047   0.47283   25.251
 3417.00    0.44466   0.48224   24.082
 3418.00    0.45624   0.48976   22.885
 3419.00    0.46617   0.49642   22.486
 3420.00    0.48161   0.50097   22.354
 3421.00    0.48593   0.49694   22.407
 3422.00    0.46984   0.48237   22.915
 3423.00    0.46597   0.46850   23.483
 3424.00    0.47050   0.46552   23.148
 3425.00    0.47165   0.47108   22.516
 3426.00    0.48161   0.47886   22.260
 3427.00    0.48373   0.49083   59.772
 3428.00    0.48793   0.50732  201.786
 3429.00    0.50641   0.52076  201.786
 3430.00    0.50909   0.52000  201.786
 3431.00    0.51090   0.50219   -1.000
 3432.00    0.50703   0.48503   30.517
 3433.00    0.49241   0.48159   22.210
 3434.00    0.48351   0.49481   59.808
 3435.00    0.49309   0.50888  201.786
 3436.00    0.49568   0.50857   30.274
 3437.00    0.49607   0.49640   22.886
 3438.00    0.49031   0.48038   24.177
 3439.00    0.47744   0.46371   25.966
 3440.00    0.45428   0.44676   27.319
 3441.00    0.43011   0.43276   27.666
 3442.00    0.43687   0.42817   27.592
 3443.00    0.44347   0.43245   26.768
 3444.00    0.44970   0.44263   25.409
 3445.00    0.46325   0.45723   24.005
 3446.00    0.48120   0.47809   23.031
 3447.00    0.49260   0.50017   61.438
 3448.00    0.50623   0.51588  201.786
 3449.00    0.50500   0.51844  201.786
 3450.00    0.51357   0.50366   -1.000
 3451.00    0.52771   0.48331   -1.000
 3452.00    0.52320   0.47070   -1.000
 3453.00    0.50722   0.47103   -1.000
 3454.00    0.51214   0.47964   -1.000
 3455.00    0.51628   0.48859   -1.000
 3456.00    0.51591   0.49112   -1.000
 3457.00    0.51091   0.48689   -1.000
 3458.00    0.51142   0.47888   30.166
 3459.00    0.49460   0.46900   22.438
 3460.00    0.48164   0.45899   22.418
 3461.00    0.48992   0.45864   61.017
 3462.00    0.49726   0.47036   -1.000
 3463.00    0.50240   0.48146   -1.000
 3464.00    0.50637   0.48398   -1.000
 3465.00    0.51293   0.47961   -1.000
 3466.00    0.51698   0.48153   -1.000
 3467.00    0.52240   0.49307   -1.000
 3468.00    0.53309   0.50826   -1.000
 3469.00    0.54234   0.51954   -1.000
 3470.00    0.53667   0.52129   -1.000
 3471.00    0.53559   0.51417   -1.000
 3472.00    0.54016   0.50062   -1.000
 3473.00    0.52245   0.48049   -1.000
 3474.00    0.49699   0.46362   30.298
 3475.00    0.47891   0.45661   23.007
 3476.00    0.47963   0.46229   22.885
 3477.00    0.48177   0.47873   62.007
 3478.00    0.49528   0.49432  200.547
 3479.00    0.51510   0.50655  192.292
 3480.00    0.52693   0.51484  189.767
 3481.00    0.53120   0.51488   -1.000
 3482.00    0.53195   0.50949   -1.000
 3483.00    0.53244   0.50398   -1.000
 3484.00    0.53676   0.50388   -1.000
 3485.00    0.53979   0.51303   -1.000
 3486.00    0.55024   0.52265   -1.000
 3487.00    0.55771   0.52225   -1.000
 3488.00    0.54290   0.51172   -1.000
 3489.00    0.52181   0.49528   -1.000
 3490.00    0.50180   0.48508   -1.000
 3491.00    0.49228   0.48920  201.786
 3492.00    0.49250   0.49837  201.786
 3493.00    0.50524   0.50073  201.786
 3494.00    0.50767   0.49585   -1.000
 3495.00    0.49925   0.48579   -1.000
 3496.00    0.49086   0.47930   -1.000
 3497.00    0.49613   0.48286   -1.000
 3498.00    0.50959   0.49048   -1.000
 3499.00    0.51967   0.49855   -1.000
 3500.00    0.54206   0.50041   -1.000
 3501.00    0.54311   0.50146   -1.000
 3502.00    0.54926   0.50667   -1.000
 3503.00    0.55347   0.51040   -1.000
 3504.00    0.54557   0.50896   -1.000
 3505.00    0.54204   0.50142   -1.000
 3506.00    0.53714   0.49441   -1.000
 3507.00    0.53580   0.49093   -1.000
 3508.00    0.53774   0.49064   -1.000
 3509.00    0.53273   0.49241   -1.000
 3510.00    0.52440   0.49124   -1.000
 3511.00    0.52032   0.48768   -1.000
 3512.00    0.52427   0.48114   -1.000
 3513.00    0.50939   0.47572   -1.000
 3514.00    0.50636   0.47862   -1.000
 3515.00    0.52430   0.49302   -1.000
 3516.00    0.53853   0.51576   -1.000
 3517.00    0.54826   0.53128   -1.000
 3518.00    0.55412   0.52946   -1.000
 3519.00    0.54176   0.51329   -1.000
 3520.00    0.53450   0.49708   -1.000
 3521.00    0.52905   0.48695   -1.000
 3522.00    0.51583   0.48037   -1.000
 3523.00    0.50179   0.47199   29.688
 3524.00    0.48715   0.46139   22.790
 3525.00    0.47998   0.45771   22.906
 3526.00    0.47301   0.46674   64.015
 3527.00    0.48470   0.48270  201.786
 3528.00    0.50674   0.50116  190.201
 3529.00    0.52450   0.51591  185.264
 3530.00    0.53360   0.52452  187.354
 3531.00    0.53617   0.52666  189.341
 3532.00    0.53874   0.51878   -1.000
 3533.00    0.54484   0.50580   -1.000
 3534.00    0.53932   0.49923   -1.000
 3535.00    0.54264   0.50381   -1.000
 3536.00    0.54555   0.51980   -1.000
 3537.00    0.55429   0.53607   -1.000
 3538.00    0.56236   0.54600  175.083
 3539.00    0.55916   0.54985  175.592
 3540.00    0.55796   0.54711  178.471
 3541.00    0.55704   0.54330  180.517
 3542.00    0.55712   0.54437  180.072
 3543.00    0.56235   0.55075  177.741
 3544.00    0.56348   0.55509  176.621
 3545.00    0.56375   0.55308  178.891
 3546.00    0.56413   0.54814   -1.000
 3547.00    0.56405   0.54330   -1.000
 3548.00    0.56090   0.54200   -1.000
 3549.00    0.56120   0.54532   -1.000
 3550.00    0.56088   0.55161  184.783
 3551.00    0.55351   0.55450  189.715
 3552.00    0.54147   0.54724  195.351
 3553.00    0.53912   0.53519  199.194
 3554.00    0.53872   0.52884  198.681
 3555.00    0.54378   0.53200   -1.000
 3556.00    0.54234   0.54074  194.250
 3557.00    0.54089   0.54969  196.585
 3558.00    0.54605   0.55301  199.201
 3559.00    0.54146   0.55229  198.404
 3560.00    0.54362   0.55260  195.059
 3561.00    0.55372   0.55419  193.494
 3562.00    0.55076   0.55118  193.623
 3563.00    0.53698   0.53848  201.786
 3564.00    0.52138   0.51766   29.637
 3565.00    0.50499   0.49920   23.107
 3566.00    0.49474   0.49170   23.159
 3567.00    0.49488   0.49258   22.990
 3568.00    0.49812   0.49357   23.532
 3569.00    0.49222   0.48754   24.068
 3570.00    0.47581   0.47714   23.619
 3571.00    0.48068   0.47238   22.637
 3572.00    0.49623   0.47504   64.501
 3573.00    0.50751   0.48038   -1.000
 3574.00    0.51459   0.48682   -1.000
 3575.00    0.50970   0.49468   -1.000
 3576.00    0.50646   0.50207  201.786
 3577.00    0.51714   0.50750  201.786
 3578.00    0.51846   0.50728   30.558
 3579.00    0.50983   0.49783   24.526
 3580.00    0.48764   0.48431   26.041
 3581.00    0.47383   0.47271   26.537
 3582.00    0.47227   0.46909   26.659
 3583.00    0.46336   0.47174   27.185
 3584.00    0.46281   0.46698   28.031
 3585.00    0.45992   0.45185   28.567
 3586.00    0.44354   0.43735   27.580
 3587.00    0.44915   0.43640   26.121
 3588.00    0.45624   0.45219   24.826
 3589.00    0.47540   0.47662   22.848
 3590.00    0.49848   0.49778   64.357
 3591.00    0.51434   0.50923  200.213
 3592.00    0.52397   0.51185  197.997
 3593.00    0.52546   0.51291  195.465
 3594.00    0.53312   0.51939  189.951
 3595.00    0.54786   0.53160  181.467
 3596.00    0.55863   0.54219  175.268
 3597.00    0.55354   0.54816  170.550
 3598.00    0.55922   0.55099  167.333
 3599.00    0.56717   0.55177  168.135
 3600.00    0.56070   0.54645  174.678
 3601.00    0.54736   0.53287   -1.000
 3602.00    0.54556   0.51949   -1.000
 3603.00    0.53157   0.51287   -1.000
 3604.00    0.51784   0.51580  199.656
 3605.00    0.52116   0.51936  198.385
 3606.00    0.52248   0.51701  199.498
 3607.00    0.51872   0.51075  201.786
 3608.00    0.51064   0.50416  201.786
 3609.00    0.50537   0.50164  201.786
 3610.00    0.50650   0.50366  201.786
 3611.00    0.51017   0.50957  197.813
 3612.00    0.51643   0.51729  192.528
 3613.00    0.51314   0.52497  188.779
 3614.00    0.51753   0.53673   -1.000
 3615.00    0.53494   0.54876   -1.000
 3616.00    0.54439   0.54658  193.053
 3617.00    0.52652   0.53067  201.786
 3618.00    0.50882   0.51154   28.887
 3619.00    0.49222   0.50460   65.037
 3620.00    0.49898   0.51556  193.710
 3621.00    0.51791   0.53221  181.172
 3622.00    0.54082   0.54500  175.381
 3623.00    0.55051   0.55271  172.737
 3624.00    0.55756   0.56175  167.362
 3625.00    0.57025   0.57784  160.501
 3626.00    0.58522   0.59701  157.057
 3627.00    0.59555   0.60786   -1.000
 3628.00    0.58488   0.59712   -1.000
 3629.00    0.56771   0.56736  184.147
 3630.00    0.54085   0.53350  201.386
 3631.00    0.50911   0.51598  201.786
 3632.00    0.50296   0.52048   -1.000
 3633.00    0.51514   0.53620   -1.000
 3634.00    0.52249   0.54677   -1.000
 3635.00    0.52880   0.54848   -1.000
 3636.00    0.54553   0.55189  176.070
 3637.00    0.56252   0.56330  168.036
 3638.00    0.56923   0.57641  161.935
 3639.00    0.57709   0.58441  160.470
 3640.00    0.57585   0.58427  163.494
 3641.00    0.56497   0.57567  168.700
 3642.00    0.55929   0.56237  177.034
 3643.00    0.54964   0.55058  183.347
 3644.00    0.53742   0.54289  187.012
 3645.00    0.52534   0.53809   -1.000
 3646.00    0.52415   0.53445  193.298
 3647.00    0.52583   0.53316  194.286
 3648.00    0.52412   0.53368  190.266
 3649.00    0.52590   0.53548  183.128
 3650.00    0.53199   0.54063  174.566
 3651.00    0.54905   0.55067  166.960
 3652.00    0.56932   0.56452  162.168
 3653.00    0.57390   0.57749  159.512
 3654.00    0.57897   0.58927  158.579
 3655.00    0.58310   0.59971   -1.000
 3656.00    0.58759   0.60731   -1.000
 3657.00    0.59546   0.61040   -1.000
 3658.00    0.59221   0.60984   -1.000
 3659.00    0.60113   0.60819  152.502
 3660.00    0.59289   0.60390  153.790
 3661.00    0.58839   0.59617  155.464
 3662.00    0.58888   0.58825  157.900
 3663.00    0.58147   0.58416  159.472
 3664.00    0.57701   0.58625  158.259
 3665.00    0.58226   0.59046  157.865
 3666.00    0.57983   0.59223   -1.000
 3667.00    0.57421   0.58934   -1.000
 3668.00    0.57509   0.58189  166.117
 3669.00    0.57294   0.57616  166.281
 3670.00    0.56694   0.57688  161.169
 3671.00    0.57660   0.58456  157.246
 3672.00    0.58548   0.59424  156.096
 3673.00    0.58734   0.59877  155.951
 3674.00    0.59076   0.59616  156.220
 3675.00    0.58572   0.58752  160.010
 3676.00    0.58100   0.57395  165.025
 3677.00    0.57619   0.55975  170.064
 3678.00    0.56211   0.55111  174.596
 3679.00    0.54845   0.55181  175.259
 3680.00    0.54856   0.55696  171.575
 3681.00    0.55984   0.56256  166.689
 3682.00    0.56942   0.56706  164.381
 3683.00    0.56672   0.56774  167.107
 3684.00    0.56063   0.56361  173.359
 3685.00    0.55678   0.55454  180.520
 3686.00    0.54719   0.54832  184.751
 3687.00    0.53751   0.55309   -1.000
 3688.00    0.54967   0.57024   -1.000
 3689.00    0.56740   0.58947   -1.000
 3690.00    0.58118   0.60006   -1.000
 3691.00    0.59246   0.60202  153.239
 3692.00    0.59760   0.60040  156.818
 3693.00    0.59683   0.60039  159.501
 3694.00    0.59557   0.60230  159.446
 3695.00    0.59845   0.60221  158.172
 3696.00    0.60056   0.59741  156.350
 3697.00    0.59899   0.59711  151.918
 3698.00    0.61008   0.61047  147.788
 3699.00    0.62384   0.63179  145.417
 3700.00    0.63814   0.64601  147.123
 3701.00    0.63611   0.63426  153.006
 3702.00    0.60219   0.59879  165.807
 3703.00    0.57502   0.55756  181.760
 3704.00    0.55655   0.52932   -1.000
 3705.00    0.54013   0.52355   -1.000
 3706.00    0.54965   0.53512   -1.000
 3707.00    0.55450   0.55237  187.089
 3708.00    0.56068   0.56406  181.956
 3709.00    0.56309   0.56251  174.248
 3710.00    0.56694   0.55267  166.317
 3711.00    0.57345   0.54804   -1.000
 3712.00    0.59029   0.55938   -1.000
 3713.00    0.61268   0.58759   -1.000
 3714.00    0.62849   0.62120  143.796
 3715.00    0.65509   0.64572  146.652
 3716.00    0.66370   0.65480  152.673
 3717.00    0.65815   0.64693  165.457
 3718.00    0.62718   0.61723  187.877
 3719.00    0.56983   0.56517  201.786
 3720.00    0.52076   0.50905   28.760
 3721.00    0.49823   0.47991   70.097
 3722.00    0.51330   0.48913   -1.000
 3723.00    0.55190   0.53057   -1.000
 3724.00    0.60181   0.58399  161.829
 3725.00    0.64561   0.62055   -1.000
 3726.00    0.66258   0.63432   -1.000
 3727.00    0.65583   0.63885   -1.000
 3728.00    0.65538   0.64323  166.172
 3729.00    0.65401   0.64627  166.870
 3730.00    0.64621   0.63722  173.189
 3731.00    0.61515   0.60132   -1.000
 3732.00    0.56719   0.54225   28.065
 3733.00    0.51730   0.48507   24.135
 3734.00    0.47174   0.44810   25.523
 3735.00    0.46434   0.44646   24.735
 3736.00    0.49102   0.48050   22.629
 3737.00    0.53285   0.53335   68.349
 3738.00    0.58056   0.58864  180.083
 3739.00    0.62962   0.63748  167.992
 3740.00    0.65687   0.66479  165.106
 3741.00    0.67066   0.66748  169.965
 3742.00    0.66594   0.65191   -1.000
 3743.00    0.64338   0.63075   -1.000
 3744.00    0.60820   0.60839  201.786
 3745.00    0.59229   0.58613   -1.000
 3746.00    0.57024   0.55989   28.449
 3747.00    0.53463   0.52623   23.558
 3748.00    0.50311   0.49035   24.107
 3749.00    0.47921   0.46499   75.612
 3750.00    0.48086   0.46986  196.501
 3751.00    0.52344   0.51088  175.501
 3752.00    0.58690   0.57020   -1.000
 3753.00    0.64359   0.62669  152.055
 3754.00    0.67916   0.66540  147.997
 3755.00    0.70631   0.68225   -1.000
 3756.00    0.70279   0.67523   -1.000
 3757.00    0.67429   0.65135   -1.000
 3758.00    0.64323   0.62947  196.143
 3759.00    0.62872   0.62132  185.924
 3760.00    0.63796   0.62742  176.631
 3761.00    0.65517   0.64209  172.028
 3762.00    0.67776   0.65380   -1.000
 3763.00    0.67921   0.65742   -1.000
 3764.00    0.67352   0.65258   -1.000
 3765.00    0.66385   0.64082   -1.000
 3766.00    0.63863   0.62313   -1.000
 3767.00    0.61351   0.59596   -1.000
 3768.00    0.59809   0.56047   -1.000
 3769.00    0.58079   0.52721   -1.000
 3770.00    0.55719   0.51141   -1.000
 3771.00    0.55827   0.52740   -1.000
 3772.00    0.59171   0.56821   -1.000
 3773.00    0.63229   0.61373  153.601
 3774.00    0.65835   0.64483  153.387
 3775.00    0.67961   0.66149  153.047
 3776.00    0.70490   0.67431   -1.000
 3777.00    0.71779   0.69377   -1.000
 3778.00    0.73037   0.71821  146.362
 3779.00    0.76564   0.74153   -1.000
 3780.00    0.78593   0.75911   -1.000
 3781.00    0.79534   0.76626   -1.000
 3782.00    0.79329   0.76494   -1.000
 3783.00    0.78801   0.75880   -1.000
 3784.00    0.78727   0.74892   -1.000
 3785.00    0.77463   0.73329   -1.000
 3786.00    0.74092   0.71418   -1.000
 3787.00    0.71561   0.69581   -1.000
 3788.00    0.70475   0.68594   -1.000
 3789.00    0.69738   0.68511  171.290
 3790.00    0.69953   0.68660   -1.000
 3791.00    0.70089   0.68323   -1.000
 3792.00    0.69528   0.66993   -1.000
 3793.00    0.66494   0.64423   -1.000
 3794.00    0.62525   0.60775   -1.000
 3795.00    0.59646   0.56587   -1.000
 3796.00    0.55639   0.52340   -1.000
 3797.00    0.52031   0.48896   -1.000
 3798.00    0.51336   0.48210   -1.000
 3799.00    0.53636   0.51573   -1.000
 3800.00    0.58884   0.57864  170.481
 3801.00    0.64323   0.64145  161.773
 3802.00    0.68833   0.68743  157.506
 3803.00    0.72018   0.71165  156.094
 3804.00    0.74093   0.72183   -1.000
 3805.00    0.74113   0.72137   -1.000
 3806.00    0.73928   0.72034   -1.000
 3807.00    0.73796   0.72847  164.122
 3808.00    0.74782   0.74646  158.087
 3809.00    0.76513   0.76680  155.420
 3810.00    0.78538   0.77805  157.511
 3811.00    0.79403   0.76992   -1.000
 3812.00    0.77316   0.74419   -1.000
 3813.00    0.74689   0.71547   -1.000
 3814.00    0.72421   0.69723   -1.000
 3815.00    0.71669   0.69847   -1.000
 3816.00    0.72284   0.71339  186.976
 3817.00    0.73834   0.72781  188.026
 3818.00    0.74743   0.72613   -1.000
 3819.00    0.72134   0.70787  201.786
 3820.00    0.70203   0.69088  201.786
 3821.00    0.70471   0.68886   -1.000
 3822.00    0.72024   0.69741   -1.000
 3823.00    0.71353   0.69369   -1.000
 3824.00    0.68209   0.67191   28.871
 3825.00    0.64864   0.64925   23.598
 3826.00    0.63378   0.63473   23.535
 3827.00    0.62455   0.62626   23.185
 3828.00    0.61527   0.61915   22.804
 3829.00    0.60842   0.61016   22.956
 3830.00    0.59357   0.59519   23.854
 3831.00    0.55304   0.56887   25.609
 3832.00    0.51505   0.52840   26.659
 3833.00    0.49334   0.48027   26.388
 3834.00    0.47764   0.44612   25.415
 3835.00    0.47200   0.43780   24.763
 3836.00    0.47831   0.45302   25.081
 3837.00    0.48494   0.48386   25.682
 3838.00    0.50509   0.51952   25.435
 3839.00    0.53709   0.55375   24.159
 3840.00    0.57435   0.58949   78.790
 3841.00    0.62230   0.62849  199.556
 3842.00    0.66849   0.66807  185.656
 3843.00    0.70619   0.70364  180.609
 3844.00    0.73517   0.72680  179.985
 3845.00    0.75038   0.74090  179.915
 3846.00    0.75640   0.75276  180.170
 3847.00    0.75473   0.76215  183.773
 3848.00    0.75869   0.76365  190.516
 3849.00    0.76183   0.75845  194.403
 3850.00    0.76575   0.75801  191.285
 3851.00    0.76374   0.77021  186.260
 3852.00    0.77016   0.78781   -1.000
 3853.00    0.77783   0.79730   -1.000
 3854.00    0.77682   0.79208   -1.000
 3855.00    0.76823   0.77864  199.462
 3856.00    0.75722   0.76442  201.786
 3857.00    0.74549   0.75207   27.146
 3858.00    0.73048   0.74160   23.076
 3859.00    0.71734   0.73940   22.941
 3860.00    0.71252   0.74983   76.099
 3861.00    0.74737   0.76958   -1.000
 3862.00    0.78649   0.78807  177.079
 3863.00    0.80206   0.79630  176.544
 3864.00    0.80612   0.79491  179.678
 3865.00    0.81069   0.79187  182.570
 3866.00    0.80599   0.79278  185.986
 3867.00    0.79957   0.79778  192.712
 3868.00    0.79716   0.80150  201.786
 3869.00    0.77775   0.79560   -1.000
 3870.00    0.75618   0.77886   27.439
 3871.00    0.72544   0.75647   76.389
 3872.00    0.72258   0.73728   -1.000
 3873.00    0.73022   0.73300  181.058
 3874.00    0.75116   0.74300  172.468
 3875.00    0.77148   0.75261   -1.000
 3876.00    0.76986   0.74549   -1.000
 3877.00    0.73159   0.72520  201.786
 3878.00    0.69767   0.70819  201.786
 3879.00    0.68836   0.70546  201.786
 3880.00    0.69666   0.71209  201.786
 3881.00    0.69387   0.71122  201.786
 3882.00    0.67436   0.69964   -1.000
 3883.00    0.66648   0.68294  178.349
 3884.00    0.65883   0.65773  179.039
 3885.00    0.64317   0.61805   -1.000
 3886.00    0.60183   0.56605   -1.000
 3887.00    0.56724   0.51647   -1.000
 3888.00    0.55242   0.49004   -1.000
 3889.00    0.55423   0.49824   -1.000
 3890.00    0.58849   0.53979   -1.000
 3891.00    0.63767   0.59645   -1.000
 3892.00    0.67048   0.64271   -1.000
 3893.00    0.69595   0.66695   -1.000
 3894.00    0.69817   0.67929   -1.000
 3895.00    0.71408   0.69192   -1.000
 3896.00    0.74807   0.70875   -1.000
 3897.00    0.75716   0.72548   -1.000
 3898.00    0.76056   0.73466   -1.000
 3899.00    0.76559   0.73750   -1.000
 3900.00    0.77944   0.74513   -1.000
 3901.00    0.79501   0.75597   -1.000
 3902.00    0.80152   0.76176   -1.000
 3903.00    0.80272   0.76001   -1.000
 3904.00    0.78514   0.75362   -1.000
 3905.00    0.76359   0.75249  160.651
 3906.00    0.77220   0.76207  152.564
 3907.00    0.80863   0.78542   -1.000
 3908.00    0.84736   0.81470   -1.000
 3909.00    0.86134   0.83686   -1.000
 3910.00    0.88100   0.84657   -1.000
 3911.00    0.88835   0.84792   -1.000
 3912.00    0.87568   0.84337   -1.000
 3913.00    0.86631   0.83285   -1.000
 3914.00    0.85860   0.82180   -1.000
 3915.00    0.84909   0.81796   -1.000
 3916.00    0.84827   0.81801   -1.000
 3917.00    0.85052   0.81425   -1.000
 3918.00    0.84265   0.80513   -1.000
 3919.00    0.82252   0.79532   -1.000
 3920.00    0.80568   0.78911   -1.000
 3921.00    0.80861   0.78698   -1.000
 3922.00    0.81472   0.78995   -1.000
 3923.00    0.81502   0.79387   -1.000
 3924.00    0.81790   0.79277   -1.000
 3925.00    0.80895   0.78072   -1.000
 3926.00    0.77479   0.75337   -1.000
 3927.00    0.72792   0.71489   29.802
 3928.00    0.68066   0.66677   27.868
 3929.00    0.60416   0.61117   32.619
 3930.00    0.52621   0.54157   38.516
 3931.00    0.45333   0.45417   45.169
 3932.00    0.37782   0.37067   50.039
 3933.00    0.33382   0.32349   49.134
 3934.00    0.32731   0.33826   43.345
 3935.00    0.37620   0.40801   36.107
 3936.00    0.45782   0.49896   29.676
 3937.00    0.54197   0.58485   24.850
 3938.00    0.62481   0.65816   83.826
 3939.00    0.68982   0.70993  200.315
 3940.00    0.72216   0.74397   -1.000
 3941.00    0.74542   0.76207  188.809
 3942.00    0.76093   0.76797  188.446
 3943.00    0.75772   0.77021  180.543
 3944.00    0.76885   0.77655  165.141
 3945.00    0.80500   0.78880  154.598
 3946.00    0.82632   0.80247   -1.000
 3947.00    0.83385   0.80841   -1.000
 3948.00    0.83459   0.80654   -1.000
 3949.00    0.83643   0.80298   -1.000
 3950.00    0.84026   0.80106   -1.000
 3951.00    0.83838   0.79966   -1.000
 3952.00    0.83577   0.80168   -1.000
 3953.00    0.84418   0.80888   -1.000
 3954.00    0.84885   0.81205   -1.000
 3955.00    0.84475   0.80581   -1.000
 3956.00    0.83112   0.79303   -1.000
 3957.00    0.81039   0.78372   -1.000
 3958.00    0.80359   0.78184   -1.000
 3959.00    0.79965   0.77296   -1.000
 3960.00    0.76133   0.74781  179.298
 3961.00    0.70470   0.71247  199.240
 3962.00    0.66339   0.67398  201.786
 3963.00    0.63105   0.63811   27.864
 3964.00    0.59739   0.59248   26.284
 3965.00    0.53112   0.52295   32.113
 3966.00    0.44758   0.43310   39.368
 3967.00    0.37157   0.34139   44.393
 3968.00    0.32322   0.28398   42.515
 3969.00    0.31756   0.28241   35.694
 3970.00    0.36523   0.33540   29.327
 3971.00    0.42869   0.41889   24.466
 3972.00    0.49716   0.50696   83.733
 3973.00    0.57080   0.58037  184.808
 3974.00    0.63392   0.64114  165.972
 3975.00    0.68590   0.68914  152.400
 3976.00    0.73564   0.72837  142.952
 3977.00    0.77026   0.76028  135.309
 3978.00    0.80175   0.78754  128.044
 3979.00    0.83176   0.80754   -1.000
 3980.00    0.85391   0.81556   -1.000
 3981.00    0.85774   0.81656   -1.000
 3982.00    0.85783   0.81846   -1.000
 3983.00    0.86273   0.82746   -1.000
 3984.00    0.88261   0.84320   -1.000
 3985.00    0.89596   0.85804   -1.000
 3986.00    0.90785   0.86832   -1.000
 3987.00    0.91227   0.87788   -1.000
 3988.00    0.91350   0.88640  117.587
 3989.00    0.92883   0.89054   -1.000
 3990.00    0.94284   0.89524   -1.000
 3991.00    0.95231   0.90370   -1.000
 3992.00    0.95529   0.91481   -1.000
 3993.00    0.96339   0.92239   -1.000
 3994.00    0.95186   0.91884   -1.000
 3995.00    0.93850   0.90403   -1.000
 3996.00    0.92402   0.88647   -1.000
 3997.00    0.91665   0.87949   -1.000
 3998.00    0.91953   0.88711   -1.000
 3999.00    0.94020   0.90316   -1.000
 4000.00    0.96343   0.91791   -1.000
 4001.00    0.97468   0.92648   -1.000
 4002.00    0.98731   0.92649   -1.000
 4003.00    0.98341   0.91801   -1.000
 4004.00    0.95344   0.90178   -1.000
 4005.00    0.93009   0.88951   -1.000
 4006.00    0.92869   0.89413   -1.000
 4007.00    0.95852   0.91299   -1.000
 4008.00    0.97630   0.93402   -1.000
 4009.00    0.98657   0.94594   -1.000
 4010.00    0.99589   0.94991   -1.000
 4011.00    0.99213   0.94965   -1.000
 4012.00    0.97326   0.94767  107.461
 4013.00    0.99461   0.94764   -1.000
 4014.00    0.99114   0.95164   -1.000
 4015.00    1.00000   0.95760   -1.000
 4016.00    1.00309   0.96214   -1.000
 4017.00    0.99787   0.96579   -1.000
 4018.00    1.00835   0.97120   -1.000
 4019.00    1.01329   0.97688   -1.000
 4020.00    1.01560   0.97863   -1.000
 4021.00    1.00756   0.97372   -1.000
 4022.00    1.00397   0.96584   -1.000
 4023.00    0.99614   0.95797   -1.000
 4024.00    0.99597   0.95346   -1.000
 4025.00    1.00039   0.95797   -1.000
 4026.00    1.01858   0.97156   -1.000
 4027.00    1.02692   0.98261   -1.000
 4028.00    1.02164   0.97902   -1.000
 4029.00    0.99711   0.96124  111.937
 4030.00    0.96808   0.93715  117.155
 4031.00    0.95898   0.91995   -1.000
 4032.00    0.94870   0.91543   -1.000
 4033.00    0.94762   0.92153  114.455
 4034.00    0.96550   0.93634  109.039
 4035.00    0.98894   0.95835  103.637
 4036.00    1.01722   0.98406   99.774
 4037.00    1.02953   1.00512   98.934
 4038.00    1.05148   1.01156   -1.000
 4039.00    1.05109   1.00588   -1.000
 4040.00    1.03378   0.99676   -1.000
 4041.00    1.02185   0.98993  104.999
 4042.00    1.02004   0.98096   -1.000
 4043.00    0.99808   0.95926   -1.000
 4044.00    0.95612   0.92819  129.027
 4045.00    0.92289   0.90643  125.917
 4046.00    0.93007   0.91085  114.517
 4047.00    0.96367   0.94015  106.930
 4048.00    1.00039   0.97267  103.393
 4049.00    1.02813   0.99228  101.955
 4050.00    1.03472   0.99807   -1.000
 4051.00    1.02467   0.99598  104.918
 4052.00    1.01816   0.98728  107.682
 4053.00    1.00707   0.97724  109.522
 4054.00    0.99804   0.97101  110.510
 4055.00    0.99462   0.96835  111.273
 4056.00    0.99546   0.96726  112.384
 4057.00    0.98084   0.96859  111.418
 4058.00    0.98408   0.97696  107.723
 4059.00    1.00634   0.98907  105.315
 4060.00    1.02125   0.99097  106.569
 4061.00    1.00463   0.97499  113.546
 4062.00    0.97245   0.94766  121.567
 4063.00    0.94610   0.92477  121.149
 4064.00    0.95017   0.91579   -1.000
 4065.00    0.96526   0.92158   -1.000
 4066.00    0.97726   0.93410   -1.000
 4067.00    0.99793   0.94382   -1.000
 4068.00    1.00608   0.94915   -1.000
 4069.00    1.01467   0.94781   -1.000
 4070.00    1.00936   0.93520   -1.000
 4071.00    0.98291   0.91898   -1.000
 4072.00    0.96850   0.91501   -1.000
 4073.00    0.97787   0.92377   -1.000
 4074.00    0.98503   0.93006   -1.000
 4075.00    0.96158   0.91948   -1.000
 4076.00    0.92690   0.89617   -1.000
 4077.00    0.89969   0.87821  122.823
 4078.00    0.90157   0.88114  114.890
 4079.00    0.93780   0.90659   -1.000
 4080.00    0.98104   0.93599   -1.000
 4081.00    1.00280   0.95186   -1.000
 4082.00    0.99357   0.94956   -1.000
 4083.00    0.98194   0.93718   -1.000
 4084.00    0.97077   0.92627   -1.000
 4085.00    0.96823   0.92500   -1.000
 4086.00    0.98160   0.93433   -1.000
 4087.00    0.99826   0.94780   -1.000
 4088.00    1.00397   0.95746   -1.000
 4089.00    1.00246   0.95799   -1.000
 4090.00    0.99022   0.95138   -1.000
 4091.00    0.97605   0.94267   -1.000
 4092.00    0.97636   0.93146   -1.000
 4093.00    0.95361   0.91632   -1.000
 4094.00    0.93876   0.89872   -1.000
 4095.00    0.91301   0.87617   -1.000
 4096.00    0.88703   0.84984   -1.000
 4097.00    0.87130   0.81887   -1.000
 4098.00    0.85172   0.77954   -1.000
 4099.00    0.82260   0.72495   -1.000
 4100.00    0.75202   0.66193   -1.000
 4101.00    0.68949   0.62064   -1.000
 4102.00    0.68153   0.62728   -1.000
 4103.00    0.73415   0.68291   -1.000
 4104.00    0.79799   0.75498   -1.000
 4105.00    0.85928   0.81423   -1.000
 4106.00    0.89317   0.84894   -1.000
 4107.00    0.90142   0.86828   -1.000
 4108.00    0.90518   0.87835  110.827
 4109.00    0.90158   0.88578  112.549
 4110.00    0.91277   0.89483  111.543
 4111.00    0.93088   0.90702  109.139
 4112.00    0.94829   0.92244  107.179
 4113.00    0.96314   0.93901  105.507
 4114.00    0.98263   0.95543  104.401
 4115.00    0.99238   0.96589  104.721
 4116.00    0.99214   0.96625  106.746
 4117.00    0.98649   0.95878  110.215
 4118.00    0.98009   0.94851   -1.000
 4119.00    0.97346   0.94255   -1.000
 4120.00    0.96993   0.94528  109.571
 4121.00    0.97848   0.95172  109.527
 4122.00    0.98467   0.95749  108.518
 4123.00    0.99103   0.96381  106.670
 4124.00    0.99376   0.97233  106.109
 4125.00    1.00650   0.97865  107.324
 4126.00    1.00526   0.97758  109.554
 4127.00    0.99518   0.97128  110.655
 4128.00    0.99393   0.96672  111.250
 4129.00    0.98712   0.96484  112.547
 4130.00    0.97964   0.95921  115.846
 4131.00    0.96977   0.94822  119.534
 4132.00    0.95661   0.94009  120.292
 4133.00    0.95215   0.94534  116.826
 4134.00    0.96581   0.96236  111.122
 4135.00    0.98998   0.98289  107.244
 4136.00    1.01697   1.00149  105.305
 4137.00    1.03398   1.01613  103.658
 4138.00    1.04492   1.02779  103.098
 4139.00    1.04896   1.03285  104.908
 4140.00    1.04039   1.02440  110.041
 4141.00    1.01250   1.00319  118.966
 4142.00    0.96637   0.97680  125.798
 4143.00    0.93671   0.95934   -1.000
 4144.00    0.94256   0.96251   -1.000
 4145.00    0.97661   0.98172  110.755
 4146.00    1.01387   1.00053  109.252
 4147.00    1.01919   1.00686  110.957
 4148.00    1.00450   1.00535  113.979
 4149.00    0.99525   1.00436  115.626
 4150.00    0.99261   1.00609  115.048
 4151.00    1.00137   1.00641  114.351
 4152.00    1.00164   1.00115  115.216
 4153.00    0.99255   0.99265  117.037
 4154.00    0.99051   0.98641  114.673
 4155.00    0.96393   0.98739   -1.000
 4156.00    1.06902   0.99507   -1.000
 4157.00    1.27655   1.00597   -1.000
 4158.00    1.05902   1.01705   -1.000
 4159.00    0.77141   1.02439   -1.000
 4160.00    0.94646   1.02752   -1.000
 4161.00    1.07266   1.02854   -1.000
 4162.00    1.04010   1.03167  106.159
 4163.00    1.02908   1.03758  107.799
 4164.00    1.02920   1.04260  109.436
 4165.00    1.03048   1.04127  111.815
 4166.00    1.02386   1.03347  113.635
 4167.00    1.01854   1.02726  113.069
 4168.00    1.02171   1.02441  111.203
 4169.00    1.02547   1.02065  111.998
 4170.00    1.00494   1.00648  118.069
 4171.00    0.97418   0.98027  125.322
 4172.00    0.95400   0.95787  126.540
 4173.00    0.94366   0.95281  122.481
 4174.00    0.94706   0.96681   -1.000
 4175.00    0.96223   0.98634   -1.000
 4176.00    0.96430   0.99441   -1.000
 4177.00    0.96216   0.99496   -1.000
 4178.00    0.97091   0.99698   -1.000
 4179.00    0.98486   1.00593   -1.000
 4180.00    0.99882   1.01438   -1.000
 4181.00    1.00268   1.01270  113.663
 4182.00    1.00377   1.01055  111.478
 4183.00    0.99480   1.01505   -1.000
 4184.00    0.99593   1.01972   -1.000
 4185.00    1.00297   1.01766  112.731
 4186.00    0.99650   1.00795  116.060
 4187.00    0.98007   0.99953   -1.000
 4188.00    0.98382   1.00056  113.019
 4189.00    0.99995   1.00731  112.122
 4190.00    1.00642   1.01279  110.722
 4191.00    1.00649   1.01606  108.403
 4192.00    1.01812   1.02104  106.861
 4193.00    1.02784   1.02797  109.498
 4194.00    1.02660   1.02764  115.046
 4195.00    1.00751   1.01396  119.127
 4196.00    0.98025   0.99402  121.415
 4197.00    0.96618   0.97602  121.868
 4198.00    0.95176   0.96396  120.686
 4199.00    0.95201   0.96049  118.793
 4200.00    0.96137   0.96467  118.304
 4201.00    0.96715   0.96876  117.594
 4202.00    0.97454   0.97266  115.842
 4203.00    0.98380   0.98213  114.905
 4204.00    0.98930   0.99462  112.808
 4205.00    0.99161   1.00536  110.031
 4206.00    1.00089   1.01503  107.823
 4207.00    1.01972   1.02321  107.133
 4208.00    1.03046   1.02658  107.491
 4209.00    1.02761   1.02670  107.336
 4210.00    1.02498   1.02789  106.624
 4211.00    1.02697   1.03337  107.105
 4212.00    1.03206   1.03835  110.347
 4213.00    1.01975   1.03055  115.306
 4214.00    0.99305   1.01246   -1.000
 4215.00    0.96921   0.99597   -1.000
 4216.00    0.96468   0.99187   -1.000
 4217.00    0.98999   1.00517  103.276
 4218.00    1.02508   1.02345  100.244
 4219.00    1.04517   1.03672   99.004
 4220.00    1.04564   1.04313   99.714
 4221.00    1.04949   1.04084  103.527
 4222.00    1.03715   1.02645  110.539
 4223.00    1.01177   0.99531  121.214
 4224.00    0.96485   0.95206  137.148
 4225.00    0.90839   0.91316  149.162
 4226.00    0.86223   0.89547   -1.000
 4227.00    0.87133   0.91455   -1.000
 4228.00    0.93453   0.96317   -1.000
 4229.00    1.00684   1.01288  104.120
 4230.00    1.03237   1.03547  102.886
 4231.00    1.03312   1.03278  104.937
 4232.00    1.01758   1.01925  107.689
 4233.00    0.99945   1.00419  108.923
 4234.00    1.00100   0.99610  111.345
 4235.00    0.99439   0.99708  113.436
 4236.00    0.98712   0.99977  112.858
 4237.00    0.98795   1.00458  110.349
 4238.00    0.99733   1.01356  108.683
 4239.00    1.00773   1.02425  106.635
 4240.00    1.01022   1.03702   -1.000
 4241.00    1.02205   1.04803   -1.000
 4242.00    1.02582   1.05421   -1.000
 4243.00    1.03817   1.05512  100.765
 4244.00    1.03808   1.05176  101.531
 4245.00    1.03351   1.04198  105.935
 4246.00    1.01686   1.02343  110.084
 4247.00    0.98729   1.00542  113.018
 4248.00    0.97770   0.99542  114.208
 4249.00    0.97538   0.99309  114.172
 4250.00    0.97768   0.99789   -1.000
 4251.00    0.99401   1.00956  107.968
 4252.00    1.01602   1.01954  108.264
 4253.00    1.01225   1.02132  111.061
 4254.00    0.99942   1.01921   -1.000
 4255.00    1.00024   1.02281   -1.000
 4256.00    1.01847   1.03253  104.742
 4257.00    1.03239   1.03489  108.372
 4258.00    1.01981   1.02210  114.274
 4259.00    0.99228   1.00476  117.593
 4260.00    0.97270   0.99900   -1.000
 4261.00    0.97549   1.01148   -1.000
 4262.00    1.01028   1.03527   -1.000
 4263.00    1.03647   1.05726   99.052
 4264.00    1.05147   1.06742   98.647
 4265.00    1.05837   1.06634  100.121
 4266.00    1.05504   1.06134  103.334
 4267.00    1.04280   1.05180  106.512
 4268.00    1.02401   1.03605  110.547
 4269.00    1.00212   1.01369  117.620
 4270.00    0.95960   0.98760   -1.000
 4271.00    0.93035   0.96732   -1.000
 4272.00    0.92944   0.96063   -1.000
 4273.00    0.94338   0.96853   -1.000
 4274.00    0.95353   0.98454   -1.000
 4275.00    0.96750   1.00561   -1.000
 4276.00    0.99931   1.03171   -1.000
 4277.00    1.03093   1.05332  102.850
 4278.00    1.03501   1.05905   -1.000
 4279.00    1.01641   1.04971   -1.000
 4280.00    1.00044   1.03436   -1.000
 4281.00    0.98496   1.02513   -1.000
 4282.00    0.98709   1.02374   -1.000
 4283.00    0.99710   1.02504   -1.000
 4284.00    0.99210   1.02528   -1.000
 4285.00    0.98405   1.01965   -1.000
 4286.00    0.97043   1.00568   -1.000
 4287.00    0.96011   0.98524   -1.000
 4288.00    0.94471   0.96124  128.458
 4289.00    0.92281   0.94158   -1.000
 4290.00    0.90989   0.94030   -1.000
 4291.00    0.92254   0.95751   -1.000
 4292.00    0.95322   0.97812   -1.000
 4293.00    0.97118   0.98524  113.611
 4294.00    0.97170   0.98090  115.449
 4295.00    0.96064   0.97661  118.044
 4296.00    0.94157   0.96836   -1.000
 4297.00    0.92617   0.94915   -1.000
 4298.00    0.88379   0.92046   -1.000
 4299.00    0.84518   0.89002   -1.000
 4300.00    0.82171   0.87080   -1.000
 4301.00    0.82681   0.86780   -1.000
 4302.00    0.84633   0.87668   -1.000
 4303.00    0.85187   0.89123   -1.000
 4304.00    0.85702   0.90482   -1.000
 4305.00    0.86829   0.90579   -1.000
 4306.00    0.86191   0.89366   -1.000
 4307.00    0.84331   0.87875   -1.000
 4308.00    0.82045   0.87343   -1.000
 4309.00    0.82448   0.88367   -1.000
 4310.00    0.84270   0.90261   -1.000
 4311.00    0.86755   0.92001   -1.000
 4312.00    0.88691   0.93004   -1.000
 4313.00    0.90413   0.94204   -1.000
 4314.00    0.93556   0.96541   -1.000
 4315.00    0.97424   1.00224   -1.000
 4316.00    1.02729   1.04349   93.126
 4317.00    1.06699   1.06911   92.911
 4318.00    1.08216   1.07488   94.289
 4319.00    1.07489   1.06776   96.398
 4320.00    1.05157   1.05564   99.608
 4321.00    1.03303   1.03935  104.435
 4322.00    1.00304   1.01653  112.016
 4323.00    0.95704   0.98640   -1.000
 4324.00    0.91758   0.95580   -1.000
 4325.00    0.89455   0.94411   -1.000
 4326.00    0.90703   0.96211   -1.000
 4327.00    0.95334   0.99586   -1.000
 4328.00    0.99707   1.02338   97.279
 4329.00    1.01192   1.03144   97.581
 4330.00    1.00455   1.02746   97.107
 4331.00    1.00471   1.02439   95.460
 4332.00    1.00313   1.02292   94.437
 4333.00    0.99256   1.01638   94.190
 4334.00    0.98895   0.99885   95.706
 4335.00    0.98080   0.96644  101.619
 4336.00    0.94688   0.91516  111.359
 4337.00    0.89303   0.84335   -1.000
 4338.00    0.83051   0.76658   -1.000
 4339.00    0.76265   0.71039   -1.000
 4340.00    0.72787   0.69396   -1.000
 4341.00    0.75690   0.73086  113.942
 4342.00    0.81113   0.80579  106.683
 4343.00    0.87481   0.88041  103.153
 4344.00    0.91662   0.93157  100.335
 4345.00    0.94570   0.96687   98.578
 4346.00    0.96805   0.99501   97.511
 4347.00    0.98208   1.01789   -1.000
 4348.00    0.99917   1.02937   -1.000
 4349.00    1.00625   1.02282  101.173
 4350.00    0.98799   1.00102  108.734
 4351.00    0.95409   0.98127   -1.000
 4352.00    0.94203   0.97923   -1.000
 4353.00    0.96439   1.00042   -1.000
 4354.00    0.99886   1.03178   -1.000
 4355.00    1.02212   1.05557   -1.000
 4356.00    1.04460   1.06651   96.201
 4357.00    1.05452   1.06854   98.217
 4358.00    1.04558   1.06639   99.486
 4359.00    1.03884   1.06669   97.719
 4360.00    1.04721   1.07437   94.760
 4361.00    1.06905   1.08657   93.615
 4362.00    1.08231   1.09768   93.211
 4363.00    1.08601   1.10479   92.190
 4364.00    1.08482   1.10726   92.061
 4365.00    1.08515   1.10319   94.783
 4366.00    1.07264   1.09148   98.260
 4367.00    1.05304   1.07715   99.477
 4368.00    1.05090   1.06798   98.581
 4369.00    1.05150   1.06428   97.946
 4370.00    1.05188   1.06328   97.837
 4371.00    1.05606   1.05953   98.770
 4372.00    1.05162   1.04851  102.689
 4373.00    1.03020   1.03024  106.809
 4374.00    1.00724   1.01274  107.075
 4375.00    1.00486   1.01275  102.821
 4376.00    1.02697   1.03458   97.660
 4377.00    1.06494   1.06440   95.785
 4378.00    1.08230   1.08285   96.268
 4379.00    1.08557   1.08414   97.953
 4380.00    1.07740   1.07021  102.473
 4381.00    1.05134   1.03947  113.588
 4382.00    1.00855   0.99676  126.547
 4383.00    0.94534   0.96228   -1.000
 4384.00    0.91945   0.95530   -1.000
 4385.00    0.95500   0.97838   -1.000
 4386.00    1.00248   1.01290  102.266
 4387.00    1.03231   1.03703  102.209
 4388.00    1.04174   1.04750  103.300
 4389.00    1.04250   1.04955  103.667
 4390.00    1.04063   1.05007  101.744
 4391.00    1.05146   1.05412   99.447
 4392.00    1.06547   1.05744  100.003
 4393.00    1.05872   1.05117  102.192
 4394.00    1.04085   1.03929  101.926
 4395.00    1.03922   1.03942   97.389
 4396.00    1.06228   1.05459   94.476
 4397.00    1.08288   1.06760   95.650
 4398.00    1.07975   1.06664   99.143
 4399.00    1.05960   1.05558  102.135
 4400.00    1.03798   1.04817  101.095
 4401.00    1.04378   1.05032   99.267
 4402.00    1.06812   1.05377  102.562
 4403.00    1.05480   1.04928  108.542
 4404.00    1.02719   1.03963  109.656
 4405.00    1.02562   1.03641  106.099
 4406.00    1.04117   1.04329  104.467
 4407.00    1.04946   1.05245  103.524
 4408.00    1.04829   1.06006   99.653
 4409.00    1.05799   1.07427   95.377
 4410.00    1.08919   1.09483   92.107
 4411.00    1.10505   1.10890   90.953
 4412.00    1.12237   1.10738   93.303
 4413.00    1.09607   1.09048   98.636
 4414.00    1.07127   1.06328  102.294
 4415.00    1.03879   1.04003  101.850
 4416.00    1.03161   1.03593   98.357
 4417.00    1.05025   1.05271   94.271
 4418.00    1.05879   1.08142   91.566
 4419.00    1.09587   1.10648   92.003
 4420.00    1.10269   1.11692   94.403
 4421.00    1.08713   1.11238   -1.000
 4422.00    1.07597   1.10508   -1.000
 4423.00    1.07976   1.10244   95.192
 4424.00    1.07845   1.10113   95.528
 4425.00    1.07751   1.09700   95.978
 4426.00    1.06604   1.09334   -1.000
 4427.00    1.06433   1.09577   -1.000
 4428.00    1.07158   1.10314   -1.000
 4429.00    1.07903   1.11020   -1.000
 4430.00    1.08140   1.11406   -1.000
 4431.00    1.08181   1.11451   -1.000
 4432.00    1.09534   1.11017   97.388
 4433.00    1.08511   1.09744  102.158
 4434.00    1.05269   1.08064   -1.000
 4435.00    1.04104   1.07472   -1.000
 4436.00    1.06465   1.09132   93.315
 4437.00    1.10295   1.12137   89.328
 4438.00    1.13567   1.14496   88.980
 4439.00    1.13899   1.14812   91.741
 4440.00    1.12238   1.12929   96.144
 4441.00    1.09515   1.09975  100.238
 4442.00    1.06409   1.07521  100.693
 4443.00    1.04853   1.07155   -1.000
 4444.00    1.06578   1.08957   92.865
 4445.00    1.10052   1.11656   91.038
 4446.00    1.11615   1.13481   91.038
 4447.00    1.12044   1.14025   91.213
 4448.00    1.12644   1.14013   92.211
 4449.00    1.11774   1.13815   93.129
 4450.00    1.11318   1.13594   92.462
 4451.00    1.12268   1.13412   93.050
 4452.00    1.12103   1.12916   96.435
 4453.00    1.10368   1.11402  100.901
 4454.00    1.07569   1.09337  103.063
 4455.00    1.05501   1.08270   -1.000
 4456.00    1.06689   1.08846   99.586
 4457.00    1.08091   1.10106   99.605
 4458.00    1.08501   1.10763   -1.000
 4459.00    1.08810   1.10800  101.161
 4460.00    1.08046   1.10651   -1.000
 4461.00    1.08184   1.10797   -1.000
 4462.00    1.09035   1.11468   -1.000
 4463.00    1.10420   1.12406   93.885
 4464.00    1.11037   1.13128   93.705
 4465.00    1.11592   1.13173   93.771
 4466.00    1.12128   1.12391   94.822
 4467.00    1.10956   1.11095   96.652
 4468.00    1.08923   1.10129   97.266
 4469.00    1.09111   1.10260   95.944
 4470.00    1.09680   1.11750   92.945
 4471.00    1.11661   1.14005   89.725
 4472.00    1.14211   1.16036   87.271
 4473.00    1.16841   1.17257   86.498
 4474.00    1.17370   1.17562   86.646
 4475.00    1.16550   1.17490   85.906
 4476.00    1.17211   1.17470   85.395
 4477.00    1.17961   1.17518   86.142
 4478.00    1.17536   1.16800   89.303
 4479.00    1.15536   1.14732   93.372
 4480.00    1.12457   1.12306   96.053
 4481.00    1.09623   1.11090   95.053
 4482.00    1.09992   1.11953   91.065
 4483.00    1.12368   1.14451   87.606
 4484.00    1.15529   1.17152   85.705
 4485.00    1.18239   1.18798   85.797
 4486.00    1.18763   1.18903   87.733
 4487.00    1.17508   1.17678   91.102
 4488.00    1.14653   1.15939   93.236
 4489.00    1.13196   1.14914   92.279
 4490.00    1.12979   1.15249   -1.000
 4491.00    1.15925   1.16490   88.361
 4492.00    1.16515   1.17206   89.642
 4493.00    1.16164   1.16718   92.392
 4494.00    1.14473   1.15869   94.406
 4495.00    1.12846   1.15577   -1.000
 4496.00    1.13802   1.15963   90.223
 4497.00    1.15125   1.16630   87.665
 4498.00    1.16738   1.17064   86.751
 4499.00    1.17517   1.16674   87.754
 4500.00    1.16495   1.15790   88.247
 4501.00    1.15989   1.15757   86.004
 4502.00    1.16504   1.17101   83.037
 4503.00    1.18641   1.19159   81.548
 4504.00    1.21133   1.20596   82.072
 4505.00    1.21560   1.20840   83.752
 4506.00    1.21550   1.20180   84.592
 4507.00    1.20356   1.19370   84.669
 4508.00    1.19403   1.19152   84.026
 4509.00    1.19260   1.19562   83.437
 4510.00    1.20183   1.20015   84.129
 4511.00    1.20234   1.19900   85.794
 4512.00    1.19080   1.19383   87.334
 4513.00    1.18592   1.18772   87.892
 4514.00    1.18449   1.18205   87.467
 4515.00    1.18023   1.17895   87.396
 4516.00    1.17728   1.17796   88.454
 4517.00    1.16911   1.17548   88.982
 4518.00    1.16571   1.17024   87.495
 4519.00    1.17635   1.16800   85.759
 4520.00    1.18072   1.17066   85.994
 4521.00    1.17052   1.17148   88.024
 4522.00    1.16445   1.16569   89.821
 4523.00    1.15425   1.15796   90.604
 4524.00    1.15255   1.15467   92.116
 4525.00    1.15227   1.15176   94.937
 4526.00    1.13522   1.14331   97.628
 4527.00    1.11922   1.12949   98.820
 4528.00    1.10703   1.11808   98.121
 4529.00    1.10644   1.11665   96.398
 4530.00    1.11772   1.12331   94.634
 4531.00    1.13085   1.12880   94.154
 4532.00    1.12737   1.12228   96.768
 4533.00    1.10724   1.10641  100.073
 4534.00    1.08705   1.09719   98.825
 4535.00    1.08664   1.10697   93.217
 4536.00    1.11959   1.13338   87.701
 4537.00    1.16665   1.16517   85.306
 4538.00    1.19741   1.18858   86.100
 4539.00    1.19297   1.19549   88.185
 4540.00    1.18087   1.19098   88.123
 4541.00    1.17786   1.18505   87.478
 4542.00    1.17990   1.18410   87.147
 4543.00    1.17084   1.18505  124.462
 4544.00    1.21884   1.18174   -2.000
 4545.00    0.88040   1.17639   -2.000
 4546.00    0.15006   1.17209   -2.000
 4547.00    0.00535   1.16234   -1.000
 4548.00    0.38275   1.14334   -1.000
 4549.00    0.79988   1.12705   -1.000
 4550.00    0.35800   1.13042   -1.000
 4551.00    1.09301   1.14852   -1.000
 4552.00    1.14504   1.15725   92.778
 4553.00    1.12905   1.14885   93.645
 4554.00    1.11780   1.13697   92.257
 4555.00    1.12163   1.13726   88.894
 4556.00    1.14571   1.15450   85.306
 4557.00    1.17834   1.17856   83.786
 4558.00    1.18941   1.19612   84.236
 4559.00    1.20291   1.20615   84.193
 4560.00    1.20567   1.21222   84.225
 4561.00    1.20713   1.21066   86.172
 4562.00    1.19579   1.19873   88.332
 4563.00    1.18150   1.18340   89.853
 4564.00    1.16326   1.17632   88.888
 4565.00    1.17699   1.18213   86.632
 4566.00    1.20051   1.19596   84.333
 4567.00    1.21345   1.20873   83.474
 4568.00    1.21691   1.21302   84.382
 4569.00    1.20716   1.20598   86.526
 4570.00    1.18858   1.19013   88.810
 4571.00    1.16476   1.17371   88.194
 4572.00    1.16565   1.17161   85.530
 4573.00    1.17969   1.18724   84.294
 4574.00    1.20168   1.20325   84.335
 4575.00    1.20920   1.20769   84.724
 4576.00    1.21152   1.20474   85.216
 4577.00    1.20425   1.20028   86.673
 4578.00    1.19638   1.19256   89.276
 4579.00    1.17397   1.17991   91.131
 4580.00    1.17012   1.16718   90.894
 4581.00    1.16591   1.15961   89.610
 4582.00    1.15974   1.15597   88.941
 4583.00    1.16353   1.15549   89.202
 4584.00    1.16360   1.16041   89.766
 4585.00    1.16913   1.16856   88.536
 4586.00    1.17287   1.17654   86.208
 4587.00    1.18955   1.18404   84.370
 4588.00    1.20434   1.18974   84.234
 4589.00    1.20911   1.19205   85.466
 4590.00    1.19949   1.19236   87.067
 4591.00    1.18087   1.18980   88.597
 4592.00    1.16955   1.18586   88.691
 4593.00    1.17350   1.18665   87.935
 4594.00    1.17986   1.19233   87.242
 4595.00    1.18915   1.19954   87.007
 4596.00    1.19963   1.20613   86.824
 4597.00    1.20791   1.20914   86.629
 4598.00    1.21017   1.20724   87.390
 4599.00    1.20524   1.20177   88.179
 4600.00    1.19559   1.19425   88.429
 4601.00    1.18371   1.18847   87.493
 4602.00    1.18107   1.18766   86.506
 4603.00    1.19491   1.19143   86.646
 4604.00    1.20718   1.19711   86.504
 4605.00    1.20240   1.20129   85.563
 4606.00    1.20178   1.20513   83.868
 4607.00    1.21858   1.21091   82.067
 4608.00    1.23322   1.21834   81.098
 4609.00    1.22936   1.22551   81.459
 4610.00    1.22974   1.22622   82.587
 4611.00    1.23646   1.22137   83.507
 4612.00    1.22761   1.21691   84.049
 4613.00    1.21551   1.21494   83.633
 4614.00    1.21810   1.21516   82.884
 4615.00    1.21928   1.21460   82.552
 4616.00    1.22063   1.21216   83.107
 4617.00    1.21953   1.20938   83.727
 4618.00    1.22181   1.20717   83.648
 4619.00    1.21496   1.20784   82.845
 4620.00    1.22108   1.21439   81.521
 4621.00    1.23150   1.22425   81.498
 4622.00    1.24357   1.23071   81.706
 4623.00    1.24242   1.23020   81.867
 4624.00    1.23282   1.22570   82.625
 4625.00    1.23226   1.22135   82.826
 4626.00    1.23355   1.21839   82.781
 4627.00    1.23782   1.21689   83.320
 4628.00    1.23152   1.21488   83.498
 4629.00    1.22449   1.21418   83.076
 4630.00    1.21930   1.21849   82.109
 4631.00    1.21564   1.22543   82.482
 4632.00    1.23408   1.22794   83.699
 4633.00    1.23165   1.22417   84.624
 4634.00    1.22592   1.21965   84.542
 4635.00    1.22737   1.21915   85.232
 4636.00    1.22265   1.21956   86.371
 4637.00    1.22021   1.21809   86.721
 4638.00    1.21795   1.21689   86.595
 4639.00    1.21306   1.21943   85.114
 4640.00    1.22435   1.22694   83.016
 4641.00    1.23848   1.23552   81.882
 4642.00    1.24948   1.24129   82.226
 4643.00    1.24382   1.24141   83.776
 4644.00    1.23911   1.23534   86.155
 4645.00    1.22679   1.22492   88.545
 4646.00    1.21840   1.21136   88.908
 4647.00    1.19918   1.20370   87.313
 4648.00    1.20521   1.20826   85.259
 4649.00    1.22068   1.21961   84.096
 4650.00    1.22487   1.22941   83.959
 4651.00    1.22041   1.23348   83.785
 4652.00    1.22806   1.23225   84.797
 4653.00    1.22423   1.22704   86.785
 4654.00    1.21737   1.21959   87.775
 4655.00    1.20537   1.21453   87.005
 4656.00    1.20241   1.21435   84.206
 4657.00    1.22384   1.22259   80.960
 4658.00    1.24431   1.24067   79.156
 4659.00    1.26520   1.25950   79.094
 4660.00    1.27613   1.26792   80.095
 4661.00    1.26413   1.26408   82.083
 4662.00    1.25234   1.25442   83.700
 4663.00    1.24653   1.24463   83.877
 4664.00    1.23849   1.23492   85.273
 4665.00    1.22638   1.22248   88.988
 4666.00    1.20859   1.20450   92.702
 4667.00    1.18717   1.18696   92.754
 4668.00    1.17091   1.18237   89.860
 4669.00    1.17894   1.19245   86.069
 4670.00    1.20873   1.20926   83.758
 4671.00    1.23404   1.22473   83.286
 4672.00    1.24513   1.23304   83.360
 4673.00    1.24116   1.23588   83.271
 4674.00    1.24287   1.23955   82.169
 4675.00    1.25583   1.24546   80.925
 4676.00    1.25514   1.24954   81.359
 4677.00    1.25883   1.24531   83.158
 4678.00    1.24626   1.23449   84.804
 4679.00    1.23049   1.22374   86.201
 4680.00    1.22499   1.21525   87.026
 4681.00    1.21867   1.21155   85.909
 4682.00    1.22289   1.21462   83.712
 4683.00    1.23881   1.22266   82.631
 4684.00    1.23933   1.23054   82.938
 4685.00    1.24810   1.23413   82.967
 4686.00    1.25530   1.23464   83.451
 4687.00    1.25469   1.23422   83.447
 4688.00    1.24309   1.23439   83.455
 4689.00    1.24891   1.23489   84.071
 4690.00    1.24591   1.23320   84.237
 4691.00    1.23567   1.23079   83.213
 4692.00    1.25194   1.23215   81.966
 4693.00    1.26659   1.23627   80.122
 4694.00    1.27473   1.23962   79.114
 4695.00    1.28450   1.24261   -1.000
 4696.00    1.28205   1.24316   -1.000
 4697.00    1.26502   1.23651   84.365
 4698.00    1.23910   1.22542   85.316
 4699.00    1.23348   1.21632   84.593
 4700.00    1.23878   1.21032   85.256
 4701.00    1.23312   1.20429   86.792
 4702.00    1.21503   1.19718   87.221
 4703.00    1.20811   1.19478   85.517
 4704.00    1.22286   1.20215   84.261
 4705.00    1.23544   1.21155   85.494
 4706.00    1.22994   1.21265   87.231
 4707.00    1.21805   1.20491   88.054
 4708.00    1.20975   1.19769   87.562
 4709.00    1.21357   1.20014   84.929
 4710.00    1.22504   1.21087   82.600
 4711.00    1.24992   1.22277   81.815
 4712.00    1.26405   1.22855   82.640
 4713.00    1.25862   1.22542   84.232
 4714.00    1.24449   1.22019   84.196
 4715.00    1.23908   1.22129   82.480
 4716.00    1.24594   1.23029   80.893
 4717.00    1.26152   1.24070   80.419
 4718.00    1.27556   1.24718   80.140
 4719.00    1.27892   1.25069   79.865
 4720.00    1.27768   1.25188   80.574
 4721.00    1.26826   1.25084   81.144
 4722.00    1.26295   1.24946   80.641
 4723.00    1.27103   1.25160   79.753
 4724.00    1.27537   1.25626   79.903
 4725.00    1.26917   1.25772   81.900
 4726.00    1.25266   1.25314   85.063
 4727.00    1.23768   1.24188   86.935
 4728.00    1.22981   1.22989   86.554
 4729.00    1.23220   1.22373   85.651
 4730.00    1.23736   1.22062   84.983
 4731.00    1.23533   1.22116   83.946
 4732.00    1.24914   1.22792   83.226
 4733.00    1.25444   1.23567   82.760
 4734.00    1.25679   1.23910   82.299
 4735.00    1.25898   1.23780   83.227
 4736.00    1.24732   1.23423   83.310
 4737.00    1.25306   1.23275   82.193
 4738.00    1.25735   1.23524   82.263
 4739.00    1.25141   1.23913   82.757
 4740.00    1.25379   1.24115   82.855
 4741.00    1.26362   1.24225   82.166
 4742.00    1.26535   1.24596   81.259
 4743.00    1.27075   1.25163   81.456
 4744.00    1.27774   1.25577   81.525
 4745.00    1.27300   1.25811   80.893
 4746.00    1.27490   1.26112   80.066
 4747.00    1.27726   1.26737   79.918
 4748.00    1.27686   1.27356   80.049
 4749.00    1.27488   1.27636   80.100
 4750.00    1.28134   1.27868   80.702
 4751.00    1.27363   1.27996   81.632
 4752.00    1.26728   1.27718   82.309
 4753.00    1.25440   1.27085   82.870
 4754.00    1.25029   1.26541   82.700
 4755.00    1.26209   1.26376   83.039
 4756.00    1.25679   1.26576   83.667
 4757.00    1.24992   1.26938   83.741
 4758.00    1.24901   1.27206   83.018
 4759.00    1.25919   1.27252   82.886
 4760.00    1.25883   1.26912   84.234
 4761.00    1.25113   1.25937   86.378
 4762.00    1.22951   1.24545   87.456
 4763.00    1.21568   1.23431   87.554
 4764.00    1.21964   1.23092   87.362
 4765.00    1.22934   1.23483   86.732
 4766.00    1.23610   1.24313   85.509
 4767.00    1.24121   1.25356   83.536
 4768.00    1.25355   1.26550   82.402
 4769.00    1.26822   1.27546   82.585
 4770.00    1.27160   1.27833   83.307
 4771.00    1.26190   1.27448   84.047
 4772.00    1.26273   1.27019   83.014
 4773.00    1.26370   1.27207   81.203
 4774.00    1.26513   1.27963   80.691
 4775.00    1.27296   1.28533   80.776
 4776.00    1.27593   1.28649   81.020
 4777.00    1.27718   1.28482   81.561
 4778.00    1.27193   1.27986   82.497
 4779.00    1.26533   1.27267   82.967
 4780.00    1.26117   1.26882   83.165
 4781.00    1.26000   1.27065   83.580
 4782.00    1.25531   1.27204   84.267
 4783.00    1.25700   1.26958   84.205
 4784.00    1.26277   1.26661   84.502
 4785.00    1.25705   1.26360   85.368
 4786.00    1.24814   1.25973   85.847
 4787.00    1.24704   1.25778   85.739
 4788.00    1.24054   1.25939   85.304
 4789.00    1.23731   1.26270   84.774
 4790.00    1.25225   1.26820   83.874
 4791.00    1.26831   1.27759   82.477
 4792.00    1.27353   1.28811   80.616
 4793.00    1.27508   1.29799   79.248
 4794.00    1.28843   1.30648   78.998
 4795.00    1.29355   1.30929   79.837
 4796.00    1.29195   1.30552   81.486
 4797.00    1.28442   1.29712   83.009
 4798.00    1.26246   1.28774   83.975
 4799.00    1.25977   1.28328   83.172
 4800.00    1.26397   1.28723   81.448
 4801.00    1.27664   1.29669   80.297
 4802.00    1.28413   1.30488   80.466
 4803.00    1.27808   1.30299   81.584
 4804.00    1.27300   1.29108   82.627
 4805.00    1.27026   1.28137   83.367
 4806.00    1.26934   1.27938   83.315
 4807.00    1.26696   1.28301   83.098
 4808.00    1.27032   1.28911   82.718
 4809.00    1.27706   1.29401   81.950
 4810.00    1.27709   1.29547   81.370
 4811.00    1.28443   1.29590   80.960
 4812.00    1.28188   1.29822   80.894
 4813.00    1.28019   1.30327   80.691
 4814.00    1.28495   1.30893   80.397
 4815.00    1.28724   1.31255   79.879
 4816.00    1.28767   1.31528   79.385
 4817.00    1.29248   1.31739   79.069
 4818.00    1.29498   1.31689   79.053
 4819.00    1.29142   1.31481   79.057
 4820.00    1.30030   1.31253   79.785
 4821.00    1.29243   1.30683   81.964
 4822.00    1.27770   1.29429   83.501
 4823.00    1.25969   1.27848   83.271
 4824.00    1.24363   1.27020   -1.000
 4825.00    1.26003   1.27476   80.485
 4826.00    1.27711   1.28482   80.888
 4827.00    1.28339   1.29051   81.875
 4828.00    1.28139   1.28949   82.364
 4829.00    1.27123   1.28625   82.319
 4830.00    1.27388   1.28451   83.120
 4831.00    1.27426   1.28201   83.233
 4832.00    1.26906   1.27962   81.834
 4833.00    1.27379   1.28036   80.758
 4834.00    1.28643   1.28307   80.492
 4835.00    1.28367   1.28538   80.643
 4836.00    1.27495   1.28523   81.040
 4837.00    1.27867   1.28447   82.185
 4838.00    1.26933   1.28248   83.677
 4839.00    1.25249   1.27763   83.663
 4840.00    1.24689   1.27357   83.477
 4841.00    1.24381   1.27274   83.046
 4842.00    1.25378   1.27244   82.416
 4843.00    1.25802   1.27105   81.583
 4844.00    1.25722   1.27038   80.277
 4845.00    1.26294   1.27282   79.902
 4846.00    1.26195   1.27473   81.622
 4847.00    1.25476   1.26907   82.821
 4848.00    1.24887   1.25968   82.760
 4849.00    1.23837   1.25513   81.545
 4850.00    1.23604   1.25488   81.398
 4851.00    1.23572   1.25344   81.892
 4852.00    1.24199   1.24776   82.601
 4853.00    1.22177   1.23446   85.161
 4854.00    1.18801   1.21107   87.574
 4855.00    1.16329   1.18509   87.262
 4856.00    1.15884   1.16665   86.344
 4857.00    1.14761   1.14878   88.861
 4858.00    1.13475   1.11011   96.795
 4859.00    1.07578   1.02814   -1.000
 4860.00    0.98514   0.92187   -1.000
 4861.00    0.92517   0.85477   -1.000
 4862.00    0.92095   0.87558   -1.000
 4863.00    1.00270   0.96742   90.785
 4864.00    1.07915   1.06198   87.657
 4865.00    1.11534   1.12565   85.851
 4866.00    1.15150   1.16410   85.111
 4867.00    1.17749   1.19125   84.762
 4868.00    1.19328   1.21052   85.547
 4869.00    1.19701   1.21627   88.048
 4870.00    1.17606   1.20564   -1.000
 4871.00    1.15721   1.18957   -1.000
 4872.00    1.15261   1.18683   -1.000
 4873.00    1.17004   1.20432   -1.000
 4874.00    1.20442   1.22831   84.580
 4875.00    1.22143   1.24372   84.126
 4876.00    1.22885   1.24870   83.853
 4877.00    1.22572   1.25079   82.585
 4878.00    1.22390   1.25807   -1.000
 4879.00    1.24271   1.27205   82.517
 4880.00    1.25214   1.28576   -1.000
 4881.00    1.24794   1.28762   -1.000
 4882.00    1.23689   1.27937   -1.000
 4883.00    1.23618   1.27298   -1.000
 4884.00    1.23109   1.27085   -1.000
 4885.00    1.23525   1.27095   -1.000
 4886.00    1.23210   1.27133   -1.000
 4887.00    1.22876   1.27167   -1.000
 4888.00    1.23667   1.26867   -1.000
 4889.00    1.22668   1.25851   -1.000
 4890.00    1.20862   1.24356   -1.000
 4891.00    1.20938   1.23704   -1.000
 4892.00    1.23560   1.25337   80.675
 4893.00    1.27559   1.28513   78.350
 4894.00    1.29451   1.31399   76.912
 4895.00    1.31496   1.33211   76.586
 4896.00    1.31329   1.34023   76.773
 4897.00    1.31789   1.34129   78.511
 4898.00    1.30858   1.33583   80.384
 4899.00    1.29235   1.32508   -1.000
 4900.00    1.27118   1.31585   -1.000
 4901.00    1.28304   1.31277   80.915
 4902.00    1.28768   1.31078   81.959
 4903.00    1.27881   1.30636   80.986
 4904.00    1.28375   1.30774   79.208
 4905.00    1.29788   1.32064   78.638
 4906.00    1.31652   1.33348   79.425
 4907.00    1.31321   1.33435   81.402
 4908.00    1.29754   1.32586   83.784
 4909.00    1.27799   1.31313   -1.000
 4910.00    1.26762   1.30114   -1.000
 4911.00    1.26218   1.29707   -1.000
 4912.00    1.27614   1.30333   80.941
 4913.00    1.29473   1.31396   79.889
 4914.00    1.29664   1.32412   79.198
 4915.00    1.31328   1.33081   79.625
 4916.00    1.31908   1.32781   82.527
 4917.00    1.28982   1.30893   87.141
 4918.00    1.25425   1.27588   91.273
 4919.00    1.21088   1.24124   -1.000
 4920.00    1.19252   1.22096   -1.000
 4921.00    1.20794   1.22457   85.789
 4922.00    1.22592   1.24166   84.590
 4923.00    1.24808   1.25407   84.548
 4924.00    1.25810   1.26142   83.425
 4925.00    1.26503   1.27591   81.196
 4926.00    1.28586   1.29806   79.773
 4927.00    1.30796   1.31812   79.049
 4928.00    1.31872   1.33204   78.515
 4929.00    1.32011   1.34086   78.050
 4930.00    1.32886   1.34347   78.878
 4931.00    1.31707   1.33637   81.094
 4932.00    1.29671   1.31719   84.071
 4933.00    1.27030   1.29217   84.167
 4934.00    1.25098   1.27868   82.596
 4935.00    1.26325   1.28482   82.613
 4936.00    1.28486   1.29447   85.154
 4937.00    1.27297   1.28974   87.481
 4938.00    1.25360   1.27539   86.593
 4939.00    1.25300   1.27020   83.554
 4940.00    1.26579   1.28317   80.885
 4941.00    1.28995   1.30856   79.435
 4942.00    1.30850   1.33184   78.740
 4943.00    1.32583   1.34396   78.830
 4944.00    1.33205   1.34621   79.410
 4945.00    1.32737   1.34234   79.559
 4946.00    1.31687   1.33892   78.806
 4947.00    1.32063   1.34091   77.868
 4948.00    1.33041   1.34820   77.657
 4949.00    1.33259   1.35466   77.332
 4950.00    1.33264   1.35607   77.765
 4951.00    1.33542   1.35419   78.309
 4952.00    1.33439   1.35107   79.233
 4953.00    1.32546   1.34761   80.237
 4954.00    1.32786   1.34040   82.453
 4955.00    1.31626   1.31996   86.798
 4956.00    1.27108   1.28243   90.213
 4957.00    1.22906   1.24743   88.178
 4958.00    1.23551   1.24544   83.024
 4959.00    1.27347   1.27689   80.251
 4960.00    1.31643   1.31450   79.714
 4961.00    1.32796   1.33785   80.124
 4962.00    1.32365   1.34603   80.778
 4963.00    1.32341   1.34552   81.758
 4964.00    1.31977   1.33845   83.520
 4965.00    1.31077   1.32652   84.568
 4966.00    1.29618   1.31629   84.549
 4967.00    1.29770   1.31286   84.288
 4968.00    1.30615   1.31349   83.647
 4969.00    1.30256   1.31732   82.741
 4970.00    1.30197   1.32510   81.852
 4971.00    1.30940   1.33374   80.871
 4972.00    1.32064   1.34069   80.121
 4973.00    1.33268   1.34569   79.822
 4974.00    1.33524   1.34701   80.413
 4975.00    1.33022   1.34514   81.275
 4976.00    1.32345   1.34131   82.394
 4977.00    1.31624   1.33457   83.744
 4978.00    1.30946   1.32804   84.769
 4979.00    1.30036   1.32216   86.002
 4980.00    1.28879   1.30923   88.900
 4981.00    1.26195   1.28693   91.743
 4982.00    1.23669   1.26228   -1.000
 4983.00    1.22255   1.24865   -1.000
 4984.00    1.23021   1.25398   87.269
 4985.00    1.25683   1.27224   84.495
 4986.00    1.27977   1.29491   82.455
 4987.00    1.29798   1.31656   82.613
 4988.00    1.31262   1.32826   83.867
 4989.00    1.30197   1.32429   84.704
 4990.00    1.29016   1.31208   84.701
 4991.00    1.28626   1.30353   83.925
 4992.00    1.29860   1.30488   83.589
 4993.00    1.29469   1.31111   83.553
 4994.00    1.29681   1.31780   83.108
 4995.00    1.30775   1.32581   82.713
 4996.00    1.32067   1.33241   83.257
 4997.00    1.31985   1.33128   84.407
 4998.00    1.30492   1.31786   86.125
 4999.00    1.28481   1.29361   87.164
 5000.00    1.26750   1.27586   87.175
 5001.00    1.26352   1.27723   86.324
 5002.00    1.27871   1.28742   85.800
 5003.00    1.28265   1.29506   87.111
 5004.00    1.27231   1.29127   89.338
 5005.00    1.26103   1.27503   89.725
 5006.00    1.25363   1.25989   87.429
 5007.00    1.25357   1.26350   84.779
 5008.00    1.28370   1.28324   83.971
 5009.00    1.30439   1.30070   85.167
 5010.00    1.29782   1.30438   87.797
 5011.00    1.28262   1.29259   91.096
 5012.00    1.25577   1.27311   93.122
 5013.00    1.23154   1.25701   -1.000
 5014.00    1.22299   1.25296   -1.000
 5015.00    1.23724   1.26019   88.599
 5016.00    1.25562   1.26726   88.280
 5017.00    1.25301   1.26482   88.286
 5018.00    1.24853   1.25893   87.254
 5019.00    1.26068   1.26600   86.576
 5020.00    1.27911   1.28331   86.992
 5021.00    1.28353   1.29500   87.160
 5022.00    1.27976   1.29879   86.627
 5023.00    1.28505   1.30351   85.704
 5024.00    1.29505   1.31434   85.164
 5025.00    1.29978   1.32410   85.604
 5026.00    1.29882   1.32503   85.983
 5027.00    1.29032   1.32037   85.134
 5028.00    1.28609   1.31823   -1.000
 5029.00    1.30639   1.32052   82.326
 5030.00    1.31411   1.32539   80.992
 5031.00    1.31815   1.33335   80.100
 5032.00    1.33357   1.34300   80.332
 5033.00    1.33045   1.34636   83.017
 5034.00    1.31791   1.33748   86.298
 5035.00    1.29201   1.32071   87.632
 5036.00    1.27892   1.30835   87.927
 5037.00    1.27411   1.30553   -1.000
 5038.00    1.27154   1.30054   -1.000
 5039.00    1.24500   1.28147   -1.000
 5040.00    1.22261   1.25396   -1.000
 5041.00    1.20891   1.24022   -1.000
 5042.00    1.22407   1.25515   -1.000
 5043.00    1.27015   1.28843   82.298
 5044.00    1.30766   1.32191   80.573
 5045.00    1.32941   1.34606   77.596
 5046.00    1.34400   1.35808   74.409
 5047.00    1.39578   1.35580   23.260
 5048.00    0.75427   1.33963   -1.000
 5049.00    0.07835   1.31716   -1.000
 5050.00    0.85352   1.29864   -1.000
 5051.00    1.35363   1.29066   -1.000
 5052.00    1.29090   1.29852   82.304
 5053.00    1.31563   1.32074   80.847
 5054.00    1.33374   1.34347   80.119
 5055.00    1.34571   1.35546   79.891
 5056.00    1.34835   1.36016   80.053
 5057.00    1.34854   1.36257   80.195
 5058.00    1.34401   1.36476   80.139
 5059.00    1.34829   1.36688   79.593
 5060.00    1.35271   1.36863   79.695
 5061.00    1.35301   1.36981   80.852
 5062.00    1.34981   1.36629   83.283
 5063.00    1.33277   1.35295   86.215
 5064.00    1.30531   1.33387   87.059
 5065.00    1.28285   1.32088   -1.000
 5066.00    1.29600   1.31977   84.639
 5067.00    1.31055   1.32380   84.405
 5068.00    1.31131   1.32588   83.992
 5069.00    1.32205   1.32794   83.475
 5070.00    1.32709   1.33178   84.200
 5071.00    1.32511   1.33269   84.804
 5072.00    1.32722   1.32842   83.705
 5073.00    1.32156   1.32463   83.085
 5074.00    1.32332   1.32502   82.997
 5075.00    1.32379   1.32766   82.965
 5076.00    1.32535   1.32838   83.886
 5077.00    1.31369   1.32176   86.949
 5078.00    1.29724   1.30482   91.038
 5079.00    1.27352   1.28564   91.844
 5080.00    1.25379   1.27940   89.790
 5081.00    1.26445   1.28675   87.899
 5082.00    1.28089   1.29582   86.726
 5083.00    1.29335   1.30343   85.071
 5084.00    1.30755   1.31516   83.651
 5085.00    1.32268   1.33018   83.107
 5086.00    1.33895   1.34076   82.999
 5087.00    1.33548   1.34459   82.560
 5088.00    1.33566   1.34597   81.960
 5089.00    1.34299   1.34920   81.515
 5090.00    1.34906   1.35354   81.072
 5091.00    1.34745   1.35767   80.121
 5092.00    1.35833   1.36331   79.469
 5093.00    1.36010   1.36905   80.296
 5094.00    1.35531   1.37042   82.021
 5095.00    1.34959   1.36304   83.806
 5096.00    1.33688   1.34771   85.840
 5097.00    1.32211   1.33055   87.565
 5098.00    1.30564   1.31613   87.672
 5099.00    1.30228   1.31181   85.399
 5100.00    1.31533   1.32169   82.979
 5101.00    1.32906   1.33774   82.375
 5102.00    1.34335   1.34917   82.937
 5103.00    1.34402   1.35243   84.059
 5104.00    1.33759   1.35000   85.119
 5105.00    1.32740   1.34248   86.161
 5106.00    1.30955   1.32810   87.192
 5107.00    1.29526   1.31289   86.986
 5108.00    1.28954   1.30646   86.407
 5109.00    1.29905   1.30847   85.755
 5110.00    1.30574   1.31615   84.501
 5111.00    1.32226   1.32965   83.474
 5112.00    1.33439   1.34550   82.468
 5113.00    1.34095   1.35746   81.749
 5114.00    1.35045   1.36442   81.305
 5115.00    1.35187   1.36890   80.433
 5116.00    1.35714   1.37381   79.811
 5117.00    1.36387   1.37820   80.126
 5118.00    1.37321   1.37919   81.221
 5119.00    1.37046   1.37529   82.459
 5120.00    1.35488   1.36677   83.864
 5121.00    1.33530   1.35487   86.082
 5122.00    1.32321   1.34054   88.609
 5123.00    1.30434   1.32595   89.062
 5124.00    1.29547   1.31715   88.224
 5125.00    1.28781   1.31714   -1.000
 5126.00    1.29747   1.31981   87.308
 5127.00    1.30443   1.31931   87.455
 5128.00    1.30232   1.31716   87.313
 5129.00    1.30407   1.31780   86.106
 5130.00    1.31001   1.32389   84.656
 5131.00    1.32872   1.33355   83.998
 5132.00    1.33622   1.34211   83.193
 5133.00    1.33527   1.34830   82.489
 5134.00    1.34278   1.35268   82.385
 5135.00    1.34839   1.35370   83.982
 5136.00    1.34099   1.34845   86.022
 5137.00    1.33146   1.33601   87.296
 5138.00    1.30468   1.32114   87.309
 5139.00    1.29058   1.31276   86.554
 5140.00    1.29640   1.31476   87.310
 5141.00    1.29963   1.32034   88.674
 5142.00    1.29203   1.32261   88.009
 5143.00    1.29557   1.32582   86.539
 5144.00    1.31292   1.33419   86.356
 5145.00    1.31826   1.34093   87.189
 5146.00    1.31889   1.34025   87.304
 5147.00    1.32424   1.33748   86.198
 5148.00    1.32372   1.33793   85.825
 5149.00    1.32325   1.33753   86.996
 5150.00    1.32323   1.33070   88.561
 5151.00    1.31028   1.32007   89.035
 5152.00    1.29569   1.31403   88.463
 5153.00    1.30426   1.31537   86.678
 5154.00    1.32366   1.32180   84.446
 5155.00    1.32609   1.33498   82.330
 5156.00    1.34264   1.35297   80.868
 5157.00    1.36267   1.36819   80.349
 5158.00    1.36891   1.37663   80.380
 5159.00    1.37302   1.37948   80.674
 5160.00    1.37640   1.37809   81.173
 5161.00    1.36177   1.37286   82.133
 5162.00    1.35642   1.36534   83.529
 5163.00    1.34346   1.35576   87.025
 5164.00    1.32797   1.33553   94.550
 5165.00    1.27812   1.29092  104.395
 5166.00    1.21020   1.22313   -1.000
 5167.00    1.15353   1.16453  107.720
 5168.00    1.14682   1.15067  101.588
 5169.00    1.17749   1.17861  100.897
 5170.00    1.21392   1.20483  107.873
 5171.00    1.19352   1.19471  114.546
 5172.00    1.14105   1.17038   -1.000
 5173.00    1.14834   1.17881   -1.000
 5174.00    1.21383   1.23253   89.142
 5175.00    1.29342   1.29647   86.136
 5176.00    1.34429   1.33674   85.309
 5177.00    1.36130   1.35352   85.234
 5178.00    1.35959   1.35858   86.261
 5179.00    1.35497   1.35571   89.591
 5180.00    1.34688   1.33905   96.500
 5181.00    1.30763   1.29751  107.802
 5182.00    1.22321   1.23507   -1.000
 5183.00    1.14323   1.18238   -1.000
 5184.00    1.13173   1.17827   -1.000
 5185.00    1.20066   1.22712   -1.000
 5186.00    1.27953   1.28589   86.008
 5187.00    1.31906   1.31909   85.373
 5188.00    1.32948   1.32856   85.116
 5189.00    1.32706   1.32998   86.216
 5190.00    1.32269   1.32581   89.047
 5191.00    1.30551   1.31181   91.288
 5192.00    1.27991   1.29743   90.360
 5193.00    1.27725   1.29575   88.773
 5194.00    1.29726   1.30481   87.475
 5195.00    1.31320   1.31498   86.166
 5196.00    1.32403   1.32452   84.420
 5197.00    1.34311   1.33552   83.049
 5198.00    1.35529   1.34788   82.448
 5199.00    1.36576   1.35885   82.448
 5200.00    1.36432   1.36462   83.211
 5201.00    1.36067   1.36180   84.798
 5202.00    1.35621   1.34858   86.812
 5203.00    1.33630   1.32553   89.594
 5204.00    1.31680   1.29728   92.187
 5205.00    1.29659   1.27541   92.387
 5206.00    1.28979   1.26765   92.900
 5207.00    1.29105   1.26885   93.337
 5208.00    1.29560   1.27038   91.744
 5209.00    1.30994   1.27706   88.606
 5210.00    1.32522   1.29918   85.007
 5211.00    1.34616   1.33119   81.793
 5212.00    1.36697   1.35956   80.361
 5213.00    1.37932   1.37374   81.474
 5214.00    1.37972   1.36896   83.402
 5215.00    1.36314   1.35312   84.241
 5216.00    1.34452   1.34152   83.361
 5217.00    1.35152   1.34589   81.530
 5218.00    1.37166   1.36413   80.371
 5219.00    1.39239   1.38415   79.808
 5220.00    1.40094   1.39780   79.597
 5221.00    1.40580   1.40412   80.809
 5222.00    1.40713   1.40221   83.432
 5223.00    1.38984   1.38895   86.971
 5224.00    1.35264   1.36073   90.970
 5225.00    1.30772   1.31881   93.061
 5226.00    1.27631   1.28080   90.575
 5227.00    1.27383   1.27331   85.443
 5228.00    1.31117   1.30172   82.175
 5229.00    1.35337   1.34196   80.920
 5230.00    1.37550   1.36637   80.996
 5231.00    1.38389   1.36676   82.737
 5232.00    1.37338   1.35176   84.076
 5233.00    1.34616   1.33651   83.657
 5234.00    1.34118   1.33695   81.627
 5235.00    1.36622   1.35462   79.750
 5236.00    1.39081   1.37787   78.977
 5237.00    1.40271   1.39530   78.978
 5238.00    1.39936   1.40256   79.220
 5239.00    1.40634   1.40352   79.028
 5240.00    1.41277   1.40287   78.584
 5241.00    1.40713   1.40162   78.722
 5242.00    1.40757   1.40061   78.542
 5243.00    1.41006   1.40202   78.547
 5244.00    1.40791   1.40511   80.306
 5245.00    1.40672   1.40286   82.840
 5246.00    1.38796   1.39059   84.593
 5247.00    1.36928   1.37536   84.693
 5248.00    1.36261   1.36675   84.881
 5249.00    1.35721   1.36368   85.381
 5250.00    1.35911   1.36169   84.851
 5251.00    1.35438   1.36357   83.650
 5252.00    1.36761   1.36959   82.911
 5253.00    1.37423   1.37381   82.931
 5254.00    1.37068   1.37466   82.184
 5255.00    1.37230   1.37779   80.151
 5256.00    1.39317   1.38911   78.082
 5257.00    1.41039   1.40488   77.597
 5258.00    1.42047   1.41489   78.522
 5259.00    1.42050   1.41309   80.865
 5260.00    1.39956   1.39771   84.414
 5261.00    1.36077   1.37049   88.383
 5262.00    1.32531   1.33934   91.270
 5263.00    1.30895   1.31149   92.942
 5264.00    1.29214   1.29152   92.939
 5265.00    1.28069   1.28400   91.197
 5266.00    1.29050   1.28825   89.859
 5267.00    1.29981   1.29319   92.194
 5268.00    1.29101   1.28104   95.600
 5269.00    1.26932   1.25573   93.306
 5270.00    1.26408   1.24848   87.598
 5271.00    1.29094   1.27750   84.185
 5272.00    1.33500   1.32034   83.575
 5273.00    1.36334   1.34588   83.650
 5274.00    1.36522   1.35234   83.317
 5275.00    1.36144   1.35445   81.514
 5276.00    1.37023   1.36480   78.752
 5277.00    1.39704   1.38565   77.530
 5278.00    1.42167   1.40552   78.240
 5279.00    1.42653   1.41085   80.235
 5280.00    1.41270   1.39953   82.284
 5281.00    1.39027   1.38069   83.653
 5282.00    1.37067   1.36304   83.813
 5283.00    1.36279   1.35482   81.903
 5284.00    1.36643   1.36344   79.336
 5285.00    1.37480   1.38754   76.996
 5286.00    1.37557   1.41444   76.623
 5287.00    1.43566   1.43025   77.055
 5288.00    1.43581   1.43521   76.974
 5289.00    1.42972   1.43657   76.518
 5290.00    1.43751   1.43640   76.430
 5291.00    1.43611   1.43417   76.944
 5292.00    1.43545   1.43195   77.716
 5293.00    1.43142   1.43028   78.861
 5294.00    1.42489   1.42547   81.160
 5295.00    1.41378   1.41277   84.269
 5296.00    1.39294   1.39146   86.215
 5297.00    1.35965   1.37025   85.339
 5298.00    1.35485   1.36201   83.121
 5299.00    1.37523   1.36986   81.707
 5300.00    1.38898   1.38337   81.209
 5301.00    1.38462   1.39284   80.064
 5302.00    1.39737   1.40044   77.884
 5303.00    1.41206   1.41184   76.612
 5304.00    1.43134   1.42414   76.579
 5305.00    1.43904   1.42985   77.383
 5306.00    1.43658   1.42755   77.940
 5307.00    1.42529   1.42328   77.321
 5308.00    1.42911   1.42392   76.519
 5309.00    1.44983   1.43039   76.105
 5310.00    1.45182   1.43711   76.250
 5311.00    1.44621   1.43918   76.695
 5312.00    1.44608   1.43702   77.038
 5313.00    1.44651   1.43167   77.634
 5314.00    1.44217   1.42208   78.411
 5315.00    1.42445   1.40893   79.039
 5316.00    1.40205   1.39786   78.960
 5317.00    1.40300   1.39764   78.356
 5318.00    1.41941   1.40854   78.100
 5319.00    1.42910   1.42087   78.455
 5320.00    1.43038   1.42623   79.059
 5321.00    1.42083   1.42206   80.060
 5322.00    1.41458   1.40900   81.437
 5323.00    1.39993   1.39123   82.068
 5324.00    1.38612   1.37839   82.191
 5325.00    1.38715   1.37035   84.900
 5326.00    1.36381   1.35160   90.373
 5327.00    1.32742   1.31714   92.416
 5328.00    1.30193   1.29081   88.212
 5329.00    1.32200   1.30214   83.057
 5330.00    1.36694   1.34509   80.724
 5331.00    1.39903   1.38430   79.993
 5332.00    1.41138   1.40232   79.209
 5333.00    1.41933   1.40837   78.331
 5334.00    1.43226   1.41201   78.116
 5335.00    1.44181   1.41331   78.678
 5336.00    1.42777   1.41135   79.218
 5337.00    1.42184   1.40702   80.223
 5338.00    1.41847   1.39892   82.283
 5339.00    1.40463   1.38523   83.468
 5340.00    1.38049   1.37205   82.470
 5341.00    1.38179   1.37243   80.208
 5342.00    1.41173   1.38871   78.969
 5343.00    1.43041   1.40593   79.114
 5344.00    1.43921   1.41220   79.664
 5345.00    1.42612   1.40870   80.163
 5346.00    1.42221   1.40148   80.579
 5347.00    1.41149   1.39576   81.282
 5348.00    1.40697   1.39223   81.288
 5349.00    1.41098   1.39250   79.862
 5350.00    1.41326   1.40109   78.049
 5351.00    1.43145   1.41481   77.215
 5352.00    1.43660   1.42629   76.980
 5353.00    1.44077   1.43255   76.304
 5354.00    1.45508   1.43749   75.341
 5355.00    1.46711   1.44487   74.871
 5356.00    1.46937   1.45167   74.988
 5357.00    1.47514   1.45483   75.120
 5358.00    1.47536   1.45478   75.468
 5359.00    1.47184   1.45214   76.440
 5360.00    1.46431   1.44622   77.737
 5361.00    1.44379   1.43678   78.802
 5362.00    1.42813   1.42603   79.302
 5363.00    1.41839   1.41604   79.760
 5364.00    1.41358   1.40802   80.167
 5365.00    1.41126   1.40471   79.889
 5366.00    1.41763   1.40617   79.993
 5367.00    1.41531   1.40723   80.991
 5368.00    1.41184   1.40078   83.151
 5369.00    1.39871   1.38275   85.480
 5370.00    1.37724   1.35835   85.196
 5371.00    1.36446   1.34452   81.744
 5372.00    1.37744   1.35683   78.113
 5373.00    1.41745   1.38903   76.475
 5374.00    1.45117   1.42049   -1.000
 5375.00    1.46809   1.43796   -1.000
 5376.00    1.47241   1.44281   -1.000
 5377.00    1.46226   1.44374   76.560
 5378.00    1.46201   1.44358   77.061
 5379.00    1.45295   1.44001   77.849
 5380.00    1.44253   1.43291   78.574
 5381.00    1.43679   1.42467   78.880
 5382.00    1.42211   1.41860   78.761
 5383.00    1.42728   1.41708   78.312
 5384.00    1.43968   1.42156   77.507
 5385.00    1.44883   1.43181   77.467
 5386.00    1.45857   1.44212   77.897
 5387.00    1.45549   1.44620   78.732
 5388.00    1.44963   1.44253   79.940
 5389.00    1.44086   1.43306   80.748
 5390.00    1.42816   1.42267   81.032
 5391.00    1.42511   1.41440   81.071
 5392.00    1.41854   1.40796   81.378
 5393.00    1.41105   1.40396   82.063
 5394.00    1.40440   1.40073   83.251
 5395.00    1.40104   1.39119   84.810
 5396.00    1.39804   1.37371   84.433
 5397.00    1.38900   1.36323   81.735
 5398.00    1.39966   1.37288   79.612
 5399.00    1.41346   1.39518   79.353
 5400.00    1.42448   1.41364   79.595
 5401.00    1.43304   1.42057   80.463
 5402.00    1.42407   1.41519   83.091
 5403.00    1.40344   1.39573   85.644
 5404.00    1.37588   1.36778   86.555
 5405.00    1.36347   1.34771   85.342
 5406.00    1.37606   1.34975   83.591
 5407.00    1.39869   1.36809   83.128
 5408.00    1.40987   1.38219   83.845
 5409.00    1.39855   1.38277   83.124
 5410.00    1.39085   1.38192   80.806
 5411.00    1.39724   1.39335   79.080
 5412.00    1.41772   1.41053   78.438
 5413.00    1.43552   1.42004   78.551
 5414.00    1.44202   1.42071   78.508
 5415.00    1.43437   1.42126   77.875
 5416.00    1.43856   1.42733   77.487
 5417.00    1.44714   1.43483   77.928
 5418.00    1.44814   1.43849   78.704
 5419.00    1.44742   1.43891   79.052
 5420.00    1.43716   1.43785   78.667
 5421.00    1.44310   1.43484   78.522
 5422.00    1.44160   1.42920   79.706
 5423.00    1.43559   1.42094   80.203
 5424.00    1.42841   1.41522   79.155
 5425.00    1.42840   1.42000   77.965
 5426.00    1.43987   1.43233   78.576
 5427.00    1.44483   1.43588   80.960
 5428.00    1.42460   1.42006   83.291
 5429.00    1.39825   1.39805   83.019
 5430.00    1.38998   1.39112   81.575
 5431.00    1.40795   1.39906   81.818
 5432.00    1.42393   1.40439   83.061
 5433.00    1.41035   1.39649   83.839
 5434.00    1.39299   1.38493   83.255
 5435.00    1.39374   1.38695   81.409
 5436.00    1.41313   1.40485   79.179
 5437.00    1.43505   1.42850   77.639
 5438.00    1.45275   1.44711   76.650
 5439.00    1.46925   1.45702   76.110
 5440.00    1.47801   1.46225   76.038
 5441.00    1.47920   1.46588   76.139
 5442.00    1.47677   1.46647   77.167
 5443.00    1.46416   1.45940   79.475
 5444.00    1.44243   1.43965   82.789
 5445.00    1.41070   1.40861   85.042
 5446.00    1.38270   1.38055   83.859
 5447.00    1.38463   1.37376   81.035
 5448.00    1.41046   1.39145   79.001
 5449.00    1.44239   1.41862   78.468
 5450.00    1.46418   1.43855   78.618
 5451.00    1.46972   1.44562   79.490
 5452.00    1.46601   1.44095   81.508
 5453.00    1.45516   1.42510   83.821
 5454.00    1.42127   1.40022   85.200
 5455.00    1.39213   1.38027   83.477
 5456.00    1.40073   1.38315   80.526
 5457.00    1.43629   1.40870   78.612
 5458.00    1.46449   1.43708   78.488
 5459.00    1.46873   1.45151   79.596
 5460.00    1.47131   1.45129   81.090
 5461.00    1.45878   1.44178   82.061
 5462.00    1.43606   1.42889   82.266
 5463.00    1.43153   1.42105   81.121
 5464.00    1.44105   1.42380   80.264
 5465.00    1.44702   1.43291   79.868
 5466.00    1.45962   1.44116   78.996
 5467.00    1.46769   1.44633   78.859
 5468.00    1.47094   1.44993   79.709
 5469.00    1.46634   1.45261   80.471
 5470.00    1.46576   1.45189   80.721
 5471.00    1.45760   1.44742   81.206
 5472.00    1.45959   1.44169   82.118
 5473.00    1.45071   1.43479   83.391
 5474.00    1.43368   1.42343   85.174
 5475.00    1.41685   1.40611   86.177
 5476.00    1.39608   1.38971   84.951
 5477.00    1.39938   1.38857   82.326
 5478.00    1.42177   1.40597   81.147
 5479.00    1.44134   1.42559   82.014
 5480.00    1.43966   1.43330   82.900
 5481.00    1.43741   1.43185   82.455
 5482.00    1.43553   1.43119   80.868
 5483.00    1.43916   1.43757   79.323
 5484.00    1.45159   1.44845   78.914
 5485.00    1.45928   1.45547   79.861
 5486.00    1.45594   1.45437   80.947
 5487.00    1.44417   1.44802   81.289
 5488.00    1.44161   1.44231   81.189
 5489.00    1.44927   1.44109   80.560
 5490.00    1.45679   1.44423   80.014
 5491.00    1.46061   1.44928   79.809
 5492.00    1.45711   1.45315   80.010
 5493.00    1.45752   1.45412   80.016
 5494.00    1.46338   1.45227   80.082
 5495.00    1.46739   1.44651   80.726
 5496.00    1.45887   1.43660   81.150
 5497.00    1.43999   1.42835   80.551
 5498.00    1.44406   1.42913   79.809
 5499.00    1.45550   1.43412   80.690
 5500.00    1.45742   1.43243   81.888
 5501.00    1.44909   1.42435   81.797
 5502.00    1.44701   1.42111   81.123
 5503.00    1.44993   1.42739   81.181
 5504.00    1.45631   1.43180   82.365
 5505.00    1.45227   1.42519   82.923
 5506.00    1.44117   1.41472   81.936
 5507.00    1.43845   1.41306   80.705
 5508.00    1.44514   1.42404   80.576
 5509.00    1.45475   1.43686   81.330
 5510.00    1.45459   1.43960   82.996
 5511.00    1.44637   1.43278   84.246
 5512.00    1.42443   1.42312   84.691
 5513.00    1.42385   1.41728   83.455
 5514.00    1.43686   1.41881   81.986
 5515.00    1.45220   1.42671   80.724
 5516.00    1.46687   1.43792   79.200
 5517.00    1.47084   1.44973   78.061
 5518.00    1.48538   1.45902   78.016
 5519.00    1.49272   1.46368   -1.000
 5520.00    1.48521   1.46384   78.335
 5521.00    1.49381   1.46256   -1.000
 5522.00    1.48987   1.46311   -1.000
 5523.00    1.47862   1.46352   79.361
 5524.00    1.47784   1.45938   80.604
 5525.00    1.47252   1.44593   82.572
 5526.00    1.45235   1.42390   84.491
 5527.00    1.41498   1.40310   84.471
 5528.00    1.40318   1.39608   82.380
 5529.00    1.42696   1.40886   80.333
 5530.00    1.45602   1.43220   79.568
 5531.00    1.46823   1.44943   79.921
 5532.00    1.46708   1.45262   80.671
 5533.00    1.46344   1.44601   80.929
 5534.00    1.45261   1.43846   80.535
 5535.00    1.44860   1.43821   79.906
 5536.00    1.45542   1.44555   79.736
 5537.00    1.46834   1.45372   79.304
 5538.00    1.47890   1.45930   78.510
 5539.00    1.48393   1.46322   78.000
 5540.00    1.49151   1.46668   78.211
 5541.00    1.48740   1.46777   79.090
 5542.00    1.47827   1.46450   79.796
 5543.00    1.46861   1.45918   79.882
 5544.00    1.46350   1.45649   79.628
 5545.00    1.47393   1.45783   79.409
 5546.00    1.47971   1.46058   78.832
 5547.00    1.48479   1.46455   78.041
 5548.00    1.49245   1.47141   77.472
 5549.00    1.50252   1.47776   77.425
 5550.00    1.49864   1.47953   77.932
 5551.00    1.49287   1.47722   78.668
 5552.00    1.49586   1.47371   79.516
 5553.00    1.48902   1.47023   79.770
 5554.00    1.48012   1.46769   79.588
 5555.00    1.48462   1.46733   79.343
 5556.00    1.48482   1.46842   79.226
 5557.00    1.48668   1.46984   79.131
 5558.00    1.49018   1.47129   79.085
 5559.00    1.50086   1.47320   79.316
 5560.00    1.49826   1.47359   79.806
 5561.00    1.49227   1.46986   80.623
 5562.00    1.48793   1.46411   81.107
 5563.00    1.46913   1.46045   81.297
 5564.00    1.45979   1.45941   81.447
 5565.00    1.46961   1.45805   81.485
 5566.00    1.46914   1.45503   81.289
 5567.00    1.47008   1.45198   81.181
 5568.00    1.46913   1.44876   81.414
 5569.00    1.45298   1.44678   81.331
 5570.00    1.44943   1.44636   81.385
 5571.00    1.44366   1.44276   81.557
 5572.00    1.41214   1.43820   81.065
 5573.00    1.29053   1.43866   -1.000
 5574.00    1.01555   1.44401   -1.000
 5575.00    1.02249   1.45051   -1.000
 5576.00    1.19492   1.45570   -1.000
 5577.00    1.48084   1.46046   79.094
 5578.00    1.95636   1.46545   -1.000
 5579.00    1.95222   1.46887   -1.000
 5580.00    1.61544   1.46816   -1.000
 5581.00    1.49717   1.46536   -1.000
 5582.00    1.48756   1.46447   80.206
 5583.00    1.47792   1.46479   80.932
 5584.00    1.48657   1.46050   82.913
 5585.00    1.46860   1.44570   84.998
 5586.00    1.43225   1.42336   86.683
 5587.00    1.41257   1.40404   86.951
 5588.00    1.40869   1.39633   85.682
 5589.00    1.41405   1.40168   84.144
 5590.00    1.42646   1.41660   83.147
 5591.00    1.44116   1.43236   83.076
 5592.00    1.44525   1.44020   83.331
 5593.00    1.44833   1.44011   82.629
 5594.00    1.44771   1.44003   81.451
 5595.00    1.45114   1.44627   81.060
 5596.00    1.46410   1.45177   82.075
 5597.00    1.46609   1.44752   83.484
 5598.00    1.45419   1.43881   84.157
 5599.00    1.44662   1.43332   84.098
 5600.00    1.44591   1.42774   84.629
 5601.00    1.44253   1.42096   84.732
 5602.00    1.42718   1.42133   83.009
 5603.00    1.43696   1.43351   80.713
 5604.00    1.46564   1.45357   79.053
 5605.00    1.49177   1.47270   78.318
 5606.00    1.50504   1.48456   78.266
 5607.00    1.51194   1.48973   78.414
 5608.00    1.51428   1.49129   78.539
 5609.00    1.51437   1.49230   78.407
 5610.00    1.51215   1.49428   78.246
 5611.00    1.50911   1.49516   78.885
 5612.00    1.50525   1.48959   80.827
 5613.00    1.49360   1.47278   83.615
 5614.00    1.46638   1.44708   85.013
 5615.00    1.44163   1.42858   83.834
 5616.00    1.44289   1.43122   81.845
 5617.00    1.46480   1.44856   80.968
 5618.00    1.48364   1.46486   80.835
 5619.00    1.48953   1.47316   80.434
 5620.00    1.49192   1.47669   80.154
 5621.00    1.49682   1.47860   80.782
 5622.00    1.49522   1.47689   82.500
 5623.00    1.48185   1.46954   83.693
 5624.00    1.46708   1.46147   82.960
 5625.00    1.46496   1.45992   81.497
 5626.00    1.47476   1.46618   80.388
 5627.00    1.48973   1.47452   79.534
 5628.00    1.50778   1.48112   79.041
 5629.00    1.51981   1.48594   -1.000
 5630.00    1.52316   1.48891   -1.000
 5631.00    1.51978   1.48993   -1.000
 5632.00    1.51708   1.48845   -1.000
 5633.00    1.50815   1.48633   80.003
 5634.00    1.50935   1.48457   80.515
 5635.00    1.49639   1.48122   81.112
 5636.00    1.48245   1.47663   81.564
 5637.00    1.48962   1.47316   81.498
 5638.00    1.49461   1.47187   81.468
 5639.00    1.49093   1.47140   81.747
 5640.00    1.48668   1.46965   81.698
 5641.00    1.48709   1.46788   81.324
 5642.00    1.49090   1.46932   80.986
 5643.00    1.48563   1.47306   80.809
 5644.00    1.48928   1.47612   80.250
 5645.00    1.49116   1.47823   80.070
 5646.00    1.49897   1.47959   79.874
 5647.00    1.50282   1.48032   79.820
 5648.00    1.51163   1.48074   -1.000
 5649.00    1.50453   1.48042   79.874
 5650.00    1.49876   1.48098   79.244
 5651.00    1.50536   1.48320   79.175
 5652.00    1.51037   1.48497   -1.000
 5653.00    1.50307   1.48484   80.286
 5654.00    1.50195   1.48213   81.203
 5655.00    1.49565   1.47491   83.018
 5656.00    1.47710   1.45922   85.481
 5657.00    1.45118   1.43929   86.259
 5658.00    1.43781   1.42926   84.632
 5659.00    1.44100   1.43504   83.000
 5660.00    1.45712   1.44784   82.930
 5661.00    1.46603   1.45560   82.910
 5662.00    1.46864   1.45859   81.817
 5663.00    1.47330   1.46592   80.786
 5664.00    1.48498   1.47640   80.689
 5665.00    1.49607   1.48102   81.204
 5666.00    1.48818   1.47705   81.621
 5667.00    1.48370   1.47011   81.623
 5668.00    1.49465   1.46734   81.327
 5669.00    1.50043   1.47011   -1.000
 5670.00    1.49790   1.47535   79.994
 5671.00    1.49926   1.48084   79.185
 5672.00    1.50766   1.48575   78.567
 5673.00    1.51459   1.48939   78.717
 5674.00    1.52110   1.49109   -1.000
 5675.00    1.51934   1.49190   -1.000
 5676.00    1.51063   1.49333   78.611
 5677.00    1.51504   1.49470   79.057
 5678.00    1.51747   1.49418   79.389
 5679.00    1.51233   1.49105   79.961
 5680.00    1.50526   1.48511   80.954
 5681.00    1.49772   1.47628   81.772
 5682.00    1.48561   1.46652   81.745
 5683.00    1.47458   1.46064   81.225
 5684.00    1.47730   1.46214   81.018
 5685.00    1.48463   1.46794   81.591
 5686.00    1.48306   1.47111   82.491
 5687.00    1.46887   1.46932   82.452
 5688.00    1.46998   1.46641   81.290
 5689.00    1.48123   1.46713   79.866
 5690.00    1.49207   1.47363   79.245
 5691.00    1.50812   1.48294   -1.000
 5692.00    1.51696   1.49026   -1.000
 5693.00    1.51974   1.49384   -1.000
 5694.00    1.52048   1.49509   -1.000
 5695.00    1.51648   1.49523   79.313
 5696.00    1.50880   1.49453   80.189
 5697.00    1.50479   1.49215   81.089
 5698.00    1.49403   1.48668   81.805
 5699.00    1.49143   1.47964   82.616
 5700.00    1.48237   1.47349   82.743
 5701.00    1.47146   1.47018   81.971
 5702.00    1.46636   1.47169   81.218
 5703.00    1.47910   1.47685   81.238
 5704.00    1.48045   1.48049   81.978
 5705.00    1.47523   1.47921   83.277
 5706.00    1.46686   1.47273   84.825
 5707.00    1.45752   1.46199   85.956
 5708.00    1.44492   1.44951   86.227
 5709.00    1.42769   1.44001   85.821
 5710.00    1.42795   1.43822   84.695
 5711.00    1.43874   1.44531   82.784
 5712.00    1.45527   1.45840   80.852
 5713.00    1.47996   1.47224   79.889
 5714.00    1.50005   1.48216   79.723
 5715.00    1.51088   1.48772   79.536
 5716.00    1.51214   1.49153   79.249
 5717.00    1.51275   1.49430   78.819
 5718.00    1.51653   1.49661   78.323
 5719.00    1.51825   1.49966   78.010
 5720.00    1.52137   1.50317   77.855
 5721.00    1.52663   1.50572   77.745
 5722.00    1.53132   1.50719   -1.000
 5723.00    1.53224   1.50838   -1.000
 5724.00    1.52870   1.50812   78.764
 5725.00    1.52477   1.50376   79.574
 5726.00    1.51813   1.49653   79.973
 5727.00    1.51090   1.49165   79.409
 5728.00    1.51460   1.49114   79.076
 5729.00    1.52377   1.49376   -1.000
 5730.00    1.52018   1.49663   -1.000
 5731.00    1.51212   1.49779   79.214
 5732.00    1.51972   1.49887   78.446
 5733.00    1.52293   1.50278   78.099
 5734.00    1.52751   1.50766   78.236
 5735.00    1.53414   1.50917   -1.000
 5736.00    1.52872   1.50863   78.574
 5737.00    1.52293   1.50787   78.629
 5738.00    1.51839   1.50716   78.808
 5739.00    1.52149   1.50755   78.928
 5740.00    1.52262   1.50845   79.044
 5741.00    1.52151   1.50804   78.832
 5742.00    1.51504   1.50674   78.677
 5743.00    1.51546   1.50711   78.061
 5744.00    1.51860   1.50941   77.836
 5745.00    1.52261   1.51086   78.432
 5746.00    1.52917   1.50924   79.151
 5747.00    1.52100   1.50606   79.235
 5748.00    1.51619   1.50568   78.728
 5749.00    1.52047   1.50851   78.696
 5750.00    1.52705   1.50944   79.485
 5751.00    1.52435   1.50517   80.451
 5752.00    1.50515   1.49667   81.067
 5753.00    1.49328   1.48979   80.748
 5754.00    1.49122   1.49093   79.511
 5755.00    1.50414   1.49946   78.099
 5756.00    1.51981   1.50985   77.478
 5757.00    1.52813   1.51804   77.972
 5758.00    1.53152   1.52121   78.940
 5759.00    1.52827   1.51793   79.997
 5760.00    1.52048   1.51008   80.957
 5761.00    1.51081   1.50063   81.015
 5762.00    1.50756   1.49458   79.884
 5763.00    1.50535   1.49756   78.496
 5764.00    1.51107   1.50812   77.741
 5765.00    1.52645   1.51761   77.608
 5766.00    1.54094   1.52154   77.527
 5767.00    1.54105   1.52177   77.446
 5768.00    1.53249   1.52080   77.661
 5769.00    1.52538   1.51969   77.961
 5770.00    1.52319   1.51830   78.427
 5771.00    1.52622   1.51667   78.858
 5772.00    1.51787   1.51436   78.999
 5773.00    1.51191   1.51123   79.036
 5774.00    1.51062   1.50740   78.792
 5775.00    1.49749   1.50525   78.438
 5776.00    1.48999   1.50615   78.471
 5777.00    1.48228   1.50625   78.934
 5778.00    1.46051   1.50287   80.319
 5779.00    1.45148   1.49664   82.047
 5780.00    1.45312   1.48900   82.765
 5781.00    1.46599   1.48261   82.457
 5782.00    1.48021   1.48028   82.137
 5783.00    1.48470   1.48174   81.845
 5784.00    1.48602   1.48439   81.416
 5785.00    1.49310   1.48679   80.400
 5786.00    1.50371   1.49017   79.414
 5787.00    1.51300   1.49501   79.001
 5788.00    1.52006   1.49980   79.215
 5789.00    1.52409   1.50255   79.497
 5790.00    1.52188   1.50209   79.208
 5791.00    1.51860   1.50180   78.524
 5792.00    1.51916   1.50550   78.019
 5793.00    1.51764   1.51263   77.639
 5794.00    1.52940   1.51988   77.739
 5795.00    1.53167   1.52341   78.265
 5796.00    1.52100   1.52137   78.580
 5797.00    1.52226   1.51689   77.977
 5798.00    1.52219   1.51604   76.908
 5799.00    1.53635   1.51996   76.032
 5800.00    1.54866   1.52510   -1.000
 5801.00    1.54991   1.52886   -1.000
 5802.00    1.55058   1.52948   -1.000
 5803.00    1.53962   1.52649   77.998
 5804.00    1.53507   1.52302   78.202
 5805.00    1.53303   1.52191   77.945
 5806.00    1.53167   1.52358   77.658
 5807.00    1.53373   1.52671   77.482
 5808.00    1.53789   1.52860   77.487
 5809.00    1.54431   1.52911   77.354
 5810.00    1.54526   1.52978   77.053
 5811.00    1.55140   1.53062   -1.000
 5812.00    1.55696   1.53059   -1.000
 5813.00    1.55615   1.52847   -1.000
 5814.00    1.55089   1.52427   -1.000
 5815.00    1.55313   1.52007   -1.000
 5816.00    1.55317   1.51951   -1.000
 5817.00    1.55008   1.52389   -1.000
 5818.00    1.55625   1.52932   -1.000
 5819.00    1.56270   1.53232   -1.000
 5820.00    1.56425   1.53326   -1.000
 5821.00    1.56509   1.53384   -1.000
 5822.00    1.57044   1.53430   -1.000
 5823.00    1.57053   1.53406   -1.000
 5824.00    1.56683   1.53335   -1.000
 5825.00    1.57028   1.53352   -1.000
 5826.00    1.57204   1.53523   -1.000
 5827.00    1.57325   1.53738   -1.000
 5828.00    1.57244   1.53952   -1.000
 5829.00    1.57063   1.54060   -1.000
 5830.00    1.57125   1.54003   -1.000
 5831.00    1.56757   1.53909   -1.000
 5832.00    1.56567   1.53767   -1.000
 5833.00    1.57629   1.53537   -1.000
 5834.00    1.57070   1.53319   -1.000
 5835.00    1.57059   1.53283   -1.000
 5836.00    1.57193   1.53457   -1.000
 5837.00    1.56514   1.53690   -1.000
 5838.00    1.56533   1.53909   -1.000
 5839.00    1.56674   1.54103   -1.000
 5840.00    1.56903   1.54218   -1.000
 5841.00    1.56892   1.54218   -1.000
 5842.00    1.56903   1.54049   -1.000
 5843.00    1.56945   1.53745   -1.000
 5844.00    1.56673   1.53445   -1.000
 5845.00    1.56393   1.53182   -1.000
 5846.00    1.55377   1.52945   -1.000
 5847.00    1.55340   1.52794   -1.000
 5848.00    1.55391   1.52732   -1.000
 5849.00    1.55893   1.52609   -1.000
 5850.00    1.56327   1.52289   -1.000
 5851.00    1.55087   1.51609   -1.000
 5852.00    1.54114   1.50732   -1.000
 5853.00    1.53642   1.50199   -1.000
 5854.00    1.52805   1.50097   -1.000
 5855.00    1.52636   1.49810   -1.000
 5856.00    1.52371   1.48873   -1.000
 5857.00    1.52316   1.47929   -1.000
 5858.00    1.52775   1.47943   -1.000
 5859.00    1.53403   1.48910   -1.000
 5860.00    1.54463   1.50045   -1.000
 5861.00    1.54641   1.50789   -1.000
 5862.00    1.54919   1.51197   -1.000
 5863.00    1.55169   1.51453   -1.000
 5864.00    1.55256   1.51480   -1.000
 5865.00    1.54980   1.51136   -1.000
 5866.00    1.54554   1.50727   -1.000
 5867.00    1.55051   1.50749   -1.000
 5868.00    1.56062   1.51261   -1.000
 5869.00    1.56311   1.51933   -1.000
 5870.00    1.56586   1.52425   -1.000
 5871.00    1.56764   1.52534   -1.000
 5872.00    1.56655   1.52329   -1.000
 5873.00    1.56385   1.52024   -1.000
 5874.00    1.56293   1.51706   -1.000
 5875.00    1.56461   1.51450   -1.000
 5876.00    1.56587   1.51319   -1.000
 5877.00    1.56329   1.51120   -1.000
 5878.00    1.55437   1.50695   -1.000
 5879.00    1.54964   1.50227   -1.000
 5880.00    1.54528   1.49896   -1.000
 5881.00    1.54174   1.49629   -1.000
 5882.00    1.54102   1.49253   -1.000
 5883.00    1.53394   1.48723   -1.000
 5884.00    1.52424   1.48132   -1.000
 5885.00    1.49070   1.47487   81.499
 5886.00    1.42084   1.46068   85.188
 5887.00    1.31605   1.42511   -1.000
 5888.00    1.22358   1.36766   -1.000
 5889.00    1.22311   1.31828   -1.000
 5890.00    1.29343   1.30997   92.839
 5891.00    1.37045   1.33915   89.421
 5892.00    1.38377   1.37284   88.569
 5893.00    1.34131   1.38196   -1.000
 5894.00    1.29310   1.36332   -1.000
 5895.00    1.29985   1.33942   -1.000
 5896.00    1.35463   1.33982   88.071
 5897.00    1.42271   1.36791   -1.000
 5898.00    1.47681   1.40248   -1.000
 5899.00    1.49980   1.43041   -1.000
 5900.00    1.51715   1.45179   -1.000
 5901.00    1.52946   1.46846   -1.000
 5902.00    1.53505   1.48029   -1.000
 5903.00    1.54281   1.48741   -1.000
 5904.00    1.54381   1.49113   -1.000
 5905.00    1.54517   1.49376   -1.000
 5906.00    1.54796   1.49578   -1.000
 5907.00    1.54924   1.49723   -1.000
 5908.00    1.54685   1.49937   -1.000
 5909.00    1.54341   1.50191   -1.000
 5910.00    1.54536   1.50301   -1.000
 5911.00    1.54299   1.50143   -1.000
 5912.00    1.53894   1.49628   -1.000
 5913.00    1.52654   1.48842   -1.000
 5914.00    1.51491   1.48159   -1.000
 5915.00    1.51412   1.47895   -1.000
 5916.00    1.51408   1.48042   -1.000
 5917.00    1.51678   1.48489   -1.000
 5918.00    1.53001   1.49089   -1.000
 5919.00    1.52787   1.49534   -1.000
 5920.00    1.53581   1.49731   -1.000
 5921.00    1.53551   1.49806   -1.000
 5922.00    1.53638   1.49815   -1.000
 5923.00    1.53859   1.49894   -1.000
 5924.00    1.54550   1.50208   -1.000
 5925.00    1.55568   1.50628   -1.000
 5926.00    1.55885   1.50943   -1.000
 5927.00    1.55959   1.50930   -1.000
 5928.00    1.55035   1.50466   -1.000
 5929.00    1.53918   1.49936   -1.000
 5930.00    1.53584   1.49864   -1.000
 5931.00    1.53795   1.50203   -1.000
 5932.00    1.54379   1.50531   -1.000
 5933.00    1.54729   1.50559   -1.000
 5934.00    1.54226   1.50389   -1.000
 5935.00    1.53823   1.50378   -1.000
 5936.00    1.54201   1.50657   -1.000
 5937.00    1.54245   1.50961   -1.000
 5938.00    1.54155   1.50912   -1.000
 5939.00    1.53673   1.50489   -1.000
 5940.00    1.52525   1.50023   -1.000
 5941.00    1.52533   1.49735   -1.000
 5942.00    1.52842   1.49642   -1.000
 5943.00    1.52694   1.49873   -1.000
 5944.00    1.53270   1.50327   -1.000
 5945.00    1.53419   1.50618   -1.000
 5946.00    1.53943   1.50542   -1.000
 5947.00    1.53293   1.50189   -1.000
 5948.00    1.51997   1.49989   81.511
 5949.00    1.52152   1.50208   81.063
 5950.00    1.52977   1.50495   -1.000
 5951.00    1.53210   1.50567   -1.000
 5952.00    1.52721   1.50517   80.981
 5953.00    1.53254   1.50487   -1.000
 5954.00    1.53900   1.50405   -1.000
 5955.00    1.53646   1.50126   -1.000
 5956.00    1.52747   1.49864   -1.000
 5957.00    1.53087   1.49908   -1.000
 5958.00    1.53784   1.50342   -1.000
 5959.00    1.54674   1.50968   -1.000
 5960.00    1.55894   1.51518   -1.000
 5961.00    1.55411   1.51886   -1.000
 5962.00    1.55669   1.52000   -1.000
 5963.00    1.55583   1.51850   -1.000
 5964.00    1.55185   1.51502   -1.000
 5965.00    1.54414   1.51118   -1.000
 5966.00    1.53978   1.50960   -1.000
 5967.00    1.54498   1.51100   -1.000
 5968.00    1.55449   1.51353   -1.000
 5969.00    1.55717   1.51631   -1.000
 5970.00    1.55539   1.51922   -1.000
 5971.00    1.56193   1.52089   -1.000
 5972.00    1.56087   1.52066   -1.000
 5973.00    1.55401   1.51966   -1.000
 5974.00    1.54195   1.51705   -1.000
 5975.00    1.52881   1.51176   81.243
 5976.00    1.53039   1.50678   -1.000
 5977.00    1.53257   1.50489   -1.000
 5978.00    1.53439   1.50734   -1.000
 5979.00    1.54263   1.51270   -1.000
 5980.00    1.54944   1.51692   -1.000
 5981.00    1.55251   1.51707   -1.000
 5982.00    1.54472   1.51255   -1.000
 5983.00    1.53338   1.50626   -1.000
 5984.00    1.52505   1.50283   81.488
 5985.00    1.52439   1.50434   80.670
 5986.00    1.53456   1.50857   -1.000
 5987.00    1.53905   1.51279   -1.000
 5988.00    1.54693   1.51590   -1.000
 5989.00    1.54623   1.51696   -1.000
 5990.00    1.54729   1.51641   -1.000
 5991.00    1.54786   1.51713   -1.000
 5992.00    1.54765   1.52164   -1.000
 5993.00    1.55675   1.52825   -1.000
 5994.00    1.55499   1.53193   -1.000
 5995.00    1.54940   1.53048   -1.000
 5996.00    1.55309   1.52631   -1.000
 5997.00    1.55206   1.52310   -1.000
 5998.00    1.54799   1.52280   -1.000
 5999.00    1.54918   1.52363   -1.000
 6000.00    1.54757   1.52281   -1.000
 6001.00    1.54745   1.52038   -1.000
 6002.00    1.54481   1.51772   -1.000
 6003.00    1.53770   1.51657   80.816
 6004.00    1.53895   1.51682   -1.000
 6005.00    1.53399   1.51505   81.760
 6006.00    1.52499   1.50964   82.386
 6007.00    1.51905   1.50415   82.015
 6008.00    1.51485   1.50408   80.998
 6009.00    1.52079   1.51057   80.420
 6010.00    1.53771   1.51770   80.717
 6011.00    1.54579   1.51990   -1.000
 6012.00    1.54252   1.51874   -1.000
 6013.00    1.53705   1.51799   81.115
 6014.00    1.54357   1.51894   -1.000
 6015.00    1.54631   1.51926   -1.000
 6016.00    1.54087   1.51769   -1.000
 6017.00    1.54259   1.51580   -1.000
 6018.00    1.54251   1.51356   -1.000
 6019.00    1.54150   1.51111   -1.000
 6020.00    1.53057   1.50957   -1.000
 6021.00    1.52713   1.50925   81.262
 6022.00    1.52446   1.50971   81.156
 6023.00    1.52284   1.51138   80.948
 6024.00    1.53297   1.51557   80.479
 6025.00    1.54631   1.52137   -1.000
 6026.00    1.55196   1.52612   -1.000
 6027.00    1.55094   1.52934   -1.000
 6028.00    1.55658   1.53203   -1.000
 6029.00    1.56243   1.53382   -1.000
 6030.00    1.56361   1.53495   -1.000
 6031.00    1.55709   1.53606   -1.000
 6032.00    1.55458   1.53706   -1.000
 6033.00    1.56574   1.53864   -1.000
 6034.00    1.56722   1.54109   -1.000
 6035.00    1.57135   1.54275   -1.000
 6036.00    1.56423   1.54146   -1.000
 6037.00    1.56530   1.53782   -1.000
 6038.00    1.56559   1.53373   -1.000
 6039.00    1.56046   1.52996   -1.000
 6040.00    1.55795   1.52796   -1.000
 6041.00    1.55844   1.52532   -1.000
 6042.00    1.56119   1.51944   -1.000
 6043.00    1.56156   1.52005   -1.000
 6044.00    1.56132   1.53075   -1.000
 6045.00    1.56856   1.54040   -1.000
 6046.00    1.57397   1.54407   -1.000
 6047.00    1.57256   1.54507   -1.000
 6048.00    1.57787   1.54492   -1.000
 6049.00    1.57255   1.54358   -1.000
 6050.00    1.57101   1.54226   -1.000
 6051.00    1.57182   1.54104   -1.000
 6052.00    1.56398   1.53978   -1.000
 6053.00    1.56058   1.53787   -1.000
 6054.00    1.56460   1.53467   -1.000
 6055.00    1.56405   1.53143   -1.000
 6056.00    1.56017   1.52991   -1.000
 6057.00    1.55524   1.53022   -1.000
 6058.00    1.55961   1.53163   -1.000
 6059.00    1.56473   1.53424   -1.000
 6060.00    1.56654   1.53653   -1.000
 6061.00    1.56035   1.53558   -1.000
 6062.00    1.53491   1.52920   81.724
 6063.00    1.48747   1.51862   88.154
 6064.00    1.52829   1.50909   64.115
 6065.00    1.76228   1.50697   -1.000
 6066.00    1.83384   1.51476   -1.000
 6067.00    1.53113   1.52694   79.489
 6068.00    1.44139   1.53639   -1.000
 6069.00    1.51561   1.54170   76.957
 6070.00    1.52707   1.54452   76.814
 6071.00    1.61369   1.54614   -1.000
 6072.00    1.60006   1.54765   -1.000
 6073.00    1.57567   1.54853   -1.000
 6074.00    1.57592   1.54768   -1.000
 6075.00    1.56859   1.54474   -1.000
 6076.00    1.56954   1.54050   -1.000
 6077.00    1.56472   1.53664   -1.000
 6078.00    1.55649   1.53422   -1.000
 6079.00    1.55051   1.53296   -1.000
 6080.00    1.54847   1.53153   -1.000
 6081.00    1.54883   1.52906   -1.000
 6082.00    1.54853   1.52701   -1.000
 6083.00    1.54426   1.52692   81.230
 6084.00    1.54559   1.52815   -1.000
 6085.00    1.54677   1.52991   -1.000
 6086.00    1.54527   1.53247   80.622
 6087.00    1.54909   1.53523   80.930
 6088.00    1.55315   1.53619   -1.000
 6089.00    1.54861   1.53440   81.625
 6090.00    1.54528   1.53074   81.407
 6091.00    1.54414   1.52844   80.868
 6092.00    1.54606   1.52975   80.470
 6093.00    1.54891   1.53371   80.034
 6094.00    1.55819   1.53827   -1.000
 6095.00    1.56245   1.54198   -1.000
 6096.00    1.56165   1.54499   -1.000
 6097.00    1.56011   1.54725   80.115
 6098.00    1.55747   1.54715   80.387
 6099.00    1.55251   1.54203   81.741
 6100.00    1.54349   1.52962   83.660
 6101.00    1.52955   1.51134   -1.000
 6102.00    1.50594   1.49711   83.264
 6103.00    1.50918   1.49706   81.687
 6104.00    1.52488   1.50888   80.772
 6105.00    1.53952   1.52242   -1.000
 6106.00    1.54415   1.53195   81.082
 6107.00    1.54469   1.53830   81.196
 6108.00    1.54665   1.54320   81.099
 6109.00    1.55009   1.54613   80.859
 6110.00    1.54241   1.54588   80.581
 6111.00    1.54781   1.54400   80.487
 6112.00    1.55156   1.54337   80.073
 6113.00    1.55004   1.54460   80.057
 6114.00    1.55598   1.54628   80.480
 6115.00    1.55118   1.54691   80.912
 6116.00    1.54873   1.54683   81.056
 6117.00    1.54823   1.54526   81.711
 6118.00    1.55070   1.53630   82.945
 6119.00    1.53885   1.52071   -1.000
 6120.00    1.52040   1.50295   84.478
 6121.00    1.50275   1.48694   84.053
 6122.00    1.49548   1.48492   82.630
 6123.00    1.50206   1.49867   81.914
 6124.00    1.52095   1.51512   82.135
 6125.00    1.53006   1.52654   82.487
 6126.00    1.53195   1.53210   82.292
 6127.00    1.53277   1.53283   81.971
 6128.00    1.53353   1.53324   81.217
 6129.00    1.54201   1.53820   80.619
 6130.00    1.54024   1.54561   80.608
 6131.00    1.54054   1.55084   80.965
 6132.00    1.54122   1.55200   82.102
 6133.00    1.53901   1.54578   84.239
 6134.00    1.51553   1.52761   86.684
 6135.00    1.48941   1.49953   88.259
 6136.00    1.46754   1.47694   87.589
 6137.00    1.45971   1.47502   85.083
 6138.00    1.47320   1.48942   83.103
 6139.00    1.49468   1.50251   82.642
 6140.00    1.50257   1.50518   82.876
 6141.00    1.49857   1.50627   82.711
 6142.00    1.49828   1.51533   81.728
 6143.00    1.51403   1.52839   80.995
 6144.00    1.53718   1.53730   81.108
 6145.00    1.54130   1.53958   81.565
 6146.00    1.53522   1.53749   82.116
 6147.00    1.53612   1.53301   82.684
 6148.00    1.53555   1.52817   83.013
 6149.00    1.53358   1.52545   82.878
 6150.00    1.52560   1.52597   82.466
 6151.00    1.51813   1.52924   82.003
 6152.00    1.52370   1.53288   82.192
 6153.00    1.52757   1.53343   82.889
 6154.00    1.52603   1.53015   83.165
 6155.00    1.52210   1.52611   83.276
 6156.00    1.52069   1.52300   83.819
 6157.00    1.52342   1.52017   84.974
 6158.00    1.51608   1.51486   86.950
 6159.00    1.50370   1.50020   89.662
 6160.00    1.48745   1.47371   91.725
 6161.00    1.46029   1.44664   91.749
 6162.00    1.43898   1.43552   89.823
 6163.00    1.44293   1.44387   87.576
 6164.00    1.46379   1.46056   86.653
 6165.00    1.48437   1.47469   86.543
 6166.00    1.49320   1.48260   87.091
 6167.00    1.48690   1.48323   88.248
 6168.00    1.47085   1.47715   88.633
 6169.00    1.45867   1.47219   87.495
 6170.00    1.46905   1.47631   85.848
 6171.00    1.48569   1.48743   85.099
 6172.00    1.49799   1.49825   85.306
 6173.00    1.50617   1.50591   85.267
 6174.00    1.50866   1.51192   85.044
 6175.00    1.51173   1.51588   84.872
 6176.00    1.51627   1.51751   84.574
 6177.00    1.51632   1.51871   84.169
 6178.00    1.51883   1.51950   83.891
 6179.00    1.51773   1.51979   83.587
 6180.00    1.51924   1.52145   83.237
 6181.00    1.52460   1.52446   83.164
 6182.00    1.52726   1.52638   83.409
 6183.00    1.53067   1.52656   83.826
 6184.00    1.52843   1.52562   84.615
 6185.00    1.52373   1.52268   85.550
 6186.00    1.52355   1.51761   86.402
 6187.00    1.51505   1.51185   87.158
 6188.00    1.50833   1.50375   87.923
 6189.00    1.49740   1.49099   88.964
 6190.00    1.48565   1.47771   88.968
 6191.00    1.47562   1.47411   87.431
 6192.00    1.47985   1.48412   85.375
 6193.00    1.49963   1.49960   84.353
 6194.00    1.51036   1.51182   84.035
 6195.00    1.51733   1.51922   84.151
 6196.00    1.52044   1.52285   84.908
 6197.00    1.51561   1.52173   85.846
 6198.00    1.51233   1.51584   86.261
 6199.00    1.50887   1.51085   85.849
 6200.00    1.49645   1.51239   84.834
 6201.00    1.49327   1.51857   84.013
 6202.00    1.51081   1.52520   83.952
 6203.00    1.51602   1.52999   83.924
 6204.00    1.52249   1.53258   83.804
 6205.00    1.53625   1.53402   83.925
 6206.00    1.53654   1.53509   84.183
 6207.00    1.54027   1.53581   84.247
 6208.00    1.53813   1.53538   84.800
 6209.00    1.52823   1.53286   85.582
 6210.00    1.51947   1.52818   86.282
 6211.00    1.51448   1.52069   87.302
 6212.00    1.50862   1.51042   88.549
 6213.00    1.49462   1.50119   89.170
 6214.00    1.48899   1.49652   88.892
 6215.00    1.49013   1.49582   87.807
 6216.00    1.49819   1.49598   87.840
 6217.00    1.50790   1.49435   88.305
 6218.00    1.50067   1.49140   87.738
 6219.00    1.49245   1.49031   87.448
 6220.00    1.49283   1.49354   89.941
 6221.00    1.49961   1.49936   94.269
 6222.00    1.48809   1.50312   89.532
 6223.00    1.42174   1.50436   -1.000
 6224.00    1.49249   1.50575   86.947
 6225.00    1.52284   1.50737   87.098
 6226.00    1.51247   1.50745   87.869
 6227.00    1.51212   1.50278   89.226
 6228.00    1.50123   1.49103   90.621
 6229.00    1.48640   1.47576   91.245
 6230.00    1.47404   1.46567   90.395
 6231.00    1.47586   1.46693   88.885
 6232.00    1.48369   1.47798   87.243
 6233.00    1.49170   1.49219   86.179
 6234.00    1.50834   1.50326   86.196
 6235.00    1.52382   1.50755   86.962
 6236.00    1.52283   1.50553   87.864
 6237.00    1.51744   1.50025   88.768
 6238.00    1.51094   1.49485   89.539
 6239.00    1.49549   1.49155   89.715
 6240.00    1.48764   1.49051   89.867
 6241.00    1.48722   1.48953   90.590
 6242.00    1.48921   1.48572   90.956
 6243.00    1.48538   1.47913   90.663
 6244.00    1.47743   1.47223   89.936
 6245.00    1.47941   1.46925   88.933
 6246.00    1.48621   1.47433   87.842
 6247.00    1.49492   1.48590   87.215
 6248.00    1.50513   1.49746   87.496
 6249.00    1.50963   1.50280   88.651
 6250.00    1.50743   1.49850   90.200
 6251.00    1.49564   1.48690   91.081
 6252.00    1.47811   1.47582   91.545
 6253.00    1.46511   1.47089   91.673
 6254.00    1.46167   1.47147   91.887
 6255.00    1.46291   1.47361   92.817
 6256.00    1.46664   1.47398   93.235
 6257.00    1.46839   1.47388   92.387
 6258.00    1.47102   1.47698   90.911
 6259.00    1.47619   1.48383   89.601
 6260.00    1.48413   1.49196   88.340
 6261.00    1.49242   1.49992   87.248
 6262.00    1.49795   1.50657   87.271
 6263.00    1.50066   1.50949   88.032
 6264.00    1.50144   1.50924   88.275
 6265.00    1.50381   1.50946   87.704
 6266.00    1.50547   1.51217   87.357
 6267.00    1.50226   1.51411   87.808
 6268.00    1.50028   1.51235   88.073
 6269.00    1.50524   1.50884   87.840
 6270.00    1.50743   1.50675   87.556
 6271.00    1.50362   1.50644   87.502
 6272.00    1.50202   1.50497   87.906
 6273.00    1.49989   1.49882   88.604
 6274.00    1.47991   1.48703   89.548
 6275.00    1.45041   1.47303   91.327
 6276.00    1.42704   1.46094   93.512
 6277.00    1.41493   1.45363   94.770
 6278.00    1.40921   1.45134   94.957
 6279.00    1.40134   1.45297   -1.000
 6280.00    1.39724   1.45921   -1.000
 6281.00    1.39283   1.47012   -1.000
 6282.00    1.40069   1.48364   -1.000
 6283.00    1.42017   1.49642   -1.000
 6284.00    1.44149   1.50555   -1.000
 6285.00    1.46274   1.51073   87.260
 6286.00    1.47792   1.51374   86.813
 6287.00    1.48840   1.51486   86.885
 6288.00    1.49235   1.51266   87.495
 6289.00    1.49799   1.50812   88.230
 6290.00    1.50291   1.50426   88.718
 6291.00    1.49829   1.50228   88.820
 6292.00    1.50006   1.50120   88.935
 6293.00    1.49259   1.49976   89.273
 6294.00    1.47310   1.49690   89.984
 6295.00    1.45245   1.49166   90.411
 6296.00    1.42145   1.48582   -1.000
 6297.00    1.37943   1.48271   -1.000
 6298.00    1.34567   1.48331   -1.000
 6299.00    1.39708   1.48420   -1.000
 6300.00    1.51700   1.48255   -1.000
 6301.00    1.59719   1.48213   -1.000
 6302.00    1.57830   1.48737   -1.000
 6303.00    1.51041   1.49657   88.656
 6304.00    1.50326   1.50457   87.711
 6305.00    1.50424   1.50927   86.971
 6306.00    1.50078   1.51267   86.383
 6307.00    1.50409   1.51579   86.474
 6308.00    1.51076   1.51824   86.964
 6309.00    1.51541   1.51999   87.487
 6310.00    1.50942   1.52010   87.806
 6311.00    1.49976   1.51824   88.082
 6312.00    1.49373   1.51513   88.376
 6313.00    1.48440   1.51122   89.104
 6314.00    1.47720   1.50743   89.243
 6315.00    1.47435   1.50456   89.147
 6316.00    1.46891   1.50146   89.132
 6317.00    1.46425   1.49841   89.127
 6318.00    1.46482   1.50003   88.507
 6319.00    1.47552   1.50746   87.441
 6320.00    1.48877   1.51516   86.783
 6321.00    1.49646   1.51992   86.506
 6322.00    1.49836   1.52416   86.155
 6323.00    1.49946   1.52969   85.736
 6324.00    1.50509   1.53411   85.560
 6325.00    1.51339   1.53535   85.404
 6326.00    1.51271   1.53482   85.106
 6327.00    1.51393   1.53407   85.230
 6328.00    1.51372   1.53352   85.282
 6329.00    1.52177   1.53374   85.219
 6330.00    1.52252   1.53534   84.932
 6331.00    1.52209   1.53736   84.933
 6332.00    1.51771   1.53618   85.189
 6333.00    1.50580   1.52901   85.979
 6334.00    1.44638   1.51735   -1.000
 6335.00    1.39785   1.50854   -1.000
 6336.00    1.46354   1.50878   86.423
 6337.00    1.48119   1.51566   85.511
 6338.00    1.49706   1.52383   84.737
 6339.00    1.50645   1.53056   84.368
 6340.00    1.50970   1.53502   84.107
 6341.00    1.51043   1.53657   84.445
 6342.00    1.50683   1.53468   85.054
 6343.00    1.50266   1.53040   84.995
 6344.00    1.49964   1.52685   84.662
 6345.00    1.50141   1.52624   84.141
 6346.00    1.49815   1.52907   83.630
 6347.00    1.49753   1.53479   83.448
 6348.00    1.50252   1.54180   83.424
 6349.00    1.50725   1.54760   83.308
 6350.00    1.51128   1.55020   83.504
 6351.00    1.51041   1.54926   83.893
 6352.00    1.50894   1.54541   84.472
 6353.00    1.50237   1.54012   85.416
 6354.00    1.49372   1.53586   85.895
 6355.00    1.48671   1.53368   85.950
 6356.00    1.48004   1.53182   86.468
 6357.00    1.47550   1.52829   87.311
 6358.00    1.47072   1.52432   -1.000
 6359.00    1.47016   1.52204   -1.000
 6360.00    1.45637   1.52034   -1.000
 6361.00    1.44530   1.51801   -1.000
 6362.00    1.45122   1.51690   -1.000
 6363.00    1.49002   1.51948   85.667
 6364.00    1.52780   1.52453   85.153
 6365.00    1.53097   1.52925   84.674
 6366.00    1.52115   1.53329   84.118
 6367.00    1.50848   1.53653   83.670
 6368.00    1.50615   1.53708   83.574
 6369.00    1.49933   1.53515   83.538
 6370.00    1.49939   1.53353   83.210
 6371.00    1.50473   1.53419   83.064
 6372.00    1.50592   1.53769   83.275
 6373.00    1.49707   1.54187   83.362
 6374.00    1.48881   1.54351   83.597
 6375.00    1.48983   1.54258   83.956
 6376.00    1.48500   1.54040   84.441
 6377.00    1.48009   1.53769   84.944
 6378.00    1.48292   1.53475   85.157
 6379.00    1.47865   1.53164   85.232
 6380.00    1.47442   1.52901   85.344
 6381.00    1.46728   1.52776   -1.000
 6382.00    1.46895   1.52819   -1.000
 6383.00    1.47408   1.52988   85.583
 6384.00    1.46510   1.53207   -1.000
 6385.00    1.46227   1.53466   -1.000
 6386.00    1.47004   1.53718   -1.000
 6387.00    1.46663   1.53823   -1.000
 6388.00    1.45817   1.53784   -1.000
 6389.00    1.45172   1.53609   -1.000
 6390.00    1.44038   1.53087   -1.000
 6391.00    1.42912   1.52128   -1.000
 6392.00    1.41628   1.51186   -1.000
 6393.00    1.40876   1.50994   -1.000
 6394.00    1.40241   1.51742   -1.000
 6395.00    1.40268   1.52788   -1.000
 6396.00    1.40727   1.53344   -1.000
 6397.00    1.40663   1.52982   -1.000
 6398.00    1.38824   1.51942   -1.000
 6399.00    1.36651   1.51092   -1.000
 6400.00    1.36278   1.51215   -1.000
 6401.00    1.36597   1.52263   -1.000
 6402.00    1.37198   1.53507   -1.000
 6403.00    1.37836   1.54354   -1.000
 6404.00    1.37883   1.54571   -1.000
 6405.00    1.37105   1.54133   -1.000
 6406.00    1.35559   1.53278   -1.000
 6407.00    1.34195   1.52406   -1.000
 6408.00    1.32679   1.52115   -1.000
 6409.00    1.31934   1.52538   -1.000
 6410.00    1.31441   1.52850   -1.000
 6411.00    1.30214   1.52820   -1.000
 6412.00    1.29623   1.52929   -1.000
 6413.00    1.30091   1.53226   -1.000
 6414.00    1.29535   1.53487   -1.000
 6415.00    1.28518   1.53713   -1.000
 6416.00    1.28375   1.53906   -1.000
 6417.00    1.27401   1.53811   -1.000
 6418.00    1.25525   1.53244   -1.000
 6419.00    1.23996   1.52408   -1.000
 6420.00    1.22217   1.51910   -1.000
 6421.00    1.21171   1.52247   -1.000
 6422.00    1.20789   1.53252   -1.000
 6423.00    1.20725   1.54306   -1.000
 6424.00    1.19929   1.55057   -1.000
 6425.00    1.19606   1.55529   -1.000
 6426.00    1.19590   1.55733   -1.000
 6427.00    1.18079   1.55427   -1.000
 6428.00    1.16056   1.54407   -1.000
