###################################################################
## OUTPUT of StarlightChains_v04.for    [Cid@UFSC - 01/Apr/2007] ##
###################################################################

## Some input info
NGC6441_a_1.cxt                          [arq_obs]
Base.BC03.S                              [arq_base]
NGC6441_a_1.msk                          [arq_masks]
StCv04.C99.config                        [arq_config]
  150                                    [N_base]
    0                                    [N_YAV_components = # of components with extra extinction!]
    0                                    [i_FitPowerLaw (1/0 = Yes/No)]
-9.99                                    [alpha_PowerLaw]
CCM                                      [red_law_option]
 1.458241                                [q_norm = A(l_norm)/A(V)]

## (Re)Sampling Parameters
 3359.00                                 [l_ini (A)]
 6428.00                                 [l_fin (A)]
    1.00                                 [dl    (A)]     (OBS: dl_cushion =    50.00 A)

## Normalization info
 4020.00                                 [l_norm (A) - for base]
 4010.00                                 [llow_norm (A) - window for f_obs]
 4060.00                                 [lupp_norm (A) - window for f_obs]
2.855491E-14                             [fobs_norm (in input units)]

## S/N
 4730.00                                 [llow_SN (A) - window for S/N]
 4780.00                                 [lupp_SN (A) - window for S/N]
  36.149                                 [S/N in S/N window]
  21.540                                 [S/N in norm. window]
 181.134                                 [S/N_err in S/N window]
 107.930                                 [S/N_err in norm. window]
  1.0000                                 [fscale_chi2]

## etc...
  2147483609                             [idum_orig]
  3065                                   [NOl_eff]
   925                                   [Nl_eff]
  2140    NSIGMA                         [Ntot_cliped & clip_method]
  3919090                                [Nglobal_steps]
   7                                     [N_chains]
  23                                     [NEX0s_base = N_base in EX0s-fits]
 0   0   1      126   2.0   2.568E+02    [Clip-Bug, RC-Crash & Burn-In warning-flags, n_censored_weights, wei_nsig_threshold & wei_limit]
   160    159.924    159.917      0.008  [idt_all, wdt_TotTime, wdt_UsrTime & wdt_SysTime (sec)]

## Synthesis Results - Best model ##

 2.64091E+00                             [chi2/Nl_eff]
     1.57967                             [adev (%)]

    99.82052                             [sum-of-x (%)]
 1.52433E-13                             [Flux_tot (units of input spectrum!)]
 9.63558E-09                             [Mini_tot (???)]
 4.81308E-09                             [Mcor_tot (???)]

 -11.29                                  [v0_min  (km/s)]
  17.22                                  [vd_min  (km/s)]
 1.2484                                  [AV_min  (mag)]
 0.0000                                  [YAV_min (mag)]

# j     x_j(%)      Mini_j(%)     Mcor_j(%)     age_j(yr)     Z_j      (L/M)_j    YAV?  Mstars   component_j        a/Fe...       SSP_chi2r SSP_adev(%)   SSP_AV   SSP_x(%)
  1      0.0000     0.0000E+00    0.0000E+00    1.000000E+06  0.00010  8.160E-03    0   1.0000   age020_m22            0.0000     2.6944E+03    41.4488   4.0000   103.2340
  2      0.0000     0.0000E+00    0.0000E+00    3.160000E+06  0.00010  4.759E-02    0   1.0000   age045_m22            0.0000     2.1005E+02    10.4730   3.3363    97.2347
  3      1.5696     1.2875E-03    2.4699E-03    5.010000E+06  0.00010  1.932E-02    0   0.9582   age055_m22            0.0000     4.6941E+02    18.3040   3.5396    86.7115
  4      0.0000     0.0000E+00    0.0000E+00    6.610000E+06  0.00010  9.973E-03    0   0.9297   age061_m22            0.0000     2.6136E+03    40.6011   4.0000   105.9168
  5      0.0000     0.0000E+00    0.0000E+00    8.710000E+06  0.00010  7.690E-03    0   0.9030   age067_m22            0.0000     2.5701E+03    40.1972   4.0000   106.3128
  6      0.0000     0.0000E+00    0.0000E+00    1.000000E+07  0.00010  6.375E-03    0   0.8902   age070_m22            0.0000     2.5964E+03    40.1518   4.0000   106.6092
  7      0.0000     0.0000E+00    0.0000E+00    1.445000E+07  0.00010  4.874E-03    0   0.8589   age078_m22            0.0000     1.9762E+03    35.5982   4.0000   107.6260
  8      0.0000     0.0000E+00    0.0000E+00    2.512000E+07  0.00010  4.103E-03    0   0.8174   age090_m22            0.0000     9.6086E+02    25.2386   4.0000   107.7158
  9      0.0000     0.0000E+00    0.0000E+00    4.000000E+07  0.00010  3.654E-03    0   0.7830   age104_m22            0.0000     5.5478E+02    17.6836   4.0000   106.1911
 10      0.0000     0.0000E+00    0.0000E+00    5.500000E+07  0.00010  3.093E-03    0   0.7597   age110_m22            0.0000     4.6336E+02    15.3826   4.0000   105.2130
 11      0.0000     0.0000E+00    0.0000E+00    1.015200E+08  0.00010  2.431E-03    0   0.7138   age116_m22            0.0000     3.2929E+02    11.7105   4.0000    98.7790
 12      0.0000     0.0000E+00    0.0000E+00    1.609000E+08  0.00010  1.319E-03    0   0.6775   age120_m22            0.0000     3.0323E+02    10.9945   3.5528   100.1485
 13      0.0000     0.0000E+00    0.0000E+00    2.861200E+08  0.00010  1.075E-03    0   0.6412   age125_m22            0.0000     4.4943E+02    13.7466   3.6843   101.5171
 14      0.0000     0.0000E+00    0.0000E+00    5.088000E+08  0.00010  7.183E-04    0   0.6083   age130_m22            0.0000     4.9217E+02    14.5651   3.4701   102.6211
 15      0.0000     0.0000E+00    0.0000E+00    9.047900E+08  0.00010  4.524E-04    0   0.5785   age135_m22            0.0000     4.8723E+02    14.5934   3.2682   103.8392
 16      0.0000     0.0000E+00    0.0000E+00    1.278050E+09  0.00010  3.018E-04    0   0.5588   age138_m22            0.0000     3.0573E+02    11.1902   2.7000   103.3788
 17      0.0000     0.0000E+00    0.0000E+00    1.434000E+09  0.00010  2.691E-04    0   0.5532   age139_m22            0.0000     2.7245E+02    10.4920   2.5374   103.0710
 18      0.0000     0.0000E+00    0.0000E+00    2.500000E+09  0.00010  1.582E-04    0   0.5296   age150_m22            0.0000     2.6130E+02    10.3183   2.4072   104.3495
 19      0.0000     0.0000E+00    0.0000E+00    4.250000E+09  0.00010  1.007E-04    0   0.5110   age158_m22            0.0000     2.0248E+02     8.7575   2.2387   103.2222
 20      0.0000     0.0000E+00    0.0000E+00    6.250000E+09  0.00010  6.869E-05    0   0.4985   age166_m22            0.0000     1.6382E+02     7.6504   2.1655   100.9302
 21      0.0000     0.0000E+00    0.0000E+00    7.500000E+09  0.00010  5.873E-05    0   0.4931   age171_m22            0.0000     1.6488E+02     7.7266   2.1455   100.6233
 22      0.0000     0.0000E+00    0.0000E+00    1.000000E+10  0.00010  4.481E-05    0   0.4854   age181_m22            0.0000     1.6025E+02     7.6251   2.1080   100.2387
 23      0.0060     2.7180E-03    2.6069E-03    1.300000E+10  0.00010  3.489E-05    0   0.4791   age193_m22            0.0000     1.5122E+02     7.4038   2.0509    99.7144
 24      0.0000     0.0000E+00    0.0000E+00    1.500000E+10  0.00010  3.035E-05    0   0.4766   age201_m22            0.0000     1.4610E+02     7.2999   2.0103    99.6005
 25      0.0000     0.0000E+00    0.0000E+00    1.800000E+10  0.00010  2.510E-05    0   0.4735   age213_m22            0.0000     1.3637E+02     7.0965   1.9394    99.1077
 26      0.0000     0.0000E+00    0.0000E+00    1.000000E+06  0.00040  8.458E-03    0   1.0000   age020_m32            0.0000     2.7500E+03    41.5678   4.0000   104.0763
 27      0.0000     0.0000E+00    0.0000E+00    3.160000E+06  0.00040  3.973E-02    0   1.0000   age045_m32            0.0000     7.7203E+02    23.1835   4.0000   105.5917
 28      0.1325     1.0855E-04    2.0714E-04    5.010000E+06  0.00040  1.935E-02    0   0.9532   age055_m32            0.0000     1.2921E+03    30.5426   4.0000   103.6250
 29      0.0000     0.0000E+00    0.0000E+00    6.610000E+06  0.00040  1.204E-02    0   0.9243   age061_m32            0.0000     2.1233E+03    37.2270   4.0000   106.5020
 30      0.0000     0.0000E+00    0.0000E+00    8.710000E+06  0.00040  9.433E-03    0   0.9001   age067_m32            0.0000     2.0159E+03    36.2476   4.0000   107.1370
 31      0.0000     0.0000E+00    0.0000E+00    1.000000E+07  0.00040  8.053E-03    0   0.8877   age070_m32            0.0000     1.9051E+03    35.3787   4.0000   107.1403
 32      0.0000     0.0000E+00    0.0000E+00    1.445000E+07  0.00040  7.027E-03    0   0.8578   age078_m32            0.0000     7.3721E+02    23.3257   4.0000   103.1844
 33      0.0000     0.0000E+00    0.0000E+00    2.512000E+07  0.00040  4.707E-03    0   0.8166   age090_m32            0.0000     4.0228E+02    16.5488   4.0000   100.2582
 34      0.0000     0.0000E+00    0.0000E+00    4.000000E+07  0.00040  3.714E-03    0   0.7827   age104_m32            0.0000     3.0882E+02    12.7675   4.0000    98.3746
 35      0.0000     0.0000E+00    0.0000E+00    5.500000E+07  0.00040  2.982E-03    0   0.7593   age110_m32            0.0000     3.0490E+02    12.0475   4.0000    97.8434
 36      0.0000     0.0000E+00    0.0000E+00    1.015200E+08  0.00040  2.188E-03    0   0.7143   age116_m32            0.0000     3.5426E+02    11.9890   3.8196    99.7086
 37      0.0000     0.0000E+00    0.0000E+00    1.609000E+08  0.00040  1.690E-03    0   0.6856   age120_m32            0.0000     4.0574E+02    13.0845   3.6423   101.5524
 38      0.0000     0.0000E+00    0.0000E+00    2.861200E+08  0.00040  1.152E-03    0   0.6509   age125_m32            0.0000     4.5054E+02    13.8806   3.4427   102.4634
 39      0.0000     0.0000E+00    0.0000E+00    5.088000E+08  0.00040  7.331E-04    0   0.6182   age130_m32            0.0000     4.6464E+02    14.1120   3.2874   102.8732
 40      0.0000     0.0000E+00    0.0000E+00    9.047900E+08  0.00040  3.960E-04    0   0.5890   age135_m32            0.0000     3.1150E+02    11.3093   2.8041   102.3020
 41      0.0000     0.0000E+00    0.0000E+00    1.278050E+09  0.00040  2.854E-04    0   0.5687   age138_m32            0.0000     2.7527E+02    10.6917   2.4812   105.0836
 42      0.0000     0.0000E+00    0.0000E+00    1.434000E+09  0.00040  2.531E-04    0   0.5632   age139_m32            0.0000     2.6908E+02    10.6054   2.4191   105.1003
 43      0.0000     0.0000E+00    0.0000E+00    2.500000E+09  0.00040  1.488E-04    0   0.5386   age150_m32            0.0000     2.1545E+02     9.4050   2.1596   103.4697
 44      8.2605     1.4415E+00    1.5003E+00    4.250000E+09  0.00040  9.082E-05    0   0.5199   age158_m32            0.0000     1.4243E+02     7.0415   2.0363   100.9433
 45     15.5761     3.8801E+00    3.9429E+00    6.250000E+09  0.00040  6.362E-05    0   0.5076   age166_m32            0.0000     1.2101E+02     6.6408   1.9682    98.4227
 46     12.5435     3.7586E+00    3.7826E+00    7.500000E+09  0.00040  5.289E-05    0   0.5027   age171_m32            0.0000     1.1341E+02     6.5415   1.9298    97.2472
 47     10.6018     4.2301E+00    4.1902E+00    1.000000E+10  0.00040  3.972E-05    0   0.4948   age181_m32            0.0000     1.0385E+02     6.3421   1.8700    95.8464
 48      0.0098     4.7429E-03    4.6241E-03    1.300000E+10  0.00040  3.283E-05    0   0.4870   age193_m32            0.0000     1.0370E+02     6.1485   1.8389    98.2673
 49      0.0000     0.0000E+00    0.0000E+00    1.500000E+10  0.00040  2.925E-05    0   0.4854   age201_m32            0.0000     1.0885E+02     6.2625   1.8285    99.6581
 50      0.0000     0.0000E+00    0.0000E+00    1.800000E+10  0.00040  2.469E-05    0   0.4819   age213_m32            0.0000     1.0838E+02     6.2636   1.7923   100.1002
 51      0.0000     0.0000E+00    0.0000E+00    1.000000E+06  0.00400  1.114E-02    0   1.0000   age020_m42            0.0000     2.5057E+03    40.0175   4.0000   103.8039
 52      0.0000     0.0000E+00    0.0000E+00    3.160000E+06  0.00400  4.073E-02    0   0.9999   age045_m42            0.0000     3.7403E+02    15.8280   4.0000   101.2733
 53      0.0000     0.0000E+00    0.0000E+00    5.010000E+06  0.00400  2.534E-02    0   0.9488   age055_m42            0.0000     9.7004E+02    26.4166   4.0000   103.8216
 54      0.0000     0.0000E+00    0.0000E+00    6.610000E+06  0.00400  2.583E-02    0   0.9220   age061_m42            0.0000     2.8130E+02    13.0839   4.0000    97.5468
 55      0.0000     0.0000E+00    0.0000E+00    8.710000E+06  0.00400  1.706E-02    0   0.8983   age067_m42            0.0000     2.9344E+02    13.9578   3.9164    93.3666
 56      0.0000     0.0000E+00    0.0000E+00    1.000000E+07  0.00400  1.271E-02    0   0.8862   age070_m42            0.0000     3.4877E+02    15.7292   3.8794    92.5800
 57      0.0000     0.0000E+00    0.0000E+00    1.445000E+07  0.00400  7.666E-03    0   0.8571   age078_m42            0.0000     4.9745E+02    20.1114   4.0000    96.2076
 58      0.0000     0.0000E+00    0.0000E+00    2.512000E+07  0.00400  5.070E-03    0   0.8174   age090_m42            0.0000     3.1521E+02    15.0176   3.7597    93.9918
 59      0.0000     0.0000E+00    0.0000E+00    4.000000E+07  0.00400  3.505E-03    0   0.7851   age104_m42            0.0000     2.3442E+02    12.8848   3.4656    96.4358
 60      0.0000     0.0000E+00    0.0000E+00    5.500000E+07  0.00400  3.059E-03    0   0.7629   age110_m42            0.0000     2.2263E+02    10.5335   3.5802    99.2942
 61      0.0000     0.0000E+00    0.0000E+00    1.015200E+08  0.00400  2.268E-03    0   0.7207   age116_m42            0.0000     3.3785E+02    11.8392   3.5551   102.4387
 62      0.0000     0.0000E+00    0.0000E+00    1.609000E+08  0.00400  1.720E-03    0   0.6930   age120_m42            0.0000     3.4568E+02    12.0069   3.4331   103.4172
 63      0.0000     0.0000E+00    0.0000E+00    2.861200E+08  0.00400  1.079E-03    0   0.6613   age125_m42            0.0000     3.2465E+02    11.6627   3.0740   104.0058
 64      0.0000     0.0000E+00    0.0000E+00    5.088000E+08  0.00400  6.261E-04    0   0.6313   age130_m42            0.0000     3.5099E+02    12.4753   2.8758   107.0516
 65      0.0000     0.0000E+00    0.0000E+00    9.047900E+08  0.00400  3.535E-04    0   0.6024   age135_m42            0.0000     2.2771E+02     9.8885   2.4597   107.9367
 66      0.0000     0.0000E+00    0.0000E+00    1.278050E+09  0.00400  2.677E-04    0   0.5837   age138_m42            0.0000     6.5944E+01     5.3195   1.7901   105.2460
 67      0.0000     0.0000E+00    0.0000E+00    1.434000E+09  0.00400  1.910E-04    0   0.5716   age139_m42            0.0000     9.9429E+01     6.2740   1.9600   105.9701
 68      0.0000     0.0000E+00    0.0000E+00    2.500000E+09  0.00400  9.818E-05    0   0.5463   age150_m42            0.0000     2.8001E+01     3.1914   1.6887   101.3124
 69      0.4301     1.2413E-01    1.3093E-01    4.250000E+09  0.00400  5.491E-05    0   0.5269   age158_m42            0.0000     1.3226E+01     2.5018   1.5571    98.8863
 70      0.0000     0.0000E+00    0.0000E+00    6.250000E+09  0.00400  3.857E-05    0   0.5151   age166_m42            0.0000     1.1444E+01     2.5054   1.4406    97.4156
 71      0.0142     6.9250E-03    7.0843E-03    7.500000E+09  0.00400  3.243E-05    0   0.5110   age171_m42            0.0000     1.3373E+01     2.6946   1.3703    96.7181
 72      0.0244     1.5961E-02    1.6066E-02    1.000000E+10  0.00400  2.424E-05    0   0.5028   age181_m42            0.0000     1.9058E+01     3.1754   1.3000    95.9145
 73      1.7769     1.4955E+00    1.4752E+00    1.300000E+10  0.00400  1.883E-05    0   0.4927   age193_m42            0.0000     2.6158E+01     3.7044   1.2638    95.5523
 74      0.3015     2.8355E-01    2.7922E-01    1.500000E+10  0.00400  1.685E-05    0   0.4919   age201_m42            0.0000     2.4591E+01     3.5896   1.2675    95.6188
 75      6.1418     6.7036E+00    6.5411E+00    1.800000E+10  0.00400  1.452E-05    0   0.4874   age213_m42            0.0000     2.1935E+01     3.3956   1.2808    95.9597
 76      0.0000     0.0000E+00    0.0000E+00    1.000000E+06  0.00800  1.286E-02    0   1.0000   age020_m52            0.0000     2.3984E+03    39.0131   4.0000   105.5461
 77      0.0000     0.0000E+00    0.0000E+00    3.160000E+06  0.00800  3.147E-02    0   0.9966   age045_m52            0.0000     2.1465E+03    37.3775   4.0000   106.3029
 78      0.0000     0.0000E+00    0.0000E+00    5.010000E+06  0.00800  2.664E-02    0   0.9443   age055_m52            0.0000     1.2365E+03    29.6246   4.0000   105.0541
 79      0.0000     0.0000E+00    0.0000E+00    6.610000E+06  0.00800  2.151E-02    0   0.9177   age061_m52            0.0000     2.6756E+02    14.1963   3.4797    94.1062
 80      0.0000     0.0000E+00    0.0000E+00    8.710000E+06  0.00800  1.628E-02    0   0.8948   age067_m52            0.0000     3.0499E+02    14.6867   3.8670    94.1129
 81      0.0000     0.0000E+00    0.0000E+00    1.000000E+07  0.00800  1.215E-02    0   0.8827   age070_m52            0.0000     4.0268E+02    17.8020   4.0000    97.6666
 82      0.0000     0.0000E+00    0.0000E+00    1.445000E+07  0.00800  8.739E-03    0   0.8552   age078_m52            0.0000     4.2091E+02    17.7473   4.0000   100.0325
 83      0.0000     0.0000E+00    0.0000E+00    2.512000E+07  0.00800  5.676E-03    0   0.8162   age090_m52            0.0000     2.9869E+02    13.0344   3.8922    97.2606
 84      0.6714     2.7014E-03    4.2405E-03    4.000000E+07  0.00800  3.939E-03    0   0.7841   age104_m52            0.0000     2.7903E+02    11.7969   3.7561    98.8622
 85      0.0000     0.0000E+00    0.0000E+00    5.500000E+07  0.00800  3.155E-03    0   0.7627   age110_m52            0.0000     2.8616E+02    11.2316   3.7428    99.9578
 86      0.0000     0.0000E+00    0.0000E+00    1.015200E+08  0.00800  2.206E-03    0   0.7226   age116_m52            0.0000     3.0964E+02    11.0082   3.5935   102.7851
 87      0.0000     0.0000E+00    0.0000E+00    1.609000E+08  0.00800  1.596E-03    0   0.6963   age120_m52            0.0000     3.1619E+02    11.2970   3.3925   104.0770
 88      0.0000     0.0000E+00    0.0000E+00    2.861200E+08  0.00800  1.002E-03    0   0.6665   age125_m52            0.0000     3.5898E+02    12.4785   3.1361   105.7315
 89      0.0000     0.0000E+00    0.0000E+00    5.088000E+08  0.00800  5.759E-04    0   0.6377   age130_m52            0.0000     3.4614E+02    12.1884   2.8115   109.0023
 90      0.0000     0.0000E+00    0.0000E+00    9.047900E+08  0.00800  2.972E-04    0   0.6086   age135_m52            0.0000     1.9643E+02     8.6675   2.2802   107.5832
 91      0.0000     0.0000E+00    0.0000E+00    1.278050E+09  0.00800  2.242E-04    0   0.5907   age138_m52            0.0000     5.3316E+01     4.7029   1.6520   106.9913
 92      0.0000     0.0000E+00    0.0000E+00    1.434000E+09  0.00800  1.645E-04    0   0.5787   age139_m52            0.0000     5.0306E+01     4.4406   1.7909   106.6539
 93      0.0000     0.0000E+00    0.0000E+00    2.500000E+09  0.00800  7.723E-05    0   0.5519   age150_m52            0.0000     1.4257E+01     2.8586   1.4561   103.0361
 94      0.0000     0.0000E+00    0.0000E+00    4.250000E+09  0.00800  4.151E-05    0   0.5320   age158_m52            0.0000     1.1736E+01     2.8159   1.3827   100.6945
 95      0.0004     2.3465E-04    2.4413E-04    6.250000E+09  0.00800  3.010E-05    0   0.5197   age166_m52            0.0000     1.7214E+01     3.3425   1.2045    99.0452
 96      0.0000     0.0000E+00    0.0000E+00    7.500000E+09  0.00800  2.467E-05    0   0.5139   age171_m52            0.0000     2.0396E+01     3.5608   1.1670    98.5725
 97      0.0000     0.0000E+00    0.0000E+00    1.000000E+10  0.00800  1.862E-05    0   0.5054   age181_m52            0.0000     3.3687E+01     4.3705   1.0532    97.8439
 98      0.0000     0.0000E+00    0.0000E+00    1.300000E+10  0.00800  1.433E-05    0   0.4988   age193_m52            0.0000     5.1404E+01     5.2905   0.9716    98.1572
 99      0.0000     0.0000E+00    0.0000E+00    1.500000E+10  0.00800  1.244E-05    0   0.4936   age201_m52            0.0000     5.9243E+01     5.6379   0.9474    98.4940
100      0.0282     4.1803E-02    4.0907E-02    1.800000E+10  0.00800  1.070E-05    0   0.4888   age213_m52            0.0000     6.6013E+01     5.8989   0.9177    98.2605
101      0.0000     0.0000E+00    0.0000E+00    1.000000E+06  0.02000  1.989E-02    0   1.0000   age020_m62            0.0000     2.4025E+03    39.0659   4.0000   104.1823
102      0.0000     0.0000E+00    0.0000E+00    3.160000E+06  0.02000  3.772E-02    0   0.9858   age045_m62            0.0000     1.9775E+03    36.3575   4.0000   105.1118
103      0.0000     0.0000E+00    0.0000E+00    5.010000E+06  0.02000  3.227E-02    0   0.9342   age055_m62            0.0000     7.2483E+02    22.7687   4.0000   104.1615
104      0.0000     0.0000E+00    0.0000E+00    6.610000E+06  0.02000  2.387E-02    0   0.9090   age061_m62            0.0000     4.9091E+02    19.7105   4.0000    97.9670
105      0.0000     0.0000E+00    0.0000E+00    8.710000E+06  0.02000  1.102E-02    0   0.8861   age067_m62            0.0000     7.1340E+02    23.1151   3.8670    88.1461
106      0.0000     0.0000E+00    0.0000E+00    1.000000E+07  0.02000  1.011E-02    0   0.8751   age070_m62            0.0000     5.2968E+02    20.0874   3.9032    89.9541
107      0.0000     0.0000E+00    0.0000E+00    1.445000E+07  0.02000  7.331E-03    0   0.8472   age078_m62            0.0000     4.1234E+02    17.7721   3.9320    90.8558
108      0.0000     0.0000E+00    0.0000E+00    2.512000E+07  0.02000  4.206E-03    0   0.8099   age090_m62            0.0000     4.1291E+02    18.0490   3.8433    90.4832
109      0.0000     0.0000E+00    0.0000E+00    4.000000E+07  0.02000  3.373E-03    0   0.7799   age104_m62            0.0000     2.5676E+02    12.6890   3.7044    97.4651
110      0.0000     0.0000E+00    0.0000E+00    5.500000E+07  0.02000  2.747E-03    0   0.7595   age110_m62            0.0000     2.5923E+02    11.3667   3.6671    99.9948
111      0.0000     0.0000E+00    0.0000E+00    1.015200E+08  0.02000  1.878E-03    0   0.7221   age116_m62            0.0000     3.2624E+02    11.4276   3.5683   103.5433
112      0.0000     0.0000E+00    0.0000E+00    1.609000E+08  0.02000  1.378E-03    0   0.6978   age120_m62            0.0000     3.7778E+02    12.5995   3.4391   105.2919
113      0.0000     0.0000E+00    0.0000E+00    2.861200E+08  0.02000  8.869E-04    0   0.6700   age125_m62            0.0000     4.5511E+02    14.1530   3.1007   108.6700
114      0.0000     0.0000E+00    0.0000E+00    5.088000E+08  0.02000  4.834E-04    0   0.6430   age130_m62            0.0000     3.7447E+02    12.5506   2.6858   110.2836
115      0.0000     0.0000E+00    0.0000E+00    9.047900E+08  0.02000  2.312E-04    0   0.6152   age135_m62            0.0000     1.6805E+02     7.8868   2.0783   109.7920
116      0.0000     0.0000E+00    0.0000E+00    1.278050E+09  0.02000  1.387E-04    0   0.5927   age138_m62            0.0000     5.8060E+01     4.6248   1.6941   105.9020
117      0.0000     0.0000E+00    0.0000E+00    1.434000E+09  0.02000  1.168E-04    0   0.5865   age139_m62            0.0000     4.4062E+01     4.0933   1.6644   104.4167
118      0.0000     0.0000E+00    0.0000E+00    2.500000E+09  0.02000  5.505E-05    0   0.5610   age150_m62            0.0000     1.8816E+01     3.4117   1.3104   101.3732
119      0.0000     0.0000E+00    0.0000E+00    4.250000E+09  0.02000  3.070E-05    0   0.5407   age158_m62            0.0000     4.2744E+01     4.9123   1.0479   100.5829
120      0.0000     0.0000E+00    0.0000E+00    6.250000E+09  0.02000  2.104E-05    0   0.5277   age166_m62            0.0000     6.4774E+01     5.8564   0.9304   100.6660
121      0.0000     0.0000E+00    0.0000E+00    7.500000E+09  0.02000  1.770E-05    0   0.5223   age171_m62            0.0000     7.9167E+01     6.4046   0.8519   100.8214
122      4.8296     5.9013E+00    6.0501E+00    1.000000E+10  0.02000  1.297E-05    0   0.5121   age181_m62            0.0000     1.1334E+02     7.5389   0.7116   100.8920
123     12.9472     2.1173E+01    2.1393E+01    1.300000E+10  0.02000  9.691E-06    0   0.5047   age193_m62            0.0000     1.3955E+02     8.2868   0.6391   100.9932
124     10.0677     1.9085E+01    1.9100E+01    1.500000E+10  0.02000  8.360E-06    0   0.4999   age201_m62            0.0000     1.6374E+02     8.9344   0.5781   100.9973
125     13.8476     3.1755E+01    3.1443E+01    1.800000E+10  0.02000  6.911E-06    0   0.4946   age213_m62            0.0000     1.9563E+02     9.7431   0.5180   100.9105
126      0.0000     0.0000E+00    0.0000E+00    1.000000E+06  0.05000  2.651E-02    0   0.9998   age020_m72            0.0000     2.3848E+03    38.7652   4.0000   105.3553
127      0.0000     0.0000E+00    0.0000E+00    3.160000E+06  0.05000  4.817E-02    0   0.9577   age045_m72            0.0000     1.5205E+03    32.0732   4.0000   106.7065
128      0.0000     0.0000E+00    0.0000E+00    5.010000E+06  0.05000  3.101E-02    0   0.9147   age055_m72            0.0000     8.1256E+02    24.8064   4.0000   103.1339
129      0.0000     0.0000E+00    0.0000E+00    6.610000E+06  0.05000  1.472E-02    0   0.8877   age061_m72            0.0000     5.5270E+02    21.2496   4.0000    92.0983
130      0.0000     0.0000E+00    0.0000E+00    8.710000E+06  0.05000  1.050E-02    0   0.8638   age067_m72            0.0000     8.2305E+02    25.4159   4.0000   101.0517
131      0.0000     0.0000E+00    0.0000E+00    1.000000E+07  0.05000  8.954E-03    0   0.8524   age070_m72            0.0000     1.2598E+03    29.4141   4.0000   106.2767
132      0.0000     0.0000E+00    0.0000E+00    1.445000E+07  0.05000  6.392E-03    0   0.8262   age078_m72            0.0000     1.1143E+03    27.6923   4.0000   106.3878
133      0.0000     0.0000E+00    0.0000E+00    2.512000E+07  0.05000  4.207E-03    0   0.7902   age090_m72            0.0000     4.8702E+02    18.8196   4.0000   103.1736
134      0.0000     0.0000E+00    0.0000E+00    4.000000E+07  0.05000  3.198E-03    0   0.7618   age104_m72            0.0000     2.6989E+02    10.5591   3.9593    99.1973
135      0.0000     0.0000E+00    0.0000E+00    5.500000E+07  0.05000  2.593E-03    0   0.7432   age110_m72            0.0000     2.9745E+02    10.8595   3.8794   100.7608
136      0.0000     0.0000E+00    0.0000E+00    1.015200E+08  0.05000  1.716E-03    0   0.7092   age116_m72            0.0000     3.5409E+02    11.9376   3.7014   102.7755
137      0.0000     0.0000E+00    0.0000E+00    1.609000E+08  0.05000  1.218E-03    0   0.6876   age120_m72            0.0000     4.0489E+02    13.1116   3.4391   105.1233
138      0.0000     0.0000E+00    0.0000E+00    2.861200E+08  0.05000  7.047E-04    0   0.6618   age125_m72            0.0000     4.1810E+02    13.3613   2.9371   108.1113
139      0.0000     0.0000E+00    0.0000E+00    5.088000E+08  0.05000  3.590E-04    0   0.6356   age130_m72            0.0000     2.9433E+02    10.8215   2.3747   110.2256
140      0.0000     0.0000E+00    0.0000E+00    9.047900E+08  0.05000  1.484E-04    0   0.6088   age135_m72            0.0000     7.1087E+01     5.4878   1.6311   104.3404
141      0.0000     0.0000E+00    0.0000E+00    1.278050E+09  0.05000  9.435E-05    0   0.5924   age138_m72            0.0000     5.0257E+01     5.1288   1.2520   101.1075
142      0.0000     0.0000E+00    0.0000E+00    1.434000E+09  0.05000  7.827E-05    0   0.5847   age139_m72            0.0000     4.4267E+01     4.8736   1.2647   100.5898
143      0.0000     0.0000E+00    0.0000E+00    2.500000E+09  0.05000  3.759E-05    0   0.5583   age150_m72            0.0000     7.0373E+01     6.0646   0.9604    99.5772
144      0.0000     0.0000E+00    0.0000E+00    4.250000E+09  0.05000  1.842E-05    0   0.5374   age158_m72            0.0000     1.3420E+02     7.8610   0.6935    98.2195
145      0.0000     0.0000E+00    0.0000E+00    6.250000E+09  0.05000  1.207E-05    0   0.5242   age166_m72            0.0000     1.9923E+02     9.4450   0.4822    97.3221
146      0.0000     0.0000E+00    0.0000E+00    7.500000E+09  0.05000  9.993E-06    0   0.5183   age171_m72            0.0000     2.1242E+02     9.7067   0.4452    97.1348
147      0.0337     7.3157E-02    7.4414E-02    1.000000E+10  0.05000  7.291E-06    0   0.5081   age181_m72            0.0000     2.6563E+02    10.8978   0.3414    96.5703
148      0.0061     1.8287E-02    1.8371E-02    1.300000E+10  0.05000  5.316E-06    0   0.5018   age193_m72            0.0000     3.6073E+02    12.7777   0.1907    95.6705
149      0.0000     0.0000E+00    0.0000E+00    1.500000E+10  0.05000  4.497E-06    0   0.4972   age201_m72            0.0000     4.1059E+02    13.7021   0.1335    95.5068
150      0.0000     0.0000E+00    0.0000E+00    1.800000E+10  0.05000  3.739E-06    0   0.4924   age213_m72            0.0000     4.7642E+02    14.8624   0.0471    95.1637


## Synthesis Results - Average & Chains ##

# j      x_j: min, <> & last-chain-values for 1 ...  7 chains
  1      0.0000      0.0226      0.0000      0.0000      0.0000      0.0000      0.0186      0.0000      0.0000
  2      0.0000      0.0504      0.0954      0.1211      0.0998      0.0000      0.0000      0.0000      0.1730
  3      1.5696      0.5832      0.5733      0.5123      0.6908      0.5376      0.6231      0.6256      0.6784
  4      0.0000      0.0197      0.0000      0.0000      0.0274      0.0000      0.0000      0.0000      0.0000
  5      0.0000      0.0229      0.0000      0.0000      0.0000      0.0000      0.0153      0.0350      0.0000
  6      0.0000      0.0270      0.0380      0.0482      0.1290      0.0000      0.0403      0.1299      0.0983
  7      0.0000      0.0259      0.0000      0.0000      0.0000      0.0000      0.0000      0.0000      0.0228
  8      0.0000      0.0158      0.0000      0.0009      0.0102      0.0000      0.1069      0.0000      0.0000
  9      0.0000      0.0282      0.0000      0.0000      0.1440      0.2214      0.0000      0.1723      0.0173
 10      0.0000      0.0334      0.0000      0.0000      0.0000      0.0000      0.0000      0.0157      0.0000
 11      0.0000      0.0236      0.0000      0.0000      0.0000      0.0000      0.0000      0.0000      0.0000
 12      0.0000      0.0192      0.0000      0.0000      0.0000      0.0000      0.0000      0.0000      0.0000
 13      0.0000      0.0097      0.0000      0.0000      0.0000      0.0000      0.0000      0.0000      0.0000
 14      0.0000      0.0108      0.0000      0.0000      0.0000      0.0000      0.0000      0.0000      0.0000
 15      0.0000      0.0205      0.0000      0.0000      0.0000      0.0000      0.0000      0.0000      0.0000
 16      0.0000      0.0139      0.0000      0.0000      0.0000      0.0028      0.0000      0.0000      0.0000
 17      0.0000      0.0233      0.0000      0.0000      0.0000      0.0000      0.0000      0.0296      0.0000
 18      0.0000      0.0232      0.0000      0.0000      0.0000      0.0205      0.0000      0.0000      0.1145
 19      0.0000      0.0525      0.0000      0.0000      0.0000      0.0124      0.0000      0.0000      0.0518
 20      0.0000      0.0765      0.2518      0.0000      0.0000      0.0000      0.0000      0.0000      0.0000
 21      0.0000      0.0854      0.0809      0.0053      0.0203      0.0090      0.0000      0.0000      0.0000
 22      0.0000      0.0839      0.0000      0.0000      0.4539      0.0000      0.0000      0.0000      0.4993
 23      0.0060      0.0878      0.0000      0.2361      0.0000      0.1166      0.0000      0.1704      0.0000
 24      0.0000      0.0986      0.1326      0.1401      0.0000      0.1726      0.0000      0.1613      0.0000
 25      0.0000      0.1645      0.2189      0.0926      0.0451      0.3210      0.2257      0.0000      0.0000
 26      0.0000      0.0161      0.0000      0.0261      0.1071      0.0876      0.0000      0.1705      0.0000
 27      0.0000      0.0321      0.0000      0.0190      0.0000      0.0000      0.1042      0.1585      0.0287
 28      0.1325      0.0361      0.0000      0.2538      0.1193      0.0000      0.2543      0.0000      0.0232
 29      0.0000      0.0272      0.0000      0.0772      0.2421      0.0000      0.0000      0.0000      0.0000
 30      0.0000      0.0277      0.0000      0.0480      0.0000      0.3836      0.0000      0.0000      0.0000
 31      0.0000      0.0268      0.0071      0.0000      0.0000      0.0000      0.0563      0.0582      0.0000
 32      0.0000      0.0292      0.0000      0.0000      0.0000      0.0000      0.0623      0.0000      0.0000
 33      0.0000      0.0308      0.0000      0.0487      0.0529      0.0000      0.0167      0.0000      0.1254
 34      0.0000      0.0304      0.0000      0.0000      0.0103      0.0783      0.0000      0.0118      0.0000
 35      0.0000      0.0259      0.0000      0.0986      0.0272      0.0000      0.0000      0.0000      0.0000
 36      0.0000      0.0160      0.0000      0.0000      0.0000      0.0000      0.0000      0.0000      0.0000
 37      0.0000      0.0166      0.0000      0.0000      0.0000      0.1288      0.0000      0.0000      0.0000
 38      0.0000      0.0142      0.0000      0.0000      0.0000      0.0000      0.0000      0.0000      0.0000
 39      0.0000      0.0131      0.0000      0.0000      0.0712      0.0000      0.0478      0.0000      0.0000
 40      0.0000      0.0132      0.0000      0.0131      0.0000      0.0000      0.0000      0.0000      0.0000
 41      0.0000      0.0259      0.1282      0.0000      0.0000      0.0000      0.0000      0.2690      0.0000
 42      0.0000      0.0294      0.0000      0.0485      0.0000      0.0000      0.0000      0.0000      0.0000
 43      0.0000      0.0616      0.1650      0.0354      0.0000      0.0000      0.0000      0.0000      0.0000
 44      8.2605      6.5930      6.6634      7.0038      7.1362      6.6463      6.7832      6.7545      6.9508
 45     15.5761     13.3545     13.3692     13.6514     13.5894     13.4989     13.7150     13.7510     13.5168
 46     12.5435     12.3157     12.6279     13.2358     12.8075     12.6038     12.3001     12.3560     12.3228
 47     10.6018     12.6958     12.8413     12.3381     12.7293     12.8959     12.7978     12.6100     12.8574
 48      0.0098      0.1849      0.0000      0.2124      0.0000      0.0943      0.3188      0.0000      0.1083
 49      0.0000      0.2856      0.2305      0.1375      0.4512      0.1429      0.3477      0.5885      0.1884
 50      0.0000      0.1996      0.0000      0.0000      0.1101      0.6287      0.0000      0.1979      0.0491
 51      0.0000      0.0228      0.0000      0.0000      0.0431      0.0024      0.0000      0.0000      0.1005
 52      0.0000      0.0414      0.0000      0.0000      0.0000      0.0000      0.0000      0.0028      0.0000
 53      0.0000      0.0415      0.0721      0.0338      0.0000      0.0000      0.0000      0.1131      0.0000
 54      0.0000      0.0265      0.0000      0.0000      0.0079      0.1146      0.0000      0.1301      0.0495
 55      0.0000      0.0261      0.1117      0.0000      0.0000      0.0000      0.0763      0.0000      0.0000
 56      0.0000      0.0429      0.0000      0.0000      0.0000      0.1066      0.0000      0.0000      0.1252
 57      0.0000      0.0332      0.0000      0.0000      0.0000      0.0000      0.0000      0.0000      0.0981
 58      0.0000      0.0212      0.0813      0.0000      0.0000      0.0000      0.0000      0.0000      0.1093
 59      0.0000      0.0251      0.0000      0.0299      0.0000      0.0000      0.0000      0.1360      0.0000
 60      0.0000      0.0242      0.0000      0.0000      0.0000      0.0000      0.0090      0.0000      0.1349
 61      0.0000      0.0208      0.0000      0.0000      0.0000      0.0000      0.0000      0.0000      0.0000
 62      0.0000      0.0116      0.0000      0.0000      0.0000      0.0000      0.0000      0.0000      0.0000
 63      0.0000      0.0122      0.0000      0.0000      0.0000      0.0000      0.0059      0.0000      0.0000
 64      0.0000      0.0199      0.0000      0.0000      0.0000      0.1028      0.0000      0.0000      0.2068
 65      0.0000      0.0320      0.0098      0.0138      0.0000      0.0000      0.2081      0.1284      0.0000
 66      0.0000      0.0996      0.0000      0.0974      0.0000      0.0000      0.4405      0.0000      0.1061
 67      0.0000      0.0359      0.1274      0.0000      0.1040      0.0000      0.0000      0.0000      0.0000
 68      0.0000      0.1071      0.0512      0.0000      0.0000      0.0000      0.3677      0.0000      0.0000
 69      0.4301      0.2737      0.3038      0.2524      0.2094      0.1548      0.3147      0.9044      0.0419
 70      0.0000      0.3680      0.2904      0.0689      0.5694      0.0000      0.8079      0.1617      0.4355
 71      0.0142      0.4517      0.5928      0.3254      0.3236      0.5273      0.1695      0.4395      0.9459
 72      0.0244      0.5886      0.3252      0.6726      0.7378      0.7448      0.8399      1.9076      0.6223
 73      1.7769      0.9094      1.1649      0.5655      2.1914      0.8707      0.8371      0.7276      0.6958
 74      0.3015      2.6765      2.9326      3.6735      1.8258      2.1485      2.7906      2.9975      2.8072
 75      6.1418      1.8817      2.2780      2.5704      1.8959      2.9773      1.9452      0.9454      1.9717
 76      0.0000      0.0195      0.0000      0.1244      0.0000      0.0000      0.0000      0.0000      0.0133
 77      0.0000      0.0261      0.0446      0.0000      0.0000      0.0000      0.0000      0.0000      0.0000
 78      0.0000      0.0398      0.1038      0.0000      0.0000      0.0000      0.0000      0.0000      0.0000
 79      0.0000      0.0226      0.0000      0.0000      0.0000      0.0000      0.0000      0.0000      0.0894
 80      0.0000      0.0233      0.0000      0.0000      0.0359      0.0000      0.0175      0.0549      0.0000
 81      0.0000      0.0164      0.0000      0.0505      0.0000      0.0000      0.0000      0.0000      0.0000
 82      0.0000      0.0242      0.0099      0.0000      0.0000      0.0000      0.0252      0.0000      0.0000
 83      0.0000      0.0293      0.2232      0.0000      0.0000      0.0675      0.0000      0.0000      0.0000
 84      0.6714      0.0242      0.0871      0.2449      0.0188      0.0000      0.2034      0.0000      0.0000
 85      0.0000      0.0121      0.0000      0.0000      0.0461      0.0000      0.0000      0.0000      0.0000
 86      0.0000      0.0107      0.0374      0.0703      0.0000      0.0199      0.0453      0.0269      0.0000
 87      0.0000      0.0125      0.0000      0.0000      0.0000      0.0000      0.0000      0.0000      0.0000
 88      0.0000      0.0121      0.0000      0.0000      0.0000      0.0000      0.0000      0.0000      0.0078
 89      0.0000      0.0121      0.0000      0.0000      0.0000      0.0000      0.0000      0.0000      0.0000
 90      0.0000      0.0101      0.0000      0.0000      0.0246      0.0000      0.0000      0.0000      0.0096
 91      0.0000      0.0349      0.1589      0.0000      0.0000      0.0817      0.0000      0.1428      0.0332
 92      0.0000      0.0315      0.0000      0.0105      0.0000      0.0891      0.0000      0.0000      0.0000
 93      0.0000      0.0697      0.0000      0.0000      0.0000      0.0000      0.0543      0.0000      0.0000
 94      0.0000      0.1061      0.0000      0.0000      0.0000      0.0000      0.0000      0.0000      0.0000
 95      0.0004      0.1711      0.0375      0.1817      0.0443      0.0637      0.0000      0.0000      0.0000
 96      0.0000      0.1808      0.1114      0.0000      0.0000      0.0000      0.0370      0.0000      0.0000
 97      0.0000      0.1708      0.0000      0.0000      0.0000      0.0000      0.0000      0.0119      0.1260
 98      0.0000      0.2588      0.2344      0.0258      0.0000      0.2801      0.1908      0.0600      0.1627
 99      0.0000      0.3104      0.0768      0.0000      0.0000      0.0000      0.2153      0.2489      0.1756
100      0.0282      0.2656      0.2819      0.1479      0.0000      0.2507      0.0000      0.0000      0.0000
101      0.0000      0.0170      0.0000      0.0000      0.0000      0.0000      0.1200      0.0000      0.0000
102      0.0000      0.0228      0.0224      0.0000      0.0025      0.0000      0.0000      0.0000      0.0000
103      0.0000      0.0234      0.0000      0.0532      0.0376      0.0000      0.0787      0.0000      0.0000
104      0.0000      0.0243      0.0231      0.0861      0.0000      0.1219      0.0000      0.0209      0.0975
105      0.0000      0.0370      0.0000      0.0000      0.0000      0.0000      0.0000      0.0000      0.0000
106      0.0000      0.0193      0.0000      0.0000      0.0000      0.0000      0.0000      0.0000      0.0581
107      0.0000      0.0153      0.0000      0.0560      0.0000      0.0000      0.0000      0.0000      0.0000
108      0.0000      0.0122      0.1097      0.0000      0.0000      0.0000      0.0000      0.0000      0.0000
109      0.0000      0.0137      0.0000      0.0000      0.0000      0.0196      0.0891      0.0000      0.0175
110      0.0000      0.0122      0.0000      0.0000      0.0000      0.0000      0.0000      0.0000      0.0000
111      0.0000      0.0125      0.0755      0.0000      0.1119      0.0061      0.0000      0.0000      0.0000
112      0.0000      0.0145      0.0000      0.0000      0.0421      0.0000      0.0000      0.0000      0.0000
113      0.0000      0.0126      0.0000      0.0000      0.0000      0.0000      0.0000      0.0779      0.0000
114      0.0000      0.0091      0.0000      0.0000      0.0000      0.0000      0.0233      0.0000      0.0000
115      0.0000      0.0178      0.0110      0.0109      0.0000      0.0000      0.0000      0.0000      0.1339
116      0.0000      0.0276      0.0000      0.0000      0.0000      0.0000      0.0197      0.0000      0.0000
117      0.0000      0.0240      0.0000      0.0000      0.0739      0.0000      0.0000      0.0000      0.0000
118      0.0000      0.0564      0.0000      0.0000      0.0000      0.2735      0.0000      0.0379      0.0000
119      0.0000      0.1002      0.0929      0.0407      0.0000      0.0000      0.0000      0.0671      0.0000
120      0.0000      0.1262      0.0000      0.0000      0.3846      0.0000      0.6190      0.0000      0.0000
121      0.0000      0.1550      0.3657      0.0559      0.3626      0.2174      0.0000      0.0000      1.0571
122      4.8296      5.4972      5.3156      5.4270      5.1721      5.3568      5.6171      5.6466      5.6822
123     12.9472     12.5724     12.9570     13.0065     13.1336     12.6796     12.4274     12.6799     12.6500
124     10.0677      9.5868      9.6762      9.8084      9.5718      9.5820      9.6128     10.1010      9.7221
125     13.8476     12.6153     12.9130     12.8400     12.8512     13.0125     12.8885     12.5985     12.6817
126      0.0000      0.0283      0.0000      0.0251      0.0000      0.0000      0.0000      0.0812      0.0791
127      0.0000      0.0330      0.0000      0.0168      0.0000      0.1425      0.0000      0.0000      0.0000
128      0.0000      0.0578      0.4182      0.0000      0.0000      0.0000      0.0000      0.0000      0.1356
129      0.0000      0.0279      0.0000      0.0327      0.0678      0.0000      0.1303      0.0000      0.0000
130      0.0000      0.0299      0.0190      0.0000      0.0000      0.0000      0.0178      0.0000      0.0000
131      0.0000      0.0499      0.1094      0.0000      0.0000      0.0000      0.0000      0.1834      0.0000
132      0.0000      0.0226      0.0000      0.0000      0.0000      0.0156      0.0000      0.0000      0.0000
133      0.0000      0.0190      0.0000      0.0000      0.0000      0.1789      0.0000      0.0000      0.0789
134      0.0000      0.0092      0.1587      0.1009      0.0000      0.0000      0.0000      0.0000      0.0000
135      0.0000      0.0103      0.0000      0.0000      0.0000      0.0000      0.0000      0.0000      0.0000
136      0.0000      0.0144      0.0000      0.0000      0.1006      0.0000      0.0000      0.0000      0.0000
137      0.0000      0.0081      0.0054      0.0000      0.0000      0.0000      0.0000      0.0000      0.0066
138      0.0000      0.0072      0.0000      0.0000      0.0000      0.0000      0.0000      0.0000      0.0000
139      0.0000      0.0108      0.0000      0.0180      0.0082      0.0000      0.0000      0.0000      0.0000
140      0.0000      0.0228      0.0000      0.0000      0.0000      0.0000      0.0000      0.0000      0.0000
141      0.0000      0.0320      0.0000      0.0000      0.0056      0.0000      0.0000      0.0000      0.0000
142      0.0000      0.0358      0.0000      0.0000      0.0000      0.0000      0.0306      0.0000      0.0000
143      0.0000      0.0438      0.0000      0.0000      0.0000      0.0000      0.0000      0.0000      0.0000
144      0.0000      0.0680      0.0000      0.0000      0.0000      0.1886      0.2504      0.0000      0.0071
145      0.0000      0.0696      0.0000      0.0000      0.0000      0.0000      0.0000      0.1392      0.0222
146      0.0000      0.0886      0.0000      0.0000      0.0503      0.2915      0.0461      0.3614      0.0867
147      0.0337      0.1894      0.0000      0.1641      0.0000      0.2520      0.0000      0.0000      0.2912
148      0.0061      0.2349      0.2535      0.5064      0.2505      0.2656      0.0256      0.0562      0.0000
149      0.0000      0.1657      0.0479      0.0000      0.0864      0.0000      0.1806      0.2532      0.1348
150      0.0000      0.1376      0.0688      0.0000      0.3065      0.0025      0.2310      0.0994      0.0000

# j      m_j: min, <> & last-chain-values for 1 ...  7 chains
  1  0.0000E+00  8.8668E-05  0.0000E+00  0.0000E+00  0.0000E+00  0.0000E+00  7.3342E-05  0.0000E+00  0.0000E+00
  2  0.0000E+00  3.3951E-05  6.4261E-05  8.0995E-05  6.7070E-05  0.0000E+00  0.0000E+00  0.0000E+00  1.1730E-04
  3  2.4699E-03  9.2677E-04  9.1124E-04  8.0861E-04  1.0952E-03  8.5038E-04  9.9482E-04  9.9686E-04  1.0860E-03
  4  0.0000E+00  5.8714E-05  0.0000E+00  0.0000E+00  8.1513E-05  0.0000E+00  0.0000E+00  0.0000E+00  0.0000E+00
  5  0.0000E+00  8.6241E-05  0.0000E+00  0.0000E+00  0.0000E+00  0.0000E+00  5.8015E-05  1.3220E-04  0.0000E+00
  6  0.0000E+00  1.2075E-04  1.7015E-04  2.1430E-04  5.7567E-04  0.0000E+00  1.8134E-04  5.8276E-04  4.4307E-04
  7  0.0000E+00  1.4601E-04  0.0000E+00  0.0000E+00  0.0000E+00  0.0000E+00  0.0000E+00  0.0000E+00  1.2988E-04
  8  0.0000E+00  1.0054E-04  0.0000E+00  5.5642E-06  6.4880E-05  0.0000E+00  6.8529E-04  0.0000E+00  0.0000E+00
  9  0.0000E+00  1.9375E-04  0.0000E+00  0.0000E+00  9.8665E-04  1.5133E-03  0.0000E+00  1.1860E-03  1.1962E-04
 10  0.0000E+00  2.6265E-04  0.0000E+00  0.0000E+00  0.0000E+00  0.0000E+00  0.0000E+00  1.2368E-04  0.0000E+00
 11  0.0000E+00  2.2195E-04  0.0000E+00  0.0000E+00  0.0000E+00  0.0000E+00  0.0000E+00  0.0000E+00  0.0000E+00
 12  0.0000E+00  3.1649E-04  0.0000E+00  0.0000E+00  0.0000E+00  0.0000E+00  0.0000E+00  0.0000E+00  0.0000E+00
 13  0.0000E+00  1.8510E-04  0.0000E+00  0.0000E+00  0.0000E+00  0.0000E+00  0.0000E+00  0.0000E+00  0.0000E+00
 14  0.0000E+00  2.9372E-04  0.0000E+00  0.0000E+00  0.0000E+00  0.0000E+00  0.0000E+00  0.0000E+00  0.0000E+00
 15  0.0000E+00  8.3965E-04  0.0000E+00  0.0000E+00  0.0000E+00  0.0000E+00  0.0000E+00  0.0000E+00  0.0000E+00
 16  0.0000E+00  8.2232E-04  0.0000E+00  0.0000E+00  0.0000E+00  1.6365E-04  0.0000E+00  0.0000E+00  0.0000E+00
 17  0.0000E+00  1.5370E-03  0.0000E+00  0.0000E+00  0.0000E+00  0.0000E+00  0.0000E+00  1.9577E-03  0.0000E+00
 18  0.0000E+00  2.4919E-03  0.0000E+00  0.0000E+00  0.0000E+00  2.1929E-03  0.0000E+00  0.0000E+00  1.2369E-02
 19  0.0000E+00  8.5359E-03  0.0000E+00  0.0000E+00  0.0000E+00  2.0126E-03  0.0000E+00  0.0000E+00  8.4903E-03
 20  0.0000E+00  1.7785E-02  5.8568E-02  0.0000E+00  0.0000E+00  0.0000E+00  0.0000E+00  0.0000E+00  0.0000E+00
 21  0.0000E+00  2.2981E-02  2.1761E-02  1.4082E-03  5.4608E-03  2.4015E-03  0.0000E+00  0.0000E+00  0.0000E+00
 22  0.0000E+00  2.9110E-02  0.0000E+00  0.0000E+00  1.5720E-01  0.0000E+00  0.0000E+00  0.0000E+00  1.7456E-01
 23  2.6069E-03  3.8649E-02  0.0000E+00  1.0318E-01  0.0000E+00  5.1074E-02  0.0000E+00  7.5197E-02  0.0000E+00
 24  0.0000E+00  4.9616E-02  6.6760E-02  7.0036E-02  0.0000E+00  8.6419E-02  0.0000E+00  8.1367E-02  0.0000E+00
 25  0.0000E+00  9.9457E-02  1.3236E-01  5.5573E-02  2.7197E-02  1.9310E-01  1.3709E-01  0.0000E+00  0.0000E+00
 26  0.0000E+00  6.0933E-05  0.0000E+00  9.8185E-05  4.0470E-04  3.3015E-04  0.0000E+00  6.4759E-04  0.0000E+00
 27  0.0000E+00  2.5928E-05  0.0000E+00  1.5181E-05  0.0000E+00  0.0000E+00  8.4455E-05  1.2819E-04  2.3300E-05
 28  2.0714E-04  5.6907E-05  0.0000E+00  3.9786E-04  1.8783E-04  0.0000E+00  4.0324E-04  0.0000E+00  3.6952E-05
 29  0.0000E+00  6.6873E-05  0.0000E+00  1.8850E-04  5.9426E-04  0.0000E+00  0.0000E+00  0.0000E+00  0.0000E+00
 30  0.0000E+00  8.4761E-05  0.0000E+00  1.4574E-04  0.0000E+00  1.1675E-03  0.0000E+00  0.0000E+00  0.0000E+00
 31  0.0000E+00  9.4561E-05  2.5255E-05  0.0000E+00  0.0000E+00  0.0000E+00  1.9991E-04  2.0627E-04  0.0000E+00
 32  0.0000E+00  1.1421E-04  0.0000E+00  0.0000E+00  0.0000E+00  0.0000E+00  2.4479E-04  0.0000E+00  0.0000E+00
 33  0.0000E+00  1.7134E-04  0.0000E+00  2.6914E-04  2.9349E-04  0.0000E+00  9.3296E-05  0.0000E+00  7.0210E-04
 34  0.0000E+00  2.0502E-04  0.0000E+00  0.0000E+00  6.9159E-05  5.2614E-04  0.0000E+00  8.0004E-05  0.0000E+00
 35  0.0000E+00  2.1098E-04  0.0000E+00  7.9893E-04  2.2168E-04  0.0000E+00  0.0000E+00  0.0000E+00  0.0000E+00
 36  0.0000E+00  1.6725E-04  0.0000E+00  0.0000E+00  0.0000E+00  0.0000E+00  0.0000E+00  0.0000E+00  0.0000E+00
 37  0.0000E+00  2.1629E-04  0.0000E+00  0.0000E+00  0.0000E+00  1.6667E-03  0.0000E+00  0.0000E+00  0.0000E+00
 38  0.0000E+00  2.5627E-04  0.0000E+00  0.0000E+00  0.0000E+00  0.0000E+00  0.0000E+00  0.0000E+00  0.0000E+00
 39  0.0000E+00  3.5477E-04  0.0000E+00  0.0000E+00  1.9202E-03  0.0000E+00  1.2977E-03  0.0000E+00  0.0000E+00
 40  0.0000E+00  6.2817E-04  0.0000E+00  6.2065E-04  0.0000E+00  0.0000E+00  0.0000E+00  0.0000E+00  0.0000E+00
 41  0.0000E+00  1.6506E-03  8.1843E-03  0.0000E+00  0.0000E+00  0.0000E+00  0.0000E+00  1.7220E-02  0.0000E+00
 42  0.0000E+00  2.0928E-03  0.0000E+00  3.4348E-03  0.0000E+00  0.0000E+00  0.0000E+00  0.0000E+00  0.0000E+00
 43  0.0000E+00  7.1482E-03  1.9141E-02  4.0741E-03  0.0000E+00  0.0000E+00  0.0000E+00  0.0000E+00  0.0000E+00
 44  1.5003E+00  1.2093E+00  1.2225E+00  1.2760E+00  1.3059E+00  1.2134E+00  1.2500E+00  1.2423E+00  1.2842E+00
 45  3.9429E+00  3.4141E+00  3.4186E+00  3.4663E+00  3.4661E+00  3.4349E+00  3.5226E+00  3.5250E+00  3.4807E+00
 46  3.7826E+00  3.7508E+00  3.8467E+00  4.0036E+00  3.8915E+00  3.8205E+00  3.7634E+00  3.7732E+00  3.7802E+00
 47  4.1902E+00  5.0677E+00  5.1268E+00  4.8914E+00  5.0692E+00  5.1234E+00  5.1321E+00  5.0470E+00  5.1694E+00
 48  4.6241E-03  8.7900E-02  0.0000E+00  1.0029E-01  0.0000E+00  4.4610E-02  1.5226E-01  0.0000E+00  5.1857E-02
 49  0.0000E+00  1.5185E-01  1.2257E-01  7.2608E-02  2.3936E-01  7.5634E-02  1.8577E-01  3.1378E-01  1.0088E-01
 50  0.0000E+00  1.2485E-01  0.0000E+00  0.0000E+00  6.8723E-02  3.9137E-01  0.0000E+00  1.2410E-01  3.0944E-02
 51  0.0000E+00  6.5635E-05  0.0000E+00  0.0000E+00  1.2374E-04  6.9390E-06  0.0000E+00  0.0000E+00  2.9115E-04
 52  0.0000E+00  3.2538E-05  0.0000E+00  0.0000E+00  0.0000E+00  0.0000E+00  0.0000E+00  2.1891E-06  0.0000E+00
 53  0.0000E+00  4.9801E-05  8.6496E-05  4.0280E-05  0.0000E+00  0.0000E+00  0.0000E+00  1.3601E-04  0.0000E+00
 54  0.0000E+00  3.0273E-05  0.0000E+00  0.0000E+00  9.0368E-06  1.3046E-04  0.0000E+00  1.4918E-04  5.6992E-05
 55  0.0000E+00  4.4001E-05  1.8848E-04  0.0000E+00  0.0000E+00  0.0000E+00  1.2933E-04  0.0000E+00  0.0000E+00
 56  0.0000E+00  9.5769E-05  0.0000E+00  0.0000E+00  0.0000E+00  2.3713E-04  0.0000E+00  0.0000E+00  2.8178E-04
 57  0.0000E+00  1.1894E-04  0.0000E+00  0.0000E+00  0.0000E+00  0.0000E+00  0.0000E+00  0.0000E+00  3.5393E-04
 58  0.0000E+00  1.0973E-04  4.2034E-04  0.0000E+00  0.0000E+00  0.0000E+00  0.0000E+00  0.0000E+00  5.6878E-04
 59  0.0000E+00  1.8047E-04  0.0000E+00  2.1295E-04  0.0000E+00  0.0000E+00  0.0000E+00  9.7901E-04  0.0000E+00
 60  0.0000E+00  1.9340E-04  0.0000E+00  0.0000E+00  0.0000E+00  0.0000E+00  7.2007E-05  0.0000E+00  1.0860E-03
 61  0.0000E+00  2.1172E-04  0.0000E+00  0.0000E+00  0.0000E+00  0.0000E+00  0.0000E+00  0.0000E+00  0.0000E+00
 62  0.0000E+00  1.5036E-04  0.0000E+00  0.0000E+00  0.0000E+00  0.0000E+00  0.0000E+00  0.0000E+00  0.0000E+00
 63  0.0000E+00  2.4027E-04  0.0000E+00  0.0000E+00  0.0000E+00  0.0000E+00  1.1635E-04  0.0000E+00  0.0000E+00
 64  0.0000E+00  6.4300E-04  0.0000E+00  0.0000E+00  0.0000E+00  3.3058E-03  0.0000E+00  0.0000E+00  6.7297E-03
 65  0.0000E+00  1.7461E-03  5.3714E-04  7.4899E-04  0.0000E+00  0.0000E+00  1.1414E-02  7.0292E-03  0.0000E+00
 66  0.0000E+00  6.9595E-03  0.0000E+00  6.7594E-03  0.0000E+00  0.0000E+00  3.0921E-02  0.0000E+00  7.4687E-03
 67  0.0000E+00  3.4397E-03  1.2215E-02  0.0000E+00  9.9479E-03  0.0000E+00  0.0000E+00  0.0000E+00  0.0000E+00
 68  0.0000E+00  1.9102E-02  9.1235E-03  0.0000E+00  0.0000E+00  0.0000E+00  6.5863E-02  0.0000E+00  0.0000E+00
 69  1.3093E-01  8.4158E-02  9.3420E-02  7.7088E-02  6.4221E-02  4.7374E-02  9.7211E-02  2.7882E-01  1.2972E-02
 70  0.0000E+00  1.5747E-01  1.2431E-01  2.9297E-02  2.4310E-01  0.0000E+00  3.4734E-01  6.9370E-02  1.8771E-01
 71  7.0843E-03  2.2807E-01  2.9938E-01  1.6317E-01  1.6299E-01  2.6499E-01  8.5957E-02  2.2250E-01  4.8102E-01
 72  1.6066E-02  3.9122E-01  2.1621E-01  4.4398E-01  4.8920E-01  4.9268E-01  5.6086E-01  1.2713E+00  4.1658E-01
 73  1.4752E+00  7.6246E-01  9.7687E-01  4.7089E-01  1.8330E+00  7.2656E-01  7.0509E-01  6.1167E-01  5.8757E-01
 74  2.7922E-01  2.5036E+00  2.7438E+00  3.4129E+00  1.7039E+00  2.0003E+00  2.6225E+00  2.8115E+00  2.6450E+00
 75  6.5411E+00  2.0239E+00  2.4507E+00  2.7459E+00  2.0344E+00  3.1873E+00  2.1020E+00  1.0196E+00  2.1361E+00
 76  0.0000E+00  4.8626E-05  0.0000E+00  3.0777E-04  0.0000E+00  0.0000E+00  0.0000E+00  0.0000E+00  3.3447E-05
 77  0.0000E+00  2.6448E-05  4.5316E-05  0.0000E+00  0.0000E+00  0.0000E+00  0.0000E+00  0.0000E+00  0.0000E+00
 78  0.0000E+00  4.5153E-05  1.1790E-04  0.0000E+00  0.0000E+00  0.0000E+00  0.0000E+00  0.0000E+00  0.0000E+00
 79  0.0000E+00  3.0853E-05  0.0000E+00  0.0000E+00  0.0000E+00  0.0000E+00  0.0000E+00  0.0000E+00  1.2314E-04
 80  0.0000E+00  4.1027E-05  0.0000E+00  0.0000E+00  6.3106E-05  0.0000E+00  3.0920E-05  9.6896E-05  0.0000E+00
 81  0.0000E+00  3.8258E-05  0.0000E+00  1.1675E-04  0.0000E+00  0.0000E+00  0.0000E+00  0.0000E+00  0.0000E+00
 82  0.0000E+00  7.5804E-05  3.1141E-05  0.0000E+00  0.0000E+00  0.0000E+00  7.9511E-05  0.0000E+00  0.0000E+00
 83  0.0000E+00  1.3498E-04  1.0287E-03  0.0000E+00  0.0000E+00  3.0961E-04  0.0000E+00  0.0000E+00  0.0000E+00
 84  4.2405E-03  1.5418E-04  5.5567E-04  1.5517E-03  1.1979E-04  0.0000E+00  1.3034E-03  0.0000E+00  0.0000E+00
 85  0.0000E+00  9.3971E-05  0.0000E+00  0.0000E+00  3.5594E-04  0.0000E+00  0.0000E+00  0.0000E+00  0.0000E+00
 86  0.0000E+00  1.1198E-04  3.9304E-04  7.3233E-04  0.0000E+00  2.0756E-04  4.7759E-04  2.8319E-04  0.0000E+00
 87  0.0000E+00  1.7423E-04  0.0000E+00  0.0000E+00  0.0000E+00  0.0000E+00  0.0000E+00  0.0000E+00  0.0000E+00
 88  0.0000E+00  2.5853E-04  0.0000E+00  0.0000E+00  0.0000E+00  0.0000E+00  0.0000E+00  0.0000E+00  1.6804E-04
 89  0.0000E+00  4.2942E-04  0.0000E+00  0.0000E+00  0.0000E+00  0.0000E+00  0.0000E+00  0.0000E+00  0.0000E+00
 90  0.0000E+00  6.6499E-04  0.0000E+00  0.0000E+00  1.6084E-03  0.0000E+00  0.0000E+00  0.0000E+00  6.3558E-04
 91  0.0000E+00  2.9454E-03  1.3418E-02  0.0000E+00  0.0000E+00  6.8678E-03  0.0000E+00  1.2085E-02  2.8233E-03
 92  0.0000E+00  3.5516E-03  0.0000E+00  1.1703E-03  0.0000E+00  9.9932E-03  0.0000E+00  0.0000E+00  0.0000E+00
 93  0.0000E+00  1.5971E-02  0.0000E+00  0.0000E+00  0.0000E+00  0.0000E+00  1.2486E-02  0.0000E+00  0.0000E+00
 94  0.0000E+00  4.3586E-02  0.0000E+00  0.0000E+00  0.0000E+00  0.0000E+00  0.0000E+00  0.0000E+00  0.0000E+00
 95  2.4413E-04  9.4676E-02  2.0732E-02  9.9847E-02  2.4431E-02  3.5082E-02  0.0000E+00  0.0000E+00  0.0000E+00
 96  0.0000E+00  1.2067E-01  7.4383E-02  0.0000E+00  0.0000E+00  0.0000E+00  2.4833E-02  0.0000E+00  0.0000E+00
 97  0.0000E+00  1.4857E-01  0.0000E+00  0.0000E+00  0.0000E+00  0.0000E+00  0.0000E+00  1.0399E-02  1.1034E-01
 98  0.0000E+00  2.8867E-01  2.6154E-01  2.8581E-02  0.0000E+00  3.1093E-01  2.1375E-01  6.7111E-02  1.8279E-01
 99  0.0000E+00  3.9465E-01  9.7688E-02  0.0000E+00  0.0000E+00  0.0000E+00  2.7500E-01  3.1724E-01  2.2481E-01
100  4.0907E-02  3.8884E-01  4.1277E-01  2.1504E-01  0.0000E+00  3.6525E-01  0.0000E+00  0.0000E+00  0.0000E+00
101  0.0000E+00  2.7333E-05  0.0000E+00  0.0000E+00  0.0000E+00  0.0000E+00  1.9418E-04  0.0000E+00  0.0000E+00
102  0.0000E+00  1.9083E-05  1.8792E-05  0.0000E+00  2.0735E-06  0.0000E+00  0.0000E+00  0.0000E+00  0.0000E+00
103  0.0000E+00  2.1752E-05  0.0000E+00  4.9011E-05  3.4765E-05  0.0000E+00  7.3331E-05  0.0000E+00  0.0000E+00
104  0.0000E+00  2.9626E-05  2.8198E-05  1.0430E-04  0.0000E+00  1.4802E-04  0.0000E+00  2.5613E-05  1.1979E-04
105  0.0000E+00  9.5242E-05  0.0000E+00  0.0000E+00  0.0000E+00  0.0000E+00  0.0000E+00  0.0000E+00  0.0000E+00
106  0.0000E+00  5.3454E-05  0.0000E+00  0.0000E+00  0.0000E+00  0.0000E+00  0.0000E+00  0.0000E+00  1.6243E-04
107  0.0000E+00  5.6789E-05  0.0000E+00  2.0613E-04  0.0000E+00  0.0000E+00  0.0000E+00  0.0000E+00  0.0000E+00
108  0.0000E+00  7.5178E-05  6.7715E-04  0.0000E+00  0.0000E+00  0.0000E+00  0.0000E+00  0.0000E+00  0.0000E+00
109  0.0000E+00  1.0129E-04  0.0000E+00  0.0000E+00  0.0000E+00  1.4469E-04  6.6289E-04  0.0000E+00  1.3041E-04
110  0.0000E+00  1.0823E-04  0.0000E+00  0.0000E+00  0.0000E+00  0.0000E+00  0.0000E+00  0.0000E+00  0.0000E+00
111  0.0000E+00  1.5375E-04  9.2999E-04  0.0000E+00  1.3753E-03  7.4342E-05  0.0000E+00  0.0000E+00  0.0000E+00
112  0.0000E+00  2.3607E-04  0.0000E+00  0.0000E+00  6.8169E-04  0.0000E+00  0.0000E+00  0.0000E+00  0.0000E+00
113  0.0000E+00  3.0594E-04  0.0000E+00  0.0000E+00  0.0000E+00  0.0000E+00  0.0000E+00  1.8909E-03  0.0000E+00
114  0.0000E+00  3.8980E-04  0.0000E+00  0.0000E+00  0.0000E+00  0.0000E+00  9.9718E-04  0.0000E+00  0.0000E+00
115  0.0000E+00  1.5212E-03  9.4223E-04  9.2068E-04  0.0000E+00  0.0000E+00  0.0000E+00  0.0000E+00  1.1496E-02
116  0.0000E+00  3.7780E-03  0.0000E+00  0.0000E+00  0.0000E+00  0.0000E+00  2.7158E-03  0.0000E+00  0.0000E+00
117  0.0000E+00  3.8560E-03  0.0000E+00  0.0000E+00  1.1865E-02  0.0000E+00  0.0000E+00  0.0000E+00  0.0000E+00
118  0.0000E+00  1.8417E-02  0.0000E+00  0.0000E+00  0.0000E+00  8.8886E-02  0.0000E+00  1.2399E-02  0.0000E+00
119  0.0000E+00  5.6546E-02  5.2429E-02  2.2808E-02  0.0000E+00  0.0000E+00  0.0000E+00  3.7961E-02  0.0000E+00
120  0.0000E+00  1.0144E-01  0.0000E+00  0.0000E+00  3.0834E-01  0.0000E+00  4.9977E-01  0.0000E+00  0.0000E+00
121  0.0000E+00  1.4657E-01  3.4584E-01  5.2530E-02  3.4204E-01  2.0463E-01  0.0000E+00  0.0000E+00  1.0068E+00
122  6.0501E+00  6.9548E+00  6.7264E+00  6.8193E+00  6.5282E+00  6.7453E+00  7.1395E+00  7.1630E+00  7.2410E+00
123  2.1393E+01  2.0980E+01  2.1626E+01  2.1557E+01  2.1866E+01  2.1060E+01  2.0835E+01  2.1217E+01  2.1263E+01
124  1.9100E+01  1.8369E+01  1.8544E+01  1.8665E+01  1.8297E+01  1.8273E+01  1.8504E+01  1.9406E+01  1.8763E+01
125  3.1443E+01  2.8929E+01  2.9618E+01  2.9245E+01  2.9402E+01  2.9700E+01  2.9693E+01  2.8969E+01  2.9293E+01
126  0.0000E+00  3.4227E-05  0.0000E+00  3.0185E-05  0.0000E+00  0.0000E+00  0.0000E+00  9.8384E-05  9.6332E-05
127  0.0000E+00  2.1015E-05  0.0000E+00  1.0653E-05  0.0000E+00  9.0334E-05  0.0000E+00  0.0000E+00  0.0000E+00
128  0.0000E+00  5.4671E-05  3.9533E-04  0.0000E+00  0.0000E+00  0.0000E+00  0.0000E+00  0.0000E+00  1.2914E-04
129  0.0000E+00  5.3983E-05  0.0000E+00  6.2828E-05  1.3073E-04  0.0000E+00  2.5301E-04  0.0000E+00  0.0000E+00
130  0.0000E+00  7.8756E-05  5.0098E-05  0.0000E+00  0.0000E+00  0.0000E+00  4.7091E-05  0.0000E+00  0.0000E+00
131  0.0000E+00  1.5233E-04  3.3366E-04  0.0000E+00  0.0000E+00  0.0000E+00  0.0000E+00  5.6104E-04  0.0000E+00
132  0.0000E+00  9.3448E-05  0.0000E+00  0.0000E+00  0.0000E+00  6.4144E-05  0.0000E+00  0.0000E+00  0.0000E+00
133  0.0000E+00  1.1412E-04  0.0000E+00  0.0000E+00  0.0000E+00  1.0714E-03  0.0000E+00  0.0000E+00  4.7859E-04
134  0.0000E+00  7.0474E-05  1.2112E-03  7.6521E-04  0.0000E+00  0.0000E+00  0.0000E+00  0.0000E+00  0.0000E+00
135  0.0000E+00  9.4173E-05  0.0000E+00  0.0000E+00  0.0000E+00  0.0000E+00  0.0000E+00  0.0000E+00  0.0000E+00
136  0.0000E+00  1.9088E-04  0.0000E+00  0.0000E+00  1.3290E-03  0.0000E+00  0.0000E+00  0.0000E+00  0.0000E+00
137  0.0000E+00  1.4726E-04  9.7619E-05  0.0000E+00  0.0000E+00  0.0000E+00  0.0000E+00  0.0000E+00  1.1997E-04
138  0.0000E+00  2.1594E-04  0.0000E+00  0.0000E+00  0.0000E+00  0.0000E+00  0.0000E+00  0.0000E+00  0.0000E+00
139  0.0000E+00  6.1472E-04  0.0000E+00  1.0138E-03  4.6535E-04  0.0000E+00  0.0000E+00  0.0000E+00  0.0000E+00
140  0.0000E+00  2.9916E-03  0.0000E+00  0.0000E+00  0.0000E+00  0.0000E+00  0.0000E+00  0.0000E+00  0.0000E+00
141  0.0000E+00  6.4439E-03  0.0000E+00  0.0000E+00  1.1311E-03  0.0000E+00  0.0000E+00  0.0000E+00  0.0000E+00
142  0.0000E+00  8.5762E-03  0.0000E+00  0.0000E+00  0.0000E+00  0.0000E+00  7.3706E-03  0.0000E+00  0.0000E+00
143  0.0000E+00  2.0845E-02  0.0000E+00  0.0000E+00  0.0000E+00  0.0000E+00  0.0000E+00  0.0000E+00  0.0000E+00
144  0.0000E+00  6.3531E-02  0.0000E+00  0.0000E+00  0.0000E+00  1.7549E-01  2.3520E-01  0.0000E+00  6.7072E-03
145  0.0000E+00  9.6885E-02  0.0000E+00  0.0000E+00  0.0000E+00  0.0000E+00  0.0000E+00  1.9426E-01  3.1147E-02
146  0.0000E+00  1.4725E-01  0.0000E+00  0.0000E+00  8.3381E-02  4.8225E-01  7.6959E-02  6.0231E-01  1.4512E-01
147  7.4414E-02  4.2297E-01  0.0000E+00  3.6399E-01  0.0000E+00  5.6006E-01  0.0000E+00  0.0000E+00  6.5499E-01
148  1.8371E-02  7.1039E-01  7.6681E-01  1.5212E+00  7.5601E-01  7.9953E-01  7.7748E-02  1.7050E-01  0.0000E+00
149  0.0000E+00  5.8717E-01  1.6969E-01  0.0000E+00  3.0535E-01  0.0000E+00  6.4265E-01  8.9960E-01  4.8120E-01
150  0.0000E+00  5.8057E-01  2.9053E-01  0.0000E+00  1.2904E+00  1.0430E-02  9.7934E-01  4.2051E-01  0.0000E+00

# AV, chi2 & Mass for <> & i_chain = 1 ...  7 solutions
AV       1.2484      1.2451      1.2495      1.2442      1.2475      1.2454      1.2472      1.2456      1.2484
chi2 2.6409E+00  2.6743E+00  2.6631E+00  2.6600E+00  2.6612E+00  2.6648E+00  2.6629E+00  2.6631E+00  2.6642E+00
Mass 4.8131E-09  4.7449E-09  4.7721E-09  4.7715E-09  4.7710E-09  4.7692E-09  4.7364E-09  4.7355E-09  4.7317E-09
 -10.98                                  [v0_min (km/s) before EX0s...]
  17.82                                  [vd_min (km/s) before EX0s...]


## Synthetic spectrum (Best Model) ##l_obs f_obs f_syn wei
 3070    [Nl_obs]
 3359.00    0.00000   0.31810   -2.000
 3360.00    0.17896   0.29634   -1.000
 3361.00    0.19498   0.30721   -1.000
 3362.00    0.20957   0.34166   -1.000
 3363.00    0.21636   0.38373   -1.000
 3364.00    0.23555   0.40998   -1.000
 3365.00    0.24574   0.40724   -1.000
 3366.00    0.25475   0.38943   -1.000
 3367.00    0.25063   0.37240   -1.000
 3368.00    0.23361   0.35423   -1.000
 3369.00    0.22081   0.34226   -1.000
 3370.00    0.22230   0.32391   -1.000
 3371.00    0.21877   0.31388   -1.000
 3372.00    0.22401   0.32184   -1.000
 3373.00    0.23335   0.34744   -1.000
 3374.00    0.24608   0.37999   -1.000
 3375.00    0.25813   0.41144   -1.000
 3376.00    0.27748   0.42752   -1.000
 3377.00    0.28789   0.42070   -1.000
 3378.00    0.28927   0.39724   -1.000
 3379.00    0.28196   0.37686   -1.000
 3380.00    0.28130   0.37001   -1.000
 3381.00    0.27312   0.37996   -1.000
 3382.00    0.26992   0.39281   -1.000
 3383.00    0.27492   0.40533   -1.000
 3384.00    0.28614   0.41439   -1.000
 3385.00    0.29624   0.42453   -1.000
 3386.00    0.30015   0.42154   -1.000
 3387.00    0.29749   0.41101   -1.000
 3388.00    0.31131   0.40369   -1.000
 3389.00    0.31774   0.40951   -1.000
 3390.00    0.31930   0.41485   -1.000
 3391.00    0.31704   0.40964   -1.000
 3392.00    0.30933   0.39419   -1.000
 3393.00    0.31261   0.38728   -1.000
 3394.00    0.32217   0.39780   -1.000
 3395.00    0.33650   0.42008   -1.000
 3396.00    0.34566   0.44052   -1.000
 3397.00    0.36083   0.45862   -1.000
 3398.00    0.37437   0.47400   -1.000
 3399.00    0.38952   0.48130   30.283
 3400.00    0.39974   0.47819   29.862
 3401.00    0.39137   0.46553   30.115
 3402.00    0.39269   0.44324   31.414
 3403.00    0.39284   0.43038   31.769
 3404.00    0.38197   0.42135   32.321
 3405.00    0.38180   0.42048   32.911
 3406.00    0.37208   0.41687   33.449
 3407.00    0.36524   0.40856   33.612
 3408.00    0.36341   0.40387   34.143
 3409.00    0.35961   0.40927   34.339
 3410.00    0.36056   0.42409   34.135
 3411.00    0.37124   0.42142   33.118
 3412.00    0.37704   0.40402   32.839
 3413.00    0.37861   0.38262   34.225
 3414.00    0.36189   0.37358   34.878
 3415.00    0.34640   0.39054   34.817
 3416.00    0.36079   0.41368   33.969
 3417.00    0.38029   0.43681   32.521
 3418.00    0.39998   0.45320   30.985
 3419.00    0.40833   0.46784   29.420
 3420.00    0.40600   0.47362   29.263
 3421.00    0.41025   0.46612   29.063
 3422.00    0.40900   0.44052   29.231
 3423.00    0.41038   0.42251   30.073
 3424.00    0.40666   0.41879   30.760
 3425.00    0.41059   0.42544   29.921
 3426.00    0.40777   0.43397   29.129
 3427.00    0.41424   0.44626   28.955
 3428.00    0.43095   0.46827   -1.000
 3429.00    0.44274   0.49131   -1.000
 3430.00    0.44967   0.49234   -1.000
 3431.00    0.43608   0.46958   -1.000
 3432.00    0.43253   0.44138  256.826
 3433.00    0.42386   0.43099   30.347
 3434.00    0.42381   0.44585   28.876
 3435.00    0.42587   0.46145   -1.000
 3436.00    0.42762   0.46042   -1.000
 3437.00    0.42360   0.44164   30.127
 3438.00    0.39825   0.41518   30.162
 3439.00    0.38528   0.38429   31.967
 3440.00    0.37090   0.35924   34.496
 3441.00    0.35273   0.33845   35.936
 3442.00    0.34704   0.33664   36.044
 3443.00    0.34886   0.34602   35.897
 3444.00    0.36677   0.36181   34.513
 3445.00    0.37950   0.37916   32.638
 3446.00    0.38812   0.40402   30.831
 3447.00    0.40778   0.43063   29.738
 3448.00    0.42973   0.45579   -1.000
 3449.00    0.44653   0.47234   -1.000
 3450.00    0.45801   0.46689  256.826
 3451.00    0.46453   0.44468   -1.000
 3452.00    0.45418   0.42873   -1.000
 3453.00    0.44158   0.42744   -1.000
 3454.00    0.44568   0.44155  256.826
 3455.00    0.45758   0.45356  256.826
 3456.00    0.46241   0.45017   -1.000
 3457.00    0.45933   0.43670   -1.000
 3458.00    0.43910   0.41724   -1.000
 3459.00    0.42978   0.40392   30.222
 3460.00    0.42358   0.39149   29.323
 3461.00    0.41502   0.39185   29.149
 3462.00    0.42039   0.40974  199.787
 3463.00    0.43671   0.43072  256.826
 3464.00    0.46846   0.43514   -1.000
 3465.00    0.48116   0.42802   -1.000
 3466.00    0.46573   0.42731   -1.000
 3467.00    0.45594   0.44115   -1.000
 3468.00    0.47402   0.46413   -1.000
 3469.00    0.48535   0.47965  246.557
 3470.00    0.50062   0.48423   -1.000
 3471.00    0.49599   0.47197   -1.000
 3472.00    0.48299   0.45041   -1.000
 3473.00    0.46301   0.41749   -1.000
 3474.00    0.44473   0.39104   -1.000
 3475.00    0.42914   0.37602   30.479
 3476.00    0.42126   0.38470   30.242
 3477.00    0.43157   0.41149   29.642
 3478.00    0.45281   0.44052   -1.000
 3479.00    0.47153   0.45926   -1.000
 3480.00    0.48493   0.46898   -1.000
 3481.00    0.48059   0.46559   -1.000
 3482.00    0.48651   0.45505   -1.000
 3483.00    0.48291   0.44558   -1.000
 3484.00    0.46829   0.44438   -1.000
 3485.00    0.48529   0.45866   -1.000
 3486.00    0.51276   0.47487   -1.000
 3487.00    0.50975   0.47852   -1.000
 3488.00    0.50920   0.45932   -1.000
 3489.00    0.48742   0.43030   -1.000
 3490.00    0.45522   0.40851   -1.000
 3491.00    0.44510   0.40925   -1.000
 3492.00    0.44180   0.42441   -1.000
 3493.00    0.46486   0.43602   -1.000
 3494.00    0.46527   0.44040   -1.000
 3495.00    0.46284   0.43074   -1.000
 3496.00    0.45418   0.42131   -1.000
 3497.00    0.45054   0.42528   -1.000
 3498.00    0.46459   0.44336   -1.000
 3499.00    0.49196   0.46748   -1.000
 3500.00    0.51635   0.47563   -1.000
 3501.00    0.52605   0.48129   -1.000
 3502.00    0.53050   0.49202   -1.000
 3503.00    0.54318   0.49779   -1.000
 3504.00    0.53591   0.49502   -1.000
 3505.00    0.53540   0.48184   -1.000
 3506.00    0.52883   0.47024   -1.000
 3507.00    0.51530   0.46711   -1.000
 3508.00    0.52081   0.46266   -1.000
 3509.00    0.52535   0.45631   -1.000
 3510.00    0.51025   0.44922   -1.000
 3511.00    0.49415   0.43947   -1.000
 3512.00    0.48279   0.42736   -1.000
 3513.00    0.47390   0.41478   -1.000
 3514.00    0.45575   0.41364   -1.000
 3515.00    0.47105   0.43556   -1.000
 3516.00    0.50851   0.47554   -1.000
 3517.00    0.53097   0.50522   -1.000
 3518.00    0.53063   0.51153   -1.000
 3519.00    0.53180   0.48846   -1.000
 3520.00    0.50013   0.46108   -1.000
 3521.00    0.48311   0.43492   -1.000
 3522.00    0.47541   0.41867   -1.000
 3523.00    0.46395   0.40076   -1.000
 3524.00    0.43565   0.38195   30.238
 3525.00    0.42311   0.37651   29.933
 3526.00    0.42643   0.39391   29.785
 3527.00    0.44416   0.42370   -1.000
 3528.00    0.47821   0.45889   -1.000
 3529.00    0.49820   0.48057   -1.000
 3530.00    0.50789   0.48795   -1.000
 3531.00    0.51033   0.48295   -1.000
 3532.00    0.49701   0.47716   -1.000
 3533.00    0.49607   0.47045   -1.000
 3534.00    0.50686   0.47305   -1.000
 3535.00    0.52247   0.48021   -1.000
 3536.00    0.52572   0.49202   -1.000
 3537.00    0.52755   0.50926   -1.000
 3538.00    0.52852   0.52276  230.313
 3539.00    0.52749   0.52666  227.361
 3540.00    0.53749   0.51950   -1.000
 3541.00    0.52202   0.50770   -1.000
 3542.00    0.51638   0.50815  235.568
 3543.00    0.51670   0.52176  234.180
 3544.00    0.52426   0.53111  230.687
 3545.00    0.52848   0.53052  229.891
 3546.00    0.52134   0.52042  234.002
 3547.00    0.51633   0.51168  239.363
 3548.00    0.51828   0.51046  240.458
 3549.00    0.51878   0.51459  239.991
 3550.00    0.52078   0.51891  238.322
 3551.00    0.51314   0.51582  241.443
 3552.00    0.49128   0.50108  248.862
 3553.00    0.48138   0.48160  256.102
 3554.00    0.47066   0.47458  256.826
 3555.00    0.46540   0.48193   -1.000
 3556.00    0.48385   0.49074  252.363
 3557.00    0.48574   0.49725  253.288
 3558.00    0.48379   0.49637  256.826
 3559.00    0.47720   0.49661   -1.000
 3560.00    0.48020   0.50427   -1.000
 3561.00    0.48409   0.51332   -1.000
 3562.00    0.48660   0.51494   -1.000
 3563.00    0.48996   0.49346  252.317
 3564.00    0.47467   0.45728   -1.000
 3565.00    0.44066   0.42008   30.552
 3566.00    0.41184   0.41067   30.373
 3567.00    0.40925   0.41568   30.082
 3568.00    0.42454   0.41341   29.907
 3569.00    0.42131   0.40318   30.887
 3570.00    0.40834   0.39087   31.475
 3571.00    0.40976   0.39361   30.543
 3572.00    0.42587   0.41146   29.188
 3573.00    0.44399   0.42515   -1.000
 3574.00    0.45150   0.43720   -1.000
 3575.00    0.45229   0.44556  256.826
 3576.00    0.45366   0.44796  256.826
 3577.00    0.45672   0.44179   -1.000
 3578.00    0.44341   0.42856   -1.000
 3579.00    0.42083   0.40292   31.589
 3580.00    0.40401   0.37981   32.507
 3581.00    0.37164   0.36566   34.324
 3582.00    0.36431   0.36701   34.609
 3583.00    0.36551   0.37250   34.754
 3584.00    0.37441   0.37045   35.607
 3585.00    0.36251   0.35834   36.775
 3586.00    0.36073   0.34786   37.320
 3587.00    0.36368   0.35291   35.516
 3588.00    0.37666   0.37491   33.623
 3589.00    0.39526   0.41211   31.992
 3590.00    0.41350   0.44589   29.169
 3591.00    0.44935   0.46898   -1.000
 3592.00    0.47346   0.47056  256.826
 3593.00    0.47483   0.46947  256.826
 3594.00    0.47661   0.47749  253.653
 3595.00    0.49531   0.49852  245.667
 3596.00    0.51785   0.52179  233.835
 3597.00    0.52815   0.53217  226.841
 3598.00    0.54837   0.53984  220.871
 3599.00    0.56166   0.54647   -1.000
 3600.00    0.55805   0.54165   -1.000
 3601.00    0.54352   0.51842   -1.000
 3602.00    0.52516   0.49125   -1.000
 3603.00    0.50002   0.46854   -1.000
 3604.00    0.48940   0.46191   -1.000
 3605.00    0.47771   0.46207   -1.000
 3606.00    0.46750   0.45783   -1.000
 3607.00    0.47877   0.44466   -1.000
 3608.00    0.46368   0.42849   -1.000
 3609.00    0.44383   0.42461   -1.000
 3610.00    0.44315   0.43530  256.826
 3611.00    0.47304   0.45841   -1.000
 3612.00    0.48672   0.47432   -1.000
 3613.00    0.49024   0.48898  249.495
 3614.00    0.50489   0.50610  244.928
 3615.00    0.51721   0.52070  236.116
 3616.00    0.52274   0.50934   -1.000
 3617.00    0.49641   0.47458   -1.000
 3618.00    0.45431   0.43118   -1.000
 3619.00    0.43815   0.42371   30.123
 3620.00    0.44183   0.44622  191.283
 3621.00    0.48645   0.48456  247.524
 3622.00    0.52162   0.51179  233.133
 3623.00    0.53669   0.52905  227.291
 3624.00    0.54803   0.54667  224.404
 3625.00    0.56396   0.57618  216.251
 3626.00    0.58262   0.60676   -1.000
 3627.00    0.60085   0.62375   -1.000
 3628.00    0.59943   0.60671  207.475
 3629.00    0.57006   0.55802   -1.000
 3630.00    0.52041   0.49057   -1.000
 3631.00    0.47534   0.45625   -1.000
 3632.00    0.45730   0.45416  256.826
 3633.00    0.47143   0.47960  256.826
 3634.00    0.48829   0.50011  253.357
 3635.00    0.50366   0.51264  247.414
 3636.00    0.51719   0.52209  238.239
 3637.00    0.53737   0.54365  227.052
 3638.00    0.55993   0.56965  216.801
 3639.00    0.57969   0.58769  209.447
 3640.00    0.58985   0.59365  208.976
 3641.00    0.58088   0.58155  214.078
 3642.00    0.56792   0.55812  221.269
 3643.00    0.53924   0.53627  233.193
 3644.00    0.52610   0.51746  240.221
 3645.00    0.51734   0.50241   -1.000
 3646.00    0.50582   0.48769   -1.000
 3647.00    0.49062   0.47351   -1.000
 3648.00    0.48042   0.47334  253.073
 3649.00    0.48896   0.48410  246.396
 3650.00    0.51428   0.50964  236.517
 3651.00    0.53587   0.53820  225.087
 3652.00    0.56331   0.57078  215.585
 3653.00    0.58486   0.58732  210.165
 3654.00    0.59492   0.60084  207.172
 3655.00    0.60124   0.61323  206.408
 3656.00    0.60667   0.62731   -1.000
 3657.00    0.62451   0.64158   -1.000
 3658.00    0.62747   0.64623   -1.000
 3659.00    0.63103   0.64793   -1.000
 3660.00    0.62578   0.64381   -1.000
 3661.00    0.62578   0.63139  200.767
 3662.00    0.62095   0.61323  202.924
 3663.00    0.59918   0.60179  206.380
 3664.00    0.59496   0.59957  208.017
 3665.00    0.60621   0.60553  205.598
 3666.00    0.60761   0.60709  205.649
 3667.00    0.60521   0.59957  209.889
 3668.00    0.58961   0.58389  212.261
 3669.00    0.57001   0.57025  217.457
 3670.00    0.57271   0.57757  216.264
 3671.00    0.60039   0.59725  208.294
 3672.00    0.61745   0.61432  203.994
 3673.00    0.61556   0.62250  203.177
 3674.00    0.62184   0.61937  203.111
 3675.00    0.61978   0.60761  203.565
 3676.00    0.61027   0.58491   -1.000
 3677.00    0.59030   0.55707   -1.000
 3678.00    0.56573   0.53195   -1.000
 3679.00    0.54511   0.52079   -1.000
 3680.00    0.54507   0.52620   -1.000
 3681.00    0.55977   0.54191   -1.000
 3682.00    0.57243   0.55784   -1.000
 3683.00    0.57707   0.56646  213.721
 3684.00    0.57618   0.55887   -1.000
 3685.00    0.56151   0.53726   -1.000
 3686.00    0.54058   0.51132   -1.000
 3687.00    0.52911   0.50799   -1.000
 3688.00    0.53313   0.52621  234.981
 3689.00    0.55806   0.56507  219.625
 3690.00    0.59485   0.60079  205.051
 3691.00    0.62410   0.62356  198.623
 3692.00    0.63293   0.61773   -1.000
 3693.00    0.62349   0.60014   -1.000
 3694.00    0.61309   0.59102   -1.000
 3695.00    0.60541   0.59043   -1.000
 3696.00    0.59756   0.59701  205.648
 3697.00    0.60956   0.60853  203.148
 3698.00    0.63084   0.63157  196.575
 3699.00    0.65105   0.64913  191.540
 3700.00    0.66377   0.65899  188.914
 3701.00    0.66156   0.64418   -1.000
 3702.00    0.63821   0.60342   -1.000
 3703.00    0.59179   0.54461   -1.000
 3704.00    0.54891   0.49861   -1.000
 3705.00    0.51869   0.46911   -1.000
 3706.00    0.50577   0.46920   -1.000
 3707.00    0.51778   0.47728   -1.000
 3708.00    0.52259   0.49003   -1.000
 3709.00    0.52425   0.50674   -1.000
 3710.00    0.55313   0.53070   -1.000
 3711.00    0.58554   0.55648   -1.000
 3712.00    0.61418   0.59004   -1.000
 3713.00    0.65106   0.62259   -1.000
 3714.00    0.68042   0.64072   -1.000
 3715.00    0.68294   0.63988   -1.000
 3716.00    0.66164   0.62410   -1.000
 3717.00    0.63890   0.58754   -1.000
 3718.00    0.59169   0.53385   -1.000
 3719.00    0.52837   0.47220   -1.000
 3720.00    0.46996   0.41307   -1.000
 3721.00    0.44414   0.39723   30.774
 3722.00    0.45530   0.42486   -1.000
 3723.00    0.50701   0.48057   -1.000
 3724.00    0.56329   0.53932   -1.000
 3725.00    0.60167   0.57247   -1.000
 3726.00    0.60820   0.57161   -1.000
 3727.00    0.59212   0.56013   -1.000
 3728.00    0.58017   0.56282   -1.000
 3729.00    0.59422   0.56801   -1.000
 3730.00    0.59318   0.56189   -1.000
 3731.00    0.56352   0.52887   -1.000
 3732.00    0.52648   0.46286   -1.000
 3733.00    0.47307   0.40484   30.194
 3734.00    0.42022   0.36047   32.146
 3735.00    0.39018   0.35112   33.470
 3736.00    0.39651   0.37554   31.908
 3737.00    0.43103   0.42776   28.950
 3738.00    0.48571   0.48450  181.832
 3739.00    0.53127   0.54482  230.153
 3740.00    0.58251   0.57751  216.459
 3741.00    0.60024   0.58036   -1.000
 3742.00    0.58178   0.55108   -1.000
 3743.00    0.55434   0.51646   -1.000
 3744.00    0.52306   0.47977   -1.000
 3745.00    0.49254   0.45994   -1.000
 3746.00    0.46710   0.44296   -1.000
 3747.00    0.45162   0.41850   30.645
 3748.00    0.42142   0.39630   31.051
 3749.00    0.40876   0.38816   31.458
 3750.00    0.42870   0.41053   -1.000
 3751.00    0.48139   0.46365   -1.000
 3752.00    0.54351   0.52207   -1.000
 3753.00    0.58834   0.57890  207.210
 3754.00    0.63294   0.62119  196.144
 3755.00    0.66349   0.62673   -1.000
 3756.00    0.64406   0.59740   -1.000
 3757.00    0.59141   0.54892   -1.000
 3758.00    0.53493   0.51230   -1.000
 3759.00    0.51629   0.51113  255.185
 3760.00    0.53520   0.52655  239.280
 3761.00    0.56207   0.54762   -1.000
 3762.00    0.57827   0.55120   -1.000
 3763.00    0.57562   0.54757   -1.000
 3764.00    0.57570   0.54420   -1.000
 3765.00    0.57562   0.53737   -1.000
 3766.00    0.56645   0.52758   -1.000
 3767.00    0.55706   0.52104   -1.000
 3768.00    0.55512   0.51501   -1.000
 3769.00    0.56157   0.50955   -1.000
 3770.00    0.56697   0.51253   -1.000
 3771.00    0.57371   0.53431   -1.000
 3772.00    0.60429   0.56571   -1.000
 3773.00    0.63072   0.59867   -1.000
 3774.00    0.63623   0.61391   -1.000
 3775.00    0.64012   0.61786   -1.000
 3776.00    0.64351   0.62172   -1.000
 3777.00    0.64968   0.63160   -1.000
 3778.00    0.66634   0.65080   -1.000
 3779.00    0.67824   0.67120  189.470
 3780.00    0.69529   0.68901  184.991
 3781.00    0.70359   0.69639  183.654
 3782.00    0.70738   0.69730  182.536
 3783.00    0.71643   0.69332   -1.000
 3784.00    0.71118   0.67686   -1.000
 3785.00    0.68565   0.64454   -1.000
 3786.00    0.64451   0.61008   -1.000
 3787.00    0.59867   0.57913   -1.000
 3788.00    0.58574   0.56149   -1.000
 3789.00    0.57963   0.56406   -1.000
 3790.00    0.57534   0.57656  222.380
 3791.00    0.58624   0.58401  220.049
 3792.00    0.58777   0.57910  223.284
 3793.00    0.56959   0.55363   -1.000
 3794.00    0.53913   0.52631   -1.000
 3795.00    0.52315   0.49818   -1.000
 3796.00    0.50914   0.46999   -1.000
 3797.00    0.48148   0.44161   -1.000
 3798.00    0.46481   0.43062   -1.000
 3799.00    0.48703   0.45520   -1.000
 3800.00    0.52571   0.51564  238.157
 3801.00    0.56741   0.57186  218.963
 3802.00    0.59509   0.61871   -1.000
 3803.00    0.62184   0.63909   -1.000
 3804.00    0.64325   0.64282  203.118
 3805.00    0.62698   0.62996  206.134
 3806.00    0.60331   0.61653  213.901
 3807.00    0.59232   0.61425   -1.000
 3808.00    0.60521   0.63210   -1.000
 3809.00    0.62919   0.65490   -1.000
 3810.00    0.64407   0.66687   -1.000
 3811.00    0.64406   0.65538  205.863
 3812.00    0.62372   0.61912  216.852
 3813.00    0.59436   0.58202   -1.000
 3814.00    0.55428   0.54856  244.177
 3815.00    0.52730   0.53908  255.415
 3816.00    0.52964   0.54883   -1.000
 3817.00    0.54753   0.56301  241.927
 3818.00    0.55119   0.55654  245.655
 3819.00    0.52239   0.52962  256.826
 3820.00    0.48986   0.51095   -1.000
 3821.00    0.48995   0.51140   -1.000
 3822.00    0.50917   0.52837   -1.000
 3823.00    0.51802   0.52675  256.826
 3824.00    0.48992   0.49968  256.826
 3825.00    0.45514   0.47670   31.710
 3826.00    0.44786   0.46371   30.844
 3827.00    0.44355   0.46127   30.605
 3828.00    0.44614   0.46496   30.115
 3829.00    0.44867   0.46821   29.619
 3830.00    0.45228   0.46253   29.965
 3831.00    0.44219   0.44559   31.310
 3832.00    0.41459   0.41795   33.803
 3833.00    0.39393   0.38758   34.891
 3834.00    0.39090   0.37137   34.250
 3835.00    0.40297   0.37235   32.876
 3836.00    0.41159   0.38533   32.139
 3837.00    0.40952   0.39660   32.788
 3838.00    0.40178   0.40721   33.584
 3839.00    0.40168   0.42240   33.024
 3840.00    0.42593   0.44870   31.164
 3841.00    0.46334   0.49194   -1.000
 3842.00    0.51823   0.53555   -1.000
 3843.00    0.54791   0.57722   -1.000
 3844.00    0.56409   0.59871   -1.000
 3845.00    0.56735   0.60737   -1.000
 3846.00    0.56370   0.61505   -1.000
 3847.00    0.57250   0.61962   -1.000
 3848.00    0.57356   0.61434   -1.000
 3849.00    0.54943   0.60185   -1.000
 3850.00    0.54187   0.59607   -1.000
 3851.00    0.54811   0.60893   -1.000
 3852.00    0.56233   0.62360   -1.000
 3853.00    0.56491   0.63036   -1.000
 3854.00    0.55749   0.61860   -1.000
 3855.00    0.54221   0.60026   -1.000
 3856.00    0.53439   0.58270   -1.000
 3857.00    0.52567   0.56342   -1.000
 3858.00    0.49963   0.54091   30.039
 3859.00    0.46627   0.53429   30.362
 3860.00    0.47033   0.54736   29.764
 3861.00    0.50557   0.58298   -1.000
 3862.00    0.55284   0.61756   -1.000
 3863.00    0.58917   0.63611   -1.000
 3864.00    0.59735   0.63184   -1.000
 3865.00    0.59052   0.62277   -1.000
 3866.00    0.57736   0.62072   -1.000
 3867.00    0.56424   0.62157   -1.000
 3868.00    0.54872   0.62022   -1.000
 3869.00    0.52780   0.60943   -1.000
 3870.00    0.50993   0.58642   -1.000
 3871.00    0.49340   0.56973   30.442
 3872.00    0.50175   0.56418   -1.000
 3873.00    0.53645   0.58055   -1.000
 3874.00    0.58498   0.60414   -1.000
 3875.00    0.61239   0.62243  223.347
 3876.00    0.60375   0.60914  229.938
 3877.00    0.56866   0.57947  249.061
 3878.00    0.52650   0.56100   -1.000
 3879.00    0.51622   0.55675   -1.000
 3880.00    0.51790   0.56587   -1.000
 3881.00    0.50350   0.57166   -1.000
 3882.00    0.49887   0.57161   -1.000
 3883.00    0.53387   0.57603   -1.000
 3884.00    0.57510   0.56834  230.160
 3885.00    0.57357   0.53411   -1.000
 3886.00    0.54521   0.49211   -1.000
 3887.00    0.52704   0.45703   -1.000
 3888.00    0.52649   0.45058   -1.000
 3889.00    0.54398   0.47759   -1.000
 3890.00    0.58387   0.52875   -1.000
 3891.00    0.63519   0.58308   -1.000
 3892.00    0.67671   0.62390   -1.000
 3893.00    0.69282   0.63200   -1.000
 3894.00    0.68240   0.62669   -1.000
 3895.00    0.67552   0.62946   -1.000
 3896.00    0.68898   0.63906   -1.000
 3897.00    0.70730   0.65139   -1.000
 3898.00    0.71142   0.65467   -1.000
 3899.00    0.70114   0.65110   -1.000
 3900.00    0.69974   0.65747   -1.000
 3901.00    0.70672   0.66479   -1.000
 3902.00    0.71113   0.66154   -1.000
 3903.00    0.70688   0.65033   -1.000
 3904.00    0.68527   0.63233   -1.000
 3905.00    0.65302   0.62953   -1.000
 3906.00    0.65311   0.64287  208.946
 3907.00    0.68857   0.67600  196.916
 3908.00    0.73801   0.71203   -1.000
 3909.00    0.76803   0.74068   -1.000
 3910.00    0.78005   0.75302   -1.000
 3911.00    0.79163   0.75972   -1.000
 3912.00    0.79923   0.76325   -1.000
 3913.00    0.78453   0.76065   -1.000
 3914.00    0.76053   0.74849  180.252
 3915.00    0.76035   0.73614   -1.000
 3916.00    0.75971   0.72518   -1.000
 3917.00    0.73947   0.71219   -1.000
 3918.00    0.72666   0.69107   -1.000
 3919.00    0.70042   0.66471   -1.000
 3920.00    0.66240   0.64535   -1.000
 3921.00    0.64764   0.63302   -1.000
 3922.00    0.64943   0.63842   -1.000
 3923.00    0.66326   0.65062   -1.000
 3924.00    0.67043   0.65282   -1.000
 3925.00    0.65925   0.64023   -1.000
 3926.00    0.61495   0.60478   -1.000
 3927.00    0.54999   0.56143  256.826
 3928.00    0.49958   0.50902   33.599
 3929.00    0.44572   0.45706   37.196
 3930.00    0.39132   0.40050   43.518
 3931.00    0.33442   0.33078   51.484
 3932.00    0.27677   0.26931   60.256
 3933.00    0.24102   0.23170   66.024
 3934.00    0.23724   0.23837   63.592
 3935.00    0.27148   0.28756   55.368
 3936.00    0.32671   0.36406   45.848
 3937.00    0.39129   0.43721   37.652
 3938.00    0.45438   0.51258   31.624
 3939.00    0.51764   0.56397   -1.000
 3940.00    0.56204   0.59896   -1.000
 3941.00    0.58450   0.61465   -1.000
 3942.00    0.58822   0.61672   -1.000
 3943.00    0.57568   0.61356   -1.000
 3944.00    0.57767   0.62660   -1.000
 3945.00    0.62555   0.65444   -1.000
 3946.00    0.68004   0.68156  199.724
 3947.00    0.70842   0.69804  197.255
 3948.00    0.70834   0.70452  195.813
 3949.00    0.72528   0.71456  188.767
 3950.00    0.75659   0.72817   -1.000
 3951.00    0.76467   0.72739   -1.000
 3952.00    0.75231   0.72732   -1.000
 3953.00    0.75694   0.73745   -1.000
 3954.00    0.77225   0.74329   -1.000
 3955.00    0.77500   0.73812   -1.000
 3956.00    0.74935   0.72344   -1.000
 3957.00    0.73068   0.71218   -1.000
 3958.00    0.73259   0.71250   -1.000
 3959.00    0.72858   0.69757   -1.000
 3960.00    0.67185   0.64905   -1.000
 3961.00    0.59969   0.60043  237.706
 3962.00    0.54525   0.55385  256.826
 3963.00    0.51110   0.52601  256.826
 3964.00    0.49003   0.49706   31.636
 3965.00    0.44036   0.43808   35.045
 3966.00    0.36453   0.36538   43.152
 3967.00    0.30049   0.28744   52.819
 3968.00    0.25739   0.24524   58.627
 3969.00    0.25720   0.24794   54.815
 3970.00    0.29432   0.29881   45.361
 3971.00    0.35642   0.36983   37.265
 3972.00    0.43072   0.45056   31.156
 3973.00    0.49946   0.51592   -1.000
 3974.00    0.56303   0.57797   -1.000
 3975.00    0.62615   0.62918  213.276
 3976.00    0.67464   0.67350  196.404
 3977.00    0.71936   0.71686  184.720
 3978.00    0.76805   0.75385  174.996
 3979.00    0.80935   0.78730   -1.000
 3980.00    0.83790   0.79744   -1.000
 3981.00    0.83426   0.79535   -1.000
 3982.00    0.82556   0.78968   -1.000
 3983.00    0.83066   0.79213   -1.000
 3984.00    0.84582   0.80638   -1.000
 3985.00    0.86091   0.82424   -1.000
 3986.00    0.88309   0.84384   -1.000
 3987.00    0.88768   0.86425   -1.000
 3988.00    0.90615   0.87423   -1.000
 3989.00    0.91461   0.87351   -1.000
 3990.00    0.89730   0.87404   -1.000
 3991.00    0.91473   0.88270   -1.000
 3992.00    0.94359   0.89731   -1.000
 3993.00    0.94469   0.90582   -1.000
 3994.00    0.92963   0.89871   -1.000
 3995.00    0.90552   0.88039   -1.000
 3996.00    0.88250   0.85739   -1.000
 3997.00    0.87411   0.85272   -1.000
 3998.00    0.87976   0.86738  154.692
 3999.00    0.92216   0.89800   -1.000
 4000.00    0.96125   0.92347   -1.000
 4001.00    0.97895   0.94191   -1.000
 4002.00    0.98769   0.94436   -1.000
 4003.00    0.98049   0.92524   -1.000
 4004.00    0.93604   0.88137   -1.000
 4005.00    0.87358   0.84779   -1.000
 4006.00    0.87003   0.85018   -1.000
 4007.00    0.91586   0.88325   -1.000
 4008.00    0.95334   0.92606   -1.000
 4009.00    0.97920   0.94696   -1.000
 4010.00    0.99168   0.95619   -1.000
 4011.00    0.98919   0.96020   -1.000
 4012.00    0.98759   0.96261   -1.000
 4013.00    0.98914   0.96565   -1.000
 4014.00    0.99593   0.97171   -1.000
 4015.00    1.00723   0.97654   -1.000
 4016.00    1.00803   0.97427   -1.000
 4017.00    0.99472   0.97361  139.908
 4018.00    1.00000   0.98209  139.294
 4019.00    1.01925   0.99105   -1.000
 4020.00    1.02301   0.99666   -1.000
 4021.00    1.02145   0.99011   -1.000
 4022.00    1.01586   0.98119   -1.000
 4023.00    1.00192   0.97310   -1.000
 4024.00    0.99242   0.96842   -1.000
 4025.00    1.00698   0.97405   -1.000
 4026.00    1.03604   0.99446   -1.000
 4027.00    1.06036   1.01695   -1.000
 4028.00    1.06248   1.01306   -1.000
 4029.00    1.02261   0.97423   -1.000
 4030.00    0.96526   0.91133   -1.000
 4031.00    0.91463   0.86799   -1.000
 4032.00    0.89689   0.84614   -1.000
 4033.00    0.89364   0.85112   -1.000
 4034.00    0.91261   0.87896   -1.000
 4035.00    0.96109   0.93071   -1.000
 4036.00    1.02009   0.98460   -1.000
 4037.00    1.06263   1.03281   -1.000
 4038.00    1.08369   1.04401   -1.000
 4039.00    1.07500   1.03140   -1.000
 4040.00    1.04140   1.01197   -1.000
 4041.00    1.02259   1.00273  136.158
 4042.00    1.03319   0.98456   -1.000
 4043.00    0.99695   0.93331   -1.000
 4044.00    0.90770   0.85928   -1.000
 4045.00    0.82526   0.80434   -1.000
 4046.00    0.82998   0.81720  163.129
 4047.00    0.91049   0.88854   -1.000
 4048.00    0.99574   0.95690   -1.000
 4049.00    1.03766   1.00922   -1.000
 4050.00    1.06150   1.02486   -1.000
 4051.00    1.05243   1.02405   -1.000
 4052.00    1.02528   1.00810  137.107
 4053.00    1.00242   0.98777  140.677
 4054.00    0.98409   0.96938  142.901
 4055.00    0.97400   0.95561  144.064
 4056.00    0.96100   0.94259  145.041
 4057.00    0.95141   0.93288  146.556
 4058.00    0.95150   0.94311  144.903
 4059.00    0.97392   0.96939  139.692
 4060.00    1.01435   0.98197   -1.000
 4061.00    1.01168   0.95728   -1.000
 4062.00    0.95255   0.89392   -1.000
 4063.00    0.88037   0.85325   -1.000
 4064.00    0.87106   0.84877   -1.000
 4065.00    0.92058   0.87230   -1.000
 4066.00    0.95880   0.90630   -1.000
 4067.00    0.97409   0.93420   -1.000
 4068.00    1.00296   0.95211   -1.000
 4069.00    1.02498   0.95382   -1.000
 4070.00    0.99451   0.92548   -1.000
 4071.00    0.95033   0.88826   -1.000
 4072.00    0.94718   0.88960   -1.000
 4073.00    0.97869   0.91532   -1.000
 4074.00    0.99428   0.93539   -1.000
 4075.00    0.96044   0.91485   -1.000
 4076.00    0.90422   0.87035   -1.000
 4077.00    0.86263   0.85096  164.546
 4078.00    0.87159   0.86597  159.340
 4079.00    0.92693   0.92086  148.461
 4080.00    0.99021   0.97426  138.202
 4081.00    1.03338   1.00690   -1.000
 4082.00    1.02397   1.00041   -1.000
 4083.00    0.99593   0.97567  140.650
 4084.00    0.98059   0.95874  142.878
 4085.00    0.98181   0.96581  140.845
 4086.00    1.01252   0.99868  136.116
 4087.00    1.05717   1.03169  130.878
 4088.00    1.09641   1.05649   -1.000
 4089.00    1.09028   1.05461   -1.000
 4090.00    1.07447   1.03826   -1.000
 4091.00    1.05032   1.01887   -1.000
 4092.00    1.03540   1.01041   -1.000
 4093.00    1.04000   0.99777   -1.000
 4094.00    1.03073   0.97549   -1.000
 4095.00    0.99600   0.94133   -1.000
 4096.00    0.94686   0.90747   -1.000
 4097.00    0.92900   0.88503   -1.000
 4098.00    0.91827   0.86013   -1.000
 4099.00    0.88683   0.81579   -1.000
 4100.00    0.82630   0.75279   -1.000
 4101.00    0.75148   0.71245   -1.000
 4102.00    0.75246   0.71923   -1.000
 4103.00    0.80338   0.78181  167.379
 4104.00    0.87251   0.85173  154.274
 4105.00    0.93475   0.91368  145.892
 4106.00    0.97256   0.94608   -1.000
 4107.00    0.99119   0.96126   -1.000
 4108.00    0.98158   0.96192  141.886
 4109.00    0.97039   0.95472  144.650
 4110.00    0.96193   0.95049  146.815
 4111.00    0.96272   0.95673  145.074
 4112.00    0.97952   0.97201  141.803
 4113.00    0.99950   0.99361  139.347
 4114.00    1.02351   1.01515  137.199
 4115.00    1.03932   1.02998  135.841
 4116.00    1.04140   1.02493  136.472
 4117.00    1.02386   1.00548  139.350
 4118.00    0.99806   0.98363  144.061
 4119.00    0.98242   0.97089  145.827
 4120.00    0.99207   0.97690  144.067
 4121.00    1.00186   0.98771  142.560
 4122.00    0.99424   0.99673  142.674
 4123.00    0.99440   1.00472  141.177
 4124.00    1.01840   1.01499  138.675
 4125.00    1.02748   1.02248  138.162
 4126.00    1.02660   1.01841  139.986
 4127.00    1.01218   1.00593  143.008
 4128.00    0.99520   0.99795  144.237
 4129.00    0.98643   0.99035  144.969
 4130.00    0.97390   0.96980  146.778
 4131.00    0.95492   0.94056  151.378
 4132.00    0.92428   0.91369  156.182
 4133.00    0.91718   0.91887  156.699
 4134.00    0.94236   0.95302  151.637
 4135.00    0.99065   0.99426  143.984
 4136.00    1.02840   1.03018  139.233
 4137.00    1.04424   1.05369  136.941
 4138.00    1.06826   1.06674  134.800
 4139.00    1.07066   1.07275  134.233
 4140.00    1.05765   1.05373  136.927
 4141.00    1.02429   1.00506  144.088
 4142.00    0.95408   0.94240  156.254
 4143.00    0.89561   0.90743  164.672
 4144.00    0.89531   0.91708   -1.000
 4145.00    0.94765   0.95920  149.398
 4146.00    1.00462   1.00365  143.739
 4147.00    1.01975   1.01561  142.164
 4148.00    1.01139   1.00989  144.799
 4149.00    0.99352   1.00111  148.861
 4150.00    0.96837   0.99904   -1.000
 4151.00    0.96703   0.99836   -1.000
 4152.00    0.96364   0.99246   -1.000
 4153.00    0.96082   0.98209   -1.000
 4154.00    0.96036   0.97205  152.681
 4155.00    0.95150   0.97156   -1.000
 4156.00    0.95379   0.98583   -1.000
 4157.00    1.07934   1.00658   -1.000
 4158.00    1.05622   1.03251   -1.000
 4159.00    0.97055   1.05475   -1.000
 4160.00    0.96947   1.06791   -1.000
 4161.00    1.01712   1.07978   -1.000
 4162.00    1.04917   1.08812   -1.000
 4163.00    1.06083   1.09298   -1.000
 4164.00    1.05734   1.08638   -1.000
 4165.00    1.03359   1.06776   -1.000
 4166.00    1.00810   1.04154   -1.000
 4167.00    0.98016   1.03302   -1.000
 4168.00    0.98269   1.03571   -1.000
 4169.00    1.01387   1.04178   -1.000
 4170.00    1.01035   1.03041  146.028
 4171.00    0.97049   0.99104   -1.000
 4172.00    0.90871   0.95691   -1.000
 4173.00    0.88146   0.94505   -1.000
 4174.00    0.90640   0.96078   -1.000
 4175.00    0.94246   0.98602   -1.000
 4176.00    0.95287   0.99689   -1.000
 4177.00    0.94676   1.00450   -1.000
 4178.00    0.94584   1.01764   -1.000
 4179.00    0.95833   1.02777   -1.000
 4180.00    0.96634   1.03159   -1.000
 4181.00    0.98025   1.02044   -1.000
 4182.00    0.98154   1.01884   -1.000
 4183.00    0.99446   1.04160   -1.000
 4184.00    1.03118   1.05779   -1.000
 4185.00    1.03807   1.05438  142.510
 4186.00    1.01807   1.02782  147.285
 4187.00    0.98316   1.00580   -1.000
 4188.00    0.97442   1.01032   -1.000
 4189.00    1.00388   1.02797   -1.000
 4190.00    1.00669   1.04528   -1.000
 4191.00    1.00704   1.05510   -1.000
 4192.00    1.03309   1.06547   -1.000
 4193.00    1.05728   1.07353  139.023
 4194.00    1.05300   1.06380  143.002
 4195.00    1.00807   1.02617  150.544
 4196.00    0.95960   0.98956   -1.000
 4197.00    0.93854   0.96096   -1.000
 4198.00    0.93210   0.95138   -1.000
 4199.00    0.94683   0.95002  157.031
 4200.00    0.97194   0.95824  154.505
 4201.00    0.97431   0.96536  154.057
 4202.00    0.96971   0.97538  153.074
 4203.00    0.98217   0.99867  150.668
 4204.00    1.00345   1.03286   -1.000
 4205.00    1.02457   1.06277   -1.000
 4206.00    1.03783   1.08319   -1.000
 4207.00    1.06179   1.09765   -1.000
 4208.00    1.08265   1.09872  139.484
 4209.00    1.07756   1.09245  140.056
 4210.00    1.07391   1.08978  139.772
 4211.00    1.08242   1.09623  138.787
 4212.00    1.08305   1.10276  139.573
 4213.00    1.06716   1.07954  144.128
 4214.00    1.02113   1.03651  150.758
 4215.00    0.97718   1.01458   -1.000
 4216.00    0.99196   1.02749   -1.000
 4217.00    1.06095   1.07923  140.299
 4218.00    1.12415   1.12178  134.035
 4219.00    1.16054   1.15095  130.276
 4220.00    1.17491   1.15362  128.842
 4221.00    1.17596   1.13632   -1.000
 4222.00    1.14690   1.09382   -1.000
 4223.00    1.08516   1.02577   -1.000
 4224.00    0.99855   0.92507   -1.000
 4225.00    0.89357   0.84258   -1.000
 4226.00    0.79751   0.79781  195.500
 4227.00    0.80489   0.83788   -1.000
 4228.00    0.92522   0.93403  158.969
 4229.00    1.04971   1.04849  142.610
 4230.00    1.11902   1.10135  135.073
 4231.00    1.14276   1.11180   -1.000
 4232.00    1.12567   1.09370   -1.000
 4233.00    1.08907   1.06660  140.553
 4234.00    1.06581   1.04067   -1.000
 4235.00    1.05207   1.03364  145.297
 4236.00    1.03769   1.03306  147.951
 4237.00    1.04196   1.04191  146.893
 4238.00    1.05547   1.06215  143.452
 4239.00    1.06728   1.08509  141.404
 4240.00    1.09207   1.10900  138.676
 4241.00    1.12231   1.13587  136.799
 4242.00    1.14222   1.15509  136.194
 4243.00    1.14515   1.17401   -1.000
 4244.00    1.16116   1.18814   -1.000
 4245.00    1.17166   1.18220  132.361
 4246.00    1.14071   1.14608  138.483
 4247.00    1.10055   1.09894  143.787
 4248.00    1.07038   1.05166  147.474
 4249.00    1.04697   1.02945  148.842
 4250.00    1.03754   1.02835  148.685
 4251.00    1.05361   1.05129  144.417
 4252.00    1.09170   1.06486   -1.000
 4253.00    1.10183   1.05792   -1.000
 4254.00    1.07050   1.04542   -1.000
 4255.00    1.05726   1.05808  143.141
 4256.00    1.10463   1.09954  137.525
 4257.00    1.13498   1.11601  136.355
 4258.00    1.09511   1.08414  141.570
 4259.00    1.04222   1.03573  149.447
 4260.00    1.01094   1.01163  153.434
 4261.00    1.02112   1.04667   -1.000
 4262.00    1.08893   1.11121   -1.000
 4263.00    1.16794   1.17619  131.915
 4264.00    1.20044   1.20493  128.804
 4265.00    1.21307   1.20640  128.470
 4266.00    1.21312   1.19263  130.565
 4267.00    1.17599   1.16323  134.914
 4268.00    1.13655   1.11487  139.023
 4269.00    1.10084   1.05851   -1.000
 4270.00    1.03051   0.98866   -1.000
 4271.00    0.95655   0.94605  163.480
 4272.00    0.93059   0.92980  165.288
 4273.00    0.94946   0.94634  161.600
 4274.00    0.97563   0.98103  157.529
 4275.00    1.01844   1.03133  150.478
 4276.00    1.08376   1.09067  140.681
 4277.00    1.14499   1.15115  134.107
 4278.00    1.17613   1.16504  133.973
 4279.00    1.16085   1.14600  139.968
 4280.00    1.10875   1.11196  144.879
 4281.00    1.08578   1.10032  145.297
 4282.00    1.09812   1.10819  143.240
 4283.00    1.10990   1.11246  141.929
 4284.00    1.10581   1.10770  143.745
 4285.00    1.07792   1.09308  148.003
 4286.00    1.05173   1.07755   -1.000
 4287.00    1.03632   1.05127  153.915
 4288.00    1.00863   1.01143  159.832
 4289.00    0.95793   0.96676  167.874
 4290.00    0.93668   0.95713   -1.000
 4291.00    0.97181   0.98961   -1.000
 4292.00    1.03314   1.03972  149.635
 4293.00    1.08057   1.06326  146.734
 4294.00    1.08076   1.06124  148.077
 4295.00    1.06259   1.04895  150.531
 4296.00    1.04785   1.02881   -1.000
 4297.00    1.01050   0.98377   -1.000
 4298.00    0.94202   0.92856  175.864
 4299.00    0.87596   0.87364  189.044
 4300.00    0.84499   0.85346  191.531
 4301.00    0.86275   0.85995  185.850
 4302.00    0.87740   0.87950  182.995
 4303.00    0.89317   0.89374  180.218
 4304.00    0.91253   0.90270  178.033
 4305.00    0.91895   0.89334   -1.000
 4306.00    0.89406   0.86063   -1.000
 4307.00    0.85496   0.82593   -1.000
 4308.00    0.81750   0.81194  199.954
 4309.00    0.82509   0.83356  196.016
 4310.00    0.88340   0.87731  185.432
 4311.00    0.93724   0.93356  173.283
 4312.00    0.98714   0.98250  164.502
 4313.00    1.01762   1.03708   -1.000
 4314.00    1.05955   1.10925   -1.000
 4315.00    1.12834   1.18482   -1.000
 4316.00    1.23179   1.27022   -1.000
 4317.00    1.29864   1.31196  121.049
 4318.00    1.30602   1.31288  121.026
 4319.00    1.28437   1.28960  122.929
 4320.00    1.26403   1.26267  125.725
 4321.00    1.22937   1.22014  130.000
 4322.00    1.18267   1.15866   -1.000
 4323.00    1.11323   1.06950   -1.000
 4324.00    1.03034   0.99121   -1.000
 4325.00    0.95745   0.96593  166.316
 4326.00    0.97317   1.01930   -1.000
 4327.00    1.08077   1.11531   -1.000
 4328.00    1.19528   1.21707   -1.000
 4329.00    1.24444   1.25605  126.583
 4330.00    1.24611   1.25956  127.135
 4331.00    1.23246   1.25590   -1.000
 4332.00    1.24397   1.26661   -1.000
 4333.00    1.25584   1.28080   -1.000
 4334.00    1.26711   1.27886  122.666
 4335.00    1.26690   1.24631  124.782
 4336.00    1.20900   1.17310   -1.000
 4337.00    1.10780   1.07077   -1.000
 4338.00    1.01005   0.95534   -1.000
 4339.00    0.93176   0.89387   -1.000
 4340.00    0.88969   0.88738  176.880
 4341.00    0.92472   0.94533   -1.000
 4342.00    1.01540   1.03832   -1.000
 4343.00    1.10726   1.12812   -1.000
 4344.00    1.15282   1.17766   -1.000
 4345.00    1.19126   1.21512   -1.000
 4346.00    1.22489   1.24214  128.279
 4347.00    1.24246   1.27051   -1.000
 4348.00    1.26880   1.29334   -1.000
 4349.00    1.28484   1.28043  125.189
 4350.00    1.24019   1.21904  132.188
 4351.00    1.14223   1.15365  142.197
 4352.00    1.09676   1.12198   -1.000
 4353.00    1.14190   1.15243  138.259
 4354.00    1.20674   1.20687  131.960
 4355.00    1.24185   1.25499  127.903
 4356.00    1.27810   1.27586  125.244
 4357.00    1.30151   1.27911  125.309
 4358.00    1.27455   1.26742  128.074
 4359.00    1.25123   1.26127  129.652
 4360.00    1.26014   1.27840  127.136
 4361.00    1.29822   1.30689  123.223
 4362.00    1.33626   1.33472  121.870
 4363.00    1.34817   1.35004  121.381
 4364.00    1.34634   1.36073  120.003
 4365.00    1.36327   1.35787  119.903
 4366.00    1.34065   1.32852  123.653
 4367.00    1.28301   1.28668  128.212
 4368.00    1.25193   1.26648  129.623
 4369.00    1.25737   1.26128  128.326
 4370.00    1.26812   1.26240  127.533
 4371.00    1.27115   1.25445  127.425
 4372.00    1.26663   1.22795   -1.000
 4373.00    1.22527   1.19000   -1.000
 4374.00    1.17048   1.15044  139.377
 4375.00    1.15302   1.14732  139.447
 4376.00    1.19108   1.18658  133.639
 4377.00    1.25540   1.24721  126.893
 4378.00    1.29834   1.27719  124.665
 4379.00    1.30127   1.27089   -1.000
 4380.00    1.28031   1.22690   -1.000
 4381.00    1.23785   1.14334   -1.000
 4382.00    1.13527   1.03717   -1.000
 4383.00    0.99588   0.96551   -1.000
 4384.00    0.93763   0.96194   -1.000
 4385.00    1.01008   1.03221   -1.000
 4386.00    1.13079   1.12685  137.467
 4387.00    1.20686   1.17715   -1.000
 4388.00    1.22198   1.18716   -1.000
 4389.00    1.21299   1.18253   -1.000
 4390.00    1.20186   1.18554  135.036
 4391.00    1.21884   1.20039  132.393
 4392.00    1.25016   1.21762   -1.000
 4393.00    1.24945   1.22460  130.300
 4394.00    1.23096   1.22076  133.235
 4395.00    1.23269   1.23400  132.721
 4396.00    1.26899   1.27455  126.577
 4397.00    1.32777   1.30372  122.904
 4398.00    1.33960   1.29870   -1.000
 4399.00    1.28546   1.26508  129.341
 4400.00    1.23376   1.24061  133.189
 4401.00    1.23006   1.22795  131.592
 4402.00    1.26041   1.21253   -1.000
 4403.00    1.23899   1.16866   -1.000
 4404.00    1.15627   1.11558   -1.000
 4405.00    1.11246   1.09905  142.848
 4406.00    1.15288   1.12928  137.984
 4407.00    1.18933   1.16863  135.991
 4408.00    1.19231   1.20944  134.787
 4409.00    1.22440   1.25672   -1.000
 4410.00    1.28831   1.32118   -1.000
 4411.00    1.33783   1.36689   -1.000
 4412.00    1.36847   1.35769  118.413
 4413.00    1.34749   1.30566   -1.000
 4414.00    1.27187   1.24549   -1.000
 4415.00    1.19923   1.20058  133.412
 4416.00    1.19864   1.21470  132.610
 4417.00    1.24368   1.27145   -1.000
 4418.00    1.28980   1.34067   -1.000
 4419.00    1.33182   1.37628   -1.000
 4420.00    1.34371   1.37621   -1.000
 4421.00    1.30907   1.34377   -1.000
 4422.00    1.26836   1.31112   -1.000
 4423.00    1.25073   1.29976   -1.000
 4424.00    1.25695   1.30693   -1.000
 4425.00    1.26340   1.31285   -1.000
 4426.00    1.26433   1.31281   -1.000
 4427.00    1.26294   1.31978   -1.000
 4428.00    1.27780   1.32953   -1.000
 4429.00    1.27334   1.33112   -1.000
 4430.00    1.25891   1.32640   -1.000
 4431.00    1.26069   1.32501   -1.000
 4432.00    1.27089   1.32404   -1.000
 4433.00    1.25655   1.29482   -1.000
 4434.00    1.21151   1.25048   -1.000
 4435.00    1.18199   1.23471   -1.000
 4436.00    1.21730   1.27240   -1.000
 4437.00    1.29583   1.35477   -1.000
 4438.00    1.36868   1.41086   -1.000
 4439.00    1.38993   1.42461   -1.000
 4440.00    1.36963   1.38271  119.624
 4441.00    1.30362   1.32465  125.427
 4442.00    1.25058   1.28155   -1.000
 4443.00    1.24364   1.29138   -1.000
 4444.00    1.28183   1.34476   -1.000
 4445.00    1.35080   1.39749   -1.000
 4446.00    1.39540   1.42853   -1.000
 4447.00    1.40063   1.43092   -1.000
 4448.00    1.38998   1.42895   -1.000
 4449.00    1.38943   1.42842   -1.000
 4450.00    1.37094   1.42154   -1.000
 4451.00    1.36952   1.40848   -1.000
 4452.00    1.37267   1.38377  121.223
 4453.00    1.33663   1.34009  125.754
 4454.00    1.27410   1.27926  131.604
 4455.00    1.23071   1.25188   -1.000
 4456.00    1.23952   1.25473  131.999
 4457.00    1.26152   1.27481  129.637
 4458.00    1.26919   1.28211  129.738
 4459.00    1.26254   1.27383  130.420
 4460.00    1.24679   1.26735   -1.000
 4461.00    1.23736   1.27381   -1.000
 4462.00    1.25393   1.30231   -1.000
 4463.00    1.30791   1.34426   -1.000
 4464.00    1.35275   1.37782   -1.000
 4465.00    1.36235   1.38826   -1.000
 4466.00    1.36524   1.37953  122.134
 4467.00    1.36263   1.36547  123.542
 4468.00    1.33537   1.35555   -1.000
 4469.00    1.31809   1.35307   -1.000
 4470.00    1.33506   1.37184   -1.000
 4471.00    1.35952   1.41584   -1.000
 4472.00    1.40560   1.45519   -1.000
 4473.00    1.45756   1.48613   -1.000
 4474.00    1.47807   1.49521  112.638
 4475.00    1.47816   1.50195   -1.000
 4476.00    1.49993   1.51595  111.860
 4477.00    1.52286   1.52345  111.207
 4478.00    1.50911   1.50374  112.224
 4479.00    1.45856   1.44934  116.426
 4480.00    1.38319   1.38813  121.752
 4481.00    1.33101   1.36211   -1.000
 4482.00    1.34150   1.38280   -1.000
 4483.00    1.39525   1.44503   -1.000
 4484.00    1.46200   1.50333   -1.000
 4485.00    1.50375   1.54450   -1.000
 4486.00    1.51591   1.54361   -1.000
 4487.00    1.49882   1.51032  114.331
 4488.00    1.44256   1.45470  118.764
 4489.00    1.38746   1.42610   -1.000
 4490.00    1.37867   1.43145   -1.000
 4491.00    1.41105   1.46198   -1.000
 4492.00    1.44481   1.47905   -1.000
 4493.00    1.44061   1.45479  116.798
 4494.00    1.39694   1.42136   -1.000
 4495.00    1.36220   1.40375   -1.000
 4496.00    1.36825   1.42386   -1.000
 4497.00    1.41119   1.46341   -1.000
 4498.00    1.45293   1.49571   -1.000
 4499.00    1.47634   1.50841   -1.000
 4500.00    1.46131   1.50066   -1.000
 4501.00    1.43820   1.50059   -1.000
 4502.00    1.45326   1.52067   -1.000
 4503.00    1.52006   1.55665   -1.000
 4504.00    1.58007   1.59404  106.177
 4505.00    1.58118   1.60678   -1.000
 4506.00    1.57884   1.59296  109.128
 4507.00    1.57049   1.57410  110.195
 4508.00    1.55234   1.56832  110.278
 4509.00    1.55828   1.57366  109.423
 4510.00    1.57299   1.58028  108.659
 4511.00    1.56586   1.57226  109.592
 4512.00    1.53917   1.54943  111.783
 4513.00    1.50169   1.52578   -1.000
 4514.00    1.47629   1.51073   -1.000
 4515.00    1.48606   1.50713  113.910
 4516.00    1.49343   1.50909  113.828
 4517.00    1.48412   1.50719   -1.000
 4518.00    1.47254   1.50463   -1.000
 4519.00    1.48484   1.51603   -1.000
 4520.00    1.52556   1.53802  111.661
 4521.00    1.54102   1.55108  112.010
 4522.00    1.51658   1.54032   -1.000
 4523.00    1.47784   1.51091   -1.000
 4524.00    1.45838   1.48176   -1.000
 4525.00    1.43692   1.45295  120.008
 4526.00    1.38164   1.41242   -1.000
 4527.00    1.34358   1.36728   -1.000
 4528.00    1.32065   1.33649  128.729
 4529.00    1.31873   1.33448  127.783
 4530.00    1.33314   1.35469   -1.000
 4531.00    1.36307   1.38107  123.225
 4532.00    1.38417   1.39547  122.624
 4533.00    1.37423   1.38767  126.088
 4534.00    1.33963   1.37020   -1.000
 4535.00    1.32862   1.37493   -1.000
 4536.00    1.37437   1.41710   -1.000
 4537.00    1.47420   1.48409  114.144
 4538.00    1.53671   1.53730  111.072
 4539.00    1.53580   1.54749  112.157
 4540.00    1.49625   1.52986   -1.000
 4541.00    1.48205   1.51358   -1.000
 4542.00    1.49771   1.51585  113.926
 4543.00    1.50098   1.52413   -1.000
 4544.00    1.47267   1.52167   -1.000
 4545.00    1.51228   1.50611   -2.000
 4546.00    0.54996   1.49289   -2.000
 4547.00   -0.03226   1.48413   -2.000
 4548.00   -0.04967   1.46872    0.000
 4549.00    0.90288   1.45275   -1.000
 4550.00    0.57013   1.45416   -1.000
 4551.00    0.77352   1.47593   -1.000
 4552.00    1.49801   1.48644  118.993
 4553.00    1.44080   1.47262   -1.000
 4554.00    1.42655   1.45552   -1.000
 4555.00    1.42862   1.45890   -1.000
 4556.00    1.47216   1.49413   -1.000
 4557.00    1.53109   1.54744  111.069
 4558.00    1.56905   1.59111  109.113
 4559.00    1.58373   1.60976   -1.000
 4560.00    1.58301   1.61366   -1.000
 4561.00    1.58299   1.60693   -1.000
 4562.00    1.57233   1.59003  112.255
 4563.00    1.52937   1.55781   -1.000
 4564.00    1.47915   1.52641   -1.000
 4565.00    1.46427   1.51520   -1.000
 4566.00    1.50179   1.53751   -1.000
 4567.00    1.55688   1.57675  109.822
 4568.00    1.58771   1.60671  108.715
 4569.00    1.58926   1.60340  109.910
 4570.00    1.54911   1.57648   -1.000
 4571.00    1.49661   1.54586   -1.000
 4572.00    1.50163   1.53748   -1.000
 4573.00    1.54859   1.56399  111.383
 4574.00    1.57860   1.59732  109.782
 4575.00    1.58152   1.61149   -1.000
 4576.00    1.57521   1.60569   -1.000
 4577.00    1.56417   1.59134   -1.000
 4578.00    1.54561   1.56476  112.893
 4579.00    1.50700   1.52698  116.288
 4580.00    1.45900   1.49303   -1.000
 4581.00    1.45991   1.48303   -1.000
 4582.00    1.47274   1.49568   -1.000
 4583.00    1.48369   1.51213   -1.000
 4584.00    1.48614   1.51588   -1.000
 4585.00    1.48211   1.51001   -1.000
 4586.00    1.49429   1.51549   -1.000
 4587.00    1.52370   1.54283  112.277
 4588.00    1.56686   1.57794  109.885
 4589.00    1.58868   1.59991  109.710
 4590.00    1.57515   1.59832   -1.000
 4591.00    1.53766   1.57678   -1.000
 4592.00    1.51927   1.54842   -1.000
 4593.00    1.51146   1.53259   -1.000
 4594.00    1.51242   1.52893  114.531
 4595.00    1.51083   1.53175  113.628
 4596.00    1.51546   1.53651  113.322
 4597.00    1.52498   1.54455  113.084
 4598.00    1.53163   1.55219  112.830
 4599.00    1.53669   1.55436  113.820
 4600.00    1.51965   1.54922   -1.000
 4601.00    1.50725   1.54255   -1.000
 4602.00    1.51645   1.54192   -1.000
 4603.00    1.53674   1.54565  112.672
 4604.00    1.54886   1.55017  112.852
 4605.00    1.55048   1.55608  112.668
 4606.00    1.56718   1.57056  111.445
 4607.00    1.59450   1.60242  109.241
 4608.00    1.63779   1.64053  106.897
 4609.00    1.66898   1.67110  105.630
 4610.00    1.66754   1.67116  106.094
 4611.00    1.64144   1.64854  107.559
 4612.00    1.61475   1.62729  108.759
 4613.00    1.60333   1.61872  109.466
 4614.00    1.61492   1.62409  108.931
 4615.00    1.62336   1.63719  107.957
 4616.00    1.62481   1.64760  107.521
 4617.00    1.62680   1.65209   -1.000
 4618.00    1.62440   1.65163   -1.000
 4619.00    1.60891   1.64901   -1.000
 4620.00    1.62014   1.65252   -1.000
 4621.00    1.64916   1.66424  106.188
 4622.00    1.65431   1.67152  106.146
 4623.00    1.64245   1.66756   -1.000
 4624.00    1.63650   1.65616  106.626
 4625.00    1.63418   1.64904  107.608
 4626.00    1.63964   1.64280  107.875
 4627.00    1.64624   1.64192  107.819
 4628.00    1.63894   1.64675  108.515
 4629.00    1.62729   1.65106   -1.000
 4630.00    1.63478   1.65708   -1.000
 4631.00    1.65714   1.66521  106.954
 4632.00    1.64530   1.66360  107.424
 4633.00    1.62132   1.64704   -1.000
 4634.00    1.61148   1.62894  110.208
 4635.00    1.60884   1.62093  110.113
 4636.00    1.59806   1.61344  111.001
 4637.00    1.58254   1.59698  112.479
 4638.00    1.55972   1.57872  112.946
 4639.00    1.55911   1.57081  112.787
 4640.00    1.58945   1.57940  110.876
 4641.00    1.62339   1.60205  108.151
 4642.00    1.65089   1.62233  106.662
 4643.00    1.65764   1.62506   -1.000
 4644.00    1.62895   1.60128  109.089
 4645.00    1.59247   1.56611  112.174
 4646.00    1.54515   1.52693  115.287
 4647.00    1.51641   1.50305  115.794
 4648.00    1.52057   1.51475  113.747
 4649.00    1.56690   1.55333  111.077
 4650.00    1.60546   1.59516  109.548
 4651.00    1.61932   1.62297  109.354
 4652.00    1.63321   1.63315  109.129
 4653.00    1.62262   1.62730  110.425
 4654.00    1.59878   1.60645  112.997
 4655.00    1.56216   1.58818   -1.000
 4656.00    1.55793   1.59232   -1.000
 4657.00    1.58832   1.62083   -1.000
 4658.00    1.65515   1.67127  105.504
 4659.00    1.70840   1.71799  103.127
 4660.00    1.73098   1.73629  103.016
 4661.00    1.69831   1.72010  104.299
 4662.00    1.66023   1.68455   -1.000
 4663.00    1.62854   1.64661  108.983
 4664.00    1.60916   1.61449  109.244
 4665.00    1.58639   1.57848  111.034
 4666.00    1.52793   1.53211  115.821
 4667.00    1.45706   1.48682   -1.000
 4668.00    1.43055   1.47514   -1.000
 4669.00    1.47526   1.51000   -1.000
 4670.00    1.56335   1.56995  112.181
 4671.00    1.61322   1.61716  109.138
 4672.00    1.63485   1.63708  108.484
 4673.00    1.63391   1.63439  108.570
 4674.00    1.62881   1.63551  108.458
 4675.00    1.64631   1.64719  107.047
 4676.00    1.68058   1.66298  105.429
 4677.00    1.69293   1.66095   -1.000
 4678.00    1.65800   1.63574  108.264
 4679.00    1.60902   1.60535  110.411
 4680.00    1.57939   1.58031  112.238
 4681.00    1.57725   1.56994  113.327
 4682.00    1.59079   1.57875  111.922
 4683.00    1.62374   1.60276  109.087
 4684.00    1.66371   1.62741   -1.000
 4685.00    1.67078   1.63761   -1.000
 4686.00    1.65087   1.63562  108.060
 4687.00    1.64308   1.62706  108.678
 4688.00    1.64927   1.62140  108.686
 4689.00    1.64480   1.61965  108.695
 4690.00    1.63686   1.61919  109.480
 4691.00    1.63450   1.61605  109.711
 4692.00    1.63932   1.61783  108.411
 4693.00    1.66316   1.62843   -1.000
 4694.00    1.69290   1.64416   -1.000
 4695.00    1.71805   1.65939   -1.000
 4696.00    1.72288   1.66591   -1.000
 4697.00    1.69487   1.64983   -1.000
 4698.00    1.64250   1.61612  109.804
 4699.00    1.60262   1.58463  111.093
 4700.00    1.60404   1.56826   -1.000
 4701.00    1.59720   1.55830   -1.000
 4702.00    1.57358   1.55072  112.994
 4703.00    1.56448   1.55050  113.589
 4704.00    1.58536   1.56987  111.436
 4705.00    1.61871   1.59222  109.784
 4706.00    1.61364   1.59536  111.309
 4707.00    1.59238   1.57960  113.558
 4708.00    1.56109   1.56418  114.660
 4709.00    1.55555   1.56884  114.063
 4710.00    1.59461   1.59288  110.701
 4711.00    1.64780   1.62042  107.657
 4712.00    1.67134   1.63485   -1.000
 4713.00    1.66973   1.62790   -1.000
 4714.00    1.64565   1.61378  109.651
 4715.00    1.62854   1.61793  109.665
 4716.00    1.66252   1.64680  107.487
 4717.00    1.70162   1.68468  105.414
 4718.00    1.71591   1.71343  104.757
 4719.00    1.72488   1.73085  104.388
 4720.00    1.72944   1.73941  104.030
 4721.00    1.71583   1.73569  104.916
 4722.00    1.70736   1.72509  105.666
 4723.00    1.71161   1.72352  105.051
 4724.00    1.71993   1.73371  103.907
 4725.00    1.72455   1.73241  104.062
 4726.00    1.68227   1.70634  106.591
 4727.00    1.61955   1.65614   -1.000
 4728.00    1.57751   1.60391   -1.000
 4729.00    1.57262   1.58179  112.749
 4730.00    1.58505   1.58827  111.591
 4731.00    1.60562   1.61170  110.712
 4732.00    1.63114   1.63923  109.376
 4733.00    1.64932   1.66179  108.425
 4734.00    1.67606   1.67095  107.809
 4735.00    1.68713   1.66936  107.208
 4736.00    1.66706   1.66631  108.359
 4737.00    1.65626   1.66688  108.505
 4738.00    1.67927   1.67897  107.099
 4739.00    1.69539   1.69581  107.138
 4740.00    1.68638   1.70131  107.766
 4741.00    1.67161   1.69763   -1.000
 4742.00    1.67966   1.70107  107.046
 4743.00    1.70440   1.71078  105.873
 4744.00    1.71686   1.71871  106.083
 4745.00    1.71819   1.72666  106.180
 4746.00    1.71953   1.73792  105.388
 4747.00    1.73177   1.75469  104.317
 4748.00    1.73455   1.76774   -1.000
 4749.00    1.73295   1.77256   -1.000
 4750.00    1.73132   1.77537   -1.000
 4751.00    1.71917   1.77187   -1.000
 4752.00    1.71172   1.75698   -1.000
 4753.00    1.69130   1.73357   -1.000
 4754.00    1.66935   1.71340   -1.000
 4755.00    1.66205   1.70642   -1.000
 4756.00    1.65551   1.71062   -1.000
 4757.00    1.65768   1.71899   -1.000
 4758.00    1.66444   1.73259   -1.000
 4759.00    1.68162   1.74471   -1.000
 4760.00    1.68099   1.74751   -1.000
 4761.00    1.65581   1.73180   -1.000
 4762.00    1.60683   1.69973   -1.000
 4763.00    1.58291   1.66629   -1.000
 4764.00    1.57899   1.64811   -1.000
 4765.00    1.57715   1.63744   -1.000
 4766.00    1.59112   1.63100   -1.000
 4767.00    1.61997   1.64293   -1.000
 4768.00    1.65671   1.68385   -1.000
 4769.00    1.69298   1.72980   -1.000
 4770.00    1.70830   1.75551   -1.000
 4771.00    1.69837   1.74948   -1.000
 4772.00    1.67940   1.73433   -1.000
 4773.00    1.68476   1.74149   -1.000
 4774.00    1.72309   1.76843   -1.000
 4775.00    1.74798   1.79779   -1.000
 4776.00    1.74773   1.80906   -1.000
 4777.00    1.74033   1.81027   -1.000
 4778.00    1.73113   1.80938   -1.000
 4779.00    1.71246   1.80161   -1.000
 4780.00    1.70205   1.78656   -1.000
 4781.00    1.70298   1.77196   -1.000
 4782.00    1.69153   1.75486   -1.000
 4783.00    1.68137   1.73320   -1.000
 4784.00    1.68667   1.72126   -1.000
 4785.00    1.68516   1.72170   -1.000
 4786.00    1.66813   1.72080   -1.000
 4787.00    1.65596   1.71667   -1.000
 4788.00    1.65462   1.71700   -1.000
 4789.00    1.66037   1.72073   -1.000
 4790.00    1.66603   1.72682   -1.000
 4791.00    1.68212   1.74278   -1.000
 4792.00    1.70596   1.77628   -1.000
 4793.00    1.73362   1.81575   -1.000
 4794.00    1.78230   1.85478   -1.000
 4795.00    1.80355   1.87749   -1.000
 4796.00    1.78340   1.87422   -1.000
 4797.00    1.75915   1.84681   -1.000
 4798.00    1.71652   1.81095   -1.000
 4799.00    1.68210   1.78222   -1.000
 4800.00    1.68915   1.77658   -1.000
 4801.00    1.72622   1.79814   -1.000
 4802.00    1.76879   1.83336   -1.000
 4803.00    1.78094   1.85706   -1.000
 4804.00    1.75959   1.84609   -1.000
 4805.00    1.72569   1.81694   -1.000
 4806.00    1.71335   1.79018   -1.000
 4807.00    1.70443   1.77638   -1.000
 4808.00    1.70239   1.77576   -1.000
 4809.00    1.71416   1.78808   -1.000
 4810.00    1.73538   1.80489   -1.000
 4811.00    1.74388   1.82051   -1.000
 4812.00    1.74551   1.82615   -1.000
 4813.00    1.75501   1.82768   -1.000
 4814.00    1.75659   1.83348   -1.000
 4815.00    1.76578   1.84344   -1.000
 4816.00    1.78386   1.85750   -1.000
 4817.00    1.79251   1.87254   -1.000
 4818.00    1.80653   1.88557   -1.000
 4819.00    1.80610   1.89391   -1.000
 4820.00    1.80194   1.89358   -1.000
 4821.00    1.79521   1.87763   -1.000
 4822.00    1.75904   1.84381   -1.000
 4823.00    1.72119   1.79933   -1.000
 4824.00    1.69495   1.77024   -1.000
 4825.00    1.72636   1.77823   -1.000
 4826.00    1.76744   1.81192   -1.000
 4827.00    1.77507   1.82902   -1.000
 4828.00    1.75513   1.82255   -1.000
 4829.00    1.74000   1.81022   -1.000
 4830.00    1.73486   1.80245   -1.000
 4831.00    1.72548   1.79175   -1.000
 4832.00    1.71458   1.77747   -1.000
 4833.00    1.72805   1.78016   -1.000
 4834.00    1.75585   1.79927   -1.000
 4835.00    1.76722   1.82583   -1.000
 4836.00    1.76269   1.83698   -1.000
 4837.00    1.75887   1.83397   -1.000
 4838.00    1.74162   1.82112   -1.000
 4839.00    1.71532   1.79787   -1.000
 4840.00    1.70079   1.77813   -1.000
 4841.00    1.70400   1.77284   -1.000
 4842.00    1.71200   1.77494   -1.000
 4843.00    1.71209   1.77716   -1.000
 4844.00    1.72681   1.78746   -1.000
 4845.00    1.75956   1.81256   -1.000
 4846.00    1.78283   1.83759   -1.000
 4847.00    1.77007   1.83816   -1.000
 4848.00    1.72835   1.81379   -1.000
 4849.00    1.71397   1.79667   -1.000
 4850.00    1.73903   1.80156   -1.000
 4851.00    1.75212   1.81368   -1.000
 4852.00    1.74618   1.81715   -1.000
 4853.00    1.73011   1.79856   -1.000
 4854.00    1.68599   1.75632   -1.000
 4855.00    1.62831   1.70269   -1.000
 4856.00    1.61266   1.67456   -1.000
 4857.00    1.62685   1.67306   -1.000
 4858.00    1.59857   1.65687   -1.000
 4859.00    1.51040   1.57634   -1.000
 4860.00    1.35864   1.42130   -1.000
 4861.00    1.24876   1.30517   -1.000
 4862.00    1.27663   1.29543   -1.000
 4863.00    1.40012   1.40783  126.176
 4864.00    1.50796   1.54340   -1.000
 4865.00    1.57331   1.63909   -1.000
 4866.00    1.62148   1.69336   -1.000
 4867.00    1.64442   1.72697   -1.000
 4868.00    1.65526   1.74396   -1.000
 4869.00    1.65205   1.73886   -1.000
 4870.00    1.61477   1.69945   -1.000
 4871.00    1.55909   1.64028   -1.000
 4872.00    1.53867   1.60158   -1.000
 4873.00    1.58638   1.63151   -1.000
 4874.00    1.63160   1.69895   -1.000
 4875.00    1.64456   1.74682   -1.000
 4876.00    1.66170   1.77015   -1.000
 4877.00    1.67701   1.78375   -1.000
 4878.00    1.70289   1.80419   -1.000
 4879.00    1.72877   1.82981   -1.000
 4880.00    1.73044   1.84955   -1.000
 4881.00    1.70087   1.84364   -1.000
 4882.00    1.68489   1.81558   -1.000
 4883.00    1.69442   1.80255   -1.000
 4884.00    1.68246   1.79594   -1.000
 4885.00    1.64663   1.77222   -1.000
 4886.00    1.62965   1.74396   -1.000
 4887.00    1.63769   1.73530   -1.000
 4888.00    1.64717   1.73766   -1.000
 4889.00    1.63750   1.72396   -1.000
 4890.00    1.60723   1.68791   -1.000
 4891.00    1.58666   1.65590   -1.000
 4892.00    1.62787   1.68242   -1.000
 4893.00    1.73383   1.76758   -1.000
 4894.00    1.82262   1.87571   -1.000
 4895.00    1.85938   1.94521   -1.000
 4896.00    1.87493   1.97126   -1.000
 4897.00    1.87639   1.97067   -1.000
 4898.00    1.85790   1.95607   -1.000
 4899.00    1.81573   1.93018   -1.000
 4900.00    1.79078   1.90284   -1.000
 4901.00    1.79506   1.88684   -1.000
 4902.00    1.78953   1.87659   -1.000
 4903.00    1.76896   1.86330   -1.000
 4904.00    1.77618   1.85987   -1.000
 4905.00    1.80862   1.88690   -1.000
 4906.00    1.83756   1.93082   -1.000
 4907.00    1.83599   1.93738   -1.000
 4908.00    1.80361   1.90248   -1.000
 4909.00    1.74945   1.85171   -1.000
 4910.00    1.71743   1.80877   -1.000
 4911.00    1.71674   1.79742   -1.000
 4912.00    1.74843   1.82023   -1.000
 4913.00    1.78366   1.86230   -1.000
 4914.00    1.81615   1.89768   -1.000
 4915.00    1.84662   1.92351   -1.000
 4916.00    1.85457   1.92573   -1.000
 4917.00    1.80253   1.88077   -1.000
 4918.00    1.69918   1.77675   -1.000
 4919.00    1.60412   1.66599   -1.000
 4920.00    1.56014   1.59145   -1.000
 4921.00    1.58730   1.60046  116.249
 4922.00    1.66507   1.66953  112.017
 4923.00    1.71721   1.74358   -1.000
 4924.00    1.72126   1.77721   -1.000
 4925.00    1.73842   1.79572   -1.000
 4926.00    1.78150   1.83422   -1.000
 4927.00    1.82536   1.88628   -1.000
 4928.00    1.85326   1.92979   -1.000
 4929.00    1.87612   1.96287   -1.000
 4930.00    1.88663   1.98190   -1.000
 4931.00    1.88292   1.97297   -1.000
 4932.00    1.84905   1.93247   -1.000
 4933.00    1.77982   1.87576   -1.000
 4934.00    1.74932   1.83615   -1.000
 4935.00    1.77641   1.83683   -1.000
 4936.00    1.79271   1.84673   -1.000
 4937.00    1.75488   1.82275   -1.000
 4938.00    1.69591   1.76572   -1.000
 4939.00    1.68468   1.73389   -1.000
 4940.00    1.74216   1.76867   -1.000
 4941.00    1.81515   1.84411   -1.000
 4942.00    1.85607   1.92026   -1.000
 4943.00    1.87797   1.95729   -1.000
 4944.00    1.89206   1.96744   -1.000
 4945.00    1.87754   1.96064   -1.000
 4946.00    1.85240   1.95028   -1.000
 4947.00    1.86452   1.95122   -1.000
 4948.00    1.89309   1.97018   -1.000
 4949.00    1.90330   1.99229   -1.000
 4950.00    1.90943   2.00106   -1.000
 4951.00    1.91613   2.00201   -1.000
 4952.00    1.90470   1.99401   -1.000
 4953.00    1.88469   1.97985   -1.000
 4954.00    1.87519   1.95801   -1.000
 4955.00    1.84680   1.90989   -1.000
 4956.00    1.76410   1.81904   -1.000
 4957.00    1.66592   1.70694   -1.000
 4958.00    1.66030   1.66999  115.103
 4959.00    1.75628   1.74280  108.610
 4960.00    1.85081   1.85351  104.770
 4961.00    1.89026   1.93425   -1.000
 4962.00    1.88178   1.95345   -1.000
 4963.00    1.87483   1.94528   -1.000
 4964.00    1.85732   1.92000   -1.000
 4965.00    1.80541   1.87964   -1.000
 4966.00    1.77909   1.84172   -1.000
 4967.00    1.77275   1.82866   -1.000
 4968.00    1.77554   1.83276   -1.000
 4969.00    1.78364   1.84685   -1.000
 4970.00    1.80191   1.86867   -1.000
 4971.00    1.83205   1.89694   -1.000
 4972.00    1.85559   1.92729   -1.000
 4973.00    1.87965   1.95178   -1.000
 4974.00    1.89102   1.96078   -1.000
 4975.00    1.89175   1.95685   -1.000
 4976.00    1.87795   1.94330   -1.000
 4977.00    1.84184   1.91770   -1.000
 4978.00    1.80585   1.88717   -1.000
 4979.00    1.78164   1.86232   -1.000
 4980.00    1.76575   1.83667   -1.000
 4981.00    1.71928   1.79190   -1.000
 4982.00    1.64975   1.72859   -1.000
 4983.00    1.62185   1.67447   -1.000
 4984.00    1.63945   1.67290   -1.000
 4985.00    1.68610   1.71626   -1.000
 4986.00    1.75848   1.78431   -1.000
 4987.00    1.81649   1.84833   -1.000
 4988.00    1.83291   1.89459   -1.000
 4989.00    1.81533   1.89528   -1.000
 4990.00    1.78979   1.87168   -1.000
 4991.00    1.78848   1.85615   -1.000
 4992.00    1.80402   1.86057   -1.000
 4993.00    1.81889   1.87483   -1.000
 4994.00    1.82796   1.88214   -1.000
 4995.00    1.83454   1.88879   -1.000
 4996.00    1.84574   1.90432   -1.000
 4997.00    1.83840   1.91004   -1.000
 4998.00    1.81774   1.88459   -1.000
 4999.00    1.78136   1.83917   -1.000
 5000.00    1.75271   1.78897   -1.000
 5001.00    1.75227   1.76726  113.561
 5002.00    1.74970   1.77141  112.523
 5003.00    1.76532   1.78425  111.765
 5004.00    1.76859   1.77796  113.280
 5005.00    1.72364   1.74070  116.139
 5006.00    1.68721   1.70051  116.888
 5007.00    1.71738   1.70281  114.150
 5008.00    1.78097   1.76327  110.679
 5009.00    1.82126   1.82367  109.410
 5010.00    1.81296   1.84706   -1.000
 5011.00    1.77945   1.82136   -1.000
 5012.00    1.71098   1.76435   -1.000
 5013.00    1.65747   1.70681   -1.000
 5014.00    1.64036   1.67875   -1.000
 5015.00    1.67532   1.69439  118.055
 5016.00    1.71176   1.72440  115.571
 5017.00    1.72397   1.74468  115.009
 5018.00    1.72194   1.74851   -1.000
 5019.00    1.74099   1.75922  113.758
 5020.00    1.77181   1.78274  112.810
 5021.00    1.77458   1.79032  113.258
 5022.00    1.76009   1.78437   -1.000
 5023.00    1.76705   1.79032   -1.000
 5024.00    1.79449   1.82037   -1.000
 5025.00    1.81229   1.85536   -1.000
 5026.00    1.80445   1.86193   -1.000
 5027.00    1.77872   1.84068   -1.000
 5028.00    1.78573   1.82830   -1.000
 5029.00    1.82224   1.84327  108.952
 5030.00    1.85580   1.88182   -1.000
 5031.00    1.87584   1.92235   -1.000
 5032.00    1.90619   1.95801   -1.000
 5033.00    1.93236   1.97752   -1.000
 5034.00    1.90007   1.96015   -1.000
 5035.00    1.83059   1.90597   -1.000
 5036.00    1.77947   1.84983   -1.000
 5037.00    1.76836   1.82696   -1.000
 5038.00    1.75759   1.81529   -1.000
 5039.00    1.71203   1.77409   -1.000
 5040.00    1.62947   1.70013   -1.000
 5041.00    1.58675   1.64446   -1.000
 5042.00    1.64398   1.67078   -1.000
 5043.00    1.75428   1.76595  112.214
 5044.00    1.85498   1.88430   -1.000
 5045.00    1.91497   1.96581   -1.000
 5046.00    1.97080   2.00092   -1.000
 5047.00    1.83875   1.98556   -1.000
 5048.00    1.09576   1.92955   -1.000
 5049.00    0.24541   1.85771   -1.000
 5050.00    0.19538   1.81370   -1.000
 5051.00    1.46380   1.80681   -1.000
 5052.00    1.80324   1.82751   -1.000
 5053.00    1.86056   1.86932  107.446
 5054.00    1.91383   1.92150  105.461
 5055.00    1.94108   1.95765  104.427
 5056.00    1.95236   1.97507  104.069
 5057.00    1.94957   1.98436   -1.000
 5058.00    1.95397   1.99155   -1.000
 5059.00    1.95588   2.00553   -1.000
 5060.00    1.96683   2.02234   -1.000
 5061.00    1.97577   2.03693   -1.000
 5062.00    1.96791   2.03517   -1.000
 5063.00    1.92954   1.99460   -1.000
 5064.00    1.85104   1.92541   -1.000
 5065.00    1.79590   1.86612   -1.000
 5066.00    1.81971   1.84878   -1.000
 5067.00    1.84368   1.85947  110.365
 5068.00    1.84954   1.87416  109.971
 5069.00    1.85927   1.88716   -1.000
 5070.00    1.88481   1.90529  108.738
 5071.00    1.88150   1.91320   -1.000
 5072.00    1.85537   1.90054   -1.000
 5073.00    1.86068   1.88598   -1.000
 5074.00    1.88965   1.89259  108.276
 5075.00    1.89325   1.90634  108.110
 5076.00    1.88599   1.91342   -1.000
 5077.00    1.88593   1.90667  109.042
 5078.00    1.84103   1.87203   -1.000
 5079.00    1.75679   1.80657   -1.000
 5080.00    1.70939   1.74796   -1.000
 5081.00    1.72748   1.74781  117.224
 5082.00    1.77563   1.77995  114.710
 5083.00    1.81343   1.81301  113.142
 5084.00    1.84599   1.84299  111.020
 5085.00    1.88415   1.88015  109.109
 5086.00    1.91066   1.91426  108.298
 5087.00    1.91773   1.93654  108.133
 5088.00    1.91804   1.94501   -1.000
 5089.00    1.92668   1.95234  106.826
 5090.00    1.93832   1.96039  106.231
 5091.00    1.94823   1.97229  105.680
 5092.00    1.96842   1.99449   -1.000
 5093.00    1.99059   2.02026   -1.000
 5094.00    1.98967   2.02721   -1.000
 5095.00    1.97186   2.00099   -1.000
 5096.00    1.92013   1.95137   -1.000
 5097.00    1.86626   1.89319   -1.000
 5098.00    1.80870   1.84325   -1.000
 5099.00    1.78895   1.81700   -1.000
 5100.00    1.81951   1.84267   -1.000
 5101.00    1.88832   1.89858  108.330
 5102.00    1.91719   1.94937   -1.000
 5103.00    1.91738   1.95863   -1.000
 5104.00    1.89560   1.94258   -1.000
 5105.00    1.87926   1.92117   -1.000
 5106.00    1.85250   1.89613   -1.000
 5107.00    1.83071   1.86718   -1.000
 5108.00    1.83298   1.84556  113.344
 5109.00    1.82590   1.83591  112.628
 5110.00    1.83789   1.84691  111.820
 5111.00    1.87408   1.87631  110.229
 5112.00    1.90564   1.91881  108.871
 5113.00    1.92817   1.95059  107.544
 5114.00    1.94458   1.97069   -1.000
 5115.00    1.96203   1.98925   -1.000
 5116.00    1.97544   2.01072   -1.000
 5117.00    1.99457   2.02991   -1.000
 5118.00    2.00943   2.03819   -1.000
 5119.00    1.99525   2.02949   -1.000
 5120.00    1.96159   2.00423   -1.000
 5121.00    1.92146   1.96587   -1.000
 5122.00    1.87622   1.91953   -1.000
 5123.00    1.82733   1.86970   -1.000
 5124.00    1.79426   1.83125   -1.000
 5125.00    1.80104   1.82334  115.010
 5126.00    1.82753   1.83802  114.433
 5127.00    1.83715   1.85009  113.753
 5128.00    1.83335   1.85147  113.897
 5129.00    1.83364   1.85447  113.803
 5130.00    1.83884   1.86954   -1.000
 5131.00    1.87084   1.89832   -1.000
 5132.00    1.91244   1.92559  109.513
 5133.00    1.92390   1.94387  108.474
 5134.00    1.94010   1.95740  107.516
 5135.00    1.96163   1.96938  107.223
 5136.00    1.94108   1.96791  109.109
 5137.00    1.89272   1.93070   -1.000
 5138.00    1.84656   1.87510   -1.000
 5139.00    1.82006   1.84907   -1.000
 5140.00    1.83944   1.85479  112.762
 5141.00    1.85090   1.86973  113.558
 5142.00    1.83326   1.86861   -1.000
 5143.00    1.82552   1.86425   -1.000
 5144.00    1.85563   1.88052   -1.000
 5145.00    1.87266   1.89769  112.440
 5146.00    1.85711   1.88321  113.467
 5147.00    1.84286   1.86355  113.769
 5148.00    1.86065   1.86389  112.402
 5149.00    1.87731   1.88059  111.750
 5150.00    1.87608   1.88648  113.095
 5151.00    1.84957   1.86964  115.159
 5152.00    1.81673   1.85121   -1.000
 5153.00    1.80889   1.84694   -1.000
 5154.00    1.83808   1.85729  113.207
 5155.00    1.88015   1.88738  110.337
 5156.00    1.93846   1.93635  107.528
 5157.00    1.99114   1.98498  105.500
 5158.00    2.01195   2.01468  104.699
 5159.00    2.01814   2.02531  104.669
 5160.00    2.01989   2.02367  105.014
 5161.00    2.00543   2.00999  105.615
 5162.00    1.97673   1.97994  106.798
 5163.00    1.94795   1.93293  108.450
 5164.00    1.90565   1.87587   -1.000
 5165.00    1.79571   1.79125  121.774
 5166.00    1.62905   1.65267  134.509
 5167.00    1.48911   1.50244  143.697
 5168.00    1.46408   1.45829  141.032
 5169.00    1.55961   1.51888   -1.000
 5170.00    1.62999   1.59691   -1.000
 5171.00    1.57599   1.57037  139.320
 5172.00    1.44889   1.47116   -1.000
 5173.00    1.44629   1.44279  143.056
 5174.00    1.60399   1.53926   -1.000
 5175.00    1.78778   1.71931   -1.000
 5176.00    1.88407   1.84480   -1.000
 5177.00    1.92338   1.89721  111.200
 5178.00    1.93478   1.91271  110.959
 5179.00    1.92953   1.90881  112.041
 5180.00    1.88882   1.87498  115.920
 5181.00    1.79454   1.78314  124.255
 5182.00    1.62730   1.61892  138.661
 5183.00    1.45587   1.47359  149.686
 5184.00    1.44235   1.43088  143.051
 5185.00    1.59971   1.55278   -1.000
 5186.00    1.80016   1.73394   -1.000
 5187.00    1.91070   1.86694   -1.000
 5188.00    1.93658   1.92277  111.280
 5189.00    1.95027   1.93982  110.814
 5190.00    1.94802   1.93037  111.985
 5191.00    1.89242   1.88078  115.524
 5192.00    1.82326   1.81217  118.737
 5193.00    1.81838   1.78725   -1.000
 5194.00    1.84412   1.81713  115.871
 5195.00    1.87871   1.84856   -1.000
 5196.00    1.90588   1.87997  112.486
 5197.00    1.93692   1.91970  110.226
 5198.00    1.97003   1.96211  108.347
 5199.00    2.00712   1.99771  107.447
 5200.00    2.02840   2.01418  107.332
 5201.00    2.02071   2.00987  108.189
 5202.00    1.99405   1.98126  110.144
 5203.00    1.94276   1.93097  112.665
 5204.00    1.88467   1.85230   -1.000
 5205.00    1.82624   1.77356   -1.000
 5206.00    1.79004   1.72141   -1.000
 5207.00    1.78752   1.70923   -1.000
 5208.00    1.77899   1.71346   -1.000
 5209.00    1.78954   1.73089   -1.000
 5210.00    1.85139   1.78647   -1.000
 5211.00    1.93544   1.88177   -1.000
 5212.00    2.01371   1.96955   -1.000
 5213.00    2.05666   2.02671   -1.000
 5214.00    2.04329   2.02246  105.853
 5215.00    1.99986   1.97989  108.359
 5216.00    1.95922   1.93741  109.698
 5217.00    1.97823   1.94098   -1.000
 5218.00    2.01878   1.99031  106.463
 5219.00    2.06972   2.04679  104.838
 5220.00    2.09108   2.08666  104.026
 5221.00    2.09635   2.10066  103.605
 5222.00    2.08562   2.08912  104.931
 5223.00    2.04273   2.04463  108.129
 5224.00    1.96037   1.97054  112.597
 5225.00    1.86105   1.87074  117.883
 5226.00    1.79071   1.77864  121.180
 5227.00    1.79547   1.75200   -1.000
 5228.00    1.88950   1.81747   -1.000
 5229.00    1.98827   1.93178   -1.000
 5230.00    2.05460   2.02569   -1.000
 5231.00    2.06731   2.03692   -1.000
 5232.00    2.03494   1.99662   -1.000
 5233.00    1.98529   1.94519   -1.000
 5234.00    1.97743   1.93605   -1.000
 5235.00    2.00794   1.98210  106.678
 5236.00    2.05995   2.04654  104.123
 5237.00    2.10695   2.10549  102.942
 5238.00    2.12879   2.13207  102.843
 5239.00    2.12862   2.13213  103.170
 5240.00    2.13318   2.12360  102.990
 5241.00    2.14509   2.11529  102.382
 5242.00    2.14088   2.11016   -1.000
 5243.00    2.13452   2.11605  102.326
 5244.00    2.14568   2.12923  102.162
 5245.00    2.13204   2.12511  104.204
 5246.00    2.06671   2.08291  107.479
 5247.00    2.00769   2.02313  109.991
 5248.00    1.99918   1.98776  110.284
 5249.00    2.00303   1.97959  110.486
 5250.00    1.98751   1.97784  111.196
 5251.00    1.98745   1.98319  110.675
 5252.00    2.02079   2.00669  109.139
 5253.00    2.04324   2.02467  108.055
 5254.00    2.03607   2.02532  108.067
 5255.00    2.03595   2.02586  107.295
 5256.00    2.08376   2.05916  104.790
 5257.00    2.15306   2.12700  101.953
 5258.00    2.19668   2.17418  101.043
 5259.00    2.18877   2.18116  101.983
 5260.00    2.14308   2.14132  104.782
 5261.00    2.06026   2.06494  109.231
 5262.00    1.95942   1.96509  114.442
 5263.00    1.87164   1.87279  118.418
 5264.00    1.81036   1.79682  120.868
 5265.00    1.78810   1.75969   -1.000
 5266.00    1.80925   1.76169   -1.000
 5267.00    1.85874   1.78720   -1.000
 5268.00    1.85229   1.77918   -1.000
 5269.00    1.76691   1.71577   -1.000
 5270.00    1.75142   1.67312   -1.000
 5271.00    1.85214   1.72703   -1.000
 5272.00    1.97561   1.86934   -1.000
 5273.00    2.02770   1.96603   -1.000
 5274.00    2.02491   1.98074   -1.000
 5275.00    2.01316   1.98718  108.710
 5276.00    2.05288   2.02000   -1.000
 5277.00    2.13238   2.08906   -1.000
 5278.00    2.19607   2.15335   -1.000
 5279.00    2.20204   2.16961   -1.000
 5280.00    2.15407   2.13608  104.105
 5281.00    2.09488   2.07538  106.824
 5282.00    2.05452   2.01859   -1.000
 5283.00    2.02963   1.98438   -1.000
 5284.00    2.04468   2.00620   -1.000
 5285.00    2.13363   2.08004   -1.000
 5286.00    2.19145   2.17747  100.557
 5287.00    2.22742   2.22642   99.791
 5288.00    2.24619   2.23407  100.321
 5289.00    2.24223   2.23375  100.309
 5290.00    2.25809   2.24000   99.721
 5291.00    2.26236   2.24758   99.507
 5292.00    2.25049   2.24002  100.092
 5293.00    2.23237   2.22368  101.041
 5294.00    2.21324   2.20657  102.385
 5295.00    2.17918   2.17009  105.168
 5296.00    2.09433   2.09472  109.221
 5297.00    2.00385   2.01110  112.160
 5298.00    1.98464   1.96399  111.469
 5299.00    2.03130   1.99113   -1.000
 5300.00    2.09343   2.04799   -1.000
 5301.00    2.11892   2.08657   -1.000
 5302.00    2.13688   2.11293  104.623
 5303.00    2.19249   2.15419   -1.000
 5304.00    2.25121   2.21366   -1.000
 5305.00    2.27745   2.25819   99.663
 5306.00    2.26610   2.25699  100.638
 5307.00    2.24862   2.23906  101.515
 5308.00    2.24668   2.23241  100.854
 5309.00    2.27645   2.24996   99.791
 5310.00    2.30224   2.27495   99.153
 5311.00    2.30568   2.27795   99.251
 5312.00    2.28930   2.26500   99.812
 5313.00    2.27014   2.24779  100.244
 5314.00    2.26150   2.22912   -1.000
 5315.00    2.24911   2.20918   -1.000
 5316.00    2.22017   2.18777   -1.000
 5317.00    2.20422   2.17597  102.915
 5318.00    2.22412   2.18608   -1.000
 5319.00    2.24193   2.20011   -1.000
 5320.00    2.23770   2.20447   -1.000
 5321.00    2.22853   2.19678   -1.000
 5322.00    2.20462   2.17291   -1.000
 5323.00    2.16119   2.12641   -1.000
 5324.00    2.12227   2.07567   -1.000
 5325.00    2.10968   2.03515   -1.000
 5326.00    2.08252   1.98259   -1.000
 5327.00    1.98324   1.88409   -1.000
 5328.00    1.88143   1.80334   -1.000
 5329.00    1.90350   1.80951   -1.000
 5330.00    2.03881   1.93672   -1.000
 5331.00    2.15217   2.06792   -1.000
 5332.00    2.19418   2.13787   -1.000
 5333.00    2.20609   2.16146   -1.000
 5334.00    2.23089   2.18454   -1.000
 5335.00    2.26437   2.21830   -1.000
 5336.00    2.25853   2.23508  102.362
 5337.00    2.23612   2.22299  103.026
 5338.00    2.22007   2.18890   -1.000
 5339.00    2.16987   2.12817   -1.000
 5340.00    2.11609   2.06197   -1.000
 5341.00    2.10775   2.03778   -1.000
 5342.00    2.15746   2.08637   -1.000
 5343.00    2.21514   2.14744   -1.000
 5344.00    2.23649   2.17925   -1.000
 5345.00    2.22456   2.17301   -1.000
 5346.00    2.21190   2.15263   -1.000
 5347.00    2.20322   2.13378   -1.000
 5348.00    2.17823   2.11721   -1.000
 5349.00    2.16495   2.10634   -1.000
 5350.00    2.20172   2.12823   -1.000
 5351.00    2.26035   2.17829   -1.000
 5352.00    2.29432   2.22865   -1.000
 5353.00    2.29874   2.26242   -1.000
 5354.00    2.31665   2.28134   -1.000
 5355.00    2.35003   2.30703   -1.000
 5356.00    2.36524   2.33119   -1.000
 5357.00    2.36864   2.33804   -1.000
 5358.00    2.37126   2.33503   -1.000
 5359.00    2.36151   2.32646   -1.000
 5360.00    2.34228   2.30722   -1.000
 5361.00    2.30861   2.27774   -1.000
 5362.00    2.27304   2.24904  102.466
 5363.00    2.23227   2.22353  103.182
 5364.00    2.21012   2.19962  103.780
 5365.00    2.21232   2.17861   -1.000
 5366.00    2.21821   2.16535   -1.000
 5367.00    2.22214   2.16721   -1.000
 5368.00    2.20972   2.15720   -1.000
 5369.00    2.16227   2.10340   -1.000
 5370.00    2.09151   2.02554   -1.000
 5371.00    2.05670   1.96902   -1.000
 5372.00    2.11128   1.99453   -1.000
 5373.00    2.22621   2.09537   -1.000
 5374.00    2.31326   2.19897   -1.000
 5375.00    2.34930   2.26238   -1.000
 5376.00    2.34740   2.27065   -1.000
 5377.00    2.33416   2.26359   -1.000
 5378.00    2.32764   2.26481   -1.000
 5379.00    2.32245   2.27168   -1.000
 5380.00    2.31270   2.26752   -1.000
 5381.00    2.28729   2.24415   -1.000
 5382.00    2.27259   2.21844   -1.000
 5383.00    2.26529   2.20421   -1.000
 5384.00    2.28943   2.21137   -1.000
 5385.00    2.31852   2.23525   -1.000
 5386.00    2.32348   2.26100   -1.000
 5387.00    2.31263   2.26640   -1.000
 5388.00    2.28925   2.24392   -1.000
 5389.00    2.25565   2.20767   -1.000
 5390.00    2.23224   2.16844   -1.000
 5391.00    2.21591   2.14468   -1.000
 5392.00    2.20640   2.13500   -1.000
 5393.00    2.19472   2.13432   -1.000
 5394.00    2.19239   2.13217   -1.000
 5395.00    2.18272   2.11441   -1.000
 5396.00    2.14267   2.07202   -1.000
 5397.00    2.10690   2.03241   -1.000
 5398.00    2.14583   2.04508   -1.000
 5399.00    2.21192   2.10513   -1.000
 5400.00    2.23792   2.16856   -1.000
 5401.00    2.24615   2.19623   -1.000
 5402.00    2.24376   2.19283   -1.000
 5403.00    2.20040   2.15014   -1.000
 5404.00    2.10870   2.06683   -1.000
 5405.00    2.04874   1.97534   -1.000
 5406.00    2.05774   1.95673   -1.000
 5407.00    2.12089   2.01380   -1.000
 5408.00    2.15992   2.06842   -1.000
 5409.00    2.14154   2.08545   -1.000
 5410.00    2.14622   2.07406   -1.000
 5411.00    2.19881   2.10539   -1.000
 5412.00    2.26480   2.17745   -1.000
 5413.00    2.30091   2.22249   -1.000
 5414.00    2.29456   2.23561   -1.000
 5415.00    2.28331   2.23606   -1.000
 5416.00    2.29785   2.25490   -1.000
 5417.00    2.32939   2.28747   -1.000
 5418.00    2.32932   2.29466   -1.000
 5419.00    2.29040   2.27762  102.369
 5420.00    2.26976   2.25818  102.974
 5421.00    2.28238   2.24690   -1.000
 5422.00    2.29556   2.24229   -1.000
 5423.00    2.27937   2.22629   -1.000
 5424.00    2.25024   2.20475   -1.000
 5425.00    2.26718   2.22050   -1.000
 5426.00    2.31559   2.26717   -1.000
 5427.00    2.33300   2.29725   -1.000
 5428.00    2.27829   2.25794  104.856
 5429.00    2.19692   2.16170   -1.000
 5430.00    2.16379   2.10998   -1.000
 5431.00    2.21300   2.12277   -1.000
 5432.00    2.23406   2.15721   -1.000
 5433.00    2.20638   2.15144   -1.000
 5434.00    2.17037   2.10544   -1.000
 5435.00    2.16738   2.08922   -1.000
 5436.00    2.20159   2.12261   -1.000
 5437.00    2.26364   2.19349   -1.000
 5438.00    2.33257   2.27127   -1.000
 5439.00    2.38317   2.32661   -1.000
 5440.00    2.41921   2.35526   -1.000
 5441.00    2.41030   2.36573   -1.000
 5442.00    2.40919   2.37032   -1.000
 5443.00    2.38435   2.36009  100.111
 5444.00    2.33415   2.31430  102.822
 5445.00    2.24377   2.22701  107.114
 5446.00    2.15457   2.12170   -1.000
 5447.00    2.14271   2.07843   -1.000
 5448.00    2.20877   2.11414   -1.000
 5449.00    2.29183   2.20282   -1.000
 5450.00    2.33873   2.27355   -1.000
 5451.00    2.34877   2.28800   -1.000
 5452.00    2.33343   2.27389   -1.000
 5453.00    2.29383   2.23364   -1.000
 5454.00    2.22774   2.16532   -1.000
 5455.00    2.16813   2.09516   -1.000
 5456.00    2.18800   2.08203   -1.000
 5457.00    2.27584   2.14882   -1.000
 5458.00    2.34818   2.25611   -1.000
 5459.00    2.36828   2.30453   -1.000
 5460.00    2.34949   2.29587   -1.000
 5461.00    2.31350   2.25339   -1.000
 5462.00    2.27077   2.20588   -1.000
 5463.00    2.24491   2.17961   -1.000
 5464.00    2.26769   2.19092   -1.000
 5465.00    2.31077   2.22642   -1.000
 5466.00    2.32848   2.25562   -1.000
 5467.00    2.33423   2.27318   -1.000
 5468.00    2.34927   2.28031   -1.000
 5469.00    2.34919   2.27685   -1.000
 5470.00    2.33113   2.26447   -1.000
 5471.00    2.31543   2.24729   -1.000
 5472.00    2.30680   2.23252   -1.000
 5473.00    2.28908   2.22171   -1.000
 5474.00    2.25836   2.19805   -1.000
 5475.00    2.23254   2.15092   -1.000
 5476.00    2.17539   2.10021   -1.000
 5477.00    2.15621   2.08050   -1.000
 5478.00    2.22801   2.13391   -1.000
 5479.00    2.29504   2.19901   -1.000
 5480.00    2.28539   2.21675   -1.000
 5481.00    2.23836   2.19124   -1.000
 5482.00    2.23687   2.16761   -1.000
 5483.00    2.26100   2.20047   -1.000
 5484.00    2.31345   2.26222   -1.000
 5485.00    2.34572   2.30242   -1.000
 5486.00    2.33401   2.29891   -1.000
 5487.00    2.28340   2.26023  105.252
 5488.00    2.26839   2.23125   -1.000
 5489.00    2.28627   2.22674   -1.000
 5490.00    2.30593   2.25288   -1.000
 5491.00    2.33437   2.27515   -1.000
 5492.00    2.34778   2.28232   -1.000
 5493.00    2.33416   2.27800   -1.000
 5494.00    2.33264   2.27256   -1.000
 5495.00    2.35117   2.27172   -1.000
 5496.00    2.34116   2.26185   -1.000
 5497.00    2.32181   2.24409   -1.000
 5498.00    2.33591   2.24822   -1.000
 5499.00    2.37227   2.27173   -1.000
 5500.00    2.37561   2.27565   -1.000
 5501.00    2.33102   2.24997   -1.000
 5502.00    2.30575   2.21403   -1.000
 5503.00    2.32121   2.21026   -1.000
 5504.00    2.33293   2.22543   -1.000
 5505.00    2.31209   2.21506   -1.000
 5506.00    2.26977   2.19085   -1.000
 5507.00    2.26972   2.18521   -1.000
 5508.00    2.31901   2.21599   -1.000
 5509.00    2.34454   2.26307   -1.000
 5510.00    2.33264   2.26722   -1.000
 5511.00    2.29829   2.23051   -1.000
 5512.00    2.25389   2.18442   -1.000
 5513.00    2.23307   2.15488   -1.000
 5514.00    2.25568   2.15889   -1.000
 5515.00    2.28755   2.18256   -1.000
 5516.00    2.33369   2.21811   -1.000
 5517.00    2.36729   2.25769   -1.000
 5518.00    2.40819   2.30028   -1.000
 5519.00    2.43225   2.33456   -1.000
 5520.00    2.43766   2.34589   -1.000
 5521.00    2.42581   2.33687   -1.000
 5522.00    2.41623   2.33326   -1.000
 5523.00    2.40810   2.33563   -1.000
 5524.00    2.39837   2.33430   -1.000
 5525.00    2.36826   2.31364   -1.000
 5526.00    2.32494   2.26164   -1.000
 5527.00    2.27312   2.19691   -1.000
 5528.00    2.23799   2.14586   -1.000
 5529.00    2.26390   2.16365   -1.000
 5530.00    2.33430   2.22881   -1.000
 5531.00    2.38667   2.29299   -1.000
 5532.00    2.38396   2.31297   -1.000
 5533.00    2.36388   2.29999   -1.000
 5534.00    2.33616   2.28416   -1.000
 5535.00    2.32880   2.27401   -1.000
 5536.00    2.34345   2.27540   -1.000
 5537.00    2.36648   2.28645   -1.000
 5538.00    2.37786   2.30301   -1.000
 5539.00    2.41213   2.32084   -1.000
 5540.00    2.44502   2.34383   -1.000
 5541.00    2.45321   2.35797   -1.000
 5542.00    2.42687   2.35093   -1.000
 5543.00    2.39321   2.32801   -1.000
 5544.00    2.38825   2.31395   -1.000
 5545.00    2.39137   2.31349   -1.000
 5546.00    2.39994   2.32052   -1.000
 5547.00    2.41709   2.33318   -1.000
 5548.00    2.44870   2.35959   -1.000
 5549.00    2.47585   2.38726   -1.000
 5550.00    2.48110   2.40001   -1.000
 5551.00    2.47604   2.39609   -1.000
 5552.00    2.46132   2.37879   -1.000
 5553.00    2.43545   2.35361   -1.000
 5554.00    2.41060   2.33406   -1.000
 5555.00    2.41932   2.32987   -1.000
 5556.00    2.42915   2.33613   -1.000
 5557.00    2.42798   2.34234   -1.000
 5558.00    2.43343   2.34147   -1.000
 5559.00    2.43860   2.34403   -1.000
 5560.00    2.43417   2.34766   -1.000
 5561.00    2.42523   2.33823   -1.000
 5562.00    2.40448   2.31623   -1.000
 5563.00    2.38682   2.30107   -1.000
 5564.00    2.37692   2.29613   -1.000
 5565.00    2.37186   2.29436   -1.000
 5566.00    2.37432   2.28507   -1.000
 5567.00    2.37437   2.27430   -1.000
 5568.00    2.38049   2.27091   -1.000
 5569.00    2.37522   2.27292   -1.000
 5570.00    2.37886   2.28018   -1.000
 5571.00    2.38527   2.28404   -1.000
 5572.00    2.36697   2.27777   -1.000
 5573.00    2.36396   2.26961   -1.000
 5574.00    2.39485   2.27484   -1.000
 5575.00    2.37793   2.30578   -1.000
 5576.00    2.32775   2.32802  102.222
 5577.00    2.30492   2.33005  100.515
 5578.00    2.33422   2.33859  102.345
 5579.00    2.42134   2.35364   -1.000
 5580.00    2.46042   2.35869   -1.000
 5581.00    2.44841   2.35437   -1.000
 5582.00    2.43511   2.34200   -1.000
 5583.00    2.43419   2.33361   -1.000
 5584.00    2.42545   2.32390   -1.000
 5585.00    2.37833   2.28357   -1.000
 5586.00    2.30788   2.21399   -1.000
 5587.00    2.24664   2.14292   -1.000
 5588.00    2.22201   2.10900   -1.000
 5589.00    2.23684   2.12581   -1.000
 5590.00    2.28056   2.16707   -1.000
 5591.00    2.32069   2.21736   -1.000
 5592.00    2.33273   2.24254   -1.000
 5593.00    2.33090   2.24982   -1.000
 5594.00    2.34029   2.25664   -1.000
 5595.00    2.37217   2.28435   -1.000
 5596.00    2.41177   2.32158   -1.000
 5597.00    2.40941   2.32309   -1.000
 5598.00    2.35958   2.28989   -1.000
 5599.00    2.32827   2.24708   -1.000
 5600.00    2.31781   2.21908   -1.000
 5601.00    2.30365   2.19969   -1.000
 5602.00    2.29680   2.19149   -1.000
 5603.00    2.32161   2.21700   -1.000
 5604.00    2.38891   2.28477   -1.000
 5605.00    2.46156   2.35830   -1.000
 5606.00    2.49938   2.40605   -1.000
 5607.00    2.51276   2.42537   -1.000
 5608.00    2.50341   2.42486   -1.000
 5609.00    2.50195   2.41940   -1.000
 5610.00    2.51334   2.42112   -1.000
 5611.00    2.51226   2.43334   -1.000
 5612.00    2.51178   2.43462   -1.000
 5613.00    2.47688   2.39783   -1.000
 5614.00    2.39145   2.31103   -1.000
 5615.00    2.30148   2.21460   -1.000
 5616.00    2.30222   2.18391   -1.000
 5617.00    2.35355   2.22258   -1.000
 5618.00    2.40921   2.29249   -1.000
 5619.00    2.42268   2.32041   -1.000
 5620.00    2.43811   2.32997   -1.000
 5621.00    2.45118   2.34959   -1.000
 5622.00    2.45673   2.35730   -1.000
 5623.00    2.42035   2.32489   -1.000
 5624.00    2.36542   2.27495   -1.000
 5625.00    2.34978   2.24022   -1.000
 5626.00    2.38636   2.26341   -1.000
 5627.00    2.43027   2.31155   -1.000
 5628.00    2.46548   2.35035   -1.000
 5629.00    2.49102   2.38319   -1.000
 5630.00    2.50949   2.40677   -1.000
 5631.00    2.51970   2.41268   -1.000
 5632.00    2.51541   2.40491   -1.000
 5633.00    2.50741   2.39071   -1.000
 5634.00    2.49270   2.37365   -1.000
 5635.00    2.46116   2.35073   -1.000
 5636.00    2.43195   2.32845   -1.000
 5637.00    2.41299   2.31471   -1.000
 5638.00    2.41373   2.31575   -1.000
 5639.00    2.42251   2.32394   -1.000
 5640.00    2.41824   2.32583   -1.000
 5641.00    2.41011   2.31379   -1.000
 5642.00    2.41068   2.30315   -1.000
 5643.00    2.42375   2.31544   -1.000
 5644.00    2.43990   2.33220   -1.000
 5645.00    2.45760   2.34370   -1.000
 5646.00    2.46721   2.35449   -1.000
 5647.00    2.46570   2.36058   -1.000
 5648.00    2.46501   2.35819   -1.000
 5649.00    2.46804   2.35217   -1.000
 5650.00    2.47113   2.35118   -1.000
 5651.00    2.48593   2.36547   -1.000
 5652.00    2.49845   2.38564   -1.000
 5653.00    2.48452   2.38207   -1.000
 5654.00    2.46250   2.36077   -1.000
 5655.00    2.43721   2.34430   -1.000
 5656.00    2.40783   2.32283   -1.000
 5657.00    2.34951   2.28232   -1.000
 5658.00    2.29075   2.23224   -1.000
 5659.00    2.30153   2.20817   -1.000
 5660.00    2.36067   2.24478   -1.000
 5661.00    2.39593   2.28700   -1.000
 5662.00    2.38157   2.28916   -1.000
 5663.00    2.39471   2.29975   -1.000
 5664.00    2.42843   2.33724   -1.000
 5665.00    2.45572   2.36667   -1.000
 5666.00    2.44952   2.37062   -1.000
 5667.00    2.42851   2.35005   -1.000
 5668.00    2.41888   2.33354   -1.000
 5669.00    2.42738   2.33712   -1.000
 5670.00    2.43465   2.34846   -1.000
 5671.00    2.45516   2.36633   -1.000
 5672.00    2.48206   2.39532   -1.000
 5673.00    2.50836   2.42373   -1.000
 5674.00    2.52910   2.43433   -1.000
 5675.00    2.52434   2.43255   -1.000
 5676.00    2.52844   2.42818   -1.000
 5677.00    2.53875   2.43239   -1.000
 5678.00    2.52625   2.43233   -1.000
 5679.00    2.51107   2.41709   -1.000
 5680.00    2.50093   2.39753   -1.000
 5681.00    2.47272   2.37478   -1.000
 5682.00    2.44378   2.34404   -1.000
 5683.00    2.42200   2.32184   -1.000
 5684.00    2.42965   2.33345   -1.000
 5685.00    2.43949   2.35207   -1.000
 5686.00    2.42847   2.35033   -1.000
 5687.00    2.40113   2.33509   -1.000
 5688.00    2.39149   2.32530   -1.000
 5689.00    2.42745   2.33771   -1.000
 5690.00    2.46963   2.36900   -1.000
 5691.00    2.50637   2.40385   -1.000
 5692.00    2.53115   2.42940   -1.000
 5693.00    2.53696   2.43952   -1.000
 5694.00    2.53115   2.43592   -1.000
 5695.00    2.52912   2.42967   -1.000
 5696.00    2.52551   2.42388   -1.000
 5697.00    2.50066   2.41065   -1.000
 5698.00    2.47265   2.38651   -1.000
 5699.00    2.44553   2.36167   -1.000
 5700.00    2.41220   2.33990   -1.000
 5701.00    2.39198   2.31990   -1.000
 5702.00    2.39276   2.31761   -1.000
 5703.00    2.40110   2.34294   -1.000
 5704.00    2.41508   2.36342   -1.000
 5705.00    2.40703   2.36205   -1.000
 5706.00    2.37659   2.33280   -1.000
 5707.00    2.34515   2.29017   -1.000
 5708.00    2.30730   2.25945   -1.000
 5709.00    2.29352   2.23761   -1.000
 5710.00    2.30914   2.23023   -1.000
 5711.00    2.32912   2.24614   -1.000
 5712.00    2.37017   2.28210   -1.000
 5713.00    2.42781   2.33602   -1.000
 5714.00    2.48343   2.38528   -1.000
 5715.00    2.51323   2.40905   -1.000
 5716.00    2.52247   2.42347   -1.000
 5717.00    2.52637   2.43438   -1.000
 5718.00    2.53293   2.44203   -1.000
 5719.00    2.55302   2.45308   -1.000
 5720.00    2.56570   2.46973   -1.000
 5721.00    2.58468   2.48610   -1.000
 5722.00    2.59279   2.49920   -1.000
 5723.00    2.59455   2.50664   -1.000
 5724.00    2.59183   2.50528   -1.000
 5725.00    2.56935   2.48553   -1.000
 5726.00    2.53827   2.45278   -1.000
 5727.00    2.51738   2.42785   -1.000
 5728.00    2.52711   2.43441   -1.000
 5729.00    2.54734   2.45624   -1.000
 5730.00    2.53880   2.45761   -1.000
 5731.00    2.52129   2.44372   -1.000
 5732.00    2.53124   2.43560   -1.000
 5733.00    2.56080   2.45513   -1.000
 5734.00    2.58314   2.48951   -1.000
 5735.00    2.58837   2.49942   -1.000
 5736.00    2.58034   2.49108   -1.000
 5737.00    2.57171   2.47831   -1.000
 5738.00    2.55750   2.47195   -1.000
 5739.00    2.54687   2.47697   -1.000
 5740.00    2.55090   2.47889   -1.000
 5741.00    2.55512   2.47609   -1.000
 5742.00    2.55298   2.46797   -1.000
 5743.00    2.54241   2.46930   -1.000
 5744.00    2.55236   2.48870   -1.000
 5745.00    2.57315   2.50728   -1.000
 5746.00    2.56684   2.50687   -1.000
 5747.00    2.54545   2.47931   -1.000
 5748.00    2.53362   2.45742   -1.000
 5749.00    2.54533   2.46904   -1.000
 5750.00    2.57196   2.48746   -1.000
 5751.00    2.55102   2.48568   -1.000
 5752.00    2.50372   2.44390   -1.000
 5753.00    2.46991   2.39588   -1.000
 5754.00    2.47339   2.38619   -1.000
 5755.00    2.51666   2.42062   -1.000
 5756.00    2.56723   2.48221   -1.000
 5757.00    2.60281   2.51966   -1.000
 5758.00    2.60525   2.52783   -1.000
 5759.00    2.58533   2.50597   -1.000
 5760.00    2.54535   2.46452   -1.000
 5761.00    2.50493   2.41823   -1.000
 5762.00    2.48351   2.39242   -1.000
 5763.00    2.50626   2.40467   -1.000
 5764.00    2.54231   2.45926   -1.000
 5765.00    2.58892   2.51613   -1.000
 5766.00    2.61383   2.53895   -1.000
 5767.00    2.61428   2.54497   -1.000
 5768.00    2.62156   2.54161   -1.000
 5769.00    2.60311   2.53445   -1.000
 5770.00    2.59027   2.52504   -1.000
 5771.00    2.57187   2.51582   -1.000
 5772.00    2.54875   2.50412   -1.000
 5773.00    2.53490   2.49114   -1.000
 5774.00    2.53539   2.48362   -1.000
 5775.00    2.53054   2.48325   -1.000
 5776.00    2.52939   2.49700   -1.000
 5777.00    2.51376   2.50823  102.140
 5778.00    2.45826   2.49697   -1.000
 5779.00    2.37550   2.45992   -1.000
 5780.00    2.29717   2.40193   -1.000
 5781.00    2.27785   2.35078   -1.000
 5782.00    2.32098   2.32565  107.504
 5783.00    2.37723   2.33366   -1.000
 5784.00    2.40997   2.33977   -1.000
 5785.00    2.43044   2.33974   -1.000
 5786.00    2.46755   2.36407   -1.000
 5787.00    2.51164   2.40933   -1.000
 5788.00    2.53713   2.44788   -1.000
 5789.00    2.54800   2.46632   -1.000
 5790.00    2.54803   2.46026   -1.000
 5791.00    2.54184   2.45084   -1.000
 5792.00    2.55113   2.45904   -1.000
 5793.00    2.56280   2.49284   -1.000
 5794.00    2.56055   2.52853   -1.000
 5795.00    2.55477   2.54538  101.125
 5796.00    2.53739   2.53268  101.763
 5797.00    2.51342   2.50091  102.414
 5798.00    2.52941   2.48889   -1.000
 5799.00    2.59355   2.51216   -1.000
 5800.00    2.64547   2.55888   -1.000
 5801.00    2.66688   2.58819   -1.000
 5802.00    2.65475   2.58729   -1.000
 5803.00    2.62200   2.56341   -1.000
 5804.00    2.59652   2.52849   -1.000
 5805.00    2.57632   2.50904   -1.000
 5806.00    2.56945   2.50846   -1.000
 5807.00    2.59023   2.52109   -1.000
 5808.00    2.60220   2.53293   -1.000
 5809.00    2.60878   2.54182   -1.000
 5810.00    2.62117   2.55207   -1.000
 5811.00    2.62955   2.56053   -1.000
 5812.00    2.63505   2.55989   -1.000
 5813.00    2.63277   2.54977   -1.000
 5814.00    2.62031   2.52697   -1.000
 5815.00    2.60135   2.49820   -1.000
 5816.00    2.59690   2.48284   -1.000
 5817.00    2.62107   2.50338   -1.000
 5818.00    2.65086   2.54231   -1.000
 5819.00    2.66917   2.57689   -1.000
 5820.00    2.68579   2.58549   -1.000
 5821.00    2.68056   2.57826   -1.000
 5822.00    2.67349   2.56808   -1.000
 5823.00    2.68085   2.56219   -1.000
 5824.00    2.68420   2.56568   -1.000
 5825.00    2.68076   2.56971   -1.000
 5826.00    2.67791   2.57484   -1.000
 5827.00    2.67713   2.57873   -1.000
 5828.00    2.67837   2.58337   -1.000
 5829.00    2.67785   2.59078   -1.000
 5830.00    2.67781   2.59261   -1.000
 5831.00    2.68530   2.58925   -1.000
 5832.00    2.68289   2.58229   -1.000
 5833.00    2.68085   2.57086   -1.000
 5834.00    2.67109   2.55872   -1.000
 5835.00    2.66433   2.55293   -1.000
 5836.00    2.67636   2.55881   -1.000
 5837.00    2.67699   2.56205   -1.000
 5838.00    2.66631   2.56071   -1.000
 5839.00    2.67433   2.56840   -1.000
 5840.00    2.68802   2.58513   -1.000
 5841.00    2.68441   2.60313   -1.000
 5842.00    2.69467   2.61033   -1.000
 5843.00    2.69706   2.60290   -1.000
 5844.00    2.67002   2.58677   -1.000
 5845.00    2.65306   2.56707   -1.000
 5846.00    2.64402   2.54581   -1.000
 5847.00    2.63598   2.52997   -1.000
 5848.00    2.63404   2.52586   -1.000
 5849.00    2.63852   2.53273   -1.000
 5850.00    2.63060   2.53471   -1.000
 5851.00    2.61444   2.51761   -1.000
 5852.00    2.58873   2.48968   -1.000
 5853.00    2.57827   2.46925   -1.000
 5854.00    2.57724   2.46802   -1.000
 5855.00    2.57393   2.46748   -1.000
 5856.00    2.55512   2.43911   -1.000
 5857.00    2.51839   2.39663   -1.000
 5858.00    2.52075   2.37938   -1.000
 5859.00    2.55700   2.40880   -1.000
 5860.00    2.59188   2.46242   -1.000
 5861.00    2.61460   2.49077   -1.000
 5862.00    2.60963   2.49965   -1.000
 5863.00    2.62041   2.49903   -1.000
 5864.00    2.62744   2.50184   -1.000
 5865.00    2.62431   2.49983   -1.000
 5866.00    2.60812   2.48267   -1.000
 5867.00    2.61077   2.47319   -1.000
 5868.00    2.63649   2.49617   -1.000
 5869.00    2.66258   2.52859   -1.000
 5870.00    2.67325   2.55040   -1.000
 5871.00    2.66800   2.55382   -1.000
 5872.00    2.66454   2.54394   -1.000
 5873.00    2.65802   2.53541   -1.000
 5874.00    2.66084   2.53443   -1.000
 5875.00    2.66106   2.53709   -1.000
 5876.00    2.65512   2.53103   -1.000
 5877.00    2.64213   2.51344   -1.000
 5878.00    2.63387   2.49099   -1.000
 5879.00    2.60949   2.46844   -1.000
 5880.00    2.58767   2.45639   -1.000
 5881.00    2.58289   2.45864   -1.000
 5882.00    2.59277   2.46872   -1.000
 5883.00    2.57564   2.46316   -1.000
 5884.00    2.55067   2.44946   -1.000
 5885.00    2.51838   2.44393   -1.000
 5886.00    2.42594   2.42014  105.227
 5887.00    2.20943   2.33474   -1.000
 5888.00    1.86605   2.16306   -1.000
 5889.00    1.55680   1.95067   -1.000
 5890.00    1.52723   1.83752   -1.000
 5891.00    1.74509   1.88089   -1.000
 5892.00    1.93818   2.03599   -1.000
 5893.00    1.94813   2.12881   -1.000
 5894.00    1.80238   2.11545   -1.000
 5895.00    1.66294   2.02596   -1.000
 5896.00    1.72384   1.97135   -1.000
 5897.00    1.96078   2.05881   -1.000
 5898.00    2.18275   2.19170  111.669
 5899.00    2.32230   2.29929  108.569
 5900.00    2.43296   2.36915   -1.000
 5901.00    2.52496   2.41894   -1.000
 5902.00    2.56926   2.44697   -1.000
 5903.00    2.59125   2.46083   -1.000
 5904.00    2.60104   2.46554   -1.000
 5905.00    2.59661   2.46347   -1.000
 5906.00    2.59852   2.46356   -1.000
 5907.00    2.61339   2.47432   -1.000
 5908.00    2.61646   2.48765   -1.000
 5909.00    2.60550   2.49756   -1.000
 5910.00    2.60810   2.50803   -1.000
 5911.00    2.61214   2.51225   -1.000
 5912.00    2.60397   2.49964   -1.000
 5913.00    2.57178   2.46742   -1.000
 5914.00    2.54060   2.42728   -1.000
 5915.00    2.53142   2.41017   -1.000
 5916.00    2.54796   2.42330   -1.000
 5917.00    2.56713   2.44722   -1.000
 5918.00    2.57958   2.47677   -1.000
 5919.00    2.59585   2.49583   -1.000
 5920.00    2.59682   2.50335   -1.000
 5921.00    2.60270   2.50022   -1.000
 5922.00    2.59457   2.49324   -1.000
 5923.00    2.59581   2.49156   -1.000
 5924.00    2.60857   2.50519   -1.000
 5925.00    2.62107   2.52416   -1.000
 5926.00    2.63818   2.53421   -1.000
 5927.00    2.63566   2.52704   -1.000
 5928.00    2.61704   2.50057   -1.000
 5929.00    2.60201   2.47542   -1.000
 5930.00    2.60720   2.46803   -1.000
 5931.00    2.62491   2.49032   -1.000
 5932.00    2.63316   2.51143   -1.000
 5933.00    2.63201   2.51033   -1.000
 5934.00    2.61420   2.49357   -1.000
 5935.00    2.61453   2.48541   -1.000
 5936.00    2.62554   2.50747   -1.000
 5937.00    2.64128   2.53262   -1.000
 5938.00    2.64951   2.53953   -1.000
 5939.00    2.64520   2.53291   -1.000
 5940.00    2.62893   2.51218   -1.000
 5941.00    2.59802   2.48815   -1.000
 5942.00    2.58945   2.47780   -1.000
 5943.00    2.60058   2.49215   -1.000
 5944.00    2.62529   2.51630   -1.000
 5945.00    2.64526   2.53539   -1.000
 5946.00    2.63874   2.53712   -1.000
 5947.00    2.61052   2.51964   -1.000
 5948.00    2.59159   2.49428   -1.000
 5949.00    2.58708   2.48749   -1.000
 5950.00    2.59696   2.50409   -1.000
 5951.00    2.60937   2.51047   -1.000
 5952.00    2.61169   2.50242   -1.000
 5953.00    2.61025   2.49150   -1.000
 5954.00    2.61439   2.49493   -1.000
 5955.00    2.62129   2.50534   -1.000
 5956.00    2.60957   2.49651   -1.000
 5957.00    2.59491   2.48208   -1.000
 5958.00    2.61254   2.48998   -1.000
 5959.00    2.64583   2.51593   -1.000
 5960.00    2.66757   2.54593   -1.000
 5961.00    2.68704   2.56663   -1.000
 5962.00    2.69537   2.57150   -1.000
 5963.00    2.69175   2.56555   -1.000
 5964.00    2.68659   2.55131   -1.000
 5965.00    2.66151   2.53522   -1.000
 5966.00    2.64551   2.52945   -1.000
 5967.00    2.65604   2.54308   -1.000
 5968.00    2.66862   2.55955   -1.000
 5969.00    2.67987   2.57158   -1.000
 5970.00    2.69608   2.58215   -1.000
 5971.00    2.70244   2.58899   -1.000
 5972.00    2.69927   2.58826   -1.000
 5973.00    2.68829   2.58108   -1.000
 5974.00    2.66362   2.56518   -1.000
 5975.00    2.63248   2.53619   -1.000
 5976.00    2.61129   2.50573   -1.000
 5977.00    2.60246   2.49389   -1.000
 5978.00    2.61648   2.50003   -1.000
 5979.00    2.63697   2.52420   -1.000
 5980.00    2.65368   2.54929   -1.000
 5981.00    2.66511   2.55896   -1.000
 5982.00    2.64169   2.53524   -1.000
 5983.00    2.60896   2.49516   -1.000
 5984.00    2.58878   2.46487   -1.000
 5985.00    2.59364   2.47208   -1.000
 5986.00    2.61888   2.50554   -1.000
 5987.00    2.63763   2.52853   -1.000
 5988.00    2.65959   2.54454   -1.000
 5989.00    2.66838   2.55660   -1.000
 5990.00    2.65703   2.55865   -1.000
 5991.00    2.65720   2.55587   -1.000
 5992.00    2.66328   2.56454   -1.000
 5993.00    2.68710   2.58821   -1.000
 5994.00    2.69889   2.60780   -1.000
 5995.00    2.69302   2.60090   -1.000
 5996.00    2.68461   2.57039   -1.000
 5997.00    2.65987   2.54128   -1.000
 5998.00    2.64895   2.52839   -1.000
 5999.00    2.64792   2.54173   -1.000
 6000.00    2.66542   2.55690   -1.000
 6001.00    2.66600   2.55944   -1.000
 6002.00    2.64787   2.54990   -1.000
 6003.00    2.63652   2.53910   -1.000
 6004.00    2.63613   2.54738   -1.000
 6005.00    2.63172   2.54943   -1.000
 6006.00    2.61966   2.52368   -1.000
 6007.00    2.58812   2.49051   -1.000
 6008.00    2.57563   2.47645   -1.000
 6009.00    2.59662   2.50797   -1.000
 6010.00    2.62548   2.55337   -1.000
 6011.00    2.64415   2.56147   -1.000
 6012.00    2.63578   2.54243   -1.000
 6013.00    2.62733   2.52053   -1.000
 6014.00    2.63352   2.52105   -1.000
 6015.00    2.63705   2.53155   -1.000
 6016.00    2.63106   2.52687   -1.000
 6017.00    2.62703   2.52288   -1.000
 6018.00    2.63162   2.52741   -1.000
 6019.00    2.61133   2.51803   -1.000
 6020.00    2.60048   2.50037   -1.000
 6021.00    2.61439   2.49969   -1.000
 6022.00    2.62390   2.50998   -1.000
 6023.00    2.63851   2.52650   -1.000
 6024.00    2.65171   2.54533   -1.000
 6025.00    2.66218   2.56482   -1.000
 6026.00    2.67972   2.58003   -1.000
 6027.00    2.69337   2.59043   -1.000
 6028.00    2.70173   2.60445   -1.000
 6029.00    2.71923   2.61871   -1.000
 6030.00    2.72342   2.62433   -1.000
 6031.00    2.72199   2.62841   -1.000
 6032.00    2.73448   2.63478   -1.000
 6033.00    2.74077   2.64713   -1.000
 6034.00    2.73515   2.66853   -1.000
 6035.00    2.72492   2.68210   -1.000
 6036.00    2.72656   2.67679   -1.000
 6037.00    2.72832   2.66219   -1.000
 6038.00    2.72079   2.64316   -1.000
 6039.00    2.71035   2.62680   -1.000
 6040.00    2.70276   2.61688   -1.000
 6041.00    2.70737   2.62188   -1.000
 6042.00    2.71149   2.63479   -1.000
 6043.00    2.72637   2.64950   -1.000
 6044.00    2.74255   2.66380   -1.000
 6045.00    2.74153   2.66888   -1.000
 6046.00    2.74748   2.67435   -1.000
 6047.00    2.75029   2.67629   -1.000
 6048.00    2.74668   2.67776   -1.000
 6049.00    2.75635   2.67899   -1.000
 6050.00    2.76222   2.67998   -1.000
 6051.00    2.75568   2.67246   -1.000
 6052.00    2.75014   2.65593   -1.000
 6053.00    2.74276   2.63730   -1.000
 6054.00    2.73579   2.61939   -1.000
 6055.00    2.70307   2.60290   -1.000
 6056.00    2.69424   2.59470   -1.000
 6057.00    2.70725   2.60405   -1.000
 6058.00    2.72605   2.62075   -1.000
 6059.00    2.72790   2.63731   -1.000
 6060.00    2.73713   2.64472   -1.000
 6061.00    2.76778   2.63808   -1.000
 6062.00    2.59051   2.61775  105.270
 6063.00    1.35105   2.58513   -1.000
 6064.00    2.20212   2.55382   -1.000
 6065.00    2.65608   2.54443   -1.000
 6066.00    2.28648   2.57294   -1.000
 6067.00    0.79614   2.62338   -1.000
 6068.00    1.08300   2.66360   -1.000
 6069.00    2.43396   2.67840   -1.000
 6070.00    2.66637   2.68608  100.746
 6071.00    2.71447   2.69333   99.505
 6072.00    2.69361   2.69687  101.876
 6073.00    2.73980   2.69624   -1.000
 6074.00    2.77216   2.69088   -1.000
 6075.00    2.76540   2.67876   -1.000
 6076.00    2.75626   2.65782   -1.000
 6077.00    2.72704   2.63300   -1.000
 6078.00    2.69921   2.61118   -1.000
 6079.00    2.68933   2.60296   -1.000
 6080.00    2.68640   2.59868   -1.000
 6081.00    2.68260   2.59023   -1.000
 6082.00    2.66963   2.58244   -1.000
 6083.00    2.66547   2.58638   -1.000
 6084.00    2.67656   2.59324   -1.000
 6085.00    2.68239   2.59935   -1.000
 6086.00    2.68353   2.61056   -1.000
 6087.00    2.69518   2.62103   -1.000
 6088.00    2.69557   2.62168   -1.000
 6089.00    2.67800   2.60632   -1.000
 6090.00    2.67003   2.58462   -1.000
 6091.00    2.66583   2.57664   -1.000
 6092.00    2.67200   2.58421   -1.000
 6093.00    2.68386   2.60409   -1.000
 6094.00    2.70124   2.62752   -1.000
 6095.00    2.73103   2.64413   -1.000
 6096.00    2.74045   2.64684   -1.000
 6097.00    2.73444   2.64815   -1.000
 6098.00    2.72701   2.65840   -1.000
 6099.00    2.71779   2.65830   -1.000
 6100.00    2.69398   2.62685   -1.000
 6101.00    2.64500   2.56302   -1.000
 6102.00    2.59019   2.49551   -1.000
 6103.00    2.58219   2.49042   -1.000
 6104.00    2.62842   2.53709   -1.000
 6105.00    2.68220   2.59677   -1.000
 6106.00    2.71468   2.62597   -1.000
 6107.00    2.70212   2.63705   -1.000
 6108.00    2.69212   2.64975   -1.000
 6109.00    2.70376   2.66191   -1.000
 6110.00    2.71440   2.65995   -1.000
 6111.00    2.70476   2.65348   -1.000
 6112.00    2.71203   2.65873   -1.000
 6113.00    2.73043   2.67364   -1.000
 6114.00    2.73608   2.68388   -1.000
 6115.00    2.72991   2.67601   -1.000
 6116.00    2.71604   2.66376   -1.000
 6117.00    2.70087   2.65821   -1.000
 6118.00    2.69422   2.64542   -1.000
 6119.00    2.66459   2.60853   -1.000
 6120.00    2.63208   2.55585   -1.000
 6121.00    2.59589   2.50490   -1.000
 6122.00    2.58821   2.48688   -1.000
 6123.00    2.61822   2.52529   -1.000
 6124.00    2.65711   2.58685   -1.000
 6125.00    2.69196   2.61567   -1.000
 6126.00    2.68699   2.61892   -1.000
 6127.00    2.66574   2.61169   -1.000
 6128.00    2.66172   2.61306   -1.000
 6129.00    2.67432   2.63399   -1.000
 6130.00    2.69985   2.66192   -1.000
 6131.00    2.72968   2.68622   -1.000
 6132.00    2.71929   2.69331   -1.000
 6133.00    2.70211   2.67167   -1.000
 6134.00    2.65260   2.60721   -1.000
 6135.00    2.57612   2.51088   -1.000
 6136.00    2.49930   2.42242   -1.000
 6137.00    2.47246   2.41396   -1.000
 6138.00    2.52751   2.47736   -1.000
 6139.00    2.60881   2.56502   -1.000
 6140.00    2.64960   2.60250   -1.000
 6141.00    2.64708   2.59875   -1.000
 6142.00    2.65349   2.60981   -1.000
 6143.00    2.67314   2.64214   -1.000
 6144.00    2.70176   2.67301   -1.000
 6145.00    2.70728   2.68260   -1.000
 6146.00    2.70463   2.67312   -1.000
 6147.00    2.68968   2.65367   -1.000
 6148.00    2.66683   2.62929   -1.000
 6149.00    2.64468   2.61008   -1.000
 6150.00    2.64147   2.60327   -1.000
 6151.00    2.64843   2.61527   -1.000
 6152.00    2.65838   2.62986   -1.000
 6153.00    2.67023   2.63231   -1.000
 6154.00    2.65644   2.61452   -1.000
 6155.00    2.63823   2.59695   -1.000
 6156.00    2.62721   2.59343   -1.000
 6157.00    2.62193   2.59084   -1.000
 6158.00    2.59879   2.57465   -1.000
 6159.00    2.56094   2.52447   -1.000
 6160.00    2.48995   2.43547   -1.000
 6161.00    2.41250   2.33713   -1.000
 6162.00    2.37443   2.29137   -1.000
 6163.00    2.39107   2.32292   -1.000
 6164.00    2.44870   2.39055   -1.000
 6165.00    2.50575   2.45860   -1.000
 6166.00    2.52881   2.49368   -1.000
 6167.00    2.52155   2.49440   -1.000
 6168.00    2.49854   2.45847   -1.000
 6169.00    2.45896   2.42452   -1.000
 6170.00    2.46440   2.42998   -1.000
 6171.00    2.49616   2.48054  112.389
 6172.00    2.53178   2.52890  110.867
 6173.00    2.55539   2.54979  111.066
 6174.00    2.56441   2.55906  111.137
 6175.00    2.56949   2.56282  110.843
 6176.00    2.56533   2.56286  110.640
 6177.00    2.56720   2.56922  110.333
 6178.00    2.58292   2.58305  109.771
 6179.00    2.60082   2.59172  109.386
 6180.00    2.60928   2.59759  109.038
 6181.00    2.61847   2.61195  108.518
 6182.00    2.62683   2.62424  108.261
 6183.00    2.62898   2.62120  108.508
 6184.00    2.62827   2.60832   -1.000
 6185.00    2.60349   2.58674  109.801
 6186.00    2.57611   2.56113  111.023
 6187.00    2.55510   2.53802  112.163
 6188.00    2.53222   2.52241  113.225
 6189.00    2.51700   2.49652   -1.000
 6190.00    2.49422   2.45622   -1.000
 6191.00    2.47383   2.43662   -1.000
 6192.00    2.49113   2.46364   -1.000
 6193.00    2.54665   2.52077   -1.000
 6194.00    2.58868   2.57254  110.140
 6195.00    2.60324   2.59801  109.523
 6196.00    2.61382   2.60781  109.386
 6197.00    2.60925   2.59862  110.159
 6198.00    2.58563   2.57161  111.476
 6199.00    2.55086   2.54479  112.350
 6200.00    2.53009   2.55271  112.180
 6201.00    2.54270   2.58198   -1.000
 6202.00    2.55674   2.61134   -1.000
 6203.00    2.55950   2.62889   -1.000
 6204.00    2.58274   2.63513   -1.000
 6205.00    2.60609   2.64045  109.161
 6206.00    2.62138   2.64500  109.174
 6207.00    2.63566   2.64835  109.628
 6208.00    2.63953   2.64557  109.580
 6209.00    2.62750   2.63392  110.108
 6210.00    2.60716   2.61577  111.154
 6211.00    2.57593   2.58836  112.003
 6212.00    2.54539   2.54549  113.123
 6213.00    2.50487   2.49782  114.897
 6214.00    2.48265   2.46513  116.002
 6215.00    2.48619   2.46462   -1.000
 6216.00    2.50388   2.48352   -1.000
 6217.00    2.52456   2.50016   -1.000
 6218.00    2.52740   2.49730   -1.000
 6219.00    2.51988   2.48032   -1.000
 6220.00    2.50684   2.47984   -1.000
 6221.00    2.52358   2.49770   -1.000
 6222.00    2.57365   2.51831   -1.000
 6223.00    2.45226   2.52849   -1.000
 6224.00    2.16861   2.53277   -1.000
 6225.00    2.53038   2.54010  113.201
 6226.00    2.57541   2.54632   -1.000
 6227.00    2.55874   2.53849   -1.000
 6228.00    2.53670   2.50590   -1.000
 6229.00    2.49046   2.45039   -1.000
 6230.00    2.45389   2.40402   -1.000
 6231.00    2.44359   2.39599   -1.000
 6232.00    2.46600   2.43256   -1.000
 6233.00    2.52043   2.49343   -1.000
 6234.00    2.57201   2.55135   -1.000
 6235.00    2.59098   2.58273  112.042
 6236.00    2.58477   2.57706  112.864
 6237.00    2.55885   2.55220  114.024
 6238.00    2.53568   2.51955  115.180
 6239.00    2.50264   2.49522  116.415
 6240.00    2.48308   2.48146  116.848
 6241.00    2.48937   2.47412  116.780
 6242.00    2.47411   2.46124  117.701
 6243.00    2.45864   2.44587  118.460
 6244.00    2.45875   2.44051  118.334
 6245.00    2.46964   2.44743   -1.000
 6246.00    2.49446   2.47075   -1.000
 6247.00    2.51556   2.51070  114.855
 6248.00    2.54715   2.54914  113.678
 6249.00    2.55978   2.56200  113.623
 6250.00    2.55363   2.54582  114.740
 6251.00    2.51150   2.50350  116.927
 6252.00    2.45731   2.46021  118.315
 6253.00    2.43474   2.43772  119.096
 6254.00    2.43945   2.43507  119.404
 6255.00    2.43970   2.43392  119.337
 6256.00    2.42477   2.41809  120.493
 6257.00    2.40481   2.40099  121.555
 6258.00    2.40494   2.40749  120.952
 6259.00    2.44626   2.43997  119.068
 6260.00    2.48849   2.48889  117.288
 6261.00    2.52672   2.53288  115.706
 6262.00    2.55177   2.56650  113.896
 6263.00    2.56722   2.57737  113.395
 6264.00    2.56175   2.56903  114.366
 6265.00    2.54605   2.55736  115.108
 6266.00    2.53623   2.56231  114.530
 6267.00    2.54081   2.57517  113.687
 6268.00    2.53508   2.57405   -1.000
 6269.00    2.52123   2.56692   -1.000
 6270.00    2.51905   2.56767   -1.000
 6271.00    2.54223   2.57816   -1.000
 6272.00    2.55396   2.58836  113.881
 6273.00    2.56153   2.58624  114.209
 6274.00    2.54031   2.56815  115.064
 6275.00    2.51326   2.54043  115.995
 6276.00    2.47621   2.51448   -1.000
 6277.00    2.42245   2.49197   -1.000
 6278.00    2.36815   2.47676   -1.000
 6279.00    2.32377   2.46447   -1.000
 6280.00    2.30014   2.46181   -1.000
 6281.00    2.27482   2.48005   -1.000
 6282.00    2.26131   2.51838   -1.000
 6283.00    2.26500   2.55787   -1.000
 6284.00    2.30630   2.58783   -1.000
 6285.00    2.36194   2.60264   -1.000
 6286.00    2.43470   2.61541   -1.000
 6287.00    2.49545   2.63073   -1.000
 6288.00    2.53733   2.63704   -1.000
 6289.00    2.55575   2.62540   -1.000
 6290.00    2.54007   2.60113   -1.000
 6291.00    2.53945   2.57898   -1.000
 6292.00    2.53421   2.57103   -1.000
 6293.00    2.53505   2.57104   -1.000
 6294.00    2.54277   2.57104  115.971
 6295.00    2.52714   2.55520  116.904
 6296.00    2.50424   2.52765  117.664
 6297.00    2.49003   2.51105  117.818
 6298.00    2.47730   2.51524   -1.000
 6299.00    2.47802   2.52695   -1.000
 6300.00    2.47421   2.52044   -1.000
 6301.00    2.45950   2.50450   -1.000
 6302.00    2.46429   2.50797   -1.000
 6303.00    2.49530   2.52927   -1.000
 6304.00    2.52440   2.55776  116.026
 6305.00    2.53917   2.58155   -1.000
 6306.00    2.55024   2.60496   -1.000
 6307.00    2.56976   2.62859   -1.000
 6308.00    2.57573   2.64184   -1.000
 6309.00    2.57163   2.63597   -1.000
 6310.00    2.55899   2.62074   -1.000
 6311.00    2.54166   2.60469   -1.000
 6312.00    2.53274   2.59459   -1.000
 6313.00    2.52630   2.58390   -1.000
 6314.00    2.50599   2.56375   -1.000
 6315.00    2.47948   2.54592   -1.000
 6316.00    2.46855   2.53417   -1.000
 6317.00    2.46499   2.51933   -1.000
 6318.00    2.46419   2.51371   -1.000
 6319.00    2.48141   2.54082   -1.000
 6320.00    2.52280   2.57821   -1.000
 6321.00    2.55191   2.60199   -1.000
 6322.00    2.56482   2.61722   -1.000
 6323.00    2.57518   2.63470   -1.000
 6324.00    2.58607   2.65504   -1.000
 6325.00    2.59367   2.66599   -1.000
 6326.00    2.59829   2.66569   -1.000
 6327.00    2.60068   2.66533   -1.000
 6328.00    2.60349   2.66706   -1.000
 6329.00    2.61465   2.66562   -1.000
 6330.00    2.61161   2.66487   -1.000
 6331.00    2.60900   2.67541   -1.000
 6332.00    2.60789   2.68349   -1.000
 6333.00    2.59564   2.66836   -1.000
 6334.00    2.56826   2.62652   -1.000
 6335.00    2.53497   2.57836   -1.000
 6336.00    2.52504   2.56361   -1.000
 6337.00    2.53403   2.58010   -1.000
 6338.00    2.56193   2.60976   -1.000
 6339.00    2.58944   2.64049   -1.000
 6340.00    2.60583   2.66403   -1.000
 6341.00    2.60690   2.66427   -1.000
 6342.00    2.59054   2.64407   -1.000
 6343.00    2.57603   2.61737   -1.000
 6344.00    2.56430   2.60899   -1.000
 6345.00    2.56879   2.62797   -1.000
 6346.00    2.58195   2.65514   -1.000
 6347.00    2.59375   2.68058   -1.000
 6348.00    2.60805   2.69927   -1.000
 6349.00    2.61475   2.71181   -1.000
 6350.00    2.62327   2.71784   -1.000
 6351.00    2.62145   2.71603   -1.000
 6352.00    2.61266   2.70261   -1.000
 6353.00    2.58294   2.67603   -1.000
 6354.00    2.55411   2.64946   -1.000
 6355.00    2.54981   2.63743   -1.000
 6356.00    2.54501   2.63076   -1.000
 6357.00    2.52452   2.61265   -1.000
 6358.00    2.50420   2.58456   -1.000
 6359.00    2.49366   2.56206   -1.000
 6360.00    2.49114   2.54966   -1.000
 6361.00    2.48485   2.53992   -1.000
 6362.00    2.47586   2.53874   -1.000
 6363.00    2.48319   2.55479   -1.000
 6364.00    2.50300   2.58519   -1.000
 6365.00    2.52603   2.61719   -1.000
 6366.00    2.53923   2.64715   -1.000
 6367.00    2.55858   2.67528   -1.000
 6368.00    2.57981   2.69310   -1.000
 6369.00    2.59081   2.69621   -1.000
 6370.00    2.58250   2.69661   -1.000
 6371.00    2.57624   2.70435   -1.000
 6372.00    2.59316   2.72052   -1.000
 6373.00    2.59830   2.73127   -1.000
 6374.00    2.59275   2.73163   -1.000
 6375.00    2.58081   2.72932   -1.000
 6376.00    2.56221   2.72411   -1.000
 6377.00    2.54926   2.71035   -1.000
 6378.00    2.54249   2.69509   -1.000
 6379.00    2.53692   2.68410   -1.000
 6380.00    2.52633   2.68071   -1.000
 6381.00    2.52656   2.68506   -1.000
 6382.00    2.53388   2.69216   -1.000
 6383.00    2.54414   2.69608   -1.000
 6384.00    2.53937   2.69814   -1.000
 6385.00    2.53266   2.70565   -1.000
 6386.00    2.52762   2.71737   -1.000
 6387.00    2.52410   2.72332   -1.000
 6388.00    2.52504   2.72472   -1.000
 6389.00    2.51730   2.72494   -1.000
 6390.00    2.48764   2.71353   -1.000
 6391.00    2.45462   2.67942   -1.000
 6392.00    2.42546   2.63363   -1.000
 6393.00    2.39051   2.60708   -1.000
 6394.00    2.38377   2.62843   -1.000
 6395.00    2.41035   2.67350   -1.000
 6396.00    2.42356   2.71041   -1.000
 6397.00    2.41499   2.70895   -1.000
 6398.00    2.37913   2.66638   -1.000
 6399.00    2.33807   2.61256   -1.000
 6400.00    2.30767   2.59881   -1.000
 6401.00    2.32370   2.64536   -1.000
 6402.00    2.35409   2.70298   -1.000
 6403.00    2.38734   2.74234   -1.000
 6404.00    2.38379   2.75311   -1.000
 6405.00    2.36218   2.73683   -1.000
 6406.00    2.32951   2.70343   -1.000
 6407.00    2.29294   2.67929   -1.000
 6408.00    2.26626   2.67689   -1.000
 6409.00    2.25435   2.68735   -1.000
 6410.00    2.24374   2.68855   -1.000
 6411.00    2.21973   2.67498   -1.000
 6412.00    2.20091   2.66987   -1.000
 6413.00    2.18889   2.68138   -1.000
 6414.00    2.18764   2.69713   -1.000
 6415.00    2.18617   2.71342   -1.000
 6416.00    2.17803   2.72226   -1.000
 6417.00    2.16613   2.71536   -1.000
 6418.00    2.13854   2.68981   -1.000
 6419.00    2.10172   2.65350   -1.000
 6420.00    2.05584   2.62831   -1.000
 6421.00    2.03871   2.64137   -1.000
 6422.00    2.04858   2.68394   -1.000
 6423.00    2.05880   2.72377   -1.000
 6424.00    2.05594   2.74716   -1.000
 6425.00    2.05065   2.75911   -1.000
 6426.00    2.03708   2.76932   -1.000
 6427.00    2.02086   2.76967   -1.000
 6428.00    1.99232   2.74203   -1.000
