###################################################################
## OUTPUT of StarlightChains_v04.for    [Cid@UFSC - 01/Apr/2007] ##
###################################################################

## Some input info
NGC6528_b_1.cxt                          [arq_obs]
Base.BC03.S                              [arq_base]
NGC6528_b_1.msk                          [arq_masks]
StCv04.C99.config                        [arq_config]
  150                                    [N_base]
    0                                    [N_YAV_components = # of components with extra extinction!]
    0                                    [i_FitPowerLaw (1/0 = Yes/No)]
-9.99                                    [alpha_PowerLaw]
CCM                                      [red_law_option]
 1.458241                                [q_norm = A(l_norm)/A(V)]

## (Re)Sampling Parameters
 3359.00                                 [l_ini (A)]
 6428.00                                 [l_fin (A)]
    1.00                                 [dl    (A)]     (OBS: dl_cushion =    50.00 A)

## Normalization info
 4020.00                                 [l_norm (A) - for base]
 4010.00                                 [llow_norm (A) - window for f_obs]
 4060.00                                 [lupp_norm (A) - window for f_obs]
2.920007E-15                             [fobs_norm (in input units)]

## S/N
 4730.00                                 [llow_SN (A) - window for S/N]
 4780.00                                 [lupp_SN (A) - window for S/N]
  27.543                                 [S/N in S/N window]
  15.038                                 [S/N in norm. window]
 201.971                                 [S/N_err in S/N window]
 110.275                                 [S/N_err in norm. window]
  1.0000                                 [fscale_chi2]

## etc...
  2147483604                             [idum_orig]
  3066                                   [NOl_eff]
   821                                   [Nl_eff]
  2245    NSIGMA                         [Ntot_cliped & clip_method]
  5409250                                [Nglobal_steps]
   7                                     [N_chains]
  29                                     [NEX0s_base = N_base in EX0s-fits]
 0   0   1      129   2.0   2.623E+02    [Clip-Bug, RC-Crash & Burn-In warning-flags, n_censored_weights, wei_nsig_threshold & wei_limit]
   210    209.607    209.603      0.004  [idt_all, wdt_TotTime, wdt_UsrTime & wdt_SysTime (sec)]

## Synthesis Results - Best model ##

 2.41813E+00                             [chi2/Nl_eff]
     1.57911                             [adev (%)]

    96.38029                             [sum-of-x (%)]
 2.24616E-14                             [Flux_tot (units of input spectrum!)]
 1.98089E-09                             [Mini_tot (???)]
 9.86593E-10                             [Mcor_tot (???)]

 -32.12                                  [v0_min  (km/s)]
  78.11                                  [vd_min  (km/s)]
 1.5465                                  [AV_min  (mag)]
 0.0000                                  [YAV_min (mag)]

# j     x_j(%)      Mini_j(%)     Mcor_j(%)     age_j(yr)     Z_j      (L/M)_j    YAV?  Mstars   component_j        a/Fe...       SSP_chi2r SSP_adev(%)   SSP_AV   SSP_x(%)
  1      0.0000     0.0000E+00    0.0000E+00    1.000000E+06  0.00010  8.160E-03    0   1.0000   age020_m22            0.0000     7.3299E+03    61.6514   4.0000   117.7028
  2      5.4007     1.3351E-03    2.6807E-03    3.160000E+06  0.00010  4.759E-02    0   1.0000   age045_m22            0.0000     3.5654E+02    11.7556   3.7702    94.9012
  3      9.8195     5.9797E-03    1.1504E-02    5.010000E+06  0.00010  1.932E-02    0   0.9582   age055_m22            0.0000     6.2997E+02    19.1483   3.9128    85.0429
  4      0.0000     0.0000E+00    0.0000E+00    6.610000E+06  0.00010  9.973E-03    0   0.9297   age061_m22            0.0000     7.0109E+03    60.4835   4.0000   120.9400
  5      0.0000     0.0000E+00    0.0000E+00    8.710000E+06  0.00010  7.690E-03    0   0.9030   age067_m22            0.0000     6.9431E+03    60.0321   4.0000   121.4877
  6      0.0177     3.2753E-05    5.8541E-05    1.000000E+07  0.00010  6.375E-03    0   0.8902   age070_m22            0.0000     7.0435E+03    60.0299   4.0000   121.8942
  7      0.0000     0.0000E+00    0.0000E+00    1.445000E+07  0.00010  4.874E-03    0   0.8589   age078_m22            0.0000     5.7014E+03    54.5635   4.0000   123.5952
  8      0.0000     0.0000E+00    0.0000E+00    2.512000E+07  0.00010  4.103E-03    0   0.8174   age090_m22            0.0000     3.2830E+03    41.7556   4.0000   124.2825
  9      0.0000     0.0000E+00    0.0000E+00    4.000000E+07  0.00010  3.654E-03    0   0.7830   age104_m22            0.0000     2.0843E+03    31.7493   4.0000   122.5617
 10      0.0000     0.0000E+00    0.0000E+00    5.500000E+07  0.00010  3.093E-03    0   0.7597   age110_m22            0.0000     1.7697E+03    28.1564   4.0000   121.4226
 11      0.0000     0.0000E+00    0.0000E+00    1.015200E+08  0.00010  2.431E-03    0   0.7138   age116_m22            0.0000     9.0089E+02    18.8214   4.0000   112.9577
 12      0.0000     0.0000E+00    0.0000E+00    1.609000E+08  0.00010  1.319E-03    0   0.6775   age120_m22            0.0000     4.4613E+02    13.2938   3.9785    98.2093
 13      0.0000     0.0000E+00    0.0000E+00    2.861200E+08  0.00010  1.075E-03    0   0.6412   age125_m22            0.0000     6.3289E+02    16.4893   4.0000   104.5070
 14      0.0000     0.0000E+00    0.0000E+00    5.088000E+08  0.00010  7.183E-04    0   0.6083   age130_m22            0.0000     6.3792E+02    17.2616   3.9474    99.6328
 15      0.0000     0.0000E+00    0.0000E+00    9.047900E+08  0.00010  4.524E-04    0   0.5785   age135_m22            0.0000     6.3511E+02    17.2865   3.7465   100.8073
 16      0.0000     0.0000E+00    0.0000E+00    1.278050E+09  0.00010  3.018E-04    0   0.5588   age138_m22            0.0000     4.3943E+02    13.8840   3.1533   100.7898
 17      0.0000     0.0000E+00    0.0000E+00    1.434000E+09  0.00010  2.691E-04    0   0.5532   age139_m22            0.0000     4.0255E+02    13.1982   2.9878   100.5132
 18      0.0000     0.0000E+00    0.0000E+00    2.500000E+09  0.00010  1.582E-04    0   0.5296   age150_m22            0.0000     3.9911E+02    13.0634   2.8485   101.9265
 19      0.0000     0.0000E+00    0.0000E+00    4.250000E+09  0.00010  1.007E-04    0   0.5110   age158_m22            0.0000     3.3455E+02    11.4649   2.6748   100.9151
 20      0.0000     0.0000E+00    0.0000E+00    6.250000E+09  0.00010  6.869E-05    0   0.4985   age166_m22            0.0000     2.8565E+02    10.0098   2.5949    98.7598
 21      0.0000     0.0000E+00    0.0000E+00    7.500000E+09  0.00010  5.873E-05    0   0.4931   age171_m22            0.0000     2.8811E+02     9.9787   2.5712    98.5021
 22      0.0541     1.4199E-02    1.3838E-02    1.000000E+10  0.00010  4.481E-05    0   0.4854   age181_m22            0.0000     2.8206E+02     9.8662   2.5337    98.1294
 23      0.0000     0.0000E+00    0.0000E+00    1.300000E+10  0.00010  3.489E-05    0   0.4791   age193_m22            0.0000     2.7005E+02     9.6001   2.4789    97.5538
 24      0.0000     0.0000E+00    0.0000E+00    1.500000E+10  0.00010  3.035E-05    0   0.4766   age201_m22            0.0000     2.6376E+02     9.4578   2.4383    97.4275
 25      0.0000     0.0000E+00    0.0000E+00    1.800000E+10  0.00010  2.510E-05    0   0.4735   age213_m22            0.0000     2.5122E+02     9.1549   2.3651    96.9851
 26      0.0000     0.0000E+00    0.0000E+00    1.000000E+06  0.00040  8.458E-03    0   1.0000   age020_m32            0.0000     7.4371E+03    61.7850   4.0000   118.7001
 27      0.0000     0.0000E+00    0.0000E+00    3.160000E+06  0.00040  3.973E-02    0   1.0000   age045_m32            0.0000     2.7498E+03    39.1019   4.0000   121.4757
 28      0.1914     1.1637E-04    2.2271E-04    5.010000E+06  0.00040  1.935E-02    0   0.9532   age055_m32            0.0000     3.8541E+03    47.8160   4.0000   118.5348
 29      0.0000     0.0000E+00    0.0000E+00    6.610000E+06  0.00040  1.204E-02    0   0.9243   age061_m32            0.0000     5.9384E+03    56.4292   4.0000   121.9549
 30      0.0000     0.0000E+00    0.0000E+00    8.710000E+06  0.00040  9.433E-03    0   0.9001   age067_m32            0.0000     5.7299E+03    55.2905   4.0000   122.8421
 31      0.0000     0.0000E+00    0.0000E+00    1.000000E+07  0.00040  8.053E-03    0   0.8877   age070_m32            0.0000     5.4770E+03    54.2185   4.0000   122.9107
 32      0.0000     0.0000E+00    0.0000E+00    1.445000E+07  0.00040  7.027E-03    0   0.8578   age078_m32            0.0000     2.4815E+03    38.6400   4.0000   118.1651
 33      0.0000     0.0000E+00    0.0000E+00    2.512000E+07  0.00040  4.707E-03    0   0.8166   age090_m32            0.0000     1.4213E+03    29.2459   4.0000   114.4287
 34      0.2848     9.0224E-04    1.4179E-03    4.000000E+07  0.00040  3.714E-03    0   0.7827   age104_m32            0.0000     9.7216E+02    22.5362   4.0000   112.1056
 35      0.0000     0.0000E+00    0.0000E+00    5.500000E+07  0.00040  2.982E-03    0   0.7593   age110_m32            0.0000     8.8222E+02    20.5249   4.0000   111.5141
 36      0.0000     0.0000E+00    0.0000E+00    1.015200E+08  0.00040  2.188E-03    0   0.7143   age116_m32            0.0000     6.4006E+02    15.5398   4.0000   107.4450
 37      0.0000     0.0000E+00    0.0000E+00    1.609000E+08  0.00040  1.690E-03    0   0.6856   age120_m32            0.0000     5.7006E+02    15.9642   4.0000   102.6273
 38      0.0000     0.0000E+00    0.0000E+00    2.861200E+08  0.00040  1.152E-03    0   0.6509   age125_m32            0.0000     5.9819E+02    16.6297   3.9128    99.6414
 39      0.0000     0.0000E+00    0.0000E+00    5.088000E+08  0.00040  7.331E-04    0   0.6182   age130_m32            0.0000     6.0981E+02    16.8420   3.7679    99.7873
 40      0.0000     0.0000E+00    0.0000E+00    9.047900E+08  0.00040  3.960E-04    0   0.5890   age135_m32            0.0000     4.4258E+02    13.9583   3.2728    99.4662
 41      0.0000     0.0000E+00    0.0000E+00    1.278050E+09  0.00040  2.854E-04    0   0.5687   age138_m32            0.0000     4.1722E+02    13.4647   2.9320   102.5218
 42      0.0000     0.0000E+00    0.0000E+00    1.434000E+09  0.00040  2.531E-04    0   0.5632   age139_m32            0.0000     4.0998E+02    13.3931   2.8676   102.5593
 43      0.0000     0.0000E+00    0.0000E+00    2.500000E+09  0.00040  1.488E-04    0   0.5386   age150_m32            0.0000     3.4710E+02    12.2591   2.6082   100.9667
 44      0.9520     1.2332E-01    1.2873E-01    4.250000E+09  0.00040  9.082E-05    0   0.5199   age158_m32            0.0000     2.5900E+02     9.6825   2.4744    98.6291
 45      6.5127     1.2044E+00    1.2274E+00    6.250000E+09  0.00040  6.362E-05    0   0.5076   age166_m32            0.0000     2.2835E+02     8.4695   2.3917    96.3324
 46      5.9601     1.3258E+00    1.3381E+00    7.500000E+09  0.00040  5.289E-05    0   0.5027   age171_m32            0.0000     2.1521E+02     8.2038   2.3547    95.1213
 47      0.1397     4.1386E-02    4.1115E-02    1.000000E+10  0.00040  3.972E-05    0   0.4948   age181_m32            0.0000     1.9931E+02     7.8922   2.2971    93.6948
 48      0.0000     0.0000E+00    0.0000E+00    1.300000E+10  0.00040  3.283E-05    0   0.4870   age193_m32            0.0000     2.0501E+02     8.1201   2.2706    95.9938
 49      0.0000     0.0000E+00    0.0000E+00    1.500000E+10  0.00040  2.925E-05    0   0.4854   age201_m32            0.0000     2.1397E+02     8.5121   2.2624    97.3163
 50      0.0190     9.0737E-03    8.7793E-03    1.800000E+10  0.00040  2.469E-05    0   0.4819   age213_m32            0.0000     2.1338E+02     8.6258   2.2263    97.7472
 51      0.0000     0.0000E+00    0.0000E+00    1.000000E+06  0.00400  1.114E-02    0   1.0000   age020_m42            0.0000     6.8861E+03    59.9173   4.0000   118.5625
 52      0.0000     0.0000E+00    0.0000E+00    3.160000E+06  0.00400  4.073E-02    0   0.9999   age045_m42            0.0000     1.6037E+03    29.5174   4.0000   116.2253
 53      0.0000     0.0000E+00    0.0000E+00    5.010000E+06  0.00400  2.534E-02    0   0.9488   age055_m42            0.0000     3.2344E+03    43.0907   4.0000   119.2325
 54      0.0000     0.0000E+00    0.0000E+00    6.610000E+06  0.00400  2.583E-02    0   0.9220   age061_m42            0.0000     1.0778E+03    24.2892   4.0000   111.4072
 55      0.3767     2.5981E-04    4.6860E-04    8.710000E+06  0.00400  1.706E-02    0   0.8983   age067_m42            0.0000     6.6140E+02    21.0110   4.0000   102.4531
 56      1.4267     1.3206E-03    2.3498E-03    1.000000E+07  0.00400  1.271E-02    0   0.8862   age070_m42            0.0000     6.5953E+02    21.6782   4.0000    99.7550
 57      0.0000     0.0000E+00    0.0000E+00    1.445000E+07  0.00400  7.666E-03    0   0.8571   age078_m42            0.0000     1.5510E+03    32.9799   4.0000   109.0306
 58      0.0000     0.0000E+00    0.0000E+00    2.512000E+07  0.00400  5.070E-03    0   0.8174   age090_m42            0.0000     5.0758E+02    18.3619   4.0000    97.1251
 59      0.0000     0.0000E+00    0.0000E+00    4.000000E+07  0.00400  3.505E-03    0   0.7851   age104_m42            0.0000     3.6545E+02    14.0634   3.8588    94.4585
 60      0.0000     0.0000E+00    0.0000E+00    5.500000E+07  0.00400  3.059E-03    0   0.7629   age110_m42            0.0000     3.4927E+02    11.8529   4.0000    97.1440
 61      0.0000     0.0000E+00    0.0000E+00    1.015200E+08  0.00400  2.268E-03    0   0.7207   age116_m42            0.0000     4.8041E+02    14.7383   4.0000   100.1873
 62      0.0000     0.0000E+00    0.0000E+00    1.609000E+08  0.00400  1.720E-03    0   0.6930   age120_m42            0.0000     4.9074E+02    14.8957   3.8972   100.6159
 63      0.0000     0.0000E+00    0.0000E+00    2.861200E+08  0.00400  1.079E-03    0   0.6613   age125_m42            0.0000     4.6001E+02    14.4321   3.5336   101.1640
 64      0.0000     0.0000E+00    0.0000E+00    5.088000E+08  0.00400  6.261E-04    0   0.6313   age130_m42            0.0000     5.0065E+02    15.2876   3.3400   103.9758
 65      0.0000     0.0000E+00    0.0000E+00    9.047900E+08  0.00400  3.535E-04    0   0.6024   age135_m42            0.0000     3.6669E+02    12.7225   2.9188   104.9134
 66      0.0383     1.6848E-03    1.9745E-03    1.278050E+09  0.00400  2.677E-04    0   0.5837   age138_m42            0.0000     1.4594E+02     8.0319   2.2542   101.9084
 67      0.0000     0.0000E+00    0.0000E+00    1.434000E+09  0.00400  1.910E-04    0   0.5716   age139_m42            0.0000     1.9372E+02     9.0950   2.4264   102.7215
 68      0.0000     0.0000E+00    0.0000E+00    2.500000E+09  0.00400  9.818E-05    0   0.5463   age150_m42            0.0000     8.7394E+01     5.5831   2.1559    98.1209
 69      0.0546     1.1692E-02    1.2369E-02    4.250000E+09  0.00400  5.491E-05    0   0.5269   age158_m42            0.0000     5.3345E+01     4.2032   2.0171    95.7814
 70      0.1132     3.4530E-02    3.5712E-02    6.250000E+09  0.00400  3.857E-05    0   0.5151   age166_m42            0.0000     3.6739E+01     3.6558   1.9038    94.2286
 71      0.3633     1.3182E-01    1.3524E-01    7.500000E+09  0.00400  3.243E-05    0   0.5110   age171_m42            0.0000     3.0450E+01     3.5045   1.8367    93.4345
 72      0.0000     0.0000E+00    0.0000E+00    1.000000E+10  0.00400  2.424E-05    0   0.5028   age181_m42            0.0000     2.5682E+01     3.4849   1.7686    92.5637
 73      0.0000     0.0000E+00    0.0000E+00    1.300000E+10  0.00400  1.883E-05    0   0.4927   age193_m42            0.0000     2.3596E+01     3.5161   1.7325    92.1633
 74      0.5404     3.7729E-01    3.7263E-01    1.500000E+10  0.00400  1.685E-05    0   0.4919   age201_m42            0.0000     2.3106E+01     3.4267   1.7339    92.2601
 75      1.3822     1.1199E+00    1.0960E+00    1.800000E+10  0.00400  1.452E-05    0   0.4874   age213_m42            0.0000     2.2791E+01     3.3245   1.7435    92.6341
 76      0.0000     0.0000E+00    0.0000E+00    1.000000E+06  0.00800  1.286E-02    0   1.0000   age020_m52            0.0000     6.7030E+03    58.8408   4.0000   120.8326
 77      0.0000     0.0000E+00    0.0000E+00    3.160000E+06  0.00800  3.147E-02    0   0.9966   age045_m52            0.0000     6.0479E+03    56.7378   4.0000   121.8202
 78      0.0000     0.0000E+00    0.0000E+00    5.010000E+06  0.00800  2.664E-02    0   0.9443   age055_m52            0.0000     3.8771E+03    47.0499   4.0000   120.7033
 79      0.0000     0.0000E+00    0.0000E+00    6.610000E+06  0.00800  2.151E-02    0   0.9177   age061_m52            0.0000     3.9815E+02    15.2652   3.8747    92.2175
 80      0.0000     0.0000E+00    0.0000E+00    8.710000E+06  0.00800  1.628E-02    0   0.8948   age067_m52            0.0000     5.8572E+02    20.3621   4.0000   101.2167
 81      0.0000     0.0000E+00    0.0000E+00    1.000000E+07  0.00800  1.215E-02    0   0.8827   age070_m52            0.0000     1.2680E+03    29.9791   4.0000   110.4723
 82      0.0000     0.0000E+00    0.0000E+00    1.445000E+07  0.00800  8.739E-03    0   0.8552   age078_m52            0.0000     1.4146E+03    30.5734   4.0000   113.6526
 83      0.0000     0.0000E+00    0.0000E+00    2.512000E+07  0.00800  5.676E-03    0   0.8162   age090_m52            0.0000     6.0602E+02    18.8285   4.0000   105.6927
 84      0.0000     0.0000E+00    0.0000E+00    4.000000E+07  0.00800  3.939E-03    0   0.7841   age104_m52            0.0000     4.6892E+02    14.8430   4.0000   102.9361
 85      0.0000     0.0000E+00    0.0000E+00    5.500000E+07  0.00800  3.155E-03    0   0.7627   age110_m52            0.0000     4.7494E+02    13.9197   4.0000   104.0773
 86      0.0000     0.0000E+00    0.0000E+00    1.015200E+08  0.00800  2.206E-03    0   0.7226   age116_m52            0.0000     4.5198E+02    13.6602   4.0000   101.9101
 87      0.0000     0.0000E+00    0.0000E+00    1.609000E+08  0.00800  1.596E-03    0   0.6963   age120_m52            0.0000     4.5404E+02    14.0370   3.8433   101.5614
 88      0.0000     0.0000E+00    0.0000E+00    2.861200E+08  0.00800  1.002E-03    0   0.6665   age125_m52            0.0000     4.9235E+02    15.2066   3.6076   102.6963
 89      0.0000     0.0000E+00    0.0000E+00    5.088000E+08  0.00800  5.759E-04    0   0.6377   age130_m52            0.0000     4.7469E+02    14.9023   3.2993   105.4916
 90      0.0000     0.0000E+00    0.0000E+00    9.047900E+08  0.00800  2.972E-04    0   0.6086   age135_m52            0.0000     2.9536E+02    11.2167   2.7767   103.8906
 91      0.0000     0.0000E+00    0.0000E+00    1.278050E+09  0.00800  2.242E-04    0   0.5907   age138_m52            0.0000     1.1152E+02     6.9416   2.1249   103.6718
 92      0.0000     0.0000E+00    0.0000E+00    1.434000E+09  0.00800  1.645E-04    0   0.5787   age139_m52            0.0000     1.1241E+02     6.8382   2.2638   103.3500
 93      0.0000     0.0000E+00    0.0000E+00    2.500000E+09  0.00800  7.723E-05    0   0.5519   age150_m52            0.0000     4.7718E+01     4.6337   1.9276    99.8368
 94      0.0000     0.0000E+00    0.0000E+00    4.250000E+09  0.00800  4.151E-05    0   0.5320   age158_m52            0.0000     3.7556E+01     4.0907   1.8536    97.5169
 95      1.1040     4.3152E-01    4.5027E-01    6.250000E+09  0.00800  3.010E-05    0   0.5197   age166_m52            0.0000     2.5846E+01     3.8017   1.6791    95.7831
 96      0.0000     0.0000E+00    0.0000E+00    7.500000E+09  0.00800  2.467E-05    0   0.5139   age171_m52            0.0000     2.5616E+01     3.9102   1.6444    95.2444
 97      0.0000     0.0000E+00    0.0000E+00    1.000000E+10  0.00800  1.862E-05    0   0.5054   age181_m52            0.0000     3.0270E+01     4.5976   1.5374    94.3857
 98      1.0495     8.6167E-01    8.6296E-01    1.300000E+10  0.00800  1.433E-05    0   0.4988   age193_m52            0.0000     3.7077E+01     5.3741   1.4612    94.5549
 99      0.5845     5.5275E-01    5.4781E-01    1.500000E+10  0.00800  1.244E-05    0   0.4936   age201_m52            0.0000     4.0277E+01     5.6527   1.4375    94.8647
100      0.0000     0.0000E+00    0.0000E+00    1.800000E+10  0.00800  1.070E-05    0   0.4888   age213_m52            0.0000     4.4154E+01     5.9284   1.4095    94.5696
101      0.0000     0.0000E+00    0.0000E+00    1.000000E+06  0.02000  1.989E-02    0   1.0000   age020_m62            0.0000     6.5786E+03    58.6768   4.0000   119.1339
102      0.0000     0.0000E+00    0.0000E+00    3.160000E+06  0.02000  3.772E-02    0   0.9858   age045_m62            0.0000     5.5621E+03    55.2805   4.0000   120.3720
103      0.0000     0.0000E+00    0.0000E+00    5.010000E+06  0.02000  3.227E-02    0   0.9342   age055_m62            0.0000     2.5543E+03    38.2979   4.0000   119.6905
104      0.0000     0.0000E+00    0.0000E+00    6.610000E+06  0.02000  2.387E-02    0   0.9090   age061_m62            0.0000     1.5008E+03    32.5100   4.0000   110.7810
105      0.0000     0.0000E+00    0.0000E+00    8.710000E+06  0.02000  1.102E-02    0   0.8861   age067_m62            0.0000     1.0783E+03    27.0673   4.0000    91.2436
106      0.0000     0.0000E+00    0.0000E+00    1.000000E+07  0.02000  1.011E-02    0   0.8751   age070_m62            0.0000     8.7044E+02    25.1360   4.0000    95.4285
107      0.0000     0.0000E+00    0.0000E+00    1.445000E+07  0.02000  7.331E-03    0   0.8472   age078_m62            0.0000     7.6004E+02    23.9691   4.0000    98.4364
108      0.0000     0.0000E+00    0.0000E+00    2.512000E+07  0.02000  4.206E-03    0   0.8099   age090_m62            0.0000     6.7000E+02    22.3750   4.0000    94.8441
109      0.0000     0.0000E+00    0.0000E+00    4.000000E+07  0.02000  3.373E-03    0   0.7799   age104_m62            0.0000     4.1111E+02    14.9744   4.0000    98.7600
110      0.0000     0.0000E+00    0.0000E+00    5.500000E+07  0.02000  2.747E-03    0   0.7595   age110_m62            0.0000     3.9900E+02    13.0630   4.0000   100.6201
111      0.0000     0.0000E+00    0.0000E+00    1.015200E+08  0.02000  1.878E-03    0   0.7221   age116_m62            0.0000     4.5964E+02    13.9309   3.9923   101.5313
112      0.0000     0.0000E+00    0.0000E+00    1.609000E+08  0.02000  1.378E-03    0   0.6978   age120_m62            0.0000     5.1422E+02    15.2557   3.8794   102.9839
113      0.0000     0.0000E+00    0.0000E+00    2.861200E+08  0.02000  8.869E-04    0   0.6700   age125_m62            0.0000     5.9394E+02    16.9175   3.5624   105.7210
114      0.0000     0.0000E+00    0.0000E+00    5.088000E+08  0.02000  4.834E-04    0   0.6430   age130_m62            0.0000     4.9668E+02    15.1809   3.1745   106.6964
115      0.0000     0.0000E+00    0.0000E+00    9.047900E+08  0.02000  2.312E-04    0   0.6152   age135_m62            0.0000     2.6169E+02    10.5408   2.5625   106.3563
116      0.0000     0.0000E+00    0.0000E+00    1.278050E+09  0.02000  1.387E-04    0   0.5927   age138_m62            0.0000     1.1343E+02     6.7418   2.1655   102.6883
117      0.0000     0.0000E+00    0.0000E+00    1.434000E+09  0.02000  1.168E-04    0   0.5865   age139_m62            0.0000     9.4006E+01     6.0492   2.1390   101.1741
118      0.0000     0.0000E+00    0.0000E+00    2.500000E+09  0.02000  5.505E-05    0   0.5610   age150_m62            0.0000     3.7558E+01     4.4020   1.7878    98.0871
119      0.0000     0.0000E+00    0.0000E+00    4.250000E+09  0.02000  3.070E-05    0   0.5407   age158_m62            0.0000     4.0300E+01     5.4145   1.5402    96.9709
120      0.0000     0.0000E+00    0.0000E+00    6.250000E+09  0.02000  2.104E-05    0   0.5277   age166_m62            0.0000     5.1260E+01     6.3536   1.4279    96.9147
121      0.0000     0.0000E+00    0.0000E+00    7.500000E+09  0.02000  1.770E-05    0   0.5223   age171_m62            0.0000     6.1691E+01     6.9180   1.3542    96.9339
122      0.0000     0.0000E+00    0.0000E+00    1.000000E+10  0.02000  1.297E-05    0   0.5121   age181_m62            0.0000     8.7730E+01     8.0773   1.2227    96.7526
123     11.4502     1.3901E+01    1.4086E+01    1.300000E+10  0.02000  9.691E-06    0   0.5047   age193_m62            0.0000     1.0802E+02     8.8053   1.1551    96.6712
124     19.4916     2.7431E+01    2.7532E+01    1.500000E+10  0.02000  8.360E-06    0   0.4999   age201_m62            0.0000     1.2971E+02     9.5233   1.1012    96.4742
125     25.4193     4.3273E+01    4.2973E+01    1.800000E+10  0.02000  6.911E-06    0   0.4946   age213_m62            0.0000     1.6084E+02    10.4912   1.0501    96.1425
126      0.0000     0.0000E+00    0.0000E+00    1.000000E+06  0.05000  2.651E-02    0   0.9998   age020_m72            0.0000     6.5911E+03    58.4492   4.0000   120.6668
127      0.0000     0.0000E+00    0.0000E+00    3.160000E+06  0.05000  4.817E-02    0   0.9577   age045_m72            0.0000     4.5932E+03    50.2491   4.0000   122.7510
128      0.0000     0.0000E+00    0.0000E+00    5.010000E+06  0.05000  3.101E-02    0   0.9147   age055_m72            0.0000     2.5814E+03    40.2005   4.0000   117.6855
129      0.0000     0.0000E+00    0.0000E+00    6.610000E+06  0.05000  1.472E-02    0   0.8877   age061_m72            0.0000     1.2346E+03    30.4483   4.0000   100.7391
130      0.0000     0.0000E+00    0.0000E+00    8.710000E+06  0.05000  1.050E-02    0   0.8638   age067_m72            0.0000     2.3381E+03    39.7321   4.0000   114.0471
131      0.0000     0.0000E+00    0.0000E+00    1.000000E+07  0.05000  8.954E-03    0   0.8524   age070_m72            0.0000     3.7661E+03    46.3652   4.0000   121.8778
132      0.0000     0.0000E+00    0.0000E+00    1.445000E+07  0.05000  6.392E-03    0   0.8262   age078_m72            0.0000     3.4745E+03    44.3291   4.0000   122.1999
133      0.0000     0.0000E+00    0.0000E+00    2.512000E+07  0.05000  4.207E-03    0   0.7902   age090_m72            0.0000     1.7572E+03    32.3252   4.0000   117.8382
134      0.0000     0.0000E+00    0.0000E+00    4.000000E+07  0.05000  3.198E-03    0   0.7618   age104_m72            0.0000     6.4815E+02    16.1680   4.0000   111.0541
135      0.0000     0.0000E+00    0.0000E+00    5.500000E+07  0.05000  2.593E-03    0   0.7432   age110_m72            0.0000     5.7664E+02    14.5524   4.0000   109.7369
136      0.0000     0.0000E+00    0.0000E+00    1.015200E+08  0.05000  1.716E-03    0   0.7092   age116_m72            0.0000     5.1253E+02    14.5746   4.0000   105.2522
137      0.0000     0.0000E+00    0.0000E+00    1.609000E+08  0.05000  1.218E-03    0   0.6876   age120_m72            0.0000     5.4012E+02    15.7714   3.8823   102.6673
138      0.0000     0.0000E+00    0.0000E+00    2.861200E+08  0.05000  7.047E-04    0   0.6618   age125_m72            0.0000     5.4189E+02    16.0671   3.4007   105.0694
139      0.0000     0.0000E+00    0.0000E+00    5.088000E+08  0.05000  3.590E-04    0   0.6356   age130_m72            0.0000     3.9927E+02    13.4447   2.8603   106.6554
140      0.0000     0.0000E+00    0.0000E+00    9.047900E+08  0.05000  1.484E-04    0   0.6088   age135_m72            0.0000     1.2560E+02     7.5277   2.1235   100.7295
141      0.0000     0.0000E+00    0.0000E+00    1.278050E+09  0.05000  9.435E-05    0   0.5924   age138_m72            0.0000     7.3151E+01     6.4084   1.7567    97.2619
142      0.0000     0.0000E+00    0.0000E+00    1.434000E+09  0.05000  7.827E-05    0   0.5847   age139_m72            0.0000     6.0089E+01     5.9693   1.7599    96.9295
143      0.0000     0.0000E+00    0.0000E+00    2.500000E+09  0.05000  3.759E-05    0   0.5583   age150_m72            0.0000     5.6140E+01     6.5558   1.4524    95.9469
144      0.0000     0.0000E+00    0.0000E+00    4.250000E+09  0.05000  1.842E-05    0   0.5374   age158_m72            0.0000     1.0753E+02     8.2753   1.1724    94.5311
145      0.0000     0.0000E+00    0.0000E+00    6.250000E+09  0.05000  1.207E-05    0   0.5242   age166_m72            0.0000     1.6881E+02    10.0615   0.9807    93.1035
146      0.6751     7.9479E-01    8.2710E-01    7.500000E+09  0.05000  9.993E-06    0   0.5183   age171_m72            0.0000     1.8260E+02    10.3615   0.9449    92.8497
147      0.4773     7.7023E-01    7.8576E-01    1.000000E+10  0.05000  7.291E-06    0   0.5081   age181_m72            0.0000     2.3621E+02    11.7731   0.8592    91.8157
148      0.0000     0.0000E+00    0.0000E+00    1.300000E+10  0.05000  5.316E-06    0   0.5018   age193_m72            0.0000     3.3446E+02    13.9265   0.7322    90.2782
149      0.4309     1.1273E+00    1.1253E+00    1.500000E+10  0.05000  4.497E-06    0   0.4972   age201_m72            0.0000     3.8557E+02    14.9549   0.6868    89.7995
150      2.0507     6.4527E+00    6.3794E+00    1.800000E+10  0.05000  3.739E-06    0   0.4924   age213_m72            0.0000     4.5326E+02    16.2624   0.6197    88.9984


## Synthesis Results - Average & Chains ##

# j      x_j: min, <> & last-chain-values for 1 ...  7 chains
  1      0.0000      0.0536      0.1263      0.0000      0.0000      0.0000      0.0000      0.0000      0.0000
  2      5.4007      4.1352      4.4055      4.3765      4.4265      4.1911      4.1773      4.2495      4.1695
  3      9.8195      9.2509      9.4508      9.6146      9.6251      9.3651      9.3720      9.4975      9.5033
  4      0.0000      0.0203      0.0000      0.0000      0.0428      0.0000      0.0000      0.0000      0.0000
  5      0.0000      0.0208      0.0000      0.0345      0.0318      0.0041      0.0855      0.0000      0.0000
  6      0.0177      0.0308      0.0859      0.1479      0.0000      0.0428      0.0000      0.0360      0.0000
  7      0.0000      0.0218      0.0000      0.0000      0.0000      0.0466      0.0000      0.0000      0.0000
  8      0.0000      0.0234      0.0152      0.0000      0.0000      0.0000      0.0000      0.0299      0.0797
  9      0.0000      0.0281      0.0000      0.0000      0.0000      0.0408      0.0114      0.0000      0.0000
 10      0.0000      0.0293      0.0389      0.0616      0.0000      0.0000      0.1083      0.0000      0.0000
 11      0.0000      0.0233      0.0452      0.0185      0.0712      0.0934      0.0447      0.1379      0.0000
 12      0.0000      0.0147      0.0000      0.0000      0.0000      0.0000      0.0000      0.0000      0.0000
 13      0.0000      0.0090      0.0000      0.0000      0.0628      0.0000      0.0000      0.0000      0.0428
 14      0.0000      0.0081      0.0000      0.0532      0.0000      0.0000      0.0000      0.0000      0.0000
 15      0.0000      0.0075      0.0000      0.0000      0.0000      0.0000      0.0000      0.0000      0.0000
 16      0.0000      0.0186      0.0000      0.0000      0.0000      0.0000      0.0000      0.0000      0.0000
 17      0.0000      0.0130      0.0000      0.0000      0.0000      0.0331      0.0862      0.0022      0.0549
 18      0.0000      0.0194      0.0000      0.0000      0.0000      0.0000      0.0000      0.0000      0.0000
 19      0.0000      0.0303      0.0000      0.0000      0.0000      0.0000      0.0000      0.0615      0.0797
 20      0.0000      0.0452      0.0719      0.0000      0.0000      0.0000      0.0968      0.0653      0.0000
 21      0.0000      0.0410      0.0000      0.0000      0.0019      0.0000      0.0000      0.0000      0.1150
 22      0.0541      0.0831      0.6957      0.3301      0.1486      0.1101      0.1477      0.1224      0.0000
 23      0.0000      0.0718      0.0000      0.1033      0.0781      0.0000      0.0000      0.0000      0.0136
 24      0.0000      0.0738      0.0393      0.0000      0.3737      0.1298      0.2404      0.0464      0.0000
 25      0.0000      0.0867      0.0000      0.0658      0.0000      0.0000      0.0000      0.1318      0.0049
 26      0.0000      0.0329      0.0000      0.0000      0.0516      0.0595      0.0040      0.0573      0.0000
 27      0.0000      0.0340      0.0000      0.0000      0.0000      0.0000      0.0000      0.0670      0.0000
 28      0.1914      0.4260      0.3933      0.4141      0.4349      0.2976      0.5078      0.4038      0.4355
 29      0.0000      0.0407      0.0000      0.0000      0.0000      0.0000      0.0000      0.0000      0.0159
 30      0.0000      0.0280      0.0000      0.0000      0.0000      0.0000      0.0000      0.0182      0.1032
 31      0.0000      0.0217      0.0000      0.0000      0.0372      0.0000      0.2045      0.0000      0.0000
 32      0.0000      0.0190      0.0280      0.0126      0.0000      0.0964      0.0000      0.0032      0.0000
 33      0.0000      0.0229      0.0000      0.0000      0.0174      0.0000      0.0000      0.0950      0.0222
 34      0.2848      0.0226      0.0000      0.1520      0.0000      0.0000      0.0000      0.0645      0.0000
 35      0.0000      0.0311      0.0000      0.0000      0.0000      0.0000      0.0000      0.0000      0.0929
 36      0.0000      0.0258      0.0000      0.0000      0.0000      0.0000      0.0000      0.0000      0.0864
 37      0.0000      0.0135      0.0088      0.0000      0.0000      0.0000      0.0000      0.0757      0.0000
 38      0.0000      0.0091      0.0000      0.0000      0.0000      0.0000      0.0000      0.0000      0.0000
 39      0.0000      0.0121      0.0207      0.0000      0.0005      0.0000      0.0894      0.0000      0.0000
 40      0.0000      0.0123      0.0406      0.0000      0.0000      0.0000      0.0000      0.0000      0.0000
 41      0.0000      0.0215      0.0107      0.0000      0.0318      0.0000      0.0000      0.0000      0.0000
 42      0.0000      0.0211      0.0000      0.0000      0.1152      0.0000      0.0054      0.0232      0.0000
 43      0.0000      0.0372      0.0000      0.0000      0.0443      0.1036      0.0000      0.0330      0.0000
 44      0.9520      0.8693      1.0912      0.7718      0.7514      0.7312      0.8809      0.8193      0.8543
 45      6.5127      6.1568      6.1287      6.3784      6.0133      6.2322      6.5774      6.1836      6.2775
 46      5.9601      5.8750      6.0408      5.9478      6.1086      5.9626      6.2414      6.2475      5.8727
 47      0.1397      0.1542      0.0249      0.3103      0.0979      0.3765      0.0692      0.0517      0.0242
 48      0.0000      0.1302      0.0000      0.0198      0.1043      0.1731      0.0000      0.0875      0.0000
 49      0.0000      0.0959      0.2730      0.0000      0.0000      0.0903      0.1645      0.3751      0.0000
 50      0.0190      0.0976      0.0000      0.1939      0.0356      0.0278      0.0000      0.0000      0.3925
 51      0.0000      0.0214      0.0000      0.0000      0.0000      0.0000      0.0689      0.0000      0.0000
 52      0.0000      0.0368      0.0506      0.1359      0.0016      0.0257      0.0000      0.0770      0.2700
 53      0.0000      0.0360      0.1048      0.0000      0.0000      0.0446      0.0000      0.0000      0.0000
 54      0.0000      0.0577      0.0087      0.1372      0.0498      0.3158      0.0936      0.0000      0.1476
 55      0.3767      0.0572      0.2504      0.2136      0.1348      0.0000      0.0000      0.1824      0.0000
 56      1.4267      1.0986      1.0562      1.1312      1.1417      1.2022      1.0759      1.1430      1.2561
 57      0.0000      0.0200      0.0000      0.0000      0.0551      0.0000      0.0740      0.0000      0.0000
 58      0.0000      0.0324      0.0447      0.0000      0.0000      0.1071      0.1160      0.0000      0.0897
 59      0.0000      0.0266      0.0000      0.0441      0.0000      0.0800      0.0000      0.0053      0.0000
 60      0.0000      0.0207      0.0000      0.0026      0.0000      0.0065      0.0030      0.0000      0.0000
 61      0.0000      0.0155      0.0000      0.0000      0.0576      0.0000      0.0536      0.0000      0.0000
 62      0.0000      0.0094      0.0670      0.0000      0.0000      0.0338      0.0000      0.0000      0.0000
 63      0.0000      0.0088      0.0000      0.0000      0.0000      0.0000      0.0000      0.0000      0.0302
 64      0.0000      0.0183      0.0000      0.1219      0.0161      0.0065      0.0934      0.0000      0.0000
 65      0.0000      0.0173      0.0000      0.0000      0.0000      0.0000      0.0000      0.0414      0.2242
 66      0.0383      0.0366      0.1513      0.2340      0.0000      0.2394      0.0000      0.0829      0.0000
 67      0.0000      0.0277      0.0000      0.0000      0.1770      0.0000      0.0000      0.0070      0.0000
 68      0.0000      0.0545      0.0000      0.0000      0.2109      0.0000      0.0000      0.0000      0.0341
 69      0.0546      0.1013      0.0726      0.1672      0.0000      0.0000      0.0000      0.0493      0.0000
 70      0.1132      0.1307      0.0000      0.2960      0.0795      0.2880      0.0887      0.1818      0.2806
 71      0.3633      0.1881      0.4618      0.1600      0.0000      0.0000      0.2774      0.0000      0.2000
 72      0.0000      0.2079      0.0000      0.0949      0.5665      0.2308      0.0000      0.1559      0.8595
 73      0.0000      0.2043      0.3032      0.0000      0.1205      0.0438      0.1541      0.0000      0.0000
 74      0.5404      0.2432      0.2524      0.3810      0.0943      0.2713      0.0000      0.0000      0.2380
 75      1.3822      1.6614      1.1855      1.7294      1.8801      1.7248      1.9799      2.1327      0.9006
 76      0.0000      0.0257      0.0000      0.0000      0.0000      0.0000      0.0000      0.0000      0.0564
 77      0.0000      0.0147      0.0000      0.0000      0.0000      0.0000      0.0000      0.0837      0.0000
 78      0.0000      0.0140      0.0000      0.0181      0.0000      0.0000      0.0757      0.0000      0.0000
 79      0.0000      0.0394      0.0000      0.0000      0.1383      0.0807      0.0000      0.0000      0.2063
 80      0.0000      0.0139      0.0433      0.0631      0.0000      0.0000      0.0000      0.0000      0.0000
 81      0.0000      0.0174      0.0000      0.0000      0.0000      0.1403      0.0290      0.0612      0.0105
 82      0.0000      0.0173      0.0000      0.0000      0.0000      0.0000      0.0418      0.0000      0.0000
 83      0.0000      0.0298      0.0000      0.0000      0.0000      0.0000      0.0000      0.0000      0.0000
 84      0.0000      0.0142      0.0000      0.0081      0.0000      0.0000      0.0067      0.0048      0.0000
 85      0.0000      0.0188      0.0000      0.0000      0.0000      0.0000      0.0082      0.0000      0.0425
 86      0.0000      0.0122      0.0000      0.0000      0.0000      0.0000      0.0000      0.0000      0.0707
 87      0.0000      0.0112      0.0000      0.0000      0.0389      0.0619      0.0000      0.0000      0.0098
 88      0.0000      0.0097      0.0000      0.0000      0.0000      0.0000      0.0000      0.0000      0.0000
 89      0.0000      0.0093      0.0000      0.0000      0.0000      0.0077      0.0000      0.0000      0.0000
 90      0.0000      0.0145      0.0000      0.0000      0.0000      0.0000      0.0000      0.0000      0.0000
 91      0.0000      0.0283      0.0000      0.0000      0.0146      0.0000      0.0000      0.0000      0.0000
 92      0.0000      0.0231      0.0000      0.0000      0.0074      0.0000      0.0000      0.0000      0.0000
 93      0.0000      0.0556      0.0000      0.0000      0.0279      0.0000      0.0000      0.0249      0.0384
 94      0.0000      0.1245      0.0000      0.1188      0.1037      0.0000      0.2142      0.0000      0.0004
 95      1.1040      0.2424      0.2335      0.3187      0.2332      0.3713      0.9493      0.2166      0.1562
 96      0.0000      0.2932      0.0000      0.0506      0.6006      0.3879      0.2071      0.1380      1.4388
 97      0.0000      0.3254      1.0239      0.0000      0.1237      0.6815      0.0000      0.2015      0.0000
 98      1.0495      0.3019      0.5685      0.2246      0.3899      0.2008      0.0134      0.0936      0.0000
 99      0.5845      0.2725      0.2233      0.3128      0.2276      0.7350      0.2330      0.5251      0.1979
100      0.0000      0.3026      0.1009      0.0000      0.1734      0.0000      0.5721      0.2584      0.7475
101      0.0000      0.0257      0.0136      0.0000      0.0000      0.0031      0.0000      0.0000      0.0000
102      0.0000      0.0213      0.0670      0.0000      0.0143      0.0964      0.0000      0.0000      0.0000
103      0.0000      0.0362      0.0000      0.0831      0.1984      0.0000      0.0000      0.0000      0.0000
104      0.0000      0.0250      0.0000      0.0127      0.0221      0.0000      0.0000      0.1840      0.0000
105      0.0000      0.0607      0.0448      0.0000      0.0644      0.0291      0.0000      0.0000      0.0396
106      0.0000      0.0363      0.1340      0.0689      0.0444      0.0000      0.1049      0.0000      0.0146
107      0.0000      0.0472      0.0000      0.0792      0.0000      0.1421      0.1024      0.1517      0.0000
108      0.0000      0.0221      0.0000      0.0000      0.0000      0.0765      0.0000      0.0000      0.0000
109      0.0000      0.0123      0.0000      0.0000      0.0403      0.0000      0.0000      0.0038      0.0000
110      0.0000      0.0113      0.0238      0.0000      0.0000      0.0000      0.0000      0.0096      0.0097
111      0.0000      0.0091      0.0000      0.0000      0.0000      0.0000      0.0000      0.0000      0.0000
112      0.0000      0.0121      0.0000      0.0000      0.0000      0.0000      0.0000      0.0496      0.0000
113      0.0000      0.0075      0.0687      0.0000      0.0000      0.0000      0.0000      0.0000      0.0000
114      0.0000      0.0096      0.0039      0.0000      0.0000      0.0000      0.0000      0.0000      0.0000
115      0.0000      0.0163      0.0000      0.0000      0.0000      0.0000      0.0000      0.0000      0.0000
116      0.0000      0.0258      0.0000      0.0000      0.0000      0.0346      0.0000      0.0000      0.0000
117      0.0000      0.0366      0.0000      0.0085      0.0369      0.0937      0.0000      0.0000      0.0000
118      0.0000      0.0783      0.0227      0.0000      0.0000      0.0818      0.0000      0.0000      0.3973
119      0.0000      0.1071      0.0000      0.0000      0.0000      0.3611      0.3941      0.0000      0.0000
120      0.0000      0.1412      0.0000      0.0000      0.1442      0.0000      0.1042      0.0000      0.0000
121      0.0000      0.1704      0.0000      0.0824      0.0215      0.1972      0.1381      0.0000      0.0517
122      0.0000      0.1701      0.4232      0.0000      0.0000      0.1598      0.0875      0.4721      0.1681
123     11.4502     11.6345     11.9484     11.6502     12.1873     11.6997     11.2172     11.7460     11.4344
124     19.4916     19.7782     19.7591     20.1152     19.7775     19.7602     19.8334     20.0590     19.3912
125     25.4193     25.0257     25.1263     25.7282     25.0686     24.7425     25.1365     25.5286     25.2028
126      0.0000      0.0135      0.0000      0.0000      0.0359      0.0000      0.0000      0.0048      0.0000
127      0.0000      0.0536      0.1623      0.0000      0.0000      0.0000      0.0210      0.0688      0.1136
128      0.0000      0.0250      0.0000      0.0000      0.0005      0.0000      0.0542      0.0002      0.0165
129      0.0000      0.0257      0.0000      0.0000      0.0000      0.1161      0.0000      0.0458      0.0000
130      0.0000      0.0227      0.0000      0.0000      0.0000      0.0000      0.0000      0.0000      0.0176
131      0.0000      0.0156      0.0000      0.0000      0.0000      0.0000      0.0000      0.0000      0.0000
132      0.0000      0.0257      0.0000      0.0000      0.0000      0.0000      0.0000      0.0000      0.0000
133      0.0000      0.0172      0.0000      0.0000      0.0000      0.0000      0.0000      0.0040      0.0000
134      0.0000      0.0118      0.0000      0.0000      0.0065      0.0000      0.0000      0.0000      0.0077
135      0.0000      0.0105      0.0390      0.0217      0.0000      0.0000      0.0081      0.0000      0.0000
136      0.0000      0.0084      0.0000      0.0000      0.0000      0.0000      0.0000      0.0000      0.0000
137      0.0000      0.0107      0.0000      0.0000      0.0371      0.0000      0.0011      0.0632      0.0000
138      0.0000      0.0072      0.0000      0.0000      0.0000      0.0000      0.0000      0.0000      0.0000
139      0.0000      0.0091      0.0000      0.0000      0.0000      0.0000      0.0000      0.0000      0.0000
140      0.0000      0.0280      0.0090      0.0000      0.0000      0.0000      0.0000      0.0607      0.0000
141      0.0000      0.0619      0.0000      0.1318      0.0000      0.0130      0.0000      0.0000      0.0047
142      0.0000      0.0682      0.0000      0.0000      0.0000      0.0389      0.0000      0.0472      0.0000
143      0.0000      0.1378      0.0000      0.0000      0.0000      0.0000      0.0000      0.2063      0.0659
144      0.0000      0.1148      0.1227      0.1391      0.0000      0.0000      0.2255      0.2187      0.3060
145      0.0000      0.1403      0.0000      0.0000      0.0000      0.0000      0.2252      0.0000      0.0000
146      0.6751      0.1088      0.1036      0.5900      0.1992      0.0000      0.0000      0.0344      0.0811
147      0.4773      0.2998      0.4958      0.2603      0.3031      0.2395      0.1459      0.1620      0.3868
148      0.0000      0.2552      0.2259      0.0893      0.3701      0.2491      0.2362      0.3713      0.4518
149      0.4309      0.3715      0.2602      0.2738      0.3907      0.6342      0.6045      0.3634      0.4083
150      2.0507      2.1479      2.1598      2.1581      2.0816      2.1430      2.2021      1.9524      2.1030

# j      m_j: min, <> & last-chain-values for 1 ...  7 chains
  1  0.0000E+00  1.5474E-04  3.6392E-04  0.0000E+00  0.0000E+00  0.0000E+00  0.0000E+00  0.0000E+00  0.0000E+00
  2  2.6807E-03  2.0472E-03  2.1769E-03  2.1563E-03  2.1840E-03  2.0750E-03  2.0630E-03  2.0930E-03  2.0685E-03
  3  1.1504E-02  1.0810E-02  1.1022E-02  1.1181E-02  1.1209E-02  1.0944E-02  1.0924E-02  1.1041E-02  1.1128E-02
  4  0.0000E+00  4.4684E-05  0.0000E+00  0.0000E+00  9.3733E-05  0.0000E+00  0.0000E+00  0.0000E+00  0.0000E+00
  5  0.0000E+00  5.7435E-05  0.0000E+00  9.5030E-05  8.7586E-05  1.1472E-05  2.3607E-04  0.0000E+00  0.0000E+00
  6  5.8541E-05  1.0137E-04  2.8215E-04  4.8439E-04  0.0000E+00  1.4092E-04  0.0000E+00  1.1772E-04  0.0000E+00
  7  0.0000E+00  9.0573E-05  0.0000E+00  0.0000E+00  0.0000E+00  1.9363E-04  0.0000E+00  0.0000E+00  0.0000E+00
  8  0.0000E+00  1.0991E-04  7.0997E-05  0.0000E+00  0.0000E+00  0.0000E+00  0.0000E+00  1.3946E-04  3.7475E-04
  9  0.0000E+00  1.4182E-04  0.0000E+00  0.0000E+00  0.0000E+00  2.0600E-04  5.7177E-05  0.0000E+00  0.0000E+00
 10  0.0000E+00  1.6948E-04  2.2493E-04  3.5461E-04  0.0000E+00  0.0000E+00  6.2526E-04  0.0000E+00  0.0000E+00
 11  0.0000E+00  1.6129E-04  3.1209E-04  1.2745E-04  4.9112E-04  6.4619E-04  3.0840E-04  9.4922E-04  0.0000E+00
 12  0.0000E+00  1.7805E-04  0.0000E+00  0.0000E+00  0.0000E+00  0.0000E+00  0.0000E+00  0.0000E+00  0.0000E+00
 13  0.0000E+00  1.2684E-04  0.0000E+00  0.0000E+00  8.7898E-04  0.0000E+00  0.0000E+00  0.0000E+00  6.0208E-04
 14  0.0000E+00  1.6121E-04  0.0000E+00  1.0561E-03  0.0000E+00  0.0000E+00  0.0000E+00  0.0000E+00  0.0000E+00
 15  0.0000E+00  2.2724E-04  0.0000E+00  0.0000E+00  0.0000E+00  0.0000E+00  0.0000E+00  0.0000E+00  0.0000E+00
 16  0.0000E+00  8.1146E-04  0.0000E+00  0.0000E+00  0.0000E+00  0.0000E+00  0.0000E+00  0.0000E+00  0.0000E+00
 17  0.0000E+00  6.3143E-04  0.0000E+00  0.0000E+00  0.0000E+00  1.6014E-03  4.1653E-03  1.0647E-04  2.6628E-03
 18  0.0000E+00  1.5314E-03  0.0000E+00  0.0000E+00  0.0000E+00  0.0000E+00  0.0000E+00  0.0000E+00  0.0000E+00
 19  0.0000E+00  3.6256E-03  0.0000E+00  0.0000E+00  0.0000E+00  0.0000E+00  0.0000E+00  7.3110E-03  9.5513E-03
 20  0.0000E+00  7.7245E-03  1.2277E-02  0.0000E+00  0.0000E+00  0.0000E+00  1.6505E-02  1.1110E-02  0.0000E+00
 21  0.0000E+00  8.1172E-03  0.0000E+00  0.0000E+00  3.7804E-04  0.0000E+00  0.0000E+00  0.0000E+00  2.2786E-02
 22  1.3838E-02  2.1200E-02  1.7720E-01  8.3833E-02  3.7788E-02  2.8088E-02  3.7608E-02  3.1084E-02  0.0000E+00
 23  0.0000E+00  2.3217E-02  0.0000E+00  3.3262E-02  2.5172E-02  0.0000E+00  0.0000E+00  0.0000E+00  4.4103E-03
 24  0.0000E+00  2.7293E-02  1.4502E-02  0.0000E+00  1.3779E-01  4.8011E-02  8.8724E-02  1.7074E-02  0.0000E+00
 25  0.0000E+00  3.8530E-02  0.0000E+00  2.9124E-02  0.0000E+00  0.0000E+00  0.0000E+00  5.8272E-02  2.2026E-03
 26  0.0000E+00  9.1598E-05  0.0000E+00  0.0000E+00  1.4327E-04  1.6573E-04  1.0981E-05  1.5878E-04  0.0000E+00
 27  0.0000E+00  2.0142E-05  0.0000E+00  0.0000E+00  0.0000E+00  0.0000E+00  0.0000E+00  3.9524E-05  0.0000E+00
 28  2.2271E-04  4.9444E-04  4.5555E-04  4.7830E-04  5.0301E-04  3.4539E-04  5.8790E-04  4.6626E-04  5.0647E-04
 29  0.0000E+00  7.3657E-05  0.0000E+00  0.0000E+00  0.0000E+00  0.0000E+00  0.0000E+00  0.0000E+00  2.8753E-05
 30  0.0000E+00  6.3000E-05  0.0000E+00  0.0000E+00  0.0000E+00  0.0000E+00  0.0000E+00  4.0656E-05  2.3239E-04
 31  0.0000E+00  5.6476E-05  0.0000E+00  0.0000E+00  9.6230E-05  0.0000E+00  5.2979E-04  0.0000E+00  0.0000E+00
 32  0.0000E+00  5.4763E-05  8.0307E-05  3.6089E-05  0.0000E+00  2.7721E-04  0.0000E+00  9.2298E-06  0.0000E+00
 33  0.0000E+00  9.3627E-05  0.0000E+00  0.0000E+00  7.0736E-05  0.0000E+00  0.0000E+00  3.8627E-04  9.1064E-05
 34  1.4179E-03  1.1238E-04  0.0000E+00  7.5106E-04  0.0000E+00  0.0000E+00  0.0000E+00  3.1851E-04  0.0000E+00
 35  0.0000E+00  1.8665E-04  0.0000E+00  0.0000E+00  0.0000E+00  0.0000E+00  0.0000E+00  0.0000E+00  5.5871E-04
 36  0.0000E+00  1.9850E-04  0.0000E+00  0.0000E+00  0.0000E+00  0.0000E+00  0.0000E+00  0.0000E+00  6.6618E-04
 37  0.0000E+00  1.2916E-04  8.4134E-05  0.0000E+00  0.0000E+00  0.0000E+00  0.0000E+00  7.1964E-04  0.0000E+00
 38  0.0000E+00  1.2155E-04  0.0000E+00  0.0000E+00  0.0000E+00  0.0000E+00  0.0000E+00  0.0000E+00  0.0000E+00
 39  0.0000E+00  2.4119E-04  4.1143E-04  0.0000E+00  9.6841E-06  0.0000E+00  1.7716E-03  0.0000E+00  0.0000E+00
 40  0.0000E+00  4.3129E-04  1.4206E-03  0.0000E+00  0.0000E+00  0.0000E+00  0.0000E+00  0.0000E+00  0.0000E+00
 41  0.0000E+00  1.0092E-03  4.9922E-04  0.0000E+00  1.4882E-03  0.0000E+00  0.0000E+00  0.0000E+00  0.0000E+00
 42  0.0000E+00  1.1088E-03  0.0000E+00  0.0000E+00  6.0166E-03  0.0000E+00  2.8362E-04  1.2094E-03  0.0000E+00
 43  0.0000E+00  3.1714E-03  0.0000E+00  0.0000E+00  3.7674E-03  8.8391E-03  0.0000E+00  2.8000E-03  0.0000E+00
 44  1.2873E-01  1.1725E-01  1.4689E-01  1.0359E-01  1.0100E-01  9.8623E-02  1.1851E-01  1.0993E-01  1.1546E-01
 45  1.2274E+00  1.1574E+00  1.1499E+00  1.1933E+00  1.1265E+00  1.1716E+00  1.2334E+00  1.1564E+00  1.1825E+00
 46  1.3381E+00  1.3156E+00  1.3501E+00  1.3255E+00  1.3633E+00  1.3353E+00  1.3942E+00  1.3918E+00  1.3178E+00
 47  4.1115E-02  4.5260E-02  7.2848E-03  9.0639E-02  2.8632E-02  1.1050E-01  2.0261E-02  1.5109E-02  7.1277E-03
 48  0.0000E+00  4.5506E-02  0.0000E+00  6.9020E-03  3.6345E-02  6.0498E-02  0.0000E+00  3.0436E-02  0.0000E+00
 49  0.0000E+00  3.7493E-02  1.0652E-01  0.0000E+00  0.0000E+00  3.5324E-02  6.4155E-02  1.4591E-01  0.0000E+00
 50  8.7793E-03  4.4900E-02  0.0000E+00  8.8735E-02  1.6322E-02  1.2766E-02  0.0000E+00  0.0000E+00  1.8088E-01
 51  0.0000E+00  4.5231E-05  0.0000E+00  0.0000E+00  0.0000E+00  0.0000E+00  1.4528E-04  0.0000E+00  0.0000E+00
 52  0.0000E+00  2.1301E-05  2.9203E-05  7.8207E-05  9.1112E-07  1.4883E-05  0.0000E+00  4.4330E-05  1.5648E-04
 53  0.0000E+00  3.1803E-05  9.2292E-05  0.0000E+00  0.0000E+00  3.9340E-05  0.0000E+00  0.0000E+00  0.0000E+00
 54  0.0000E+00  4.8532E-05  7.3413E-06  1.1479E-04  4.1757E-05  2.6556E-04  7.8499E-05  0.0000E+00  1.2442E-04
 55  4.6860E-04  7.0991E-05  3.1009E-04  2.6368E-04  1.6669E-04  0.0000E+00  0.0000E+00  2.2511E-04  0.0000E+00
 56  2.3498E-03  1.8048E-03  1.7318E-03  1.8493E-03  1.8691E-03  1.9750E-03  1.7631E-03  1.8679E-03  2.0677E-03
 57  0.0000E+00  5.2742E-05  0.0000E+00  0.0000E+00  1.4466E-04  0.0000E+00  1.9446E-04  0.0000E+00  0.0000E+00
 58  0.0000E+00  1.2321E-04  1.6956E-04  0.0000E+00  0.0000E+00  4.0673E-04  4.3936E-04  0.0000E+00  3.4154E-04
 59  0.0000E+00  1.4048E-04  0.0000E+00  2.3183E-04  0.0000E+00  4.2201E-04  0.0000E+00  2.7747E-05  0.0000E+00
 60  0.0000E+00  1.2134E-04  0.0000E+00  1.5207E-05  0.0000E+00  3.8369E-05  1.7870E-05  0.0000E+00  0.0000E+00
 61  0.0000E+00  1.1626E-04  0.0000E+00  0.0000E+00  4.2986E-04  0.0000E+00  4.0032E-04  0.0000E+00  0.0000E+00
 62  0.0000E+00  8.9195E-05  6.3437E-04  0.0000E+00  0.0000E+00  3.2061E-04  0.0000E+00  0.0000E+00  0.0000E+00
 63  0.0000E+00  1.2664E-04  0.0000E+00  0.0000E+00  0.0000E+00  0.0000E+00  0.0000E+00  0.0000E+00  4.3713E-04
 64  0.0000E+00  4.3502E-04  0.0000E+00  2.8831E-03  3.8215E-04  1.5438E-04  2.2127E-03  0.0000E+00  0.0000E+00
 65  0.0000E+00  6.9367E-04  0.0000E+00  0.0000E+00  0.0000E+00  0.0000E+00  0.0000E+00  1.6556E-03  9.0191E-03
 66  1.9745E-03  1.8823E-03  7.7579E-03  1.1962E-02  0.0000E+00  1.2300E-02  0.0000E+00  4.2377E-03  0.0000E+00
 67  0.0000E+00  1.9553E-03  0.0000E+00  0.0000E+00  1.2435E-02  0.0000E+00  0.0000E+00  4.8993E-04  0.0000E+00
 68  0.0000E+00  7.1414E-03  0.0000E+00  0.0000E+00  2.7554E-02  0.0000E+00  0.0000E+00  0.0000E+00  4.4740E-03
 69  1.2369E-02  2.2905E-02  1.6384E-02  3.7625E-02  0.0000E+00  0.0000E+00  0.0000E+00  1.1095E-02  0.0000E+00
 70  3.5712E-02  4.1116E-02  0.0000E+00  9.2692E-02  2.4919E-02  9.0633E-02  2.7854E-02  5.6910E-02  8.8470E-02
 71  1.3524E-01  6.9836E-02  1.7110E-01  5.9112E-02  0.0000E+00  0.0000E+00  1.0273E-01  0.0000E+00  7.4407E-02
 72  0.0000E+00  1.0161E-01  0.0000E+00  4.6153E-02  2.7593E-01  1.1278E-01  0.0000E+00  7.5805E-02  4.2089E-01
 73  0.0000E+00  1.2595E-01  1.8659E-01  0.0000E+00  7.4029E-02  2.7006E-02  9.4770E-02  0.0000E+00  0.0000E+00
 74  3.7263E-01  1.6730E-01  1.7328E-01  2.6080E-01  6.4605E-02  1.8661E-01  0.0000E+00  0.0000E+00  1.6403E-01
 75  1.0960E+00  1.3140E+00  9.3575E-01  1.3611E+00  1.4818E+00  1.3641E+00  1.5620E+00  1.6780E+00  7.1372E-01
 76  0.0000E+00  4.7120E-05  0.0000E+00  0.0000E+00  0.0000E+00  0.0000E+00  0.0000E+00  0.0000E+00  1.0360E-04
 77  0.0000E+00  1.0970E-05  0.0000E+00  0.0000E+00  0.0000E+00  0.0000E+00  0.0000E+00  6.2096E-05  0.0000E+00
 78  0.0000E+00  1.1698E-05  0.0000E+00  1.5078E-05  0.0000E+00  0.0000E+00  6.3092E-05  0.0000E+00  0.0000E+00
 79  0.0000E+00  3.9559E-05  0.0000E+00  0.0000E+00  1.3850E-04  8.1128E-05  0.0000E+00  0.0000E+00  2.0779E-04
 80  0.0000E+00  1.7992E-05  5.6011E-05  8.1256E-05  0.0000E+00  0.0000E+00  0.0000E+00  0.0000E+00  0.0000E+00
 81  0.0000E+00  2.9783E-05  0.0000E+00  0.0000E+00  0.0000E+00  2.4007E-04  4.9567E-05  1.0419E-04  1.8050E-05
 82  0.0000E+00  3.9811E-05  0.0000E+00  0.0000E+00  0.0000E+00  0.0000E+00  9.6150E-05  0.0000E+00  0.0000E+00
 83  0.0000E+00  1.0095E-04  0.0000E+00  0.0000E+00  0.0000E+00  0.0000E+00  0.0000E+00  0.0000E+00  0.0000E+00
 84  0.0000E+00  6.6659E-05  0.0000E+00  3.7853E-05  0.0000E+00  0.0000E+00  3.1385E-05  2.2578E-05  0.0000E+00
 85  0.0000E+00  1.0729E-04  0.0000E+00  0.0000E+00  0.0000E+00  0.0000E+00  4.6672E-05  0.0000E+00  2.4277E-04
 86  0.0000E+00  9.4079E-05  0.0000E+00  0.0000E+00  0.0000E+00  0.0000E+00  0.0000E+00  0.0000E+00  5.4694E-04
 87  0.0000E+00  1.1538E-04  0.0000E+00  0.0000E+00  3.9853E-04  6.3594E-04  0.0000E+00  0.0000E+00  1.0111E-04
 88  0.0000E+00  1.5159E-04  0.0000E+00  0.0000E+00  0.0000E+00  0.0000E+00  0.0000E+00  0.0000E+00  0.0000E+00
 89  0.0000E+00  2.4184E-04  0.0000E+00  0.0000E+00  0.0000E+00  1.9982E-04  0.0000E+00  0.0000E+00  0.0000E+00
 90  0.0000E+00  7.0016E-04  0.0000E+00  0.0000E+00  0.0000E+00  0.0000E+00  0.0000E+00  0.0000E+00  0.0000E+00
 91  0.0000E+00  1.7566E-03  0.0000E+00  0.0000E+00  9.0463E-04  0.0000E+00  0.0000E+00  0.0000E+00  0.0000E+00
 92  0.0000E+00  1.9184E-03  0.0000E+00  0.0000E+00  6.1178E-04  0.0000E+00  0.0000E+00  0.0000E+00  0.0000E+00
 93  0.0000E+00  9.3575E-03  0.0000E+00  0.0000E+00  4.6877E-03  0.0000E+00  0.0000E+00  4.1671E-03  6.4845E-03
 94  0.0000E+00  3.7580E-02  0.0000E+00  3.5690E-02  3.1221E-02  0.0000E+00  6.4508E-02  0.0000E+00  1.3057E-04
 95  4.5027E-01  9.8592E-02  9.4824E-02  1.2903E-01  9.4522E-02  1.5103E-01  3.8522E-01  8.7663E-02  6.3687E-02
 96  0.0000E+00  1.4389E-01  0.0000E+00  2.4724E-02  2.9375E-01  1.9039E-01  1.0141E-01  6.7360E-02  7.0762E-01
 97  0.0000E+00  2.0809E-01  6.5356E-01  0.0000E+00  7.8813E-02  4.3581E-01  0.0000E+00  1.2821E-01  0.0000E+00
 98  8.6296E-01  2.4758E-01  4.6532E-01  1.8334E-01  3.1865E-01  1.6468E-01  1.0956E-02  7.6396E-02  0.0000E+00
 99  5.4781E-01  2.5471E-01  2.0833E-01  2.9101E-01  2.1200E-01  6.8718E-01  2.1731E-01  4.8836E-01  1.8536E-01
100  0.0000E+00  3.2566E-01  1.0841E-01  0.0000E+00  1.8595E-01  0.0000E+00  6.1422E-01  2.7666E-01  8.0622E-01
101  0.0000E+00  3.0451E-05  1.6071E-05  0.0000E+00  0.0000E+00  3.6700E-06  0.0000E+00  0.0000E+00  0.0000E+00
102  0.0000E+00  1.3103E-05  4.1162E-05  0.0000E+00  8.7815E-06  5.9352E-05  0.0000E+00  0.0000E+00  0.0000E+00
103  0.0000E+00  2.4666E-05  0.0000E+00  5.6377E-05  1.3485E-04  0.0000E+00  0.0000E+00  0.0000E+00  0.0000E+00
104  0.0000E+00  2.2402E-05  0.0000E+00  1.1331E-05  1.9738E-05  0.0000E+00  0.0000E+00  1.6425E-04  0.0000E+00
105  0.0000E+00  1.1491E-04  8.4790E-05  0.0000E+00  1.2165E-04  5.5128E-05  0.0000E+00  0.0000E+00  7.5166E-05
106  0.0000E+00  7.4042E-05  2.7279E-04  1.3973E-04  9.0332E-05  0.0000E+00  2.1331E-04  0.0000E+00  2.9846E-05
107  0.0000E+00  1.2852E-04  0.0000E+00  2.1451E-04  0.0000E+00  3.8696E-04  2.7813E-04  4.1086E-04  0.0000E+00
108  0.0000E+00  1.0012E-04  0.0000E+00  0.0000E+00  0.0000E+00  3.4694E-04  0.0000E+00  0.0000E+00  0.0000E+00
109  0.0000E+00  6.6772E-05  0.0000E+00  0.0000E+00  2.1873E-04  0.0000E+00  0.0000E+00  2.0335E-05  0.0000E+00
110  0.0000E+00  7.3300E-05  1.5486E-04  0.0000E+00  0.0000E+00  0.0000E+00  0.0000E+00  6.2429E-05  6.3191E-05
111  0.0000E+00  8.2834E-05  0.0000E+00  0.0000E+00  0.0000E+00  0.0000E+00  0.0000E+00  0.0000E+00  0.0000E+00
112  0.0000E+00  1.4394E-04  0.0000E+00  0.0000E+00  0.0000E+00  0.0000E+00  0.0000E+00  5.8907E-04  0.0000E+00
113  0.0000E+00  1.3303E-04  1.2212E-03  0.0000E+00  0.0000E+00  0.0000E+00  0.0000E+00  0.0000E+00  0.0000E+00
114  0.0000E+00  3.0181E-04  1.2243E-04  0.0000E+00  0.0000E+00  0.0000E+00  0.0000E+00  0.0000E+00  0.0000E+00
115  0.0000E+00  1.0248E-03  0.0000E+00  0.0000E+00  0.0000E+00  0.0000E+00  0.0000E+00  0.0000E+00  0.0000E+00
116  0.0000E+00  2.5973E-03  0.0000E+00  0.0000E+00  0.0000E+00  3.4866E-03  0.0000E+00  0.0000E+00  0.0000E+00
117  0.0000E+00  4.3348E-03  0.0000E+00  1.0057E-03  4.3453E-03  1.1092E-02  0.0000E+00  0.0000E+00  0.0000E+00
118  0.0000E+00  1.8794E-02  5.4323E-03  0.0000E+00  0.0000E+00  1.9636E-02  0.0000E+00  0.0000E+00  9.5586E-02
119  0.0000E+00  4.4433E-02  0.0000E+00  0.0000E+00  0.0000E+00  1.4986E-01  1.6314E-01  0.0000E+00  0.0000E+00
120  0.0000E+00  8.3454E-02  0.0000E+00  0.0000E+00  8.4947E-02  0.0000E+00  6.1438E-02  0.0000E+00  0.0000E+00
121  0.0000E+00  1.1850E-01  0.0000E+00  5.7011E-02  1.4893E-02  1.3710E-01  9.5755E-02  0.0000E+00  3.6049E-02
122  0.0000E+00  1.5826E-01  3.9289E-01  0.0000E+00  0.0000E+00  1.4864E-01  8.1159E-02  4.3691E-01  1.5667E-01
123  1.4086E+01  1.4276E+01  1.4633E+01  1.4226E+01  1.4903E+01  1.4356E+01  1.3730E+01  1.4338E+01  1.4059E+01
124  2.7532E+01  2.7865E+01  2.7784E+01  2.8203E+01  2.7769E+01  2.7840E+01  2.7873E+01  2.8114E+01  2.7376E+01
125  4.2973E+01  4.2198E+01  4.2286E+01  4.3173E+01  4.2126E+01  4.1722E+01  4.2280E+01  4.2823E+01  4.2584E+01
126  0.0000E+00  1.2015E-05  0.0000E+00  0.0000E+00  3.1753E-05  0.0000E+00  0.0000E+00  4.1996E-06  0.0000E+00
127  0.0000E+00  2.5106E-05  7.5883E-05  0.0000E+00  0.0000E+00  0.0000E+00  9.7941E-06  3.2045E-05  5.3317E-05
128  0.0000E+00  1.7377E-05  0.0000E+00  0.0000E+00  3.7727E-07  0.0000E+00  3.7569E-05  1.6303E-07  1.1490E-05
129  0.0000E+00  3.6483E-05  0.0000E+00  0.0000E+00  0.0000E+00  1.6493E-04  0.0000E+00  6.4694E-05  0.0000E+00
130  0.0000E+00  4.4024E-05  0.0000E+00  0.0000E+00  0.0000E+00  0.0000E+00  0.0000E+00  0.0000E+00  3.4201E-05
131  0.0000E+00  3.5022E-05  0.0000E+00  0.0000E+00  0.0000E+00  0.0000E+00  0.0000E+00  0.0000E+00  0.0000E+00
132  0.0000E+00  7.8280E-05  0.0000E+00  0.0000E+00  0.0000E+00  0.0000E+00  0.0000E+00  0.0000E+00  0.0000E+00
133  0.0000E+00  7.6211E-05  0.0000E+00  0.0000E+00  0.0000E+00  0.0000E+00  0.0000E+00  1.7691E-05  0.0000E+00
134  0.0000E+00  6.6001E-05  0.0000E+00  0.0000E+00  3.6276E-05  0.0000E+00  0.0000E+00  0.0000E+00  4.3326E-05
135  0.0000E+00  7.1120E-05  2.6276E-04  1.4597E-04  0.0000E+00  0.0000E+00  5.4298E-05  0.0000E+00  0.0000E+00
136  0.0000E+00  8.2091E-05  0.0000E+00  0.0000E+00  0.0000E+00  0.0000E+00  0.0000E+00  0.0000E+00  0.0000E+00
137  0.0000E+00  1.4252E-04  0.0000E+00  0.0000E+00  4.9122E-04  0.0000E+00  1.4793E-05  8.3671E-04  0.0000E+00
138  0.0000E+00  1.5968E-04  0.0000E+00  0.0000E+00  0.0000E+00  0.0000E+00  0.0000E+00  0.0000E+00  0.0000E+00
139  0.0000E+00  3.7984E-04  0.0000E+00  0.0000E+00  0.0000E+00  0.0000E+00  0.0000E+00  0.0000E+00  0.0000E+00
140  0.0000E+00  2.7056E-03  8.6687E-04  0.0000E+00  0.0000E+00  0.0000E+00  0.0000E+00  5.8411E-03  0.0000E+00
141  0.0000E+00  9.1590E-03  0.0000E+00  1.9405E-02  0.0000E+00  1.9163E-03  0.0000E+00  0.0000E+00  6.9445E-04
142  0.0000E+00  1.2008E-02  0.0000E+00  0.0000E+00  0.0000E+00  6.8504E-03  0.0000E+00  8.2729E-03  0.0000E+00
143  0.0000E+00  4.8229E-02  0.0000E+00  0.0000E+00  0.0000E+00  0.0000E+00  0.0000E+00  7.1823E-02  2.3093E-02
144  0.0000E+00  7.8914E-02  8.4188E-02  9.5145E-02  0.0000E+00  0.0000E+00  1.5465E-01  1.4958E-01  2.1077E-01
145  0.0000E+00  1.4357E-01  0.0000E+00  0.0000E+00  0.0000E+00  0.0000E+00  2.2989E-01  0.0000E+00  0.0000E+00
146  8.2710E-01  1.3294E-01  1.2637E-01  7.1754E-01  2.4255E-01  0.0000E+00  0.0000E+00  4.1780E-02  9.9335E-02
147  7.8576E-01  4.9228E-01  8.1246E-01  4.2537E-01  4.9602E-01  3.9329E-01  2.3889E-01  2.6461E-01  6.3644E-01
148  0.0000E+00  5.6759E-01  5.0148E-01  1.9773E-01  8.2039E-01  5.5409E-01  5.2406E-01  8.2146E-01  1.0068E+00
149  1.1253E+00  9.6787E-01  6.7641E-01  7.0988E-01  1.0143E+00  1.6520E+00  1.5707E+00  9.4184E-01  1.0657E+00
150  6.3794E+00  6.6646E+00  6.6884E+00  6.6637E+00  6.4369E+00  6.6496E+00  6.8158E+00  6.0264E+00  6.5387E+00

# AV, chi2 & Mass for <> & i_chain = 1 ...  7 solutions
AV       1.5465      1.5428      1.5427      1.5423      1.5432      1.5445      1.5433      1.5423      1.5447
chi2 2.4181E+00  2.4548E+00  2.4450E+00  2.4426E+00  2.4425E+00  2.4438E+00  2.4427E+00  2.4453E+00  2.4411E+00
Mass 9.8659E-10  9.8424E-10  9.8604E-10  9.8832E-10  9.8811E-10  9.8641E-10  9.8735E-10  9.8872E-10  9.8474E-10
 -32.15                                  [v0_min (km/s) before EX0s...]
  78.20                                  [vd_min (km/s) before EX0s...]


## Synthetic spectrum (Best Model) ##l_obs f_obs f_syn wei
 3070    [Nl_obs]
 3359.00    0.23337   0.33548   -1.000
 3360.00    0.21837   0.32377   -1.000
 3361.00    0.24356   0.33586   -1.000
 3362.00    0.23956   0.36435   -1.000
 3363.00    0.23084   0.39369   -1.000
 3364.00    0.25042   0.40873   -1.000
 3365.00    0.27942   0.40402   -1.000
 3366.00    0.28410   0.38666   -1.000
 3367.00    0.27359   0.36675   -1.000
 3368.00    0.28991   0.35015   -1.000
 3369.00    0.28567   0.33900   -1.000
 3370.00    0.25771   0.33271   -1.000
 3371.00    0.25819   0.33363   -1.000
 3372.00    0.23897   0.34538   -1.000
 3373.00    0.24753   0.36749   -1.000
 3374.00    0.29404   0.39415   -1.000
 3375.00    0.29805   0.41659   -1.000
 3376.00    0.32900   0.42541   -1.000
 3377.00    0.31456   0.41707   -1.000
 3378.00    0.30032   0.39881   -1.000
 3379.00    0.29737   0.38318   -1.000
 3380.00    0.29424   0.37937   -1.000
 3381.00    0.30490   0.38749   -1.000
 3382.00    0.28439   0.40028   -1.000
 3383.00    0.27996   0.41231   -1.000
 3384.00    0.30399   0.42177   -1.000
 3385.00    0.31186   0.42777   -1.000
 3386.00    0.31179   0.42879   -1.000
 3387.00    0.30967   0.42663   -1.000
 3388.00    0.32856   0.42436   -1.000
 3389.00    0.35873   0.42189   -1.000
 3390.00    0.35335   0.41521   -1.000
 3391.00    0.34900   0.40419   -1.000
 3392.00    0.33566   0.39630   -1.000
 3393.00    0.31376   0.39890   -1.000
 3394.00    0.33522   0.41258   -1.000
 3395.00    0.33797   0.43100   -1.000
 3396.00    0.36227   0.44827   32.113
 3397.00    0.38269   0.46329   30.910
 3398.00    0.39716   0.47373   30.522
 3399.00    0.41046   0.47671   30.823
 3400.00    0.39901   0.47166   32.194
 3401.00    0.38993   0.45993   32.508
 3402.00    0.37780   0.44596   33.086
 3403.00    0.38746   0.43467   33.690
 3404.00    0.38664   0.42662   34.232
 3405.00    0.39997   0.42002   34.386
 3406.00    0.38835   0.41354   34.944
 3407.00    0.41083   0.40930   35.120
 3408.00    0.39318   0.41058   34.878
 3409.00    0.39011   0.41677   33.813
 3410.00    0.39481   0.42082   33.594
 3411.00    0.39772   0.41452   35.081
 3412.00    0.40469   0.39951   35.693
 3413.00    0.39231   0.38522   35.582
 3414.00    0.38724   0.38225   34.664
 3415.00    0.41341   0.39408   33.156
 3416.00    0.38986   0.41489   31.580
 3417.00    0.37944   0.43758   30.012
 3418.00    0.39227   0.45697   29.915
 3419.00    0.43447   0.46939   29.714
 3420.00    0.43502   0.47001   29.921
 3421.00    0.41261   0.45807   30.812
 3422.00    0.42448   0.44152   31.465
 3423.00    0.43906   0.43146   30.534
 3424.00    0.43753   0.42987   29.747
 3425.00    0.42272   0.43374   30.307
 3426.00    0.40628   0.44112   -1.000
 3427.00    0.43439   0.45351   -1.000
 3428.00    0.46855   0.47033  262.281
 3429.00    0.45652   0.48142   -1.000
 3430.00    0.46242   0.47659  231.505
 3431.00    0.42555   0.45929   29.721
 3432.00    0.43743   0.44247   30.337
 3433.00    0.43546   0.43809  262.281
 3434.00    0.41541   0.44411   -1.000
 3435.00    0.39752   0.44837   29.554
 3436.00    0.41353   0.44225   30.969
 3437.00    0.42415   0.42420   32.863
 3438.00    0.41542   0.39769   35.454
 3439.00    0.39753   0.36913   36.818
 3440.00    0.36676   0.34594   36.855
 3441.00    0.35230   0.33403   36.647
 3442.00    0.33824   0.33602   35.152
 3443.00    0.33681   0.34734   33.218
 3444.00    0.37316   0.36258   31.404
 3445.00    0.39330   0.37967   31.417
 3446.00    0.37939   0.39894   -1.000
 3447.00    0.40564   0.42002   -1.000
 3448.00    0.45490   0.44030   -1.000
 3449.00    0.47329   0.45184   -1.000
 3450.00    0.46086   0.44876   -1.000
 3451.00    0.45353   0.43724   -1.000
 3452.00    0.43094   0.42955  262.281
 3453.00    0.44459   0.43179   -1.000
 3454.00    0.46330   0.43992   -1.000
 3455.00    0.46176   0.44283   -1.000
 3456.00    0.42525   0.43472  205.321
 3457.00    0.43568   0.41827   29.618
 3458.00    0.43166   0.40063   29.995
 3459.00    0.42753   0.38839   31.076
 3460.00    0.43251   0.38461   -1.000
 3461.00    0.42596   0.39239   -1.000
 3462.00    0.41029   0.40923  262.281
 3463.00    0.42658   0.42354  262.281
 3464.00    0.45103   0.42668   -1.000
 3465.00    0.46883   0.42486   -1.000
 3466.00    0.45024   0.42764   -1.000
 3467.00    0.43358   0.43900  251.780
 3468.00    0.46198   0.45427  250.281
 3469.00    0.47961   0.46446   -1.000
 3470.00    0.48296   0.46335   -1.000
 3471.00    0.46732   0.44941   -1.000
 3472.00    0.47113   0.42662   -1.000
 3473.00    0.43081   0.40110   29.906
 3474.00    0.42313   0.38050   30.942
 3475.00    0.41919   0.37237   31.862
 3476.00    0.42322   0.38057   -1.000
 3477.00    0.42374   0.39989   -1.000
 3478.00    0.41528   0.42115  253.713
 3479.00    0.45796   0.43657   -1.000
 3480.00    0.46999   0.44254   -1.000
 3481.00    0.46026   0.43896   -1.000
 3482.00    0.42696   0.43058  259.029
 3483.00    0.42789   0.42555  253.022
 3484.00    0.46979   0.43051   -1.000
 3485.00    0.47486   0.44355   -1.000
 3486.00    0.47944   0.45425   -1.000
 3487.00    0.46927   0.45215   -1.000
 3488.00    0.47499   0.43489   -1.000
 3489.00    0.47059   0.41223   -1.000
 3490.00    0.42385   0.39735   -1.000
 3491.00    0.41867   0.39705   -1.000
 3492.00    0.44282   0.40703   -1.000
 3493.00    0.45146   0.41745   -1.000
 3494.00    0.44149   0.42037   -1.000
 3495.00    0.42504   0.41544  262.281
 3496.00    0.40460   0.41255  262.281
 3497.00    0.39744   0.42195   -1.000
 3498.00    0.40779   0.44346   -1.000
 3499.00    0.44503   0.46459   -1.000
 3500.00    0.48110   0.47684  230.794
 3501.00    0.48513   0.48474  229.708
 3502.00    0.50481   0.49119   -1.000
 3503.00    0.53826   0.49272   -1.000
 3504.00    0.52135   0.48683   -1.000
 3505.00    0.51833   0.47676   -1.000
 3506.00    0.52133   0.46893   -1.000
 3507.00    0.50649   0.46404   -1.000
 3508.00    0.49388   0.45728   -1.000
 3509.00    0.47540   0.44724   -1.000
 3510.00    0.46918   0.43564   -1.000
 3511.00    0.46737   0.42319   -1.000
 3512.00    0.48167   0.41132   -1.000
 3513.00    0.46451   0.40451   -1.000
 3514.00    0.44693   0.41096   -1.000
 3515.00    0.45019   0.43428   -1.000
 3516.00    0.44400   0.46450   -1.000
 3517.00    0.46759   0.48531   -1.000
 3518.00    0.49488   0.48681  251.325
 3519.00    0.49414   0.47022   -1.000
 3520.00    0.48424   0.44532   -1.000
 3521.00    0.45440   0.42079   -1.000
 3522.00    0.44244   0.40043   29.674
 3523.00    0.45054   0.38303   30.644
 3524.00    0.42311   0.37210   32.932
 3525.00    0.39017   0.37475   -1.000
 3526.00    0.38795   0.39349  262.281
 3527.00    0.40223   0.42255   -1.000
 3528.00    0.43608   0.45070   -1.000
 3529.00    0.46903   0.46704  251.189
 3530.00    0.49082   0.46975   -1.000
 3531.00    0.47284   0.46611  249.374
 3532.00    0.46897   0.46551  245.069
 3533.00    0.47055   0.47028  239.965
 3534.00    0.50124   0.47790   -1.000
 3535.00    0.51216   0.48442   -1.000
 3536.00    0.50876   0.49005   -1.000
 3537.00    0.49708   0.49736  232.546
 3538.00    0.52070   0.50387   -1.000
 3539.00    0.51607   0.50458  239.158
 3540.00    0.51336   0.49914   -1.000
 3541.00    0.51640   0.49373   -1.000
 3542.00    0.51629   0.49587   -1.000
 3543.00    0.51261   0.50392  235.472
 3544.00    0.50199   0.50983  240.030
 3545.00    0.49293   0.50883   -1.000
 3546.00    0.47369   0.50294   -1.000
 3547.00    0.47618   0.49865   -1.000
 3548.00    0.49770   0.49816  243.958
 3549.00    0.49344   0.49825  247.819
 3550.00    0.48490   0.49425  255.592
 3551.00    0.47224   0.48405  262.281
 3552.00    0.46453   0.47040  262.281
 3553.00    0.44822   0.46014   -1.000
 3554.00    0.45960   0.45843  257.906
 3555.00    0.46028   0.46248  259.460
 3556.00    0.45718   0.46609  262.281
 3557.00    0.45625   0.46654  262.281
 3558.00    0.45128   0.46599   -1.000
 3559.00    0.44491   0.46978   -1.000
 3560.00    0.43029   0.47841   -1.000
 3561.00    0.45968   0.48518   -1.000
 3562.00    0.46843   0.48025  146.361
 3563.00    0.47374   0.45865   30.017
 3564.00    0.43438   0.42779   31.080
 3565.00    0.42616   0.40260   30.725
 3566.00    0.38522   0.39233   30.688
 3567.00    0.38723   0.38950   31.700
 3568.00    0.40525   0.38433   32.097
 3569.00    0.39629   0.37666   31.022
 3570.00    0.38459   0.37362   33.099
 3571.00    0.38110   0.38140  262.281
 3572.00    0.37819   0.39635   -1.000
 3573.00    0.42849   0.41027   -1.000
 3574.00    0.45195   0.42009   -1.000
 3575.00    0.43220   0.42370  262.281
 3576.00    0.42690   0.41896  147.811
 3577.00    0.42522   0.40521   31.160
 3578.00    0.41214   0.38420   33.574
 3579.00    0.39704   0.36110   35.217
 3580.00    0.36424   0.34411   35.418
 3581.00    0.35172   0.33752   35.651
 3582.00    0.34751   0.33920   36.596
 3583.00    0.33608   0.34159   37.728
 3584.00    0.34914   0.33964   37.943
 3585.00    0.34654   0.33522   35.982
 3586.00    0.34473   0.33586   34.084
 3587.00    0.35854   0.34718   32.250
 3588.00    0.38055   0.36943   33.333
 3589.00    0.38544   0.39832   -1.000
 3590.00    0.39268   0.42534   -1.000
 3591.00    0.41540   0.44279   -1.000
 3592.00    0.45554   0.44973  258.100
 3593.00    0.48016   0.45507   -1.000
 3594.00    0.46869   0.46669  237.651
 3595.00    0.45463   0.48501   -1.000
 3596.00    0.48504   0.50317   -1.000
 3597.00    0.48836   0.51649   -1.000
 3598.00    0.50329   0.52639   -1.000
 3599.00    0.52441   0.53009  237.311
 3600.00    0.52625   0.52136  250.445
 3601.00    0.52931   0.49997   -1.000
 3602.00    0.51302   0.47336   -1.000
 3603.00    0.49115   0.45092   -1.000
 3604.00    0.45710   0.43821   -1.000
 3605.00    0.43998   0.43191  262.281
 3606.00    0.46152   0.42474   -1.000
 3607.00    0.44362   0.41386   -1.000
 3608.00    0.41608   0.40505   -1.000
 3609.00    0.41810   0.40661   -1.000
 3610.00    0.42550   0.42037  260.139
 3611.00    0.45633   0.43968   -1.000
 3612.00    0.49548   0.45684   -1.000
 3613.00    0.48514   0.47181   -1.000
 3614.00    0.47843   0.48335  244.436
 3615.00    0.48798   0.48410  262.281
 3616.00    0.49047   0.46668   -1.000
 3617.00    0.46930   0.43561   33.628
 3618.00    0.44062   0.41054   -1.000
 3619.00    0.42504   0.41051   -1.000
 3620.00    0.43374   0.43374  236.932
 3621.00    0.45381   0.46662  231.753
 3622.00    0.47684   0.49517   -1.000
 3623.00    0.50729   0.51793  219.346
 3624.00    0.52470   0.54141   -1.000
 3625.00    0.55448   0.56758  208.965
 3626.00    0.56106   0.58784   -1.000
 3627.00    0.58331   0.58947  229.239
 3628.00    0.57626   0.56437   -1.000
 3629.00    0.56207   0.51763   -1.000
 3630.00    0.51995   0.46919   -1.000
 3631.00    0.47042   0.44110   -1.000
 3632.00    0.44034   0.43857  257.730
 3633.00    0.44907   0.45436  251.248
 3634.00    0.44900   0.47479   -1.000
 3635.00    0.47224   0.49277   -1.000
 3636.00    0.51635   0.50969  220.061
 3637.00    0.53627   0.53011  213.805
 3638.00    0.56281   0.55131  214.509
 3639.00    0.56193   0.56567  220.298
 3640.00    0.58702   0.56711   -1.000
 3641.00    0.58043   0.55446   -1.000
 3642.00    0.54461   0.53337  246.631
 3643.00    0.50458   0.51080  250.739
 3644.00    0.48808   0.48993  254.687
 3645.00    0.48634   0.47118   -1.000
 3646.00    0.47434   0.45490   -1.000
 3647.00    0.45979   0.44567   -1.000
 3648.00    0.46844   0.45015   -1.000
 3649.00    0.46627   0.46943  228.037
 3650.00    0.49480   0.49952  219.129
 3651.00    0.52636   0.53203  214.178
 3652.00    0.54084   0.55873   -1.000
 3653.00    0.56519   0.57539  210.635
 3654.00    0.57128   0.58723   -1.000
 3655.00    0.57662   0.59934   -1.000
 3656.00    0.60000   0.61329   -1.000
 3657.00    0.61000   0.62593   -1.000
 3658.00    0.60702   0.63289   -1.000
 3659.00    0.62398   0.63308  205.777
 3660.00    0.62336   0.62609  208.205
 3661.00    0.60522   0.61342  211.484
 3662.00    0.58906   0.59974  212.345
 3663.00    0.58264   0.59089  210.143
 3664.00    0.58612   0.58806  211.054
 3665.00    0.58433   0.58777  215.248
 3666.00    0.58919   0.58382  218.077
 3667.00    0.58705   0.57386  222.382
 3668.00    0.58720   0.56272   -1.000
 3669.00    0.57577   0.55989  211.865
 3670.00    0.56339   0.57027  208.284
 3671.00    0.57335   0.58686   -1.000
 3672.00    0.59478   0.59992  207.783
 3673.00    0.61276   0.60443  209.300
 3674.00    0.61190   0.59919  215.937
 3675.00    0.61563   0.58449   -1.000
 3676.00    0.59656   0.56171   -1.000
 3677.00    0.56998   0.53546   -1.000
 3678.00    0.54536   0.51366   -1.000
 3679.00    0.51758   0.50459  225.807
 3680.00    0.52802   0.51085   -1.000
 3681.00    0.54242   0.52626   -1.000
 3682.00    0.54676   0.53991  225.558
 3683.00    0.55291   0.54224  234.935
 3684.00    0.53049   0.52920  243.634
 3685.00    0.51506   0.50661  245.806
 3686.00    0.50939   0.48834   -1.000
 3687.00    0.50427   0.48915   -1.000
 3688.00    0.51349   0.51207  207.836
 3689.00    0.53636   0.54902  203.119
 3690.00    0.57889   0.58315  205.556
 3691.00    0.62280   0.59966   -1.000
 3692.00    0.61383   0.59535   -1.000
 3693.00    0.61172   0.58231   -1.000
 3694.00    0.60368   0.57346   -1.000
 3695.00    0.58363   0.57369  206.287
 3696.00    0.57839   0.58373  199.718
 3697.00    0.60522   0.60142  195.135
 3698.00    0.62411   0.62122  193.765
 3699.00    0.63253   0.63411  198.574
 3700.00    0.64894   0.63253   -1.000
 3701.00    0.64155   0.61025   -1.000
 3702.00    0.62781   0.56823   -1.000
 3703.00    0.58555   0.51708   -1.000
 3704.00    0.54212   0.47347   -1.000
 3705.00    0.50932   0.44812   -1.000
 3706.00    0.48015   0.44302   -1.000
 3707.00    0.49047   0.45026   -1.000
 3708.00    0.49292   0.46608   -1.000
 3709.00    0.51418   0.49117   -1.000
 3710.00    0.54706   0.52427   -1.000
 3711.00    0.59267   0.56031   -1.000
 3712.00    0.63607   0.59351   -1.000
 3713.00    0.64961   0.61555   -1.000
 3714.00    0.66132   0.62032   -1.000
 3715.00    0.65914   0.60686   -1.000
 3716.00    0.63189   0.57640   -1.000
 3717.00    0.60990   0.53075   -1.000
 3718.00    0.54925   0.47608   -1.000
 3719.00    0.48749   0.42389   36.554
 3720.00    0.42964   0.39067   -1.000
 3721.00    0.41561   0.39001   -1.000
 3722.00    0.43929   0.41914   -1.000
 3723.00    0.47061   0.46424  213.810
 3724.00    0.53016   0.50590   -1.000
 3725.00    0.56076   0.52781   -1.000
 3726.00    0.56836   0.52902   -1.000
 3727.00    0.53741   0.52412   -1.000
 3728.00    0.51678   0.52333  224.891
 3729.00    0.52932   0.52044  238.113
 3730.00    0.55109   0.50323   -1.000
 3731.00    0.52984   0.46558   30.163
 3732.00    0.47457   0.41534   33.321
 3733.00    0.42955   0.36945   33.912
 3734.00    0.39572   0.34045   31.850
 3735.00    0.37641   0.33750   36.174
 3736.00    0.39470   0.36097   -1.000
 3737.00    0.43291   0.40422   -1.000
 3738.00    0.46440   0.45524  220.480
 3739.00    0.50418   0.49997  221.474
 3740.00    0.53256   0.52273   -1.000
 3741.00    0.54354   0.51851   -1.000
 3742.00    0.53220   0.49329   -1.000
 3743.00    0.51175   0.46080   -1.000
 3744.00    0.48555   0.43163   -1.000
 3745.00    0.45026   0.40977   30.305
 3746.00    0.42001   0.39020   31.929
 3747.00    0.40932   0.37223   39.851
 3748.00    0.39976   0.36306   -1.000
 3749.00    0.38595   0.37263   -1.000
 3750.00    0.41578   0.40578  224.221
 3751.00    0.47038   0.45484   -1.000
 3752.00    0.51446   0.50632  199.194
 3753.00    0.55826   0.54957  198.650
 3754.00    0.59985   0.57271   -1.000
 3755.00    0.60001   0.56581   -1.000
 3756.00    0.57344   0.53326   -1.000
 3757.00    0.54148   0.49357   -1.000
 3758.00    0.50689   0.46873   -1.000
 3759.00    0.48749   0.46718   -1.000
 3760.00    0.49511   0.47866   -1.000
 3761.00    0.51755   0.48946   -1.000
 3762.00    0.52909   0.49252   -1.000
 3763.00    0.52212   0.49088   -1.000
 3764.00    0.52518   0.48766   -1.000
 3765.00    0.53523   0.48332   -1.000
 3766.00    0.52804   0.48049   -1.000
 3767.00    0.52740   0.48255   -1.000
 3768.00    0.53217   0.48912   -1.000
 3769.00    0.56327   0.49916   -1.000
 3770.00    0.57867   0.51388   -1.000
 3771.00    0.58379   0.53369   -1.000
 3772.00    0.60928   0.55474   -1.000
 3773.00    0.63306   0.57097   -1.000
 3774.00    0.62980   0.57892   -1.000
 3775.00    0.62257   0.58284   -1.000
 3776.00    0.61374   0.58857   -1.000
 3777.00    0.62551   0.59884   -1.000
 3778.00    0.62246   0.61300  188.662
 3779.00    0.62515   0.62762  187.472
 3780.00    0.62258   0.63940  186.634
 3781.00    0.65050   0.64620  187.767
 3782.00    0.67723   0.64685   -1.000
 3783.00    0.67100   0.63779   -1.000
 3784.00    0.64708   0.61529   -1.000
 3785.00    0.61291   0.58191   -1.000
 3786.00    0.58238   0.54645   -1.000
 3787.00    0.53896   0.51885   -1.000
 3788.00    0.53887   0.50666   -1.000
 3789.00    0.54399   0.50994   -1.000
 3790.00    0.52712   0.51979  230.587
 3791.00    0.53257   0.52441  239.248
 3792.00    0.54261   0.51681   -1.000
 3793.00    0.52212   0.49811   -1.000
 3794.00    0.50284   0.47579   -1.000
 3795.00    0.49588   0.45337   -1.000
 3796.00    0.47914   0.43210   -1.000
 3797.00    0.45474   0.41676   -1.000
 3798.00    0.44708   0.41823   -1.000
 3799.00    0.46544   0.44374   -1.000
 3800.00    0.49746   0.48712  212.220
 3801.00    0.50950   0.53213   -1.000
 3802.00    0.54054   0.56677   -1.000
 3803.00    0.57739   0.58375  212.955
 3804.00    0.58384   0.58361  220.204
 3805.00    0.56948   0.57235  221.796
 3806.00    0.54522   0.56177   -1.000
 3807.00    0.53414   0.56188   -1.000
 3808.00    0.54801   0.57380   -1.000
 3809.00    0.56782   0.58699   -1.000
 3810.00    0.57449   0.58825  225.758
 3811.00    0.57061   0.57095  239.749
 3812.00    0.54534   0.53935  253.263
 3813.00    0.51147   0.50548  260.518
 3814.00    0.47741   0.48017  254.227
 3815.00    0.44798   0.47019   -1.000
 3816.00    0.45261   0.47082   -1.000
 3817.00    0.46702   0.46992  262.281
 3818.00    0.47683   0.45874   -1.000
 3819.00    0.44957   0.44255  262.281
 3820.00    0.42006   0.43396  262.281
 3821.00    0.42615   0.43676  262.281
 3822.00    0.43063   0.44135   91.111
 3823.00    0.42893   0.43447   31.088
 3824.00    0.41444   0.41746   31.498
 3825.00    0.39603   0.40225   31.145
 3826.00    0.38491   0.39607   30.634
 3827.00    0.38062   0.39924   30.367
 3828.00    0.38261   0.40608   31.029
 3829.00    0.39987   0.40935   32.749
 3830.00    0.40720   0.40368   34.979
 3831.00    0.39342   0.38863   35.532
 3832.00    0.37316   0.36928   34.590
 3833.00    0.35963   0.35402   33.352
 3834.00    0.36218   0.34863   33.023
 3835.00    0.37893   0.35201   33.784
 3836.00    0.37549   0.35882   34.209
 3837.00    0.37573   0.36471   33.184
 3838.00    0.37650   0.37167   41.817
 3839.00    0.37813   0.38567  262.281
 3840.00    0.38170   0.41085   -1.000
 3841.00    0.41543   0.44539   -1.000
 3842.00    0.45482   0.48103   -1.000
 3843.00    0.47229   0.50979   -1.000
 3844.00    0.48828   0.52667   -1.000
 3845.00    0.50182   0.53426   -1.000
 3846.00    0.49646   0.53583   -1.000
 3847.00    0.48283   0.53196   -1.000
 3848.00    0.47679   0.52353   -1.000
 3849.00    0.46777   0.51594   -1.000
 3850.00    0.47097   0.51560   -1.000
 3851.00    0.48451   0.52217   -1.000
 3852.00    0.48041   0.52723   -1.000
 3853.00    0.47169   0.52427   -1.000
 3854.00    0.47309   0.51288   -1.000
 3855.00    0.45250   0.49756   -1.000
 3856.00    0.44562   0.48087   29.780
 3857.00    0.45045   0.46404   30.936
 3858.00    0.44969   0.45209   40.546
 3859.00    0.43021   0.45332   -1.000
 3860.00    0.40886   0.47077   -1.000
 3861.00    0.42562   0.49861   -1.000
 3862.00    0.48187   0.52273   -1.000
 3863.00    0.51349   0.53366   -1.000
 3864.00    0.51662   0.53216   -1.000
 3865.00    0.51561   0.52667  251.557
 3866.00    0.50795   0.52302   -1.000
 3867.00    0.48689   0.51994   -1.000
 3868.00    0.47229   0.51300   -1.000
 3869.00    0.46228   0.50010   39.998
 3870.00    0.44703   0.48579   -1.000
 3871.00    0.43754   0.48007   -1.000
 3872.00    0.43984   0.48865   -1.000
 3873.00    0.46298   0.50947   -1.000
 3874.00    0.51057   0.53013   -1.000
 3875.00    0.53620   0.53653  260.627
 3876.00    0.53022   0.52393  262.281
 3877.00    0.50449   0.50445  262.281
 3878.00    0.47757   0.49196   -1.000
 3879.00    0.48236   0.48984  262.281
 3880.00    0.48990   0.49424  262.281
 3881.00    0.48222   0.50037   -1.000
 3882.00    0.48602   0.50696   -1.000
 3883.00    0.50032   0.50968  243.253
 3884.00    0.51348   0.49913   -1.000
 3885.00    0.51199   0.47407   -1.000
 3886.00    0.48666   0.44721   -1.000
 3887.00    0.49200   0.43402   -1.000
 3888.00    0.51149   0.44475   -1.000
 3889.00    0.53541   0.47812   -1.000
 3890.00    0.58371   0.52375   -1.000
 3891.00    0.62629   0.56632   -1.000
 3892.00    0.62950   0.59269   -1.000
 3893.00    0.62528   0.59945   -1.000
 3894.00    0.61195   0.59679   -1.000
 3895.00    0.60725   0.59569  193.026
 3896.00    0.62214   0.59821   -1.000
 3897.00    0.63303   0.60047   -1.000
 3898.00    0.64218   0.59941   -1.000
 3899.00    0.63920   0.59841   -1.000
 3900.00    0.63472   0.60083   -1.000
 3901.00    0.64637   0.60251   -1.000
 3902.00    0.65627   0.59809   -1.000
 3903.00    0.63086   0.58802   -1.000
 3904.00    0.60740   0.57913   -1.000
 3905.00    0.59213   0.58091  196.298
 3906.00    0.60199   0.59745  185.768
 3907.00    0.64880   0.62598   -1.000
 3908.00    0.68717   0.65634   -1.000
 3909.00    0.71004   0.67959   -1.000
 3910.00    0.72477   0.69297   -1.000
 3911.00    0.73289   0.69924   -1.000
 3912.00    0.73741   0.69968   -1.000
 3913.00    0.71901   0.69444   -1.000
 3914.00    0.70309   0.68474   -1.000
 3915.00    0.70979   0.67262   -1.000
 3916.00    0.69412   0.65791   -1.000
 3917.00    0.67409   0.63872   -1.000
 3918.00    0.65696   0.61442   -1.000
 3919.00    0.64206   0.58902   -1.000
 3920.00    0.62150   0.56978   -1.000
 3921.00    0.59338   0.56165   -1.000
 3922.00    0.58808   0.56440   -1.000
 3923.00    0.59560   0.56940   -1.000
 3924.00    0.59154   0.56625   -1.000
 3925.00    0.58228   0.54891   -1.000
 3926.00    0.55964   0.51766   34.364
 3927.00    0.51403   0.47855   40.274
 3928.00    0.44817   0.43721   47.280
 3929.00    0.37292   0.39701   55.782
 3930.00    0.31662   0.35664   63.909
 3931.00    0.28749   0.31619   66.850
 3932.00    0.28312   0.28271   61.776
 3933.00    0.28297   0.26779   52.605
 3934.00    0.28393   0.27983   43.358
 3935.00    0.30688   0.31521   35.907
 3936.00    0.34906   0.36383   45.223
 3937.00    0.39255   0.41613   -1.000
 3938.00    0.43583   0.46499   -1.000
 3939.00    0.48775   0.50278  252.499
 3940.00    0.53353   0.52658  251.024
 3941.00    0.55454   0.53649   -1.000
 3942.00    0.54190   0.53910  230.242
 3943.00    0.52012   0.54535   -1.000
 3944.00    0.54162   0.56258   -1.000
 3945.00    0.58826   0.58720  201.121
 3946.00    0.62883   0.61082   -1.000
 3947.00    0.64299   0.62901   -1.000
 3948.00    0.65600   0.64397  186.695
 3949.00    0.68689   0.65847   -1.000
 3950.00    0.72794   0.66935   -1.000
 3951.00    0.74262   0.67424   -1.000
 3952.00    0.72557   0.67829   -1.000
 3953.00    0.72102   0.68325   -1.000
 3954.00    0.73956   0.68440   -1.000
 3955.00    0.74481   0.67841   -1.000
 3956.00    0.71883   0.66799   -1.000
 3957.00    0.68975   0.65783   -1.000
 3958.00    0.69516   0.64376   -1.000
 3959.00    0.69735   0.61523   -1.000
 3960.00    0.62973   0.57232   -1.000
 3961.00    0.54799   0.52779   74.367
 3962.00    0.49462   0.49114   32.452
 3963.00    0.45387   0.46256   38.711
 3964.00    0.41933   0.43059   47.684
 3965.00    0.37773   0.38676   56.481
 3966.00    0.32798   0.33528   58.666
 3967.00    0.29923   0.28974   51.958
 3968.00    0.28977   0.26749   42.720
 3969.00    0.29654   0.27637   35.341
 3970.00    0.33027   0.31324   45.620
 3971.00    0.38326   0.36741   -1.000
 3972.00    0.43702   0.42826  231.836
 3973.00    0.48963   0.48785  210.685
 3974.00    0.54441   0.54355  195.729
 3975.00    0.60313   0.59378  184.715
 3976.00    0.64993   0.63940  174.932
 3977.00    0.68972   0.68108  168.155
 3978.00    0.74278   0.71666   -1.000
 3979.00    0.78302   0.74164   -1.000
 3980.00    0.79605   0.75174   -1.000
 3981.00    0.79453   0.75109   -1.000
 3982.00    0.79354   0.74844   -1.000
 3983.00    0.80728   0.75238   -1.000
 3984.00    0.81128   0.76485   -1.000
 3985.00    0.81795   0.78228   -1.000
 3986.00    0.83543   0.80044   -1.000
 3987.00    0.85302   0.81510   -1.000
 3988.00    0.88257   0.82306   -1.000
 3989.00    0.88598   0.82640   -1.000
 3990.00    0.87078   0.83131   -1.000
 3991.00    0.87520   0.84045   -1.000
 3992.00    0.89768   0.84957   -1.000
 3993.00    0.90238   0.85088   -1.000
 3994.00    0.90766   0.84101   -1.000
 3995.00    0.89600   0.82513   -1.000
 3996.00    0.86211   0.81417   -1.000
 3997.00    0.84226   0.81804   -1.000
 3998.00    0.85116   0.83686  144.701
 3999.00    0.89950   0.86280   -1.000
 4000.00    0.94863   0.88520   -1.000
 4001.00    0.95790   0.89626   -1.000
 4002.00    0.96483   0.88913   -1.000
 4003.00    0.96137   0.86268   -1.000
 4004.00    0.92522   0.82872   -1.000
 4005.00    0.87618   0.80951   -1.000
 4006.00    0.85855   0.81805   -1.000
 4007.00    0.87351   0.84799   -1.000
 4008.00    0.91760   0.88052   -1.000
 4009.00    0.95266   0.90182   -1.000
 4010.00    0.96754   0.91287   -1.000
 4011.00    0.97906   0.91888   -1.000
 4012.00    0.99861   0.92395   -1.000
 4013.00    1.00000   0.92985   -1.000
 4014.00    1.01008   0.93508   -1.000
 4015.00    1.01447   0.93721   -1.000
 4016.00    1.00350   0.93768   -1.000
 4017.00    1.00202   0.94101   -1.000
 4018.00    1.01262   0.94814   -1.000
 4019.00    1.01526   0.95449   -1.000
 4020.00    1.01870   0.95479   -1.000
 4021.00    1.01343   0.94773   -1.000
 4022.00    1.00623   0.93738   -1.000
 4023.00    1.00950   0.92861   -1.000
 4024.00    0.99659   0.92690   -1.000
 4025.00    1.00644   0.93643   -1.000
 4026.00    1.04132   0.95320   -1.000
 4027.00    1.05905   0.96145   -1.000
 4028.00    1.04219   0.94430   -1.000
 4029.00    1.00188   0.89984   -1.000
 4030.00    0.93595   0.84549   -1.000
 4031.00    0.86851   0.80409   -1.000
 4032.00    0.83022   0.78725   -1.000
 4033.00    0.82634   0.79891   -1.000
 4034.00    0.85238   0.83649  134.954
 4035.00    0.91309   0.89073  131.929
 4036.00    0.98883   0.94509   -1.000
 4037.00    1.04398   0.98268   -1.000
 4038.00    1.07064   0.99382   -1.000
 4039.00    1.06285   0.98532   -1.000
 4040.00    1.04056   0.96893   -1.000
 4041.00    1.01919   0.94639   -1.000
 4042.00    1.00791   0.90651   -1.000
 4043.00    0.97475   0.84582   -1.000
 4044.00    0.88112   0.78441   -1.000
 4045.00    0.78322   0.75701   -1.000
 4046.00    0.78371   0.78322  139.383
 4047.00    0.85675   0.84614  136.446
 4048.00    0.94243   0.91178   -1.000
 4049.00    1.00601   0.95804   -1.000
 4050.00    1.04003   0.97736   -1.000
 4051.00    1.03264   0.97524   -1.000
 4052.00    1.00807   0.95966   -1.000
 4053.00    0.97675   0.93874   -1.000
 4054.00    0.94713   0.91819   -1.000
 4055.00    0.93276   0.90058   -1.000
 4056.00    0.91893   0.88792   -1.000
 4057.00    0.89985   0.88572  141.442
 4058.00    0.89889   0.89638  140.824
 4059.00    0.93826   0.90808   -1.000
 4060.00    0.96243   0.90100   -1.000
 4061.00    0.95757   0.86719   -1.000
 4062.00    0.90746   0.82292   -1.000
 4063.00    0.83811   0.79569   -1.000
 4064.00    0.82455   0.79707   -1.000
 4065.00    0.86532   0.82186   -1.000
 4066.00    0.91879   0.85597   -1.000
 4067.00    0.95008   0.88471   -1.000
 4068.00    0.97327   0.89768   -1.000
 4069.00    0.97414   0.88891   -1.000
 4070.00    0.94029   0.86476   -1.000
 4071.00    0.90665   0.84740   -1.000
 4072.00    0.90872   0.85246   -1.000
 4073.00    0.93529   0.86833   -1.000
 4074.00    0.94884   0.87083   -1.000
 4075.00    0.92971   0.84984   -1.000
 4076.00    0.88691   0.82458   -1.000
 4077.00    0.85923   0.82289   -1.000
 4078.00    0.87166   0.85426  139.061
 4079.00    0.91160   0.90595  137.712
 4080.00    0.97423   0.95164   -1.000
 4081.00    1.01918   0.97252   -1.000
 4082.00    1.01356   0.96703   -1.000
 4083.00    0.99329   0.95201   -1.000
 4084.00    0.98012   0.94766   -1.000
 4085.00    0.99759   0.96394   -1.000
 4086.00    1.03439   0.99535   -1.000
 4087.00    1.07575   1.02645   -1.000
 4088.00    1.11050   1.04383   -1.000
 4089.00    1.11423   1.04200   -1.000
 4090.00    1.08276   1.02770   -1.000
 4091.00    1.05531   1.01116   -1.000
 4092.00    1.05227   0.99616   -1.000
 4093.00    1.04446   0.97727   -1.000
 4094.00    1.01900   0.95020   -1.000
 4095.00    0.97574   0.91783   -1.000
 4096.00    0.93344   0.88782   -1.000
 4097.00    0.90932   0.86215   -1.000
 4098.00    0.90009   0.83275   -1.000
 4099.00    0.87497   0.79439   -1.000
 4100.00    0.82530   0.75736   -1.000
 4101.00    0.78479   0.74222   -1.000
 4102.00    0.79056   0.76194   -1.000
 4103.00    0.83950   0.81062   -1.000
 4104.00    0.90354   0.86785   -1.000
 4105.00    0.94806   0.91558   -1.000
 4106.00    0.97595   0.94394   -1.000
 4107.00    0.97986   0.95332   -1.000
 4108.00    0.97435   0.94893   -1.000
 4109.00    0.96401   0.93950   -1.000
 4110.00    0.94699   0.93476  143.750
 4111.00    0.94594   0.94079  141.409
 4112.00    0.97272   0.95698  139.595
 4113.00    0.99756   0.97799  139.164
 4114.00    1.01066   0.99545  140.915
 4115.00    1.02376   1.00107   -1.000
 4116.00    1.03040   0.99149   -1.000
 4117.00    1.01735   0.97231   -1.000
 4118.00    0.99595   0.95444   -1.000
 4119.00    0.97949   0.94678   -1.000
 4120.00    0.97293   0.94986  145.192
 4121.00    0.98132   0.95770   -1.000
 4122.00    0.98623   0.96673  141.487
 4123.00    1.00008   0.97687  142.131
 4124.00    1.02373   0.98590   -1.000
 4125.00    1.03229   0.98813   -1.000
 4126.00    1.01336   0.98063   -1.000
 4127.00    0.97750   0.96699  149.125
 4128.00    0.96012   0.95127  152.318
 4129.00    0.96184   0.93174   -1.000
 4130.00    0.95785   0.90643   -1.000
 4131.00    0.91778   0.88145   -1.000
 4132.00    0.87485   0.87062  151.131
 4133.00    0.88246   0.88494  144.691
 4134.00    0.91670   0.91988  141.131
 4135.00    0.95141   0.96111  138.930
 4136.00    0.98643   0.99599  137.508
 4137.00    1.01646   1.01846  138.543
 4138.00    1.03126   1.02705  143.494
 4139.00    1.03439   1.01800  153.260
 4140.00    1.02116   0.98504   -1.000
 4141.00    0.98027   0.93248   -1.000
 4142.00    0.90022   0.88188  157.556
 4143.00    0.83113   0.85956   -1.000
 4144.00    0.83480   0.87424   -1.000
 4145.00    0.88312   0.91161   -1.000
 4146.00    0.93236   0.94551  150.123
 4147.00    0.96470   0.95924  153.285
 4148.00    0.96989   0.95636  153.716
 4149.00    0.95064   0.94824  152.644
 4150.00    0.93180   0.94229  152.855
 4151.00    0.93041   0.93796  154.856
 4152.00    0.92079   0.93227  154.349
 4153.00    0.90274   0.92542   -1.000
 4154.00    0.92330   0.92182  151.876
 4155.00    1.05924   0.92696   -1.000
 4156.00    1.11920   0.94290   -1.000
 4157.00    0.89281   0.96700   -1.000
 4158.00    0.77539   0.99388   -1.000
 4159.00    0.92954   1.01742   -1.000
 4160.00    1.01392   1.03500   -1.000
 4161.00    1.01618   1.04730   -1.000
 4162.00    1.03023   1.05294   -1.000
 4163.00    1.02980   1.04889   -1.000
 4164.00    1.01144   1.03392   -1.000
 4165.00    0.98815   1.01297   -1.000
 4166.00    0.96077   0.99593   -1.000
 4167.00    0.94502   0.98997   -1.000
 4168.00    0.95668   0.99077   -1.000
 4169.00    0.97449   0.98605  163.094
 4170.00    0.97067   0.96544  168.489
 4171.00    0.93664   0.93361  165.536
 4172.00    0.88133   0.90786   -1.000
 4173.00    0.85807   0.90082   -1.000
 4174.00    0.87819   0.91143   -1.000
 4175.00    0.89807   0.92759   -1.000
 4176.00    0.91127   0.94071   -1.000
 4177.00    0.91317   0.95159   -1.000
 4178.00    0.91574   0.96179   -1.000
 4179.00    0.93196   0.96884   -1.000
 4180.00    0.93801   0.97122   -1.000
 4181.00    0.94103   0.97350   -1.000
 4182.00    0.94643   0.98341   -1.000
 4183.00    0.96650   0.99867   -1.000
 4184.00    0.99184   1.00612  152.929
 4185.00    0.99203   0.99765  154.449
 4186.00    0.96344   0.97970  151.879
 4187.00    0.94053   0.96892   -1.000
 4188.00    0.94772   0.97408   -1.000
 4189.00    0.96508   0.98937   -1.000
 4190.00    0.97947   1.00566   -1.000
 4191.00    0.98624   1.01880   -1.000
 4192.00    1.01341   1.02659  150.190
 4193.00    1.03972   1.02181  156.767
 4194.00    1.01603   0.99802  160.686
 4195.00    0.96107   0.96099  162.221
 4196.00    0.91248   0.92576  161.440
 4197.00    0.88484   0.90239   -1.000
 4198.00    0.88147   0.89299  157.689
 4199.00    0.90365   0.89364  157.012
 4200.00    0.92224   0.90065   -1.000
 4201.00    0.92643   0.91312  153.425
 4202.00    0.92586   0.93411  151.385
 4203.00    0.94214   0.96493   -1.000
 4204.00    0.98762   1.00045  144.644
 4205.00    1.02515   1.03251  142.916
 4206.00    1.03771   1.05580  142.920
 4207.00    1.04408   1.06769   -1.000
 4208.00    1.06499   1.06862  142.396
 4209.00    1.06305   1.06481  142.310
 4210.00    1.04245   1.06263   -1.000
 4211.00    1.03825   1.06023   -1.000
 4212.00    1.03769   1.04746  156.589
 4213.00    1.02232   1.02015  155.812
 4214.00    0.97551   0.99337   -1.000
 4215.00    0.93387   0.99042   -1.000
 4216.00    0.95288   1.02023   -1.000
 4217.00    1.03939   1.06906   -1.000
 4218.00    1.12732   1.11181  132.324
 4219.00    1.16331   1.13266   -1.000
 4220.00    1.17717   1.12506   -1.000
 4221.00    1.16743   1.08837   -1.000
 4222.00    1.11258   1.02294   -1.000
 4223.00    1.02856   0.93464   -1.000
 4224.00    0.92170   0.84176   -1.000
 4225.00    0.80307   0.77520   -1.000
 4226.00    0.72438   0.76283   -1.000
 4227.00    0.74485   0.81457   -1.000
 4228.00    0.85768   0.90697   -1.000
 4229.00    0.98272   0.99701  138.556
 4230.00    1.06155   1.05036  142.068
 4231.00    1.09523   1.06322   -1.000
 4232.00    1.09762   1.04852   -1.000
 4233.00    1.07009   1.02427   -1.000
 4234.00    1.04511   1.00469   -1.000
 4235.00    1.03121   0.99677   -1.000
 4236.00    1.00645   1.00107  145.470
 4237.00    1.00127   1.01672  143.036
 4238.00    1.02386   1.04055  140.698
 4239.00    1.04806   1.06814   -1.000
 4240.00    1.07603   1.09670   -1.000
 4241.00    1.10738   1.12503  135.243
 4242.00    1.12287   1.15209   -1.000
 4243.00    1.14232   1.17480   -1.000
 4244.00    1.17933   1.18307  144.683
 4245.00    1.19580   1.16639   -1.000
 4246.00    1.15427   1.12547   -1.000
 4247.00    1.09944   1.07385   -1.000
 4248.00    1.06091   1.02962   -1.000
 4249.00    1.02373   1.00622  145.259
 4250.00    0.99272   1.00413  143.812
 4251.00    0.99249   1.01268   -1.000
 4252.00    1.03489   1.01734  147.322
 4253.00    1.04791   1.01633   -1.000
 4254.00    1.01973   1.02234  139.825
 4255.00    1.02393   1.04385  142.286
 4256.00    1.07395   1.06622  149.248
 4257.00    1.10783   1.06428   -1.000
 4258.00    1.07597   1.03542   -1.000
 4259.00    1.00630   1.00585  145.586
 4260.00    0.96382   1.00715   -1.000
 4261.00    0.98924   1.04994   -1.000
 4262.00    1.06853   1.11542   -1.000
 4263.00    1.16011   1.17376  132.545
 4264.00    1.20917   1.20452  136.004
 4265.00    1.21300   1.20548  140.388
 4266.00    1.19609   1.18099  145.272
 4267.00    1.15799   1.13490   -1.000
 4268.00    1.10704   1.07203   -1.000
 4269.00    1.04265   1.00111   -1.000
 4270.00    0.96208   0.93652   -1.000
 4271.00    0.88985   0.89570  162.799
 4272.00    0.85933   0.88705   -1.000
 4273.00    0.86389   0.90961   -1.000
 4274.00    0.88904   0.95616   -1.000
 4275.00    0.93591   1.01833   -1.000
 4276.00    1.01831   1.08238   -1.000
 4277.00    1.10420   1.12777   -1.000
 4278.00    1.14536   1.13972  148.522
 4279.00    1.13541   1.12614  147.391
 4280.00    1.10106   1.10804  145.662
 4281.00    1.08533   1.10054  146.147
 4282.00    1.08899   1.10090  149.478
 4283.00    1.09002   1.09915  153.613
 4284.00    1.07575   1.09054  156.525
 4285.00    1.05595   1.07522   -1.000
 4286.00    1.03941   1.05242  168.194
 4287.00    1.01118   1.01915  172.137
 4288.00    0.97443   0.98006  167.081
 4289.00    0.93182   0.95253   -1.000
 4290.00    0.91298   0.95466   -1.000
 4291.00    0.94663   0.98462   -1.000
 4292.00    1.00340   1.01998  152.889
 4293.00    1.04831   1.03897  155.997
 4294.00    1.05866   1.03729   -1.000
 4295.00    1.03092   1.01872  173.636
 4296.00    0.98899   0.98419  187.778
 4297.00    0.95304   0.93496   -1.000
 4298.00    0.89632   0.88165  192.515
 4299.00    0.81446   0.84168   -1.000
 4300.00    0.77390   0.82704   -1.000
 4301.00    0.79580   0.83333   -1.000
 4302.00    0.81945   0.84727   -1.000
 4303.00    0.83269   0.85678   -1.000
 4304.00    0.84873   0.85401  195.170
 4305.00    0.84025   0.83462  202.604
 4306.00    0.80323   0.80449  202.227
 4307.00    0.76087   0.78103   -1.000
 4308.00    0.73087   0.78194   -1.000
 4309.00    0.74394   0.81305   -1.000
 4310.00    0.80239   0.86680   -1.000
 4311.00    0.86833   0.93109   -1.000
 4312.00    0.93760   0.99974   -1.000
 4313.00    1.00599   1.07552   -1.000
 4314.00    1.07617   1.15995   -1.000
 4315.00    1.17615   1.24515   -1.000
 4316.00    1.28547   1.31354   -1.000
 4317.00    1.35205   1.34717  127.424
 4318.00    1.37151   1.34540   -1.000
 4319.00    1.35057   1.31897   -1.000
 4320.00    1.30213   1.27527   -1.000
 4321.00    1.25311   1.21260   -1.000
 4322.00    1.19148   1.13064   -1.000
 4323.00    1.08499   1.04411   -1.000
 4324.00    0.96339   0.98660   -1.000
 4325.00    0.89927   0.98920   -1.000
 4326.00    0.92747   1.05563   -1.000
 4327.00    1.05519   1.15498   -1.000
 4328.00    1.19862   1.24245   -1.000
 4329.00    1.26522   1.29123   -1.000
 4330.00    1.27382   1.31000   -1.000
 4331.00    1.27894   1.32013   -1.000
 4332.00    1.29960   1.33272   -1.000
 4333.00    1.32368   1.34032  132.472
 4334.00    1.33975   1.32612  143.756
 4335.00    1.32691   1.27653   -1.000
 4336.00    1.25801   1.19143   -1.000
 4337.00    1.14243   1.09014   -1.000
 4338.00    1.03252   1.00642   -1.000
 4339.00    0.96735   0.96958  156.847
 4340.00    0.95962   0.98676   -1.000
 4341.00    1.00372   1.04614   -1.000
 4342.00    1.08888   1.12264   -1.000
 4343.00    1.17998   1.19162  131.981
 4344.00    1.23798   1.24296  130.293
 4345.00    1.27506   1.28152  128.465
 4346.00    1.29041   1.31313   -1.000
 4347.00    1.30061   1.33570   -1.000
 4348.00    1.32441   1.33572  141.412
 4349.00    1.33069   1.30092   -1.000
 4350.00    1.28620   1.24115   -1.000
 4351.00    1.18763   1.18882  137.251
 4352.00    1.11970   1.17386   -1.000
 4353.00    1.14601   1.20049   -1.000
 4354.00    1.19747   1.24668   -1.000
 4355.00    1.24341   1.28720   -1.000
 4356.00    1.28690   1.30873   -1.000
 4357.00    1.29976   1.31267  131.025
 4358.00    1.28491   1.31053   -1.000
 4359.00    1.26671   1.31726   -1.000
 4360.00    1.28350   1.33860   -1.000
 4361.00    1.33414   1.36757   -1.000
 4362.00    1.36518   1.39397   -1.000
 4363.00    1.38309   1.41135   -1.000
 4364.00    1.40240   1.41514  129.388
 4365.00    1.41076   1.39953  132.110
 4366.00    1.38287   1.36647  131.756
 4367.00    1.32590   1.33135  130.689
 4368.00    1.28878   1.30929   -1.000
 4369.00    1.27143   1.30001   -1.000
 4370.00    1.26751   1.29186   -1.000
 4371.00    1.28287   1.27268  140.547
 4372.00    1.28948   1.23942   -1.000
 4373.00    1.24537   1.20204   -1.000
 4374.00    1.17803   1.18051  132.144
 4375.00    1.16167   1.19125   -1.000
 4376.00    1.19753   1.22934   -1.000
 4377.00    1.26083   1.26900  129.723
 4378.00    1.31591   1.28204   -1.000
 4379.00    1.32393   1.25412   -1.000
 4380.00    1.27991   1.18418   -1.000
 4381.00    1.21229   1.08645   -1.000
 4382.00    1.09561   0.99413   -1.000
 4383.00    0.94992   0.94724  145.393
 4384.00    0.89157   0.96656   -1.000
 4385.00    0.97311   1.03662   -1.000
 4386.00    1.10958   1.11418  137.102
 4387.00    1.19448   1.16423   -1.000
 4388.00    1.21020   1.18404   -1.000
 4389.00    1.19332   1.19076  133.366
 4390.00    1.18367   1.19994  132.838
 4391.00    1.19947   1.21469  135.160
 4392.00    1.22571   1.22954  135.980
 4393.00    1.25283   1.24175  131.638
 4394.00    1.24965   1.25833  126.887
 4395.00    1.26419   1.28678   -1.000
 4396.00    1.32151   1.31872  130.542
 4397.00    1.37529   1.33367   -1.000
 4398.00    1.37821   1.32182   -1.000
 4399.00    1.32519   1.29384   -1.000
 4400.00    1.26591   1.26513  135.038
 4401.00    1.24898   1.23545  142.034
 4402.00    1.24641   1.19433   -1.000
 4403.00    1.18269   1.14285   -1.000
 4404.00    1.08527   1.10373   -1.000
 4405.00    1.05639   1.09986   -1.000
 4406.00    1.10764   1.13089   -1.000
 4407.00    1.15358   1.18140   -1.000
 4408.00    1.18989   1.24166   -1.000
 4409.00    1.25086   1.30689   -1.000
 4410.00    1.32701   1.36368   -1.000
 4411.00    1.38301   1.38815  129.107
 4412.00    1.40559   1.36751   -1.000
 4413.00    1.36866   1.31558   -1.000
 4414.00    1.27216   1.26440  132.431
 4415.00    1.20270   1.24616   -1.000
 4416.00    1.20857   1.27444   -1.000
 4417.00    1.26895   1.33274   -1.000
 4418.00    1.34210   1.38795   -1.000
 4419.00    1.39513   1.41339  127.414
 4420.00    1.39061   1.40411  127.695
 4421.00    1.33055   1.37483   -1.000
 4422.00    1.27742   1.34857   -1.000
 4423.00    1.26108   1.33904   -1.000
 4424.00    1.25741   1.34329   -1.000
 4425.00    1.26734   1.35144   -1.000
 4426.00    1.27996   1.35877   -1.000
 4427.00    1.27829   1.36458   -1.000
 4428.00    1.30106   1.36669   -1.000
 4429.00    1.32491   1.36404   -1.000
 4430.00    1.30811   1.35914   -1.000
 4431.00    1.30514   1.35177   -1.000
 4432.00    1.32102   1.33464  137.421
 4433.00    1.29623   1.30607  134.071
 4434.00    1.23425   1.28450   -1.000
 4435.00    1.21013   1.29592   -1.000
 4436.00    1.25206   1.34626   -1.000
 4437.00    1.32813   1.41028   -1.000
 4438.00    1.41820   1.45060   -1.000
 4439.00    1.45578   1.44776  131.958
 4440.00    1.42059   1.40989  134.085
 4441.00    1.36298   1.36657  130.683
 4442.00    1.30156   1.34932   -1.000
 4443.00    1.30339   1.37190   -1.000
 4444.00    1.36833   1.42057   -1.000
 4445.00    1.43041   1.46794   -1.000
 4446.00    1.47034   1.49607   -1.000
 4447.00    1.47658   1.50483   -1.000
 4448.00    1.47391   1.50336   -1.000
 4449.00    1.48500   1.49625  123.660
 4450.00    1.48187   1.48168  127.061
 4451.00    1.45177   1.45550  132.671
 4452.00    1.42224   1.41399  136.558
 4453.00    1.37568   1.36104  135.791
 4454.00    1.30998   1.31324  133.292
 4455.00    1.26178   1.28790   -1.000
 4456.00    1.26312   1.28480   -1.000
 4457.00    1.29280   1.28989  134.333
 4458.00    1.28964   1.29031  135.619
 4459.00    1.27290   1.28651  134.147
 4460.00    1.25935   1.28953   -1.000
 4461.00    1.24166   1.30961   -1.000
 4462.00    1.25916   1.34682   -1.000
 4463.00    1.32001   1.38874   -1.000
 4464.00    1.38362   1.41929   -1.000
 4465.00    1.40867   1.43070   -1.000
 4466.00    1.41952   1.42706  129.370
 4467.00    1.42486   1.41815  128.319
 4468.00    1.41622   1.41358  124.896
 4469.00    1.39233   1.42236   -1.000
 4470.00    1.39838   1.44969   -1.000
 4471.00    1.44070   1.49003   -1.000
 4472.00    1.50627   1.53035   -1.000
 4473.00    1.55082   1.56149  114.711
 4474.00    1.55096   1.58311   -1.000
 4475.00    1.57246   1.59992   -1.000
 4476.00    1.61403   1.60945  117.712
 4477.00    1.63770   1.59943   -1.000
 4478.00    1.61826   1.56110   -1.000
 4479.00    1.54561   1.50468   -1.000
 4480.00    1.45331   1.45882  122.741
 4481.00    1.39531   1.45080   -1.000
 4482.00    1.40681   1.48596   -1.000
 4483.00    1.47947   1.54533   -1.000
 4484.00    1.55605   1.59954   -1.000
 4485.00    1.61381   1.62525  120.082
 4486.00    1.63767   1.61271  123.470
 4487.00    1.60750   1.57174   -1.000
 4488.00    1.53237   1.52804  120.503
 4489.00    1.47468   1.50656   -1.000
 4490.00    1.45877   1.51141   -1.000
 4491.00    1.48974   1.52474   -1.000
 4492.00    1.51374   1.52359  125.059
 4493.00    1.48445   1.50347   -1.000
 4494.00    1.43200   1.48274   -1.000
 4495.00    1.40877   1.48319   -1.000
 4496.00    1.42043   1.51038   -1.000
 4497.00    1.46747   1.54949   -1.000
 4498.00    1.51131   1.58081   -1.000
 4499.00    1.53755   1.59606   -1.000
 4500.00    1.55787   1.60308   -1.000
 4501.00    1.56980   1.61700   -1.000
 4502.00    1.61065   1.64550   -1.000
 4503.00    1.67558   1.68234  110.936
 4504.00    1.72425   1.71156  112.408
 4505.00    1.74091   1.72037  112.763
 4506.00    1.71666   1.71114  112.149
 4507.00    1.68173   1.69789  111.323
 4508.00    1.66493   1.69162   -1.000
 4509.00    1.67169   1.69152  113.671
 4510.00    1.69163   1.68811  115.798
 4511.00    1.67771   1.67316  116.901
 4512.00    1.62445   1.64817   -1.000
 4513.00    1.58022   1.62303   -1.000
 4514.00    1.55312   1.60687   -1.000
 4515.00    1.55376   1.60122   -1.000
 4516.00    1.57612   1.60151   -1.000
 4517.00    1.57907   1.60498   -1.000
 4518.00    1.57129   1.61450   -1.000
 4519.00    1.59457   1.63143   -1.000
 4520.00    1.64607   1.64778  119.036
 4521.00    1.66408   1.65053  120.440
 4522.00    1.64002   1.63336  122.157
 4523.00    1.59994   1.60065  125.455
 4524.00    1.56035   1.55919  129.132
 4525.00    1.50655   1.51117  131.262
 4526.00    1.44145   1.45954  130.962
 4527.00    1.38881   1.41481   -1.000
 4528.00    1.36413   1.39047   -1.000
 4529.00    1.35750   1.39229   -1.000
 4530.00    1.37784   1.41317   -1.000
 4531.00    1.41119   1.43739   -1.000
 4532.00    1.45426   1.45098  132.148
 4533.00    1.45944   1.45240  126.009
 4534.00    1.41629   1.45586   -1.000
 4535.00    1.39232   1.48004   -1.000
 4536.00    1.46817   1.52906   -1.000
 4537.00    1.58808   1.58485  116.738
 4538.00    1.64391   1.62126  117.447
 4539.00    1.62095   1.62763  116.727
 4540.00    1.57232   1.61635   -1.000
 4541.00    1.55949   1.60695   -1.000
 4542.00    1.60317   1.60677   -2.000
 4543.00    1.44626   1.60866   -2.000
 4544.00    0.59118   1.60416   -2.000
 4545.00    0.05857   1.59342   -1.000
 4546.00    0.14890   1.58158   -1.000
 4547.00    0.81132   1.57049   -1.000
 4548.00    0.64923   1.56047   -1.000
 4549.00    0.99612   1.55601   -1.000
 4550.00    1.46684   1.56081   -1.000
 4551.00    1.56303   1.56846  124.463
 4552.00    1.54402   1.56792   -1.000
 4553.00    1.52578   1.55943   -1.000
 4554.00    1.51961   1.55758   -1.000
 4555.00    1.53998   1.57755   -1.000
 4556.00    1.59716   1.62053   -1.000
 4557.00    1.66389   1.67166  112.163
 4558.00    1.69919   1.71240  112.165
 4559.00    1.73292   1.73378  114.107
 4560.00    1.73878   1.73674  116.962
 4561.00    1.71842   1.72374  119.210
 4562.00    1.68468   1.69688  118.740
 4563.00    1.64019   1.66369   -1.000
 4564.00    1.59885   1.63978   -1.000
 4565.00    1.58150   1.63970   -1.000
 4566.00    1.62188   1.66435   -1.000
 4567.00    1.68606   1.69777  114.544
 4568.00    1.71505   1.71805  117.567
 4569.00    1.71298   1.71400  117.717
 4570.00    1.67051   1.69352   -1.000
 4571.00    1.62053   1.67662   -1.000
 4572.00    1.62829   1.67955   -1.000
 4573.00    1.67455   1.70065   -1.000
 4574.00    1.70919   1.72320  113.345
 4575.00    1.72840   1.73241  114.968
 4576.00    1.73177   1.72423  118.072
 4577.00    1.68658   1.70035  120.824
 4578.00    1.63512   1.66455   -1.000
 4579.00    1.59625   1.62649   -1.000
 4580.00    1.54851   1.60039   -1.000
 4581.00    1.54968   1.59418   -1.000
 4582.00    1.58579   1.60219  119.382
 4583.00    1.60746   1.61184  118.321
 4584.00    1.60405   1.61674  115.523
 4585.00    1.58535   1.62303   -1.000
 4586.00    1.60050   1.64127   -1.000
 4587.00    1.64483   1.67207   -1.000
 4588.00    1.69582   1.70269  115.474
 4589.00    1.73579   1.71746  117.542
 4590.00    1.72365   1.70986  118.126
 4591.00    1.66698   1.68622  117.356
 4592.00    1.63263   1.65976   -1.000
 4593.00    1.62359   1.64064  115.943
 4594.00    1.60317   1.63148   -1.000
 4595.00    1.59434   1.63061   -1.000
 4596.00    1.59940   1.63585   -1.000
 4597.00    1.61200   1.64458   -1.000
 4598.00    1.64488   1.65268  117.713
 4599.00    1.66086   1.65665  116.823
 4600.00    1.63633   1.65659  115.500
 4601.00    1.62665   1.65565   -1.000
 4602.00    1.63832   1.65619  115.261
 4603.00    1.65305   1.65846  114.244
 4604.00    1.65477   1.66431  112.199
 4605.00    1.64058   1.67951   -1.000
 4606.00    1.66247   1.70929   -1.000
 4607.00    1.73852   1.75077  108.366
 4608.00    1.80553   1.79083  109.656
 4609.00    1.83763   1.81327  110.960
 4610.00    1.82399   1.81139  111.794
 4611.00    1.78590   1.79379  111.524
 4612.00    1.75482   1.77626  110.609
 4613.00    1.75448   1.77026  110.036
 4614.00    1.75887   1.77720  110.514
 4615.00    1.77177   1.79038  111.337
 4616.00    1.78625   1.80191  111.443
 4617.00    1.79517   1.80787  110.576
 4618.00    1.79689   1.80920  108.953
 4619.00    1.78684   1.80999   -1.000
 4620.00    1.81216   1.81383  108.761
 4621.00    1.82961   1.81946  108.993
 4622.00    1.82258   1.82177  109.822
 4623.00    1.81141   1.81791  110.268
 4624.00    1.81616   1.80986  110.270
 4625.00    1.79452   1.80133  110.812
 4626.00    1.76768   1.79530   -1.000
 4627.00    1.78232   1.79374  110.774
 4628.00    1.79476   1.79677  109.633
 4629.00    1.79897   1.80284  109.730
 4630.00    1.79055   1.80910  111.125
 4631.00    1.79743   1.81019  112.457
 4632.00    1.79549   1.80127  112.637
 4633.00    1.76520   1.78407  113.315
 4634.00    1.74514   1.76547  114.713
 4635.00    1.74565   1.74867  115.419
 4636.00    1.72435   1.73094  115.375
 4637.00    1.69211   1.71125  113.779
 4638.00    1.66806   1.69528   -1.000
 4639.00    1.65130   1.69120   -1.000
 4640.00    1.66354   1.70181   -1.000
 4641.00    1.70761   1.71978  111.138
 4642.00    1.74827   1.73052  114.079
 4643.00    1.74659   1.72150  117.275
 4644.00    1.71350   1.69104  118.347
 4645.00    1.65684   1.64965  116.738
 4646.00    1.59158   1.61522   -1.000
 4647.00    1.55920   1.60510   -1.000
 4648.00    1.57465   1.62539   -1.000
 4649.00    1.64137   1.66679   -1.000
 4650.00    1.71586   1.71150  112.650
 4651.00    1.76101   1.74378  115.038
 4652.00    1.76818   1.75580  116.657
 4653.00    1.75185   1.74901  116.105
 4654.00    1.72247   1.73435  112.899
 4655.00    1.68683   1.72876   -1.000
 4656.00    1.67810   1.74571   -1.000
 4657.00    1.72440   1.78619   -1.000
 4658.00    1.80899   1.83595   -1.000
 4659.00    1.88049   1.87265  108.784
 4660.00    1.90351   1.88000  111.057
 4661.00    1.84651   1.85724  111.687
 4662.00    1.78333   1.81583   -1.000
 4663.00    1.75710   1.76769  117.497
 4664.00    1.71956   1.71701  122.483
 4665.00    1.67570   1.66347  123.572
 4666.00    1.59229   1.61361   -1.000
 4667.00    1.50264   1.58462   -1.000
 4668.00    1.49218   1.59222   -1.000
 4669.00    1.55888   1.63449   -1.000
 4670.00    1.66519   1.69034   -1.000
 4671.00    1.73255   1.73537  110.931
 4672.00    1.77062   1.75919  109.729
 4673.00    1.75523   1.76880  108.095
 4674.00    1.74892   1.77672   -1.000
 4675.00    1.76798   1.78676  110.277
 4676.00    1.80291   1.79137  112.530
 4677.00    1.81460   1.78122   -1.000
 4678.00    1.76873   1.75641  115.706
 4679.00    1.71937   1.72696  114.719
 4680.00    1.68358   1.70561   -1.000
 4681.00    1.66661   1.70089   -1.000
 4682.00    1.68313   1.71326   -1.000
 4683.00    1.74425   1.73466  110.498
 4684.00    1.77970   1.75328  111.021
 4685.00    1.77994   1.76152  111.148
 4686.00    1.76663   1.75976  111.149
 4687.00    1.76049   1.75373  111.812
 4688.00    1.74331   1.74878  112.158
 4689.00    1.73574   1.74627  111.091
 4690.00    1.74403   1.74545  109.473
 4691.00    1.74168   1.74758  107.161
 4692.00    1.74019   1.75588  105.606
 4693.00    1.76424   1.77124  105.812
 4694.00    1.80058   1.78903  108.451
 4695.00    1.83388   1.79989   -1.000
 4696.00    1.83423   1.79421   -1.000
 4697.00    1.78704   1.76977  112.857
 4698.00    1.73209   1.73543  113.374
 4699.00    1.69578   1.70431  115.214
 4700.00    1.67455   1.68341  116.076
 4701.00    1.67188   1.67280  114.320
 4702.00    1.66401   1.67226  112.517
 4703.00    1.65692   1.68252   -1.000
 4704.00    1.67620   1.69901  115.759
 4705.00    1.71583   1.71059  117.090
 4706.00    1.71955   1.70970  116.750
 4707.00    1.68469   1.70116  113.740
 4708.00    1.67003   1.69822   -1.000
 4709.00    1.69352   1.70970  109.138
 4710.00    1.75051   1.73182  109.856
 4711.00    1.79011   1.75199   -1.000
 4712.00    1.77663   1.76005  112.163
 4713.00    1.75077   1.75814  110.262
 4714.00    1.73140   1.75989   -1.000
 4715.00    1.73261   1.77805   -1.000
 4716.00    1.79021   1.81278   -1.000
 4717.00    1.86610   1.85292  106.434
 4718.00    1.88665   1.88667  107.141
 4719.00    1.89883   1.90803  107.944
 4720.00    1.92055   1.91597  107.528
 4721.00    1.89573   1.91376  106.426
 4722.00    1.87887   1.90908   -1.000
 4723.00    1.85152   1.90717   -1.000
 4724.00    1.87680   1.90217   -1.000
 4725.00    1.90001   1.88089  115.365
 4726.00    1.85068   1.83698  115.383
 4727.00    1.76422   1.78069  114.282
 4728.00    1.69704   1.73401   -1.000
 4729.00    1.67364   1.71434   -1.000
 4730.00    1.68241   1.72375   -1.000
 4731.00    1.71792   1.75139   -1.000
 4732.00    1.74682   1.78254   -1.000
 4733.00    1.78070   1.80583   -1.000
 4734.00    1.81146   1.81741  110.947
 4735.00    1.83106   1.82115  109.725
 4736.00    1.82038   1.82472  109.539
 4737.00    1.82239   1.83395  110.110
 4738.00    1.83613   1.84807  110.333
 4739.00    1.86589   1.86050  109.590
 4740.00    1.85400   1.86674  108.425
 4741.00    1.83211   1.86963   -1.000
 4742.00    1.82946   1.87431   -1.000
 4743.00    1.85762   1.88251   -1.000
 4744.00    1.87200   1.89410  106.817
 4745.00    1.87534   1.90917   -1.000
 4746.00    1.88991   1.92658   -1.000
 4747.00    1.89297   1.94270   -1.000
 4748.00    1.90543   1.95387   -1.000
 4749.00    1.92121   1.95838   -1.000
 4750.00    1.91353   1.95475   -1.000
 4751.00    1.88705   1.94134   -1.000
 4752.00    1.85933   1.91948   -1.000
 4753.00    1.82744   1.89531   -1.000
 4754.00    1.80877   1.87717   -1.000
 4755.00    1.80569   1.87044   -1.000
 4756.00    1.80793   1.87496   -1.000
 4757.00    1.80937   1.88684   -1.000
 4758.00    1.79987   1.90018   -1.000
 4759.00    1.81060   1.90707   -1.000
 4760.00    1.83898   1.89963   -1.000
 4761.00    1.82373   1.87535   -1.000
 4762.00    1.78182   1.84049   -1.000
 4763.00    1.74172   1.80614   -1.000
 4764.00    1.70260   1.78014   -1.000
 4765.00    1.68186   1.76625   -1.000
 4766.00    1.68491   1.77002   -1.000
 4767.00    1.73178   1.79649   -1.000
 4768.00    1.80137   1.83934   -1.000
 4769.00    1.86316   1.87979  111.788
 4770.00    1.86372   1.90170   -1.000
 4771.00    1.83708   1.90653   -1.000
 4772.00    1.82298   1.91077   -1.000
 4773.00    1.85731   1.92785   -1.000
 4774.00    1.92032   1.95554   -1.000
 4775.00    1.93738   1.98158   -1.000
 4776.00    1.91775   1.99716   -1.000
 4777.00    1.91745   2.00144   -1.000
 4778.00    1.92133   1.99623   -1.000
 4779.00    1.90650   1.98278   -1.000
 4780.00    1.87896   1.96283   -1.000
 4781.00    1.87571   1.93856   -1.000
 4782.00    1.86546   1.91311   -1.000
 4783.00    1.82295   1.89221   -1.000
 4784.00    1.82767   1.88066   -1.000
 4785.00    1.81378   1.87694   -1.000
 4786.00    1.80564   1.87605   -1.000
 4787.00    1.80783   1.87603   -1.000
 4788.00    1.80557   1.87832   -1.000
 4789.00    1.80564   1.88543   -1.000
 4790.00    1.81291   1.90134   -1.000
 4791.00    1.83548   1.93064   -1.000
 4792.00    1.87902   1.97334   -1.000
 4793.00    1.94290   2.02129   -1.000
 4794.00    1.97466   2.06043   -1.000
 4795.00    1.99722   2.07703   -1.000
 4796.00    1.99443   2.06562   -1.000
 4797.00    1.94408   2.03334   -1.000
 4798.00    1.88211   1.99706   -1.000
 4799.00    1.84280   1.97496   -1.000
 4800.00    1.84978   1.97759   -1.000
 4801.00    1.91133   2.00136   -1.000
 4802.00    1.97077   2.02927   -1.000
 4803.00    1.96989   2.04140   -1.000
 4804.00    1.94442   2.02963   -1.000
 4805.00    1.92657   2.00250   -1.000
 4806.00    1.90476   1.97561   -1.000
 4807.00    1.88555   1.96037   -1.000
 4808.00    1.88296   1.96054   -1.000
 4809.00    1.88124   1.97333   -1.000
 4810.00    1.89394   1.99128   -1.000
 4811.00    1.91967   2.00630   -1.000
 4812.00    1.93144   2.01547   -1.000
 4813.00    1.93984   2.02231   -1.000
 4814.00    1.95313   2.03200   -1.000
 4815.00    1.96365   2.04681   -1.000
 4816.00    1.98589   2.06564   -1.000
 4817.00    1.99522   2.08538   -1.000
 4818.00    2.00716   2.10135   -1.000
 4819.00    2.02528   2.10720   -1.000
 4820.00    2.01386   2.09651   -1.000
 4821.00    1.98010   2.06695   -1.000
 4822.00    1.93114   2.02515   -1.000
 4823.00    1.87916   1.98769   -1.000
 4824.00    1.85800   1.97223   -1.000
 4825.00    1.90166   1.98225   -1.000
 4826.00    1.96559   2.00232   -1.000
 4827.00    1.95467   2.01354   -1.000
 4828.00    1.92234   2.01040   -1.000
 4829.00    1.92036   1.99875   -1.000
 4830.00    1.91873   1.98444   -1.000
 4831.00    1.88910   1.97175   -1.000
 4832.00    1.86888   1.96761   -1.000
 4833.00    1.87462   1.97804   -1.000
 4834.00    1.93062   1.99986   -1.000
 4835.00    1.97465   2.02118   -1.000
 4836.00    1.96546   2.03076   -1.000
 4837.00    1.94894   2.02474   -1.000
 4838.00    1.91820   2.00646   -1.000
 4839.00    1.88408   1.98419   -1.000
 4840.00    1.86800   1.96718   -1.000
 4841.00    1.87638   1.96004   -1.000
 4842.00    1.87816   1.96257   -1.000
 4843.00    1.87915   1.97470   -1.000
 4844.00    1.91901   1.99639   -1.000
 4845.00    1.96257   2.02089   -1.000
 4846.00    1.97655   2.03505   -1.000
 4847.00    1.94473   2.03179   -1.000
 4848.00    1.92321   2.01931   -1.000
 4849.00    1.91166   2.01251   -1.000
 4850.00    1.93831   2.01620   -1.000
 4851.00    1.94169   2.02045   -1.000
 4852.00    1.92175   2.01052   -1.000
 4853.00    1.90960   1.97956   -1.000
 4854.00    1.87738   1.93500   -1.000
 4855.00    1.79947   1.89411   -1.000
 4856.00    1.77355   1.86726   -1.000
 4857.00    1.80381   1.84244   -1.000
 4858.00    1.78869   1.79208  150.136
 4859.00    1.69793   1.70360  142.186
 4860.00    1.54499   1.60443   -1.000
 4861.00    1.44343   1.54727   -1.000
 4862.00    1.47459   1.56545   -1.000
 4863.00    1.59517   1.64567   -1.000
 4864.00    1.70590   1.74557   -1.000
 4865.00    1.78254   1.83047   -1.000
 4866.00    1.82804   1.88804   -1.000
 4867.00    1.83082   1.91772   -1.000
 4868.00    1.83025   1.91899   -1.000
 4869.00    1.81851   1.89140   -1.000
 4870.00    1.74670   1.84366   -1.000
 4871.00    1.66552   1.80038   -1.000
 4872.00    1.66577   1.79070   -1.000
 4873.00    1.72927   1.82292   -1.000
 4874.00    1.77454   1.87695   -1.000
 4875.00    1.79782   1.92743   -1.000
 4876.00    1.82962   1.96572   -1.000
 4877.00    1.85481   1.99683   -1.000
 4878.00    1.87985   2.02451   -1.000
 4879.00    1.90667   2.04415   -1.000
 4880.00    1.90636   2.04776   -1.000
 4881.00    1.88123   2.03462   -1.000
 4882.00    1.85927   2.01362   -1.000
 4883.00    1.87947   1.99187   -1.000
 4884.00    1.86943   1.96747   -1.000
 4885.00    1.80826   1.93951   -1.000
 4886.00    1.78091   1.91515   -1.000
 4887.00    1.79505   1.89892   -1.000
 4888.00    1.79852   1.88338   -1.000
 4889.00    1.77768   1.85998   -1.000
 4890.00    1.72579   1.83787   -1.000
 4891.00    1.71711   1.84421   -1.000
 4892.00    1.80320   1.90021   -1.000
 4893.00    1.95093   1.99721   -1.000
 4894.00    2.05173   2.10025   -1.000
 4895.00    2.08056   2.17506   -1.000
 4896.00    2.10705   2.20953   -1.000
 4897.00    2.10648   2.21037   -1.000
 4898.00    2.09052   2.19000   -1.000
 4899.00    2.04661   2.16050   -1.000
 4900.00    1.99717   2.13220   -1.000
 4901.00    1.99621   2.11052   -1.000
 4902.00    1.97582   2.09654   -1.000
 4903.00    1.96355   2.09351   -1.000
 4904.00    1.99670   2.10700   -1.000
 4905.00    2.04541   2.13298   -1.000
 4906.00    2.07154   2.15140   -1.000
 4907.00    2.05506   2.14141   -1.000
 4908.00    2.00447   2.10194   -1.000
 4909.00    1.93739   2.05291   -1.000
 4910.00    1.89786   2.02018   -1.000
 4911.00    1.90614   2.01946   -1.000
 4912.00    1.96643   2.04842   -1.000
 4913.00    2.01143   2.09093   -1.000
 4914.00    2.06059   2.12733   -1.000
 4915.00    2.09240   2.13888   -1.000
 4916.00    2.05918   2.10799   -1.000
 4917.00    1.99889   2.02751   -1.000
 4918.00    1.85638   1.91544   -1.000
 4919.00    1.72708   1.81392   -1.000
 4920.00    1.66943   1.76527   -1.000
 4921.00    1.72456   1.78359   -1.000
 4922.00    1.82383   1.84615  111.258
 4923.00    1.88889   1.91584   -1.000
 4924.00    1.91615   1.97310   -1.000
 4925.00    1.94620   2.02337   -1.000
 4926.00    1.98817   2.07724   -1.000
 4927.00    2.06195   2.13404   -1.000
 4928.00    2.12061   2.18464   -1.000
 4929.00    2.13977   2.21869   -1.000
 4930.00    2.13757   2.22680   -1.000
 4931.00    2.12659   2.20483   -1.000
 4932.00    2.09037   2.16067   -1.000
 4933.00    2.02340   2.11369   -1.000
 4934.00    1.98049   2.08135   -1.000
 4935.00    1.99535   2.06255   -1.000
 4936.00    2.00023   2.03928   -1.000
 4937.00    1.93239   2.00187   -1.000
 4938.00    1.85611   1.96832   -1.000
 4939.00    1.85065   1.96960   -1.000
 4940.00    1.96298   2.01704   -1.000
 4941.00    2.06806   2.09070  104.975
 4942.00    2.11198   2.15855   -1.000
 4943.00    2.13187   2.20080   -1.000
 4944.00    2.15322   2.21707   -1.000
 4945.00    2.14772   2.21869   -1.000
 4946.00    2.13452   2.21974   -1.000
 4947.00    2.14630   2.22963   -1.000
 4948.00    2.16723   2.24769   -1.000
 4949.00    2.19224   2.26558   -1.000
 4950.00    2.20692   2.27544   -1.000
 4951.00    2.20328   2.27382   -1.000
 4952.00    2.18098   2.25894   -1.000
 4953.00    2.13923   2.22692   -1.000
 4954.00    2.09744   2.16998   -1.000
 4955.00    2.04440   2.08387   -1.000
 4956.00    1.94221   1.98478   -1.000
 4957.00    1.81322   1.91502   -1.000
 4958.00    1.80450   1.91520   -1.000
 4959.00    1.94642   1.98392   -1.000
 4960.00    2.07360   2.07697  107.512
 4961.00    2.12267   2.14669  108.774
 4962.00    2.12373   2.17279   -1.000
 4963.00    2.11665   2.16101   -1.000
 4964.00    2.06997   2.12608   -1.000
 4965.00    1.99877   2.08448   -1.000
 4966.00    1.95029   2.05258   -1.000
 4967.00    1.96910   2.04025   -1.000
 4968.00    1.98190   2.04765   -1.000
 4969.00    1.99489   2.07014   -1.000
 4970.00    2.01991   2.10269   -1.000
 4971.00    2.05568   2.13980   -1.000
 4972.00    2.08236   2.17414   -1.000
 4973.00    2.11881   2.19778   -1.000
 4974.00    2.14201   2.20573   -1.000
 4975.00    2.13043   2.19700   -1.000
 4976.00    2.09456   2.17327   -1.000
 4977.00    2.05069   2.13895   -1.000
 4978.00    2.01048   2.09987   -1.000
 4979.00    1.97252   2.05779   -1.000
 4980.00    1.94657   2.00824   -1.000
 4981.00    1.89322   1.94914   -1.000
 4982.00    1.80349   1.89245   -1.000
 4983.00    1.77669   1.86183   -1.000
 4984.00    1.82815   1.87456   -1.000
 4985.00    1.89379   1.92708   -1.000
 4986.00    1.95392   1.99833   -1.000
 4987.00    2.02565   2.06197   -1.000
 4988.00    2.07254   2.09900  112.829
 4989.00    2.04795   2.10687   -1.000
 4990.00    2.02112   2.09978   -1.000
 4991.00    2.02981   2.09481   -1.000
 4992.00    2.06483   2.09851   -1.000
 4993.00    2.05046   2.10748   -1.000
 4994.00    2.02726   2.11754   -1.000
 4995.00    2.04267   2.12702   -1.000
 4996.00    2.06268   2.13042   -1.000
 4997.00    2.05228   2.11697   -1.000
 4998.00    2.01349   2.08129   -1.000
 4999.00    1.97146   2.03258   -1.000
 5000.00    1.94440   1.98948   -1.000
 5001.00    1.93917   1.96537   -1.000
 5002.00    1.93455   1.95656  118.844
 5003.00    1.92083   1.94752   -1.000
 5004.00    1.90364   1.92712  116.648
 5005.00    1.87935   1.90222   -1.000
 5006.00    1.85797   1.89488   -1.000
 5007.00    1.87877   1.92078   -1.000
 5008.00    1.94939   1.96960  116.700
 5009.00    2.01044   2.01008  121.092
 5010.00    2.00696   2.01563  123.938
 5011.00    1.95500   1.98234   -1.000
 5012.00    1.86931   1.92861   -1.000
 5013.00    1.80024   1.88228   -1.000
 5014.00    1.77600   1.86354   -1.000
 5015.00    1.80658   1.87337   -1.000
 5016.00    1.87450   1.89690  116.280
 5017.00    1.90858   1.91986  115.326
 5018.00    1.90511   1.93874   -1.000
 5019.00    1.91903   1.95550   -1.000
 5020.00    1.95380   1.96850  115.430
 5021.00    1.93578   1.97603   -1.000
 5022.00    1.89488   1.98484   -1.000
 5023.00    1.93744   2.00399   -1.000
 5024.00    2.00430   2.03108   -1.000
 5025.00    2.01568   2.05204   -1.000
 5026.00    1.97978   2.05695   -1.000
 5027.00    1.94674   2.05325   -1.000
 5028.00    1.95507   2.05943   -1.000
 5029.00    2.01911   2.08680   -1.000
 5030.00    2.05819   2.13109   -1.000
 5031.00    2.09342   2.17777   -1.000
 5032.00    2.15023   2.21010   -1.000
 5033.00    2.18511   2.21364   -1.000
 5034.00    2.15847   2.18353  117.058
 5035.00    2.05530   2.13156   -1.000
 5036.00    1.97107   2.07799   -1.000
 5037.00    1.95395   2.03152   -1.000
 5038.00    1.94919   1.98254   -1.000
 5039.00    1.86254   1.92344   -1.000
 5040.00    1.74219   1.87126   -1.000
 5041.00    1.72157   1.86147   -1.000
 5042.00    1.82081   1.91607   -1.000
 5043.00    1.97001   2.01994   -1.000
 5044.00    2.11605   2.13123  106.652
 5045.00    1.23144   2.20872   -1.000
 5046.00    0.13739   2.23171   -1.000
 5047.00    0.03276   2.20240   -1.000
 5048.00    0.61346   2.14154   -1.000
 5049.00    1.64284   2.07981   -1.000
 5050.00    1.92903   2.04328   -1.000
 5051.00    1.96379   2.04195   -1.000
 5052.00    2.03462   2.07131   -1.000
 5053.00    2.08139   2.11914   -1.000
 5054.00    2.12698   2.16953   -1.000
 5055.00    2.14944   2.20970   -1.000
 5056.00    2.18318   2.23681   -1.000
 5057.00    2.18377   2.25649   -1.000
 5058.00    2.19567   2.27550   -1.000
 5059.00    2.21228   2.29601   -1.000
 5060.00    2.22170   2.31251   -1.000
 5061.00    2.25912   2.31284   -1.000
 5062.00    2.24790   2.28499   -1.000
 5063.00    2.16678   2.22880   -1.000
 5064.00    2.05170   2.16225   -1.000
 5065.00    1.98553   2.11083   -1.000
 5066.00    2.01175   2.08850   -1.000
 5067.00    2.04657   2.09092   -1.000
 5068.00    2.03149   2.10609   -1.000
 5069.00    2.06139   2.12402   -1.000
 5070.00    2.10201   2.13701   -1.000
 5071.00    2.10249   2.14004   -1.000
 5072.00    2.07292   2.13628   -1.000
 5073.00    2.07872   2.13517   -1.000
 5074.00    2.11408   2.14096   -1.000
 5075.00    2.11885   2.14678   -1.000
 5076.00    2.10155   2.14057   -1.000
 5077.00    2.09537   2.11219  122.420
 5078.00    2.05035   2.06098  119.676
 5079.00    1.93120   2.00327   -1.000
 5080.00    1.87789   1.96584   -1.000
 5081.00    1.92768   1.96436   -1.000
 5082.00    1.98068   1.99184  111.438
 5083.00    2.01147   2.03258  110.692
 5084.00    2.03353   2.07651   -1.000
 5085.00    2.07946   2.11890   -1.000
 5086.00    2.11694   2.15528   -1.000
 5087.00    2.11920   2.18240   -1.000
 5088.00    2.12743   2.20115   -1.000
 5089.00    2.13817   2.21643   -1.000
 5090.00    2.16680   2.23375   -1.000
 5091.00    2.19862   2.25598   -1.000
 5092.00    2.22389   2.27900   -1.000
 5093.00    2.25556   2.29048   -1.000
 5094.00    2.24272   2.27710   -1.000
 5095.00    2.18255   2.23514   -1.000
 5096.00    2.10818   2.17441   -1.000
 5097.00    2.04275   2.11312   -1.000
 5098.00    1.96398   2.07165   -1.000
 5099.00    1.95089   2.06539   -1.000
 5100.00    2.00801   2.09517   -1.000
 5101.00    2.08884   2.14172   -1.000
 5102.00    2.14427   2.17800   -1.000
 5103.00    2.10888   2.18812   -1.000
 5104.00    2.07246   2.17486   -1.000
 5105.00    2.08178   2.14920   -1.000
 5106.00    2.06736   2.11991   -1.000
 5107.00    2.00889   2.09328   -1.000
 5108.00    2.00176   2.07610   -1.000
 5109.00    2.00948   2.07524   -1.000
 5110.00    2.02414   2.09389   -1.000
 5111.00    2.09023   2.12797   -1.000
 5112.00    2.14256   2.16802   -1.000
 5113.00    2.16547   2.20554   -1.000
 5114.00    2.19668   2.23853   -1.000
 5115.00    2.21874   2.26855   -1.000
 5116.00    2.23244   2.29438   -1.000
 5117.00    2.24570   2.31044   -1.000
 5118.00    2.26357   2.30996   -1.000
 5119.00    2.25927   2.28916   -1.000
 5120.00    2.19309   2.24930   -1.000
 5121.00    2.12671   2.19575   -1.000
 5122.00    2.07952   2.13717   -1.000
 5123.00    1.99469   2.08550   -1.000
 5124.00    1.96259   2.05270   -1.000
 5125.00    1.98306   2.04283   -1.000
 5126.00    1.99361   2.04841   -1.000
 5127.00    1.99688   2.05854   -1.000
 5128.00    2.00368   2.06974   -1.000
 5129.00    2.02544   2.08643   -1.000
 5130.00    2.05014   2.11250   -1.000
 5131.00    2.09085   2.14510   -1.000
 5132.00    2.14371   2.17689   -1.000
 5133.00    2.16866   2.20242   -1.000
 5134.00    2.17953   2.21858   -1.000
 5135.00    2.19205   2.21973  116.267
 5136.00    2.17841   2.19909  116.297
 5137.00    2.11435   2.15978   -1.000
 5138.00    2.04557   2.11985   -1.000
 5139.00    2.02413   2.09750   -1.000
 5140.00    2.05597   2.09369   -1.000
 5141.00    2.06960   2.09732   -1.000
 5142.00    2.03119   2.10091   -1.000
 5143.00    2.02233   2.10542   -1.000
 5144.00    2.06153   2.11004   -1.000
 5145.00    2.06203   2.10801   -1.000
 5146.00    2.02922   2.09836   -1.000
 5147.00    2.03301   2.09118   -1.000
 5148.00    2.05202   2.09327   -1.000
 5149.00    2.04548   2.09871   -1.000
 5150.00    2.04240   2.09697   -1.000
 5151.00    2.02781   2.08651   -1.000
 5152.00    1.99410   2.07710   -1.000
 5153.00    1.97630   2.08095   -1.000
 5154.00    2.01762   2.10565   -1.000
 5155.00    2.08973   2.15074   -1.000
 5156.00    2.15533   2.20591   -1.000
 5157.00    2.23190   2.25552  107.445
 5158.00    2.26131   2.28773  108.109
 5159.00    2.24826   2.29899   -1.000
 5160.00    2.27182   2.28981  111.242
 5161.00    2.24928   2.25986  115.894
 5162.00    2.18561   2.20752  125.916
 5163.00    2.12884   2.13054  139.033
 5164.00    2.04528   2.02550   -1.000
 5165.00    1.89443   1.89348  143.470
 5166.00    1.67448   1.75590   -1.000
 5167.00    1.50429   1.65619   -1.000
 5168.00    1.51024   1.62478   -1.000
 5169.00    1.63105   1.64048  152.546
 5170.00    1.69688   1.65020   -1.000
 5171.00    1.60243   1.62742   -1.000
 5172.00    1.44679   1.60602   -1.000
 5173.00    1.47130   1.64311   -1.000
 5174.00    1.68706   1.75339   -1.000
 5175.00    1.92064   1.89648  113.526
 5176.00    2.04401   2.01568   -1.000
 5177.00    2.09018   2.08369  119.365
 5178.00    2.11798   2.10059  128.593
 5179.00    2.08162   2.06850  143.639
 5180.00    1.99518   1.98369  153.349
 5181.00    1.83492   1.85320  144.516
 5182.00    1.61377   1.71519   -1.000
 5183.00    1.43579   1.63417   -1.000
 5184.00    1.46470   1.65723   -1.000
 5185.00    1.70493   1.77714   -1.000
 5186.00    1.96519   1.93425   -1.000
 5187.00    2.11944   2.06577   -1.000
 5188.00    2.17198   2.14184   -1.000
 5189.00    2.19850   2.16195   -1.000
 5190.00    2.20789   2.13694   -1.000
 5191.00    2.10614   2.08675  118.217
 5192.00    1.98730   2.04205   -1.000
 5193.00    1.98571   2.02866   -1.000
 5194.00    2.04599   2.04888  112.414
 5195.00    2.08491   2.08831  110.601
 5196.00    2.14032   2.13676  109.810
 5197.00    2.19738   2.18870  109.823
 5198.00    2.24743   2.23634  110.853
 5199.00    2.27527   2.26929  112.975
 5200.00    2.29290   2.27840  115.672
 5201.00    2.26567   2.25855  119.376
 5202.00    2.21891   2.20846  122.786
 5203.00    2.17078   2.13224   -1.000
 5204.00    2.06933   2.04261   -1.000
 5205.00    1.96788   1.96111  124.282
 5206.00    1.91388   1.90692  122.125
 5207.00    1.90460   1.88796  117.929
 5208.00    1.88864   1.90416  113.143
 5209.00    1.91737   1.95610   -1.000
 5210.00    2.02883   2.04095  107.056
 5211.00    2.15827   2.14107  108.559
 5212.00    2.28165   2.22628   -1.000
 5213.00    2.34188   2.27169   -1.000
 5214.00    2.31561   2.27283   -1.000
 5215.00    2.26012   2.25143  108.556
 5216.00    2.21519   2.24023   -1.000
 5217.00    2.23555   2.26016   -1.000
 5218.00    2.32430   2.30646  106.044
 5219.00    2.39726   2.35680   -1.000
 5220.00    2.41288   2.38878  111.217
 5221.00    2.40644   2.38824  115.947
 5222.00    2.37322   2.34942   -1.000
 5223.00    2.28806   2.27407  123.875
 5224.00    2.17360   2.17538  120.466
 5225.00    2.05580   2.08088   -1.000
 5226.00    1.98400   2.02727   -1.000
 5227.00    2.00126   2.04116   -1.000
 5228.00    2.12398   2.11648  107.933
 5229.00    2.27316   2.21183   -1.000
 5230.00    2.35136   2.27776   -1.000
 5231.00    2.35951   2.29077   -1.000
 5232.00    2.27288   2.26841  108.647
 5233.00    2.22382   2.24870   -1.000
 5234.00    2.24487   2.26173  105.187
 5235.00    2.28685   2.31050   -1.000
 5236.00    2.38180   2.37419  105.505
 5237.00    2.46332   2.42819   -1.000
 5238.00    2.46700   2.45806  104.670
 5239.00    2.45295   2.46545  104.841
 5240.00    2.45389   2.46127  104.604
 5241.00    2.45890   2.45640  104.680
 5242.00    2.47281   2.45632  107.059
 5243.00    2.47310   2.45795  110.408
 5244.00    2.46804   2.44958  112.671
 5245.00    2.45115   2.41959   -1.000
 5246.00    2.36530   2.36988  113.075
 5247.00    2.28710   2.31781   -1.000
 5248.00    2.26171   2.28135  112.957
 5249.00    2.26309   2.26575  111.376
 5250.00    2.26336   2.26721  110.430
 5251.00    2.27621   2.28061  110.425
 5252.00    2.30429   2.29938  109.366
 5253.00    2.32725   2.31659  106.648
 5254.00    2.31479   2.33485  103.968
 5255.00    2.32085   2.36655   -1.000
 5256.00    2.39486   2.41780  104.685
 5257.00    2.50001   2.47378  107.863
 5258.00    2.55423   2.50510   -1.000
 5259.00    2.52699   2.49061   -1.000
 5260.00    2.47691   2.42647   -1.000
 5261.00    2.37863   2.32491   -1.000
 5262.00    2.22743   2.20769  123.695
 5263.00    2.09160   2.09972  121.380
 5264.00    2.01503   2.02074  119.792
 5265.00    1.97890   1.97908  122.983
 5266.00    1.98572   1.96456  127.222
 5267.00    2.05032   1.95386   -1.000
 5268.00    2.01977   1.93123   -1.000
 5269.00    1.88110   1.91195   -1.000
 5270.00    1.87876   1.93398   -1.000
 5271.00    2.05939   2.01329   -1.000
 5272.00    2.22853   2.12056   -1.000
 5273.00    2.30501   2.20890   -1.000
 5274.00    2.30495   2.26517   -1.000
 5275.00    2.30598   2.31301  103.295
 5276.00    2.36662   2.37210  104.318
 5277.00    2.46929   2.43613   -1.000
 5278.00    2.55296   2.47893   -1.000
 5279.00    2.54445   2.47955   -1.000
 5280.00    2.48731   2.44018   -1.000
 5281.00    2.43382   2.38301   -1.000
 5282.00    2.35281   2.33914  105.512
 5283.00    2.30169   2.33542   -1.000
 5284.00    2.27800   2.38232   -1.000
 5285.00    2.45781   2.46326  102.625
 5286.00    2.61464   2.54453   -1.000
 5287.00    2.63680   2.59834   -1.000
 5288.00    2.64148   2.62353  101.826
 5289.00    2.63885   2.63408  102.527
 5290.00    2.65760   2.63925  103.576
 5291.00    2.66855   2.63768   -1.000
 5292.00    2.62702   2.62403  108.296
 5293.00    2.60890   2.59525  112.378
 5294.00    2.60591   2.54743   -1.000
 5295.00    2.52631   2.47719   -1.000
 5296.00    2.40328   2.39444  110.603
 5297.00    2.27605   2.32727   -1.000
 5298.00    2.24380   2.30276   -1.000
 5299.00    2.32366   2.32520  106.474
 5300.00    2.40783   2.37429   -1.000
 5301.00    2.45551   2.43017  102.030
 5302.00    2.50370   2.48918  102.050
 5303.00    2.58169   2.55218  103.111
 5304.00    2.67440   2.60982   -1.000
 5305.00    2.72430   2.64653   -1.000
 5306.00    2.69107   2.65785   -1.000
 5307.00    2.66777   2.65781  101.370
 5308.00    2.69950   2.66232   -1.000
 5309.00    2.74230   2.67410   -1.000
 5310.00    2.74382   2.68349   -1.000
 5311.00    2.72006   2.68069   -1.000
 5312.00    2.69599   2.66559   -1.000
 5313.00    2.69350   2.64369   -1.000
 5314.00    2.67462   2.61985   -1.000
 5315.00    2.65853   2.59780   -1.000
 5316.00    2.62511   2.58173   -1.000
 5317.00    2.60360   2.57508  104.536
 5318.00    2.60554   2.57648  105.372
 5319.00    2.62407   2.57805   -1.000
 5320.00    2.64121   2.57087   -1.000
 5321.00    2.60502   2.54835   -1.000
 5322.00    2.56230   2.50730   -1.000
 5323.00    2.51935   2.44942   -1.000
 5324.00    2.46180   2.37893   -1.000
 5325.00    2.43614   2.29712   -1.000
 5326.00    2.39476   2.20769   -1.000
 5327.00    2.21998   2.13144   -1.000
 5328.00    2.07826   2.10819   -1.000
 5329.00    2.14527   2.16104  106.475
 5330.00    2.33163   2.27193   -1.000
 5331.00    2.49134   2.39020   -1.000
 5332.00    2.52843   2.48027   -1.000
 5333.00    2.56797   2.54024  104.833
 5334.00    2.64569   2.58258   -1.000
 5335.00    2.69728   2.61024   -1.000
 5336.00    2.68657   2.61412   -1.000
 5337.00    2.65150   2.58708   -1.000
 5338.00    2.61264   2.53351   -1.000
 5339.00    2.52713   2.47108   -1.000
 5340.00    2.44341   2.42812  105.187
 5341.00    2.43333   2.42610  105.421
 5342.00    2.50306   2.46113   -1.000
 5343.00    2.59677   2.50386   -1.000
 5344.00    2.63401   2.52842   -1.000
 5345.00    2.60255   2.52821   -1.000
 5346.00    2.56554   2.51247   -1.000
 5347.00    2.55541   2.49415   -1.000
 5348.00    2.53914   2.48537   -1.000
 5349.00    2.52771   2.49709  102.822
 5350.00    2.58184   2.53438   -1.000
 5351.00    2.65440   2.58904   -1.000
 5352.00    2.70959   2.64567   -1.000
 5353.00    2.75182   2.69437   -1.000
 5354.00    2.77418   2.73349   -1.000
 5355.00    2.81885   2.76438   -1.000
 5356.00    2.85439   2.78440   -1.000
 5357.00    2.84619   2.79030   -1.000
 5358.00    2.82156   2.78226   -1.000
 5359.00    2.79660   2.76147   -1.000
 5360.00    2.77929   2.73004   -1.000
 5361.00    2.72033   2.69280   -1.000
 5362.00    2.68888   2.65582   -1.000
 5363.00    2.66130   2.62238   -1.000
 5364.00    2.65413   2.59350   -1.000
 5365.00    2.62372   2.56953   -1.000
 5366.00    2.61028   2.54810   -1.000
 5367.00    2.59722   2.52033   -1.000
 5368.00    2.54579   2.47421   -1.000
 5369.00    2.46751   2.41104   -1.000
 5370.00    2.36868   2.35712  103.848
 5371.00    2.33481   2.34829  101.806
 5372.00    2.44675   2.40141   -1.000
 5373.00    2.61182   2.49643   -1.000
 5374.00    2.73702   2.59080   -1.000
 5375.00    2.78226   2.65388   -1.000
 5376.00    2.77515   2.68136   -1.000
 5377.00    2.74362   2.68906   -1.000
 5378.00    2.73637   2.69044   -1.000
 5379.00    2.75287   2.68667   -1.000
 5380.00    2.74679   2.67351   -1.000
 5381.00    2.72207   2.65252   -1.000
 5382.00    2.71322   2.63395   -1.000
 5383.00    2.69737   2.62802   -1.000
 5384.00    2.69749   2.63708   -1.000
 5385.00    2.74550   2.65270   -1.000
 5386.00    2.76960   2.66058   -1.000
 5387.00    2.74232   2.64928   -1.000
 5388.00    2.68925   2.61798   -1.000
 5389.00    2.63081   2.57686   -1.000
 5390.00    2.58953   2.53885   -1.000
 5391.00    2.56617   2.51284   -1.000
 5392.00    2.55820   2.49817   -1.000
 5393.00    2.57146   2.48635   -1.000
 5394.00    2.56381   2.46703   -1.000
 5395.00    2.52230   2.43748   -1.000
 5396.00    2.45479   2.40932   -1.000
 5397.00    2.42187   2.40341  105.711
 5398.00    2.49783   2.43218   -1.000
 5399.00    2.57884   2.48385   -1.000
 5400.00    2.61411   2.53040   -1.000
 5401.00    2.62256   2.54624   -1.000
 5402.00    2.62434   2.52015   -1.000
 5403.00    2.54852   2.45639   -1.000
 5404.00    2.42682   2.37830   -1.000
 5405.00    2.35352   2.32181   -1.000
 5406.00    2.35015   2.31255   -1.000
 5407.00    2.42450   2.34247   -1.000
 5408.00    2.48430   2.38186   -1.000
 5409.00    2.46493   2.41609   -1.000
 5410.00    2.48208   2.45282  104.485
 5411.00    2.54704   2.50428   -1.000
 5412.00    2.63991   2.56352   -1.000
 5413.00    2.71711   2.61235   -1.000
 5414.00    2.71184   2.64640   -1.000
 5415.00    2.70866   2.67320   -1.000
 5416.00    2.72465   2.69790   -1.000
 5417.00    2.77936   2.71442   -1.000
 5418.00    2.79498   2.71382   -1.000
 5419.00    2.75851   2.69851   -1.000
 5420.00    2.71558   2.67889   -1.000
 5421.00    2.72079   2.66181   -1.000
 5422.00    2.74058   2.64848   -1.000
 5423.00    2.70355   2.64064   -1.000
 5424.00    2.65322   2.64536  104.963
 5425.00    2.68046   2.66519  108.173
 5426.00    2.75397   2.68202   -1.000
 5427.00    2.78043   2.66901   -1.000
 5428.00    2.68967   2.61887   -1.000
 5429.00    2.56781   2.55589  109.143
 5430.00    2.53397   2.51539  110.753
 5431.00    2.58122   2.50403   -1.000
 5432.00    2.61627   2.50161   -1.000
 5433.00    2.57907   2.49100   -1.000
 5434.00    2.53239   2.48077   -1.000
 5435.00    2.52682   2.49591  103.260
 5436.00    2.58651   2.54795   -1.000
 5437.00    2.67343   2.62652   -1.000
 5438.00    2.75847   2.70893   -1.000
 5439.00    2.83946   2.77489   -1.000
 5440.00    2.87122   2.81594   -1.000
 5441.00    2.88831   2.83103   -1.000
 5442.00    2.87251   2.81916   -1.000
 5443.00    2.84003   2.77476   -1.000
 5444.00    2.75001   2.69709   -1.000
 5445.00    2.61192   2.60382  107.602
 5446.00    2.48889   2.53024   -1.000
 5447.00    2.48340   2.51037   -1.000
 5448.00    2.57499   2.54686  104.817
 5449.00    2.69985   2.61002   -1.000
 5450.00    2.77172   2.65955   -1.000
 5451.00    2.78890   2.67045   -1.000
 5452.00    2.74883   2.64198   -1.000
 5453.00    2.68781   2.58621   -1.000
 5454.00    2.60061   2.52684   -1.000
 5455.00    2.52653   2.49575  104.661
 5456.00    2.56636   2.51622   -1.000
 5457.00    2.67623   2.57971   -1.000
 5458.00    2.77360   2.64898   -1.000
 5459.00    2.81502   2.68367   -1.000
 5460.00    2.78008   2.67478   -1.000
 5461.00    2.70615   2.64006   -1.000
 5462.00    2.63896   2.60695   -1.000
 5463.00    2.63345   2.59559   -1.000
 5464.00    2.69026   2.60988   -1.000
 5465.00    2.75790   2.63898   -1.000
 5466.00    2.76434   2.66727   -1.000
 5467.00    2.76901   2.68506   -1.000
 5468.00    2.78991   2.68899   -1.000
 5469.00    2.76315   2.68029   -1.000
 5470.00    2.71775   2.66326   -1.000
 5471.00    2.69709   2.64245   -1.000
 5472.00    2.68884   2.61852   -1.000
 5473.00    2.66831   2.58759   -1.000
 5474.00    2.64193   2.54682   -1.000
 5475.00    2.58958   2.50441   -1.000
 5476.00    2.51891   2.48016   -1.000
 5477.00    2.50811   2.48872  109.398
 5478.00    2.59263   2.52445   -1.000
 5479.00    2.67360   2.55895   -1.000
 5480.00    2.67442   2.57254   -1.000
 5481.00    2.61633   2.57496   -1.000
 5482.00    2.58115   2.59014  105.252
 5483.00    2.62278   2.62923  106.557
 5484.00    2.70578   2.67412   -1.000
 5485.00    2.77487   2.69826   -1.000
 5486.00    2.77280   2.69257   -1.000
 5487.00    2.71539   2.67025   -1.000
 5488.00    2.69732   2.65483   -1.000
 5489.00    2.71458   2.65784   -1.000
 5490.00    2.74222   2.67488   -1.000
 5491.00    2.77391   2.69151   -1.000
 5492.00    2.79019   2.69921   -1.000
 5493.00    2.77116   2.69858   -1.000
 5494.00    2.75643   2.69366   -1.000
 5495.00    2.76427   2.68753   -1.000
 5496.00    2.76078   2.68227   -1.000
 5497.00    2.74997   2.68169   -1.000
 5498.00    2.77475   2.68732   -1.000
 5499.00    2.80637   2.69085   -1.000
 5500.00    2.80925   2.68122   -1.000
 5501.00    2.75987   2.65955   -1.000
 5502.00    2.70995   2.63719   -1.000
 5503.00    2.69221   2.62319   -1.000
 5504.00    2.70649   2.61457   -1.000
 5505.00    2.67724   2.60583   -1.000
 5506.00    2.65407   2.60338   -1.000
 5507.00    2.67789   2.61603   -1.000
 5508.00    2.73132   2.63909   -1.000
 5509.00    2.75651   2.65360   -1.000
 5510.00    2.74732   2.64186   -1.000
 5511.00    2.70591   2.60783   -1.000
 5512.00    2.64322   2.57195   -1.000
 5513.00    2.61377   2.55401   -1.000
 5514.00    2.63814   2.56300   -1.000
 5515.00    2.68853   2.59502   -1.000
 5516.00    2.74653   2.64207   -1.000
 5517.00    2.79863   2.69476   -1.000
 5518.00    2.84452   2.74319   -1.000
 5519.00    2.88404   2.77769   -1.000
 5520.00    2.88985   2.79414   -1.000
 5521.00    2.87931   2.79666   -1.000
 5522.00    2.88310   2.79283   -1.000
 5523.00    2.88569   2.78250   -1.000
 5524.00    2.86768   2.75872   -1.000
 5525.00    2.82681   2.71584   -1.000
 5526.00    2.76062   2.65958   -1.000
 5527.00    2.67500   2.61115   -1.000
 5528.00    2.61667   2.59376  106.028
 5529.00    2.64518   2.61774  106.596
 5530.00    2.74274   2.66569   -1.000
 5531.00    2.80454   2.70909   -1.000
 5532.00    2.81821   2.72969   -1.000
 5533.00    2.80725   2.72932   -1.000
 5534.00    2.79750   2.72119   -1.000
 5535.00    2.78511   2.71624   -1.000
 5536.00    2.78468   2.72031   -1.000
 5537.00    2.80876   2.73464   -1.000
 5538.00    2.83792   2.75698   -1.000
 5539.00    2.87474   2.78168   -1.000
 5540.00    2.92115   2.80108   -1.000
 5541.00    2.95342   2.80732   -1.000
 5542.00    2.91785   2.79947   -1.000
 5543.00    2.84578   2.78510   -1.000
 5544.00    2.83489   2.77538   -1.000
 5545.00    2.86446   2.77674   -1.000
 5546.00    2.87552   2.79047   -1.000
 5547.00    2.89461   2.81430   -1.000
 5548.00    2.93849   2.84250   -1.000
 5549.00    2.97297   2.86522   -1.000
 5550.00    2.98957   2.87346   -1.000
 5551.00    2.99874   2.86482   -1.000
 5552.00    2.97361   2.84404   -1.000
 5553.00    2.92942   2.82024   -1.000
 5554.00    2.89808   2.80284   -1.000
 5555.00    2.90806   2.79579   -1.000
 5556.00    2.92863   2.79626   -1.000
 5557.00    2.93124   2.79891   -1.000
 5558.00    2.93768   2.79984   -1.000
 5559.00    2.93847   2.79752   -1.000
 5560.00    2.92532   2.78964   -1.000
 5561.00    2.90599   2.77513   -1.000
 5562.00    2.87837   2.75749   -1.000
 5563.00    2.84548   2.74242   -1.000
 5564.00    2.82795   2.73113   -1.000
 5565.00    2.82671   2.72158   -1.000
 5566.00    2.81912   2.71240   -1.000
 5567.00    2.81277   2.70610   -1.000
 5568.00    2.82169   2.70543   -1.000
 5569.00    2.84813   2.70947   -1.000
 5570.00    2.91538   2.71459   -1.000
 5571.00    3.09198   2.71722   -1.000
 5572.00    3.33602   2.71847   -1.000
 5573.00    3.52866   2.72456   -1.000
 5574.00    3.48767   2.74010   -1.000
 5575.00    3.25173   2.76299   -1.000
 5576.00    3.16828   2.78427   -1.000
 5577.00    3.06391   2.79978   -1.000
 5578.00    2.97549   2.81220   -1.000
 5579.00    2.95337   2.82090   -1.000
 5580.00    2.95232   2.82183   -1.000
 5581.00    2.94898   2.81395   -1.000
 5582.00    2.92617   2.79679   -1.000
 5583.00    2.90057   2.76835   -1.000
 5584.00    2.88069   2.72374   -1.000
 5585.00    2.81570   2.66075   -1.000
 5586.00    2.71305   2.59160   -1.000
 5587.00    2.63232   2.53833   -1.000
 5588.00    2.60940   2.51932   -1.000
 5589.00    2.64276   2.53714   -1.000
 5590.00    2.70454   2.57617   -1.000
 5591.00    2.74944   2.61857   -1.000
 5592.00    2.75459   2.65267   -1.000
 5593.00    2.75457   2.68113   -1.000
 5594.00    2.78733   2.70986   -1.000
 5595.00    2.84074   2.73719   -1.000
 5596.00    2.88059   2.75102   -1.000
 5597.00    2.86937   2.73929   -1.000
 5598.00    2.80833   2.70509   -1.000
 5599.00    2.76127   2.66342   -1.000
 5600.00    2.73685   2.63120   -1.000
 5601.00    2.70784   2.62038   -1.000
 5602.00    2.69556   2.63874   -1.000
 5603.00    2.75018   2.68810   -1.000
 5604.00    2.86006   2.75866   -1.000
 5605.00    2.95155   2.82891   -1.000
 5606.00    3.00238   2.88016   -1.000
 5607.00    3.02623   2.90764   -1.000
 5608.00    3.03085   2.91792   -1.000
 5609.00    3.03605   2.92152   -1.000
 5610.00    3.05604   2.92236   -1.000
 5611.00    3.06586   2.91304   -1.000
 5612.00    3.04085   2.87811   -1.000
 5613.00    2.97164   2.81148   -1.000
 5614.00    2.84772   2.72906   -1.000
 5615.00    2.74451   2.66483   -1.000
 5616.00    2.74417   2.64693   -1.000
 5617.00    2.81332   2.67197   -1.000
 5618.00    2.85570   2.71646   -1.000
 5619.00    2.88285   2.75485   -1.000
 5620.00    2.89664   2.77911   -1.000
 5621.00    2.91853   2.78664   -1.000
 5622.00    2.91089   2.77201   -1.000
 5623.00    2.85813   2.73831   -1.000
 5624.00    2.78060   2.70622   -1.000
 5625.00    2.75507   2.69766   -1.000
 5626.00    2.81007   2.72258   -1.000
 5627.00    2.88382   2.76869   -1.000
 5628.00    2.95012   2.81710   -1.000
 5629.00    2.99107   2.85626   -1.000
 5630.00    3.01892   2.87998   -1.000
 5631.00    3.04208   2.88605   -1.000
 5632.00    3.04435   2.87675   -1.000
 5633.00    3.00095   2.85625   -1.000
 5634.00    2.95347   2.82956   -1.000
 5635.00    2.93922   2.80229   -1.000
 5636.00    2.90680   2.78088   -1.000
 5637.00    2.88058   2.76925   -1.000
 5638.00    2.87360   2.76604   -1.000
 5639.00    2.87706   2.76503   -1.000
 5640.00    2.87200   2.76183   -1.000
 5641.00    2.86477   2.75816   -1.000
 5642.00    2.86941   2.76010   -1.000
 5643.00    2.88834   2.77180   -1.000
 5644.00    2.91184   2.78895   -1.000
 5645.00    2.93796   2.80539   -1.000
 5646.00    2.94690   2.81723   -1.000
 5647.00    2.95217   2.82271   -1.000
 5648.00    2.94888   2.82382   -1.000
 5649.00    2.93438   2.82633   -1.000
 5650.00    2.93966   2.83428   -1.000
 5651.00    2.97844   2.84499   -1.000
 5652.00    3.01417   2.85016   -1.000
 5653.00    2.99763   2.84176   -1.000
 5654.00    2.94883   2.81996   -1.000
 5655.00    2.91635   2.78863   -1.000
 5656.00    2.88544   2.74873   -1.000
 5657.00    2.81025   2.70631   -1.000
 5658.00    2.74260   2.67544   -1.000
 5659.00    2.75481   2.66850   -1.000
 5660.00    2.81203   2.68615   -1.000
 5661.00    2.84202   2.71377   -1.000
 5662.00    2.85196   2.74013   -1.000
 5663.00    2.88666   2.76855   -1.000
 5664.00    2.94115   2.79783   -1.000
 5665.00    2.95359   2.81744   -1.000
 5666.00    2.93815   2.82207   -1.000
 5667.00    2.92174   2.81611   -1.000
 5668.00    2.90147   2.81148   -1.000
 5669.00    2.90858   2.81779   -1.000
 5670.00    2.94580   2.83673   -1.000
 5671.00    2.98281   2.86543   -1.000
 5672.00    3.03519   2.89751   -1.000
 5673.00    3.07239   2.92404   -1.000
 5674.00    3.08114   2.93912   -1.000
 5675.00    3.08632   2.94468   -1.000
 5676.00    3.08961   2.94421   -1.000
 5677.00    3.10054   2.93929   -1.000
 5678.00    3.10218   2.92706   -1.000
 5679.00    3.05794   2.90539   -1.000
 5680.00    3.01488   2.87698   -1.000
 5681.00    2.99049   2.84781   -1.000
 5682.00    2.95521   2.82509   -1.000
 5683.00    2.93175   2.81461   -1.000
 5684.00    2.96067   2.81567   -1.000
 5685.00    2.97722   2.81774   -1.000
 5686.00    2.93382   2.81419   -1.000
 5687.00    2.88356   2.81124   -1.000
 5688.00    2.88590   2.81944   -1.000
 5689.00    2.93886   2.84409   -1.000
 5690.00    3.00793   2.87969   -1.000
 5691.00    3.06529   2.91437   -1.000
 5692.00    3.08928   2.93872   -1.000
 5693.00    3.08549   2.94890   -1.000
 5694.00    3.07534   2.94652   -1.000
 5695.00    3.05997   2.93498   -1.000
 5696.00    3.02965   2.91620   -1.000
 5697.00    3.00365   2.89037   -1.000
 5698.00    2.97076   2.85950   -1.000
 5699.00    2.91287   2.82897   -1.000
 5700.00    2.86867   2.80571   -1.000
 5701.00    2.84500   2.79508   -1.000
 5702.00    2.84036   2.79861   -1.000
 5703.00    2.88912   2.80967   -1.000
 5704.00    2.94053   2.81196   -1.000
 5705.00    2.92573   2.79547   -1.000
 5706.00    2.86584   2.76165   -1.000
 5707.00    2.79838   2.72197   -1.000
 5708.00    2.74662   2.69106   -1.000
 5709.00    2.73759   2.67715   -1.000
 5710.00    2.75758   2.68533   -1.000
 5711.00    2.79094   2.71725   -1.000
 5712.00    2.85886   2.76696   -1.000
 5713.00    2.94803   2.82384   -1.000
 5714.00    3.00967   2.87527   -1.000
 5715.00    3.02588   2.91287   -1.000
 5716.00    3.05383   2.93873   -1.000
 5717.00    3.08816   2.95773   -1.000
 5718.00    3.11241   2.97489   -1.000
 5719.00    3.13890   2.99401   -1.000
 5720.00    3.14506   3.01541   -1.000
 5721.00    3.15746   3.03549   -1.000
 5722.00    3.18419   3.04884   -1.000
 5723.00    3.19842   3.04974   -1.000
 5724.00    3.18989   3.03575   -1.000
 5725.00    3.15356   3.01052   -1.000
 5726.00    3.10454   2.98552   -1.000
 5727.00    3.07503   2.97161   -1.000
 5728.00    3.08792   2.97112   -1.000
 5729.00    3.11759   2.97573   -1.000
 5730.00    3.11849   2.97668   -1.000
 5731.00    3.09835   2.97799   -1.000
 5732.00    3.10164   2.98749   -1.000
 5733.00    3.13349   3.00658   -1.000
 5734.00    3.16333   3.02581   -1.000
 5735.00    3.17532   3.03317   -1.000
 5736.00    3.15626   3.02931   -1.000
 5737.00    3.12543   3.02140   -1.000
 5738.00    3.10354   3.01593   -1.000
 5739.00    3.09557   3.01423   -1.000
 5740.00    3.09791   3.01291   -1.000
 5741.00    3.09768   3.01268   -1.000
 5742.00    3.09855   3.01663   -1.000
 5743.00    3.10057   3.02710   -1.000
 5744.00    3.13241   3.04006   -1.000
 5745.00    3.16970   3.04498   -1.000
 5746.00    3.16196   3.03780   -1.000
 5747.00    3.12654   3.02417   -1.000
 5748.00    3.10801   3.01543   -1.000
 5749.00    3.14154   3.01432   -1.000
 5750.00    3.17474   3.00785   -1.000
 5751.00    3.13380   2.98624   -1.000
 5752.00    3.06006   2.95408   -1.000
 5753.00    3.00478   2.93316   -1.000
 5754.00    2.99620   2.94272   -1.000
 5755.00    3.06490   2.98007   -1.000
 5756.00    3.16081   3.02557   -1.000
 5757.00    3.20271   3.05244   -1.000
 5758.00    3.18845   3.04839   -1.000
 5759.00    3.15205   3.01644   -1.000
 5760.00    3.08901   2.97271   -1.000
 5761.00    3.02638   2.93938   -1.000
 5762.00    3.00385   2.93525   -1.000
 5763.00    3.04275   2.96419   -1.000
 5764.00    3.12306   3.01417   -1.000
 5765.00    3.19776   3.06343   -1.000
 5766.00    3.21402   3.09504   -1.000
 5767.00    3.19776   3.10792   -1.000
 5768.00    3.18970   3.10674   -1.000
 5769.00    3.17621   3.09719   -1.000
 5770.00    3.16140   3.08337   -1.000
 5771.00    3.12467   3.06844   -1.000
 5772.00    3.07809   3.05443  104.807
 5773.00    3.03734   3.04446  104.463
 5774.00    2.98820   3.04149   -1.000
 5775.00    2.91598   3.04410   -1.000
 5776.00    2.86975   3.04576   -1.000
 5777.00    2.89887   3.03416   -1.000
 5778.00    2.95950   2.99993   -1.000
 5779.00    2.97049   2.94540   -1.000
 5780.00    2.94270   2.88391   -1.000
 5781.00    2.90400   2.83422   -1.000
 5782.00    2.88061   2.80594   -1.000
 5783.00    2.87398   2.79987   -1.000
 5784.00    2.86659   2.81038   -1.000
 5785.00    2.88504   2.83570   -1.000
 5786.00    2.95221   2.87610   -1.000
 5787.00    3.04558   2.92228   -1.000
 5788.00    3.11863   2.95950   -1.000
 5789.00    3.13408   2.98122   -1.000
 5790.00    3.09487   2.99223   -1.000
 5791.00    3.05583   3.00587   -1.000
 5792.00    3.06828   3.03035   -1.000
 5793.00    3.10911   3.06216   -1.000
 5794.00    3.16735   3.08691   -1.000
 5795.00    3.22250   3.09351   -1.000
 5796.00    3.21081   3.08507   -1.000
 5797.00    3.17123   3.07690   -1.000
 5798.00    3.17186   3.08626   -1.000
 5799.00    3.22830   3.11447   -1.000
 5800.00    3.30206   3.14764   -1.000
 5801.00    3.32612   3.16555   -1.000
 5802.00    3.29634   3.15892   -1.000
 5803.00    3.24288   3.13444   -1.000
 5804.00    3.18415   3.10643   -1.000
 5805.00    3.14979   3.08937   -1.000
 5806.00    3.15046   3.08727   -1.000
 5807.00    3.16831   3.09657   -1.000
 5808.00    3.19540   3.11068   -1.000
 5809.00    3.23241   3.12439   -1.000
 5810.00    3.26824   3.13386   -1.000
 5811.00    3.29000   3.13518   -1.000
 5812.00    3.29190   3.12510   -1.000
 5813.00    3.24926   3.10453   -1.000
 5814.00    3.19838   3.08005   -1.000
 5815.00    3.18058   3.06420   -1.000
 5816.00    3.18295   3.06789   -1.000
 5817.00    3.21876   3.09328   -1.000
 5818.00    3.27259   3.12783   -1.000
 5819.00    3.30762   3.15606   -1.000
 5820.00    3.32915   3.16818   -1.000
 5821.00    3.32586   3.16685   -1.000
 5822.00    3.30713   3.16080   -1.000
 5823.00    3.31536   3.15725   -1.000
 5824.00    3.32557   3.15956   -1.000
 5825.00    3.31465   3.16530   -1.000
 5826.00    3.30700   3.17239   -1.000
 5827.00    3.31154   3.17934   -1.000
 5828.00    3.32736   3.18544   -1.000
 5829.00    3.33570   3.18965   -1.000
 5830.00    3.33145   3.18943   -1.000
 5831.00    3.32681   3.18351   -1.000
 5832.00    3.31258   3.17273   -1.000
 5833.00    3.28702   3.16011   -1.000
 5834.00    3.27245   3.15010   -1.000
 5835.00    3.27630   3.14500   -1.000
 5836.00    3.28461   3.14529   -1.000
 5837.00    3.28258   3.14949   -1.000
 5838.00    3.26240   3.15822   -1.000
 5839.00    3.25708   3.17333   -1.000
 5840.00    3.28255   3.19166   -1.000
 5841.00    3.31973   3.20610   -1.000
 5842.00    3.34236   3.20958   -1.000
 5843.00    3.34450   3.19910   -1.000
 5844.00    3.33049   3.17742   -1.000
 5845.00    3.30074   3.15064   -1.000
 5846.00    3.25726   3.12599   -1.000
 5847.00    3.22988   3.10907   -1.000
 5848.00    3.23808   3.09991   -1.000
 5849.00    3.26402   3.09277   -1.000
 5850.00    3.26697   3.08030   -1.000
 5851.00    3.22632   3.06002   -1.000
 5852.00    3.17298   3.03733   -1.000
 5853.00    3.13894   3.01745   -1.000
 5854.00    3.13943   2.99879   -1.000
 5855.00    3.14035   2.97599   -1.000
 5856.00    3.10744   2.94908   -1.000
 5857.00    3.06992   2.93106   -1.000
 5858.00    3.07259   2.93594   -1.000
 5859.00    3.13011   2.96357   -1.000
 5860.00    3.18682   3.00074   -1.000
 5861.00    3.19505   3.02936   -1.000
 5862.00    3.19177   3.04481   -1.000
 5863.00    3.18915   3.04915   -1.000
 5864.00    3.17824   3.04674   -1.000
 5865.00    3.16869   3.04202   -1.000
 5866.00    3.16842   3.04113   -1.000
 5867.00    3.18924   3.05105   -1.000
 5868.00    3.23014   3.07350   -1.000
 5869.00    3.26921   3.09839   -1.000
 5870.00    3.28373   3.11509   -1.000
 5871.00    3.29297   3.12008   -1.000
 5872.00    3.29473   3.11690   -1.000
 5873.00    3.29247   3.11176   -1.000
 5874.00    3.29892   3.10624   -1.000
 5875.00    3.28261   3.09744   -1.000
 5876.00    3.25221   3.08114   -1.000
 5877.00    3.21812   3.05736   -1.000
 5878.00    3.17772   3.03200   -1.000
 5879.00    3.14339   3.01190   -1.000
 5880.00    3.10606   3.00164   -1.000
 5881.00    3.05932   2.99871   -1.000
 5882.00    2.94547   2.99718   -1.000
 5883.00    2.72192   2.98892   -1.000
 5884.00    2.45131   2.96530   -1.000
 5885.00    2.22651   2.91228   -1.000
 5886.00    2.13535   2.80807   -1.000
 5887.00    2.16458   2.64590   -1.000
 5888.00    2.13276   2.45705   -1.000
 5889.00    1.98459   2.30181   -1.000
 5890.00    1.86449   2.24080   -1.000
 5891.00    1.86016   2.27316   -1.000
 5892.00    1.97967   2.34929   -1.000
 5893.00    2.18112   2.39836   -1.000
 5894.00    2.32633   2.40136   -1.000
 5895.00    2.35989   2.39469   -1.000
 5896.00    2.41830   2.42638  109.605
 5897.00    2.59376   2.52104   -1.000
 5898.00    2.81939   2.64879   -1.000
 5899.00    2.98380   2.77226   -1.000
 5900.00    3.08260   2.86890   -1.000
 5901.00    3.14376   2.93513   -1.000
 5902.00    3.16433   2.97455   -1.000
 5903.00    3.15842   2.99489   -1.000
 5904.00    3.15180   3.00394   -1.000
 5905.00    3.14485   3.00964   -1.000
 5906.00    3.15356   3.01773   -1.000
 5907.00    3.17830   3.03062   -1.000
 5908.00    3.19402   3.04567   -1.000
 5909.00    3.20671   3.05756   -1.000
 5910.00    3.22242   3.06122   -1.000
 5911.00    3.22582   3.05125   -1.000
 5912.00    3.19338   3.02639   -1.000
 5913.00    3.14002   2.99430   -1.000
 5914.00    3.10970   2.96832   -1.000
 5915.00    3.09988   2.96074   -1.000
 5916.00    3.10948   2.97457   -1.000
 5917.00    3.15256   3.00071   -1.000
 5918.00    3.20502   3.02895   -1.000
 5919.00    3.23028   3.04894   -1.000
 5920.00    3.21819   3.05808   -1.000
 5921.00    3.19506   3.05963   -1.000
 5922.00    3.18408   3.06114   -1.000
 5923.00    3.20019   3.06803   -1.000
 5924.00    3.24121   3.07993   -1.000
 5925.00    3.27176   3.08944   -1.000
 5926.00    3.26861   3.08827   -1.000
 5927.00    3.24656   3.07510   -1.000
 5928.00    3.20333   3.05607   -1.000
 5929.00    3.16660   3.04393   -1.000
 5930.00    3.18173   3.04410   -1.000
 5931.00    3.22583   3.05354   -1.000
 5932.00    3.24796   3.06119   -1.000
 5933.00    3.23922   3.06193   -1.000
 5934.00    3.20218   3.06239   -1.000
 5935.00    3.18755   3.06985   -1.000
 5936.00    3.21230   3.08564   -1.000
 5937.00    3.24379   3.09998   -1.000
 5938.00    3.27500   3.10246   -1.000
 5939.00    3.26758   3.09202   -1.000
 5940.00    3.23079   3.07444   -1.000
 5941.00    3.20531   3.06136   -1.000
 5942.00    3.19571   3.06135   -1.000
 5943.00    3.22160   3.07530   -1.000
 5944.00    3.27165   3.09307   -1.000
 5945.00    3.28661   3.10299   -1.000
 5946.00    3.27385   3.09891   -1.000
 5947.00    3.25215   3.08469   -1.000
 5948.00    3.22859   3.07071   -1.000
 5949.00    3.21344   3.06369   -1.000
 5950.00    3.21232   3.06368   -1.000
 5951.00    3.21656   3.06329   -1.000
 5952.00    3.20573   3.06118   -1.000
 5953.00    3.18198   3.05945   -1.000
 5954.00    3.17917   3.05867   -1.000
 5955.00    3.20895   3.05760   -1.000
 5956.00    3.21930   3.05626   -1.000
 5957.00    3.20050   3.06103   -1.000
 5958.00    3.21741   3.07855   -1.000
 5959.00    3.26056   3.10598   -1.000
 5960.00    3.28984   3.13376   -1.000
 5961.00    3.31455   3.15260   -1.000
 5962.00    3.32368   3.15747   -1.000
 5963.00    3.31658   3.15088   -1.000
 5964.00    3.28175   3.13970   -1.000
 5965.00    3.24325   3.13307   -1.000
 5966.00    3.25587   3.13624   -1.000
 5967.00    3.30348   3.14963   -1.000
 5968.00    3.33205   3.16718   -1.000
 5969.00    3.33644   3.18315   -1.000
 5970.00    3.34053   3.19385   -1.000
 5971.00    3.34279   3.19666   -1.000
 5972.00    3.33688   3.18907   -1.000
 5973.00    3.32335   3.17009   -1.000
 5974.00    3.29284   3.14186   -1.000
 5975.00    3.24714   3.11138   -1.000
 5976.00    3.21632   3.08824   -1.000
 5977.00    3.21004   3.08162   -1.000
 5978.00    3.22572   3.09067   -1.000
 5979.00    3.25998   3.10759   -1.000
 5980.00    3.27943   3.11720   -1.000
 5981.00    3.28339   3.10983   -1.000
 5982.00    3.27111   3.08579   -1.000
 5983.00    3.20703   3.06019   -1.000
 5984.00    3.15063   3.04950   -1.000
 5985.00    3.15892   3.05989   -1.000
 5986.00    3.20278   3.08562   -1.000
 5987.00    3.25089   3.11284   -1.000
 5988.00    3.28239   3.13450   -1.000
 5989.00    3.30383   3.14923   -1.000
 5990.00    3.30702   3.16021   -1.000
 5991.00    3.28442   3.17252   -1.000
 5992.00    3.28769   3.18803   -1.000
 5993.00    3.32830   3.20134   -1.000
 5994.00    3.34565   3.20262   -1.000
 5995.00    3.32233   3.18784   -1.000
 5996.00    3.28235   3.16290   -1.000
 5997.00    3.23875   3.14212   -1.000
 5998.00    3.22607   3.13325   -1.000
 5999.00    3.24029   3.13620   -1.000
 6000.00    3.27497   3.14174   -1.000
 6001.00    3.28440   3.14313   -1.000
 6002.00    3.24579   3.14090   -1.000
 6003.00    3.20889   3.13597   -1.000
 6004.00    3.19652   3.12763   -1.000
 6005.00    3.18413   3.11198   -1.000
 6006.00    3.15288   3.09090   -1.000
 6007.00    3.12987   3.07822   -1.000
 6008.00    3.14561   3.08374   -1.000
 6009.00    3.20775   3.10416   -1.000
 6010.00    3.27221   3.12419   -1.000
 6011.00    3.29529   3.12868   -1.000
 6012.00    3.27376   3.12100   -1.000
 6013.00    3.24447   3.11104   -1.000
 6014.00    3.23491   3.10605   -1.000
 6015.00    3.23418   3.10551   -1.000
 6016.00    3.22850   3.10456   -1.000
 6017.00    3.21340   3.10120   -1.000
 6018.00    3.20462   3.09576   -1.000
 6019.00    3.20110   3.08932   -1.000
 6020.00    3.19328   3.08602   -1.000
 6021.00    3.19939   3.09241   -1.000
 6022.00    3.22556   3.10831   -1.000
 6023.00    3.24339   3.13095   -1.000
 6024.00    3.26434   3.15586   -1.000
 6025.00    3.30330   3.17996   -1.000
 6026.00    3.34556   3.20234   -1.000
 6027.00    3.36848   3.22288   -1.000
 6028.00    3.37810   3.24132   -1.000
 6029.00    3.38290   3.25697   -1.000
 6030.00    3.37322   3.26963   -1.000
 6031.00    3.36751   3.28234   -1.000
 6032.00    3.36969   3.29802   -1.000
 6033.00    3.36848   3.31542   -1.000
 6034.00    3.37548   3.32987   -1.000
 6035.00    3.39001   3.33526   -1.000
 6036.00    3.40119   3.32848   -1.000
 6037.00    3.39948   3.31364   -1.000
 6038.00    3.38413   3.29623   -1.000
 6039.00    3.36752   3.28338   -1.000
 6040.00    3.35289   3.27861   -1.000
 6041.00    3.34541   3.28363   -1.000
 6042.00    3.36379   3.29653   -1.000
 6043.00    3.38560   3.31251   -1.000
 6044.00    3.40845   3.32869   -1.000
 6045.00    3.43591   3.34007   -1.000
 6046.00    3.43904   3.34762   -1.000
 6047.00    3.42982   3.35111   -1.000
 6048.00    3.43729   3.35215   -1.000
 6049.00    3.45557   3.34982   -1.000
 6050.00    3.46240   3.34225   -1.000
 6051.00    3.45446   3.32746   -1.000
 6052.00    3.42907   3.30586   -1.000
 6053.00    3.39628   3.28140   -1.000
 6054.00    3.37551   3.25958   -1.000
 6055.00    3.36185   3.24628   -1.000
 6056.00    3.35115   3.24451   -1.000
 6057.00    3.34982   3.25448   -1.000
 6058.00    3.38080   3.26928   -1.000
 6059.00    3.40900   3.27988   -1.000
 6060.00    3.41517   3.27840   -1.000
 6061.00    3.44493   3.26170   -1.000
 6062.00    3.14206   3.23471   -1.000
 6063.00    2.19191   3.20810   -1.000
 6064.00    1.70098   3.19676   -1.000
 6065.00    2.48510   3.20950   -1.000
 6066.00    3.16283   3.24506   -1.000
 6067.00    3.29908   3.28972  102.113
 6068.00    2.88385   3.32960   -1.000
 6069.00    1.71677   3.35678   -1.000
 6070.00    2.34420   3.37292   -1.000
 6071.00    3.38171   3.38080  105.098
 6072.00    3.50786   3.38164   -1.000
 6073.00    3.50038   3.37507   -1.000
 6074.00    3.49140   3.36033   -1.000
 6075.00    3.46624   3.33775   -1.000
 6076.00    3.43556   3.30925   -1.000
 6077.00    3.40194   3.28052   -1.000
 6078.00    3.36646   3.25555   -1.000
 6079.00    3.33935   3.23729   -1.000
 6080.00    3.33857   3.22440   -1.000
 6081.00    3.33610   3.21691   -1.000
 6082.00    3.31368   3.21517   -1.000
 6083.00    3.31888   3.22017   -1.000
 6084.00    3.33095   3.23001   -1.000
 6085.00    3.33489   3.24101   -1.000
 6086.00    3.32800   3.24947   -1.000
 6087.00    3.33303   3.25034   -1.000
 6088.00    3.33666   3.24168   -1.000
 6089.00    3.31065   3.22780   -1.000
 6090.00    3.28896   3.21670   -1.000
 6091.00    3.27715   3.21729   -1.000
 6092.00    3.28671   3.23074   -1.000
 6093.00    3.32949   3.25265   -1.000
 6094.00    3.36920   3.27502   -1.000
 6095.00    3.39652   3.29228   -1.000
 6096.00    3.40458   3.30288   -1.000
 6097.00    3.40418   3.30592   -1.000
 6098.00    3.40011   3.29692   -1.000
 6099.00    3.38358   3.26879   -1.000
 6100.00    3.34543   3.22047   -1.000
 6101.00    3.27363   3.17053   -1.000
 6102.00    3.19356   3.14049   -1.000
 6103.00    3.17281   3.14846  107.737
 6104.00    3.23501   3.18484   -1.000
 6105.00    3.31500   3.23060   -1.000
 6106.00    3.36035   3.26826   -1.000
 6107.00    3.36443   3.29383   -1.000
 6108.00    3.35822   3.30954   -1.000
 6109.00    3.36359   3.31841   -1.000
 6110.00    3.37056   3.32363   -1.000
 6111.00    3.35614   3.32948   -1.000
 6112.00    3.37921   3.33851   -1.000
 6113.00    3.43327   3.34634   -1.000
 6114.00    3.44062   3.34800   -1.000
 6115.00    3.40774   3.34035   -1.000
 6116.00    3.38183   3.32413   -1.000
 6117.00    3.38206   3.29851   -1.000
 6118.00    3.36052   3.26046   -1.000
 6119.00    3.30135   3.21152   -1.000
 6120.00    3.24212   3.16433   -1.000
 6121.00    3.19724   3.13763   -1.000
 6122.00    3.19431   3.14387   -1.000
 6123.00    3.24783   3.17593   -1.000
 6124.00    3.31234   3.21533   -1.000
 6125.00    3.34006   3.24235   -1.000
 6126.00    3.33383   3.25582   -1.000
 6127.00    3.31756   3.26542   -1.000
 6128.00    3.31831   3.28131   -1.000
 6129.00    3.34840   3.30628   -1.000
 6130.00    3.39513   3.33033   -1.000
 6131.00    3.42240   3.33834   -1.000
 6132.00    3.40866   3.31478   -1.000
 6133.00    3.35322   3.25579   -1.000
 6134.00    3.26763   3.17136   -1.000
 6135.00    3.16716   3.09309   -1.000
 6136.00    3.06265   3.05129  110.326
 6137.00    3.03786   3.06504   -1.000
 6138.00    3.13176   3.11762  110.438
 6139.00    3.26648   3.18003   -1.000
 6140.00    3.33820   3.22965   -1.000
 6141.00    3.33091   3.26433   -1.000
 6142.00    3.33144   3.29443   -1.000
 6143.00    3.36302   3.32181   -1.000
 6144.00    3.39508   3.34024   -1.000
 6145.00    3.40426   3.34279   -1.000
 6146.00    3.38185   3.32860   -1.000
 6147.00    3.34083   3.30486   -1.000
 6148.00    3.30348   3.28063   -1.000
 6149.00    3.26903   3.26580  109.206
 6150.00    3.26237   3.26219  109.880
 6151.00    3.28806   3.26605   -1.000
 6152.00    3.33175   3.26749   -1.000
 6153.00    3.31782   3.26109   -1.000
 6154.00    3.27238   3.24761   -1.000
 6155.00    3.23894   3.23029  114.050
 6156.00    3.22312   3.20850  117.215
 6157.00    3.21076   3.17207   -1.000
 6158.00    3.18213   3.11180   -1.000
 6159.00    3.11282   3.02793   -1.000
 6160.00    3.00130   2.93862   -1.000
 6161.00    2.86547   2.87437  116.045
 6162.00    2.80213   2.85698   -1.000
 6163.00    2.84474   2.88968   -1.000
 6164.00    2.95167   2.94677  116.647
 6165.00    3.02835   3.00118   -1.000
 6166.00    3.05076   3.02859   -1.000
 6167.00    3.04193   3.02954  115.579
 6168.00    3.01465   3.01740  113.766
 6169.00    2.98930   3.01621  113.480
 6170.00    2.99201   3.03712   -1.000
 6171.00    3.03853   3.07517   -1.000
 6172.00    3.11221   3.11464  113.192
 6173.00    3.14712   3.14275  112.912
 6174.00    3.14466   3.15921  112.409
 6175.00    3.15428   3.16900  111.956
 6176.00    3.15624   3.17851  111.594
 6177.00    3.17678   3.19095  111.113
 6178.00    3.20572   3.20619  110.769
 6179.00    3.22298   3.22233  110.881
 6180.00    3.24121   3.23691  111.251
 6181.00    3.24241   3.24684  112.027
 6182.00    3.24361   3.24800  113.199
 6183.00    3.24368   3.23631  114.397
 6184.00    3.23432   3.21316   -1.000
 6185.00    3.21135   3.18180   -1.000
 6186.00    3.16285   3.14761  117.759
 6187.00    3.11485   3.11279  118.726
 6188.00    3.07219   3.07852  117.844
 6189.00    3.04431   3.04868  115.200
 6190.00    3.01184   3.03297  113.048
 6191.00    2.99530   3.04200   -1.000
 6192.00    3.03364   3.07773   -1.000
 6193.00    3.11399   3.12679  112.426
 6194.00    3.18377   3.17263  113.641
 6195.00    3.21577   3.19990  114.674
 6196.00    3.20492   3.20614  114.782
 6197.00    3.15372   3.19510   -1.000
 6198.00    3.07736   3.18126   -1.000
 6199.00    3.02875   3.17697   -1.000
 6200.00    3.04614   3.19039   -1.000
 6201.00    3.11649   3.21612   -1.000
 6202.00    3.20344   3.24360   -1.000
 6203.00    3.26134   3.26576  111.980
 6204.00    3.27566   3.27995  112.080
 6205.00    3.27760   3.28840  112.448
 6206.00    3.28566   3.29150  113.390
 6207.00    3.28740   3.28799  114.325
 6208.00    3.27419   3.27537  115.391
 6209.00    3.24720   3.25107  117.032
 6210.00    3.21629   3.21391  118.365
 6211.00    3.18104   3.16590  118.837
 6212.00    3.11906   3.11350  117.640
 6213.00    3.06216   3.06897  116.809
 6214.00    3.03308   3.04251  117.440
 6215.00    3.02082   3.03686  117.326
 6216.00    3.02984   3.04389  116.491
 6217.00    3.06888   3.05157  116.878
 6218.00    3.08993   3.05542   -1.000
 6219.00    3.07014   3.05749  122.851
 6220.00    3.06593   3.06493  116.980
 6221.00    3.08614   3.07843  115.629
 6222.00    3.11135   3.09437  115.799
 6223.00    3.13088   3.10831  116.319
 6224.00    3.14004   3.11762  117.740
 6225.00    3.14801   3.11917   -1.000
 6226.00    3.15279   3.10794   -1.000
 6227.00    3.15053   3.07940   -1.000
 6228.00    3.11174   3.03768   -1.000
 6229.00    3.03745   2.99671   -1.000
 6230.00    2.96444   2.97603  115.440
 6231.00    2.93610   2.98860   -1.000
 6232.00    2.98673   3.03166   -1.000
 6233.00    3.07572   3.08865  116.322
 6234.00    3.17056   3.13644   -1.000
 6235.00    3.22837   3.16012   -1.000
 6236.00    3.21324   3.15445   -1.000
 6237.00    3.16892   3.12912   -1.000
 6238.00    3.11777   3.09563  120.124
 6239.00    3.06426   3.06511  120.966
 6240.00    3.02692   3.04063  121.055
 6241.00    3.01039   3.02199  120.392
 6242.00    2.99884   3.00915  119.263
 6243.00    2.99852   3.00495  117.795
 6244.00    3.00710   3.01446  116.505
 6245.00    3.04395   3.03917  116.179
 6246.00    3.09026   3.07485  117.055
 6247.00    3.13413   3.11013   -1.000
 6248.00    3.15673   3.13202   -1.000
 6249.00    3.14747   3.12998   -1.000
 6250.00    3.12898   3.10541   -1.000
 6251.00    3.09068   3.06818   -1.000
 6252.00    3.03142   3.03169  122.930
 6253.00    2.97765   3.00401  124.070
 6254.00    2.94644   2.98399   -1.000
 6255.00    2.94099   2.96805   -1.000
 6256.00    2.92338   2.95814   -1.000
 6257.00    2.90370   2.96139   -1.000
 6258.00    2.91884   2.98626   -1.000
 6259.00    2.96534   3.03012   -1.000
 6260.00    3.03527   3.08420   -1.000
 6261.00    3.11495   3.13292  117.555
 6262.00    3.15043   3.16668  117.268
 6263.00    3.15245   3.18176  116.439
 6264.00    3.12966   3.18455   -1.000
 6265.00    3.10800   3.18367   -1.000
 6266.00    3.11377   3.18408   -1.000
 6267.00    3.12434   3.18643   -1.000
 6268.00    3.14260   3.18887   -1.000
 6269.00    3.14217   3.19311   -1.000
 6270.00    3.12414   3.20016   -1.000
 6271.00    3.10365   3.20747   -1.000
 6272.00    3.05149   3.20932   -1.000
 6273.00    2.99553   3.20063   -1.000
 6274.00    2.96506   3.18130   -1.000
 6275.00    2.93636   3.15430   -1.000
 6276.00    2.90983   3.12572   -1.000
 6277.00    2.87112   3.09940   -1.000
 6278.00    2.82106   3.08071   -1.000
 6279.00    2.76249   3.07401   -1.000
 6280.00    2.75246   3.08425   -1.000
 6281.00    2.82012   3.11073   -1.000
 6282.00    2.93238   3.14873   -1.000
 6283.00    3.02367   3.18852   -1.000
 6284.00    3.07993   3.22449   -1.000
 6285.00    3.14032   3.25359   -1.000
 6286.00    3.18843   3.27538   -1.000
 6287.00    3.22249   3.28698   -1.000
 6288.00    3.26585   3.28544  118.222
 6289.00    3.27729   3.27055  118.352
 6290.00    3.25061   3.24893  118.548
 6291.00    3.21543   3.22758  119.346
 6292.00    3.19942   3.21165  120.177
 6293.00    3.21205   3.19774  120.461
 6294.00    3.22224   3.18171   -1.000
 6295.00    3.18410   3.16256   -1.000
 6296.00    3.15512   3.14510  119.335
 6297.00    3.14391   3.13471  120.079
 6298.00    3.13877   3.13095  121.432
 6299.00    3.13702   3.12884  120.840
 6300.00    3.12871   3.12754  119.019
 6301.00    3.09689   3.12998   -1.000
 6302.00    3.08109   3.14309   -1.000
 6303.00    3.09568   3.16680   -1.000
 6304.00    3.13647   3.19887   -1.000
 6305.00    3.18178   3.23329   -1.000
 6306.00    3.21238   3.26506   -1.000
 6307.00    3.27282   3.28689  116.697
 6308.00    3.30641   3.29465  117.164
 6309.00    3.29393   3.28739  117.338
 6310.00    3.26379   3.27057  118.252
 6311.00    3.21527   3.25017   -1.000
 6312.00    3.20264   3.22860  118.801
 6313.00    3.18621   3.20659  118.683
 6314.00    3.15534   3.18380  118.803
 6315.00    3.13256   3.16288  118.474
 6316.00    3.15165   3.14806  117.188
 6317.00    3.14224   3.14581  115.974
 6318.00    3.14789   3.15922  115.423
 6319.00    3.18700   3.18709  115.041
 6320.00    3.23704   3.22210  114.455
 6321.00    3.26247   3.25636  114.047
 6322.00    3.28723   3.28681  113.943
 6323.00    3.29954   3.31182  113.457
 6324.00    3.31818   3.33050  113.443
 6325.00    3.34762   3.34257  113.544
 6326.00    3.36337   3.34895  113.621
 6327.00    3.35208   3.35256  113.286
 6328.00    3.33927   3.35502  113.052
 6329.00    3.35140   3.35830  113.286
 6330.00    3.36508   3.36115  113.584
 6331.00    3.36056   3.35889  115.862
 6332.00    3.22984   3.34490   -1.000
 6333.00    3.25126   3.31545   -1.000
 6334.00    3.29825   3.28009   -1.000
 6335.00    3.26057   3.25246  113.315
 6336.00    3.23386   3.24586  112.651
 6337.00    3.28562   3.26049   -1.000
 6338.00    3.33354   3.28734   -1.000
 6339.00    3.35364   3.31184   -1.000
 6340.00    3.35653   3.32352   -1.000
 6341.00    3.35892   3.31885   -1.000
 6342.00    3.32922   3.30503   -1.000
 6343.00    3.31279   3.29579  111.697
 6344.00    3.31251   3.30032  111.213
 6345.00    3.33080   3.32136  111.177
 6346.00    3.35451   3.35107  110.981
 6347.00    3.39263   3.38116  111.025
 6348.00    3.42803   3.40449   -1.000
 6349.00    3.44591   3.41747   -1.000
 6350.00    3.44583   3.41818   -1.000
 6351.00    3.44067   3.40610   -1.000
 6352.00    3.42255   3.38325   -1.000
 6353.00    3.38862   3.35497   -1.000
 6354.00    3.34811   3.32629   -1.000
 6355.00    3.31041   3.29903  116.463
 6356.00    3.29728   3.27080   -1.000
 6357.00    3.27259   3.23960   -1.000
 6358.00    3.24110   3.20794   -1.000
 6359.00    3.21006   3.18084   -1.000
 6360.00    3.19912   3.16426   -1.000
 6361.00    3.20301   3.16184   -1.000
 6362.00    3.21037   3.17609   -1.000
 6363.00    3.24007   3.20573   -1.000
 6364.00    3.27241   3.24650   -1.000
 6365.00    3.32275   3.29142   -1.000
 6366.00    3.36433   3.33397   -1.000
 6367.00    3.40012   3.36855   -1.000
 6368.00    3.44587   3.39390   -1.000
 6369.00    3.45504   3.41152   -1.000
 6370.00    3.44054   3.42667  110.937
 6371.00    3.45374   3.44115  111.150
 6372.00    3.47566   3.45404   -1.000
 6373.00    3.47383   3.46203  112.092
 6374.00    3.45927   3.46289  112.835
 6375.00    3.45943   3.45630  113.317
 6376.00    3.47414   3.44332   -1.000
 6377.00    3.46698   3.42685   -1.000
 6378.00    3.42690   3.41163  113.639
 6379.00    3.41367   3.40264  113.367
 6380.00    3.41335   3.40118  113.777
 6381.00    3.40796   3.40580  114.090
 6382.00    3.40958   3.41302  114.037
 6383.00    3.40676   3.42124  114.318
 6384.00    3.41076   3.43028  114.691
 6385.00    3.42066   3.44012  115.564
 6386.00    3.43308   3.44920  116.488
 6387.00    3.44374   3.45395  117.765
 6388.00    3.43648   3.45039  119.515
 6389.00    3.41615   3.43426  120.651
 6390.00    3.38490   3.40572  120.456
 6391.00    3.33869   3.37086  118.823
 6392.00    3.28222   3.34575   -1.000
 6393.00    3.21192   3.34138   -1.000
 6394.00    3.19865   3.35951   -1.000
 6395.00    3.25679   3.38361   -1.000
 6396.00    3.29714   3.39417   -1.000
 6397.00    3.28799   3.38226   -1.000
 6398.00    3.24039   3.35736   -1.000
 6399.00    3.18059   3.34312   -1.000
 6400.00    3.15594   3.35427   -1.000
 6401.00    3.18550   3.39114   -1.000
 6402.00    3.23516   3.43369   -1.000
 6403.00    3.25992   3.46278   -1.000
 6404.00    3.25814   3.46803   -1.000
 6405.00    3.23194   3.45344   -1.000
 6406.00    3.17973   3.43111   -1.000
 6407.00    3.11240   3.41280   -1.000
 6408.00    3.07219   3.40305   -1.000
 6409.00    3.06723   3.39836   -1.000
 6410.00    3.05708   3.39533   -1.000
 6411.00    3.01799   3.39428   -1.000
 6412.00    3.00487   3.39851   -1.000
 6413.00    3.02189   3.40991   -1.000
 6414.00    3.00725   3.42356   -1.000
 6415.00    2.99603   3.43261   -1.000
 6416.00    3.00008   3.42959   -1.000
 6417.00    2.97088   3.41259   -1.000
 6418.00    2.93080   3.38770   -1.000
 6419.00    2.87597   3.36855   -1.000
 6420.00    2.80364   3.36797   -1.000
 6421.00    2.78819   3.38935   -1.000
 6422.00    2.82078   3.42563   -1.000
 6423.00    2.84828   3.46304   -1.000
 6424.00    2.84363   3.49243   -1.000
 6425.00    2.82358   3.50809   -1.000
 6426.00    2.79627   3.50662   -1.000
 6427.00    0.55594   3.48665   -1.000
 6428.00    0.00000   3.45258   -2.000
