###################################################################
## OUTPUT of StarlightChains_v04.for    [Cid@UFSC - 01/Apr/2007] ##
###################################################################

## Some input info
NGC6356_a_1.cxt                          [arq_obs]
Base.BC03.S                              [arq_base]
NGC6356_a_1.msk                          [arq_masks]
StCv04.C99.config                        [arq_config]
  150                                    [N_base]
    0                                    [N_YAV_components = # of components with extra extinction!]
    0                                    [i_FitPowerLaw (1/0 = Yes/No)]
-9.99                                    [alpha_PowerLaw]
CCM                                      [red_law_option]
 1.458241                                [q_norm = A(l_norm)/A(V)]

## (Re)Sampling Parameters
 3359.00                                 [l_ini (A)]
 6428.00                                 [l_fin (A)]
    1.00                                 [dl    (A)]     (OBS: dl_cushion =    50.00 A)

## Normalization info
 4020.00                                 [l_norm (A) - for base]
 4010.00                                 [llow_norm (A) - window for f_obs]
 4060.00                                 [lupp_norm (A) - window for f_obs]
1.105556E-14                             [fobs_norm (in input units)]

## S/N
 4730.00                                 [llow_SN (A) - window for S/N]
 4780.00                                 [lupp_SN (A) - window for S/N]
  43.679                                 [S/N in S/N window]
  28.435                                 [S/N in norm. window]
  64.165                                 [S/N_err in S/N window]
  41.771                                 [S/N_err in norm. window]
  1.0000                                 [fscale_chi2]

## etc...
  2147483612                             [idum_orig]
  3066                                   [NOl_eff]
  1589                                   [Nl_eff]
  1477    NSIGMA                         [Ntot_cliped & clip_method]
  3454500                                [Nglobal_steps]
   7                                     [N_chains]
  21                                     [NEX0s_base = N_base in EX0s-fits]
 0   0   1      257   2.0   8.800E+02    [Clip-Bug, RC-Crash & Burn-In warning-flags, n_censored_weights, wei_nsig_threshold & wei_limit]
   132    132.131    132.111      0.020  [idt_all, wdt_TotTime, wdt_UsrTime & wdt_SysTime (sec)]

## Synthesis Results - Best model ##

 2.87923E+00                             [chi2/Nl_eff]
     1.90670                             [adev (%)]

   101.61303                             [sum-of-x (%)]
 3.07514E-14                             [Flux_tot (units of input spectrum!)]
 1.65625E-09                             [Mini_tot (???)]
 8.34000E-10                             [Mcor_tot (???)]

   5.77                                  [v0_min  (km/s)]
  70.23                                  [vd_min  (km/s)]
 0.7498                                  [AV_min  (mag)]
 0.0000                                  [YAV_min (mag)]

# j     x_j(%)      Mini_j(%)     Mcor_j(%)     age_j(yr)     Z_j      (L/M)_j    YAV?  Mstars   component_j        a/Fe...       SSP_chi2r SSP_adev(%)   SSP_AV   SSP_x(%)
  1      0.3965     8.8791E-04    1.7633E-03    1.000000E+06  0.00010  8.160E-03    0   1.0000   age020_m22            0.0000     1.5408E+03    31.1770   4.0000    77.7910
  2     11.8872     4.5641E-03    9.0638E-03    3.160000E+06  0.00010  4.759E-02    0   1.0000   age045_m22            0.0000     3.2403E+02     7.5032   3.0325    93.3033
  3      2.2756     2.1521E-03    4.0953E-03    5.010000E+06  0.00010  1.932E-02    0   0.9582   age055_m22            0.0000     4.9585E+02    12.3990   3.3806    81.0909
  4      0.0000     0.0000E+00    0.0000E+00    6.610000E+06  0.00010  9.973E-03    0   0.9297   age061_m22            0.0000     1.4359E+03    30.9412   4.0000    79.8690
  5      0.0000     0.0000E+00    0.0000E+00    8.710000E+06  0.00010  7.690E-03    0   0.9030   age067_m22            0.0000     1.3936E+03    30.6205   4.0000    80.3181
  6      0.0000     0.0000E+00    0.0000E+00    1.000000E+07  0.00010  6.375E-03    0   0.8902   age070_m22            0.0000     1.3819E+03    30.7697   4.0000    80.5043
  7      0.0000     0.0000E+00    0.0000E+00    1.445000E+07  0.00010  4.874E-03    0   0.8589   age078_m22            0.0000     1.0458E+03    26.1344   4.0000    83.3788
  8      0.0000     0.0000E+00    0.0000E+00    2.512000E+07  0.00010  4.103E-03    0   0.8174   age090_m22            0.0000     5.9082E+02    15.9481   4.0000    88.3947
  9      0.0000     0.0000E+00    0.0000E+00    4.000000E+07  0.00010  3.654E-03    0   0.7830   age104_m22            0.0000     5.7492E+02     9.5192   4.0000    90.8501
 10      0.0000     0.0000E+00    0.0000E+00    5.500000E+07  0.00010  3.093E-03    0   0.7597   age110_m22            0.0000     6.1476E+02     8.2359   4.0000    91.5157
 11      0.0000     0.0000E+00    0.0000E+00    1.015200E+08  0.00010  2.431E-03    0   0.7138   age116_m22            0.0000     7.4999E+02     8.2636   3.6854    93.4026
 12      0.0000     0.0000E+00    0.0000E+00    1.609000E+08  0.00010  1.319E-03    0   0.6775   age120_m22            0.0000     7.4000E+02     8.2380   3.2041    95.2169
 13      0.0000     0.0000E+00    0.0000E+00    2.861200E+08  0.00010  1.075E-03    0   0.6412   age125_m22            0.0000     1.2321E+03     8.7975   3.2585    97.8960
 14      0.0000     0.0000E+00    0.0000E+00    5.088000E+08  0.00010  7.183E-04    0   0.6083   age130_m22            0.0000     1.3664E+03     9.1912   3.0133    99.5598
 15      0.0000     0.0000E+00    0.0000E+00    9.047900E+08  0.00010  4.524E-04    0   0.5785   age135_m22            0.0000     1.3679E+03     9.3524   2.8064   100.7466
 16      0.0000     0.0000E+00    0.0000E+00    1.278050E+09  0.00010  3.018E-04    0   0.5588   age138_m22            0.0000     8.6741E+02     8.1387   2.2601   100.1163
 17      0.0000     0.0000E+00    0.0000E+00    1.434000E+09  0.00010  2.691E-04    0   0.5532   age139_m22            0.0000     7.6960E+02     7.8486   2.0998    99.9228
 18      0.0000     0.0000E+00    0.0000E+00    2.500000E+09  0.00010  1.582E-04    0   0.5296   age150_m22            0.0000     7.2837E+02     8.0073   1.9933   100.3802
 19      0.0000     0.0000E+00    0.0000E+00    4.250000E+09  0.00010  1.007E-04    0   0.5110   age158_m22            0.0000     5.3184E+02     7.3738   1.8375    99.5276
 20      0.0000     0.0000E+00    0.0000E+00    6.250000E+09  0.00010  6.869E-05    0   0.4985   age166_m22            0.0000     3.6873E+02     6.8271   1.7782    97.7171
 21      0.0000     0.0000E+00    0.0000E+00    7.500000E+09  0.00010  5.873E-05    0   0.4931   age171_m22            0.0000     3.5320E+02     6.9123   1.7703    97.1661
 22      0.0000     0.0000E+00    0.0000E+00    1.000000E+10  0.00010  4.481E-05    0   0.4854   age181_m22            0.0000     3.4570E+02     6.8142   1.7330    96.8689
 23      0.0000     0.0000E+00    0.0000E+00    1.300000E+10  0.00010  3.489E-05    0   0.4791   age193_m22            0.0000     3.2725E+02     6.6396   1.6735    96.5347
 24      0.0000     0.0000E+00    0.0000E+00    1.500000E+10  0.00010  3.035E-05    0   0.4766   age201_m22            0.0000     3.1697E+02     6.5572   1.6343    96.4366
 25      0.0000     0.0000E+00    0.0000E+00    1.800000E+10  0.00010  2.510E-05    0   0.4735   age213_m22            0.0000     2.9197E+02     6.3875   1.5653    96.0504
 26      0.0000     0.0000E+00    0.0000E+00    1.000000E+06  0.00040  8.458E-03    0   1.0000   age020_m32            0.0000     1.5354E+03    31.6227   4.0000    78.2473
 27      0.0000     0.0000E+00    0.0000E+00    3.160000E+06  0.00040  3.973E-02    0   1.0000   age045_m32            0.0000     5.3139E+02    13.3717   4.0000    88.2496
 28      0.0000     0.0000E+00    0.0000E+00    5.010000E+06  0.00040  1.935E-02    0   0.9532   age055_m32            0.0000     8.0668E+02    19.9562   4.0000    83.2772
 29      0.0000     0.0000E+00    0.0000E+00    6.610000E+06  0.00040  1.204E-02    0   0.9243   age061_m32            0.0000     1.1773E+03    27.4301   4.0000    81.8652
 30      0.0000     0.0000E+00    0.0000E+00    8.710000E+06  0.00040  9.433E-03    0   0.9001   age067_m32            0.0000     1.1024E+03    26.5912   4.0000    82.7428
 31      0.0000     0.0000E+00    0.0000E+00    1.000000E+07  0.00040  8.053E-03    0   0.8877   age070_m32            0.0000     1.0461E+03    25.6886   4.0000    83.1742
 32      0.0000     0.0000E+00    0.0000E+00    1.445000E+07  0.00040  7.027E-03    0   0.8578   age078_m32            0.0000     5.3595E+02    12.9334   4.0000    86.6364
 33      0.0000     0.0000E+00    0.0000E+00    2.512000E+07  0.00040  4.707E-03    0   0.8166   age090_m32            0.0000     4.5548E+02     9.2606   4.0000    88.3523
 34      0.0000     0.0000E+00    0.0000E+00    4.000000E+07  0.00040  3.714E-03    0   0.7827   age104_m32            0.0000     5.3355E+02     8.5797   3.7931    91.0051
 35      0.0000     0.0000E+00    0.0000E+00    5.500000E+07  0.00040  2.982E-03    0   0.7593   age110_m32            0.0000     5.8860E+02     8.4360   3.7287    91.9036
 36      0.0000     0.0000E+00    0.0000E+00    1.015200E+08  0.00040  2.188E-03    0   0.7143   age116_m32            0.0000     8.8884E+02     8.2559   3.4546    95.2337
 37      0.0000     0.0000E+00    0.0000E+00    1.609000E+08  0.00040  1.690E-03    0   0.6856   age120_m32            0.0000     1.1076E+03     8.6204   3.2443    97.2161
 38      0.0000     0.0000E+00    0.0000E+00    2.861200E+08  0.00040  1.152E-03    0   0.6509   age125_m32            0.0000     1.2510E+03     8.9298   3.0015    99.0137
 39      0.0000     0.0000E+00    0.0000E+00    5.088000E+08  0.00040  7.331E-04    0   0.6182   age130_m32            0.0000     1.2952E+03     9.0578   2.8270    99.9292
 40      0.0000     0.0000E+00    0.0000E+00    9.047900E+08  0.00040  3.960E-04    0   0.5890   age135_m32            0.0000     8.7611E+02     8.0383   2.3400    99.9799
 41      0.0000     0.0000E+00    0.0000E+00    1.278050E+09  0.00040  2.854E-04    0   0.5687   age138_m32            0.0000     7.9636E+02     8.0744   2.0591   101.2138
 42      0.0000     0.0000E+00    0.0000E+00    1.434000E+09  0.00040  2.531E-04    0   0.5632   age139_m32            0.0000     7.7809E+02     8.0546   1.9970   101.2008
 43      0.0000     0.0000E+00    0.0000E+00    2.500000E+09  0.00040  1.488E-04    0   0.5386   age150_m32            0.0000     6.0362E+02     7.3942   1.7302   100.2579
 44      0.0000     0.0000E+00    0.0000E+00    4.250000E+09  0.00040  9.082E-05    0   0.5199   age158_m32            0.0000     3.4580E+02     6.3816   1.6269    98.3237
 45      0.0000     0.0000E+00    0.0000E+00    6.250000E+09  0.00040  6.362E-05    0   0.5076   age166_m32            0.0000     2.2328E+02     6.0036   1.5919    95.8915
 46      1.4854     5.1318E-01    5.1232E-01    7.500000E+09  0.00040  5.289E-05    0   0.5027   age171_m32            0.0000     1.9969E+02     5.7745   1.5543    95.0041
 47      0.1814     8.3466E-02    8.2016E-02    1.000000E+10  0.00040  3.972E-05    0   0.4948   age181_m32            0.0000     1.7931E+02     5.5066   1.4886    94.0576
 48      0.0000     0.0000E+00    0.0000E+00    1.300000E+10  0.00040  3.283E-05    0   0.4870   age193_m32            0.0000     2.3032E+02     5.5946   1.4420    96.1876
 49      0.0000     0.0000E+00    0.0000E+00    1.500000E+10  0.00040  2.925E-05    0   0.4854   age201_m32            0.0000     2.7301E+02     5.7378   1.4228    97.3837
 50      0.0113     8.3899E-03    8.0292E-03    1.800000E+10  0.00040  2.469E-05    0   0.4819   age213_m32            0.0000     2.9045E+02     5.7377   1.3813    97.7995
 51      0.0000     0.0000E+00    0.0000E+00    1.000000E+06  0.00400  1.114E-02    0   1.0000   age020_m42            0.0000     1.4150E+03    29.8760   4.0000    78.8273
 52      0.0000     0.0000E+00    0.0000E+00    3.160000E+06  0.00400  4.073E-02    0   0.9999   age045_m42            0.0000     3.8058E+02     8.0483   4.0000    89.5529
 53      0.0000     0.0000E+00    0.0000E+00    5.010000E+06  0.00400  2.534E-02    0   0.9488   age055_m42            0.0000     6.0735E+02    15.9256   4.0000    85.5680
 54      3.1708     2.2430E-03    4.1070E-03    6.610000E+06  0.00400  2.583E-02    0   0.9220   age061_m42            0.0000     4.3417E+02     8.0129   3.8433    89.7766
 55      0.0000     0.0000E+00    0.0000E+00    8.710000E+06  0.00400  1.706E-02    0   0.8983   age067_m42            0.0000     4.1223E+02     9.2542   3.6813    87.9279
 56      0.0000     0.0000E+00    0.0000E+00    1.000000E+07  0.00400  1.271E-02    0   0.8862   age070_m42            0.0000     4.3833E+02    10.4464   3.6784    86.3835
 57      0.0000     0.0000E+00    0.0000E+00    1.445000E+07  0.00400  7.666E-03    0   0.8571   age078_m42            0.0000     4.6381E+02    10.7236   4.0000    84.3014
 58      0.0000     0.0000E+00    0.0000E+00    2.512000E+07  0.00400  5.070E-03    0   0.8174   age090_m42            0.0000     4.1185E+02     9.9600   3.5418    87.9476
 59      0.0000     0.0000E+00    0.0000E+00    4.000000E+07  0.00400  3.505E-03    0   0.7851   age104_m42            0.0000     3.7428E+02     8.5549   3.2089    90.9457
 60      0.0000     0.0000E+00    0.0000E+00    5.500000E+07  0.00400  3.059E-03    0   0.7629   age110_m42            0.0000     5.3933E+02     7.3640   3.2491    94.5946
 61      0.0000     0.0000E+00    0.0000E+00    1.015200E+08  0.00400  2.268E-03    0   0.7207   age116_m42            0.0000     9.9622E+02     7.8357   3.1508    98.4319
 62      0.0000     0.0000E+00    0.0000E+00    1.609000E+08  0.00400  1.720E-03    0   0.6930   age120_m42            0.0000     1.0229E+03     7.9146   2.9955   100.1911
 63      0.0000     0.0000E+00    0.0000E+00    2.861200E+08  0.00400  1.079E-03    0   0.6613   age125_m42            0.0000     9.9584E+02     7.9076   2.6333   100.5592
 64      0.0000     0.0000E+00    0.0000E+00    5.088000E+08  0.00400  6.261E-04    0   0.6313   age130_m42            0.0000     1.0880E+03     8.5206   2.4383   102.8889
 65      0.0000     0.0000E+00    0.0000E+00    9.047900E+08  0.00400  3.535E-04    0   0.6024   age135_m42            0.0000     7.4302E+02     7.5861   2.0162   104.2950
 66      0.7345     5.0135E-02    5.8115E-02    1.278050E+09  0.00400  2.677E-04    0   0.5837   age138_m42            0.0000     2.8405E+02     4.8012   1.2926   104.8632
 67      0.0000     0.0000E+00    0.0000E+00    1.434000E+09  0.00400  1.910E-04    0   0.5716   age139_m42            0.0000     3.9587E+02     5.4574   1.4676   105.0211
 68      0.0000     0.0000E+00    0.0000E+00    2.500000E+09  0.00400  9.818E-05    0   0.5463   age150_m42            0.0000     1.2182E+02     3.1927   1.1871   102.4371
 69      0.0137     4.5659E-03    4.7777E-03    4.250000E+09  0.00400  5.491E-05    0   0.5269   age158_m42            0.0000     4.9663E+01     2.4428   1.0665   100.4395
 70      0.0000     0.0000E+00    0.0000E+00    6.250000E+09  0.00400  3.857E-05    0   0.5151   age166_m42            0.0000     2.5500E+01     2.3123   0.9364    99.8118
 71      0.0000     0.0000E+00    0.0000E+00    7.500000E+09  0.00400  3.243E-05    0   0.5110   age171_m42            0.0000     1.8164E+01     2.4134   0.8542    99.6446
 72      0.0000     0.0000E+00    0.0000E+00    1.000000E+10  0.00400  2.424E-05    0   0.5028   age181_m42            0.0000     1.3871E+01     2.6100   0.7701    99.4858
 73      0.0000     0.0000E+00    0.0000E+00    1.300000E+10  0.00400  1.883E-05    0   0.4927   age193_m42            0.0000     1.5879E+01     2.7906   0.7286    99.4890
 74      0.0000     0.0000E+00    0.0000E+00    1.500000E+10  0.00400  1.685E-05    0   0.4919   age201_m42            0.0000     1.4762E+01     2.7112   0.7340    99.4404
 75      0.0000     0.0000E+00    0.0000E+00    1.800000E+10  0.00400  1.452E-05    0   0.4874   age213_m42            0.0000     1.3641E+01     2.5893   0.7517    99.5563
 76      0.0000     0.0000E+00    0.0000E+00    1.000000E+06  0.00800  1.286E-02    0   1.0000   age020_m52            0.0000     1.3103E+03    29.2126   4.0000    80.3997
 77      0.0000     0.0000E+00    0.0000E+00    3.160000E+06  0.00800  3.147E-02    0   0.9966   age045_m52            0.0000     1.1841E+03    27.4207   4.0000    81.7275
 78      0.0000     0.0000E+00    0.0000E+00    5.010000E+06  0.00800  2.664E-02    0   0.9443   age055_m52            0.0000     7.5419E+02    19.1360   4.0000    84.8484
 79      0.0000     0.0000E+00    0.0000E+00    6.610000E+06  0.00800  2.151E-02    0   0.9177   age061_m52            0.0000     3.4348E+02     9.1488   3.2585    88.7872
 80      0.0000     0.0000E+00    0.0000E+00    8.710000E+06  0.00800  1.628E-02    0   0.8948   age067_m52            0.0000     4.2624E+02     9.5859   3.6437    88.1861
 81      0.0000     0.0000E+00    0.0000E+00    1.000000E+07  0.00800  1.215E-02    0   0.8827   age070_m52            0.0000     4.6391E+02    10.1236   3.9923    86.3578
 82      0.0000     0.0000E+00    0.0000E+00    1.445000E+07  0.00800  8.739E-03    0   0.8552   age078_m52            0.0000     4.7960E+02     9.6258   4.0000    87.6002
 83      0.0000     0.0000E+00    0.0000E+00    2.512000E+07  0.00800  5.676E-03    0   0.8162   age090_m52            0.0000     5.5001E+02     9.0152   3.6245    91.0663
 84      0.0000     0.0000E+00    0.0000E+00    4.000000E+07  0.00800  3.939E-03    0   0.7841   age104_m52            0.0000     6.0235E+02     8.2890   3.4523    93.1835
 85      0.0000     0.0000E+00    0.0000E+00    5.500000E+07  0.00800  3.155E-03    0   0.7627   age110_m52            0.0000     6.8233E+02     8.0272   3.4139    94.6987
 86      0.0000     0.0000E+00    0.0000E+00    1.015200E+08  0.00800  2.206E-03    0   0.7226   age116_m52            0.0000     8.5768E+02     7.7734   3.2125    98.3193
 87      0.0000     0.0000E+00    0.0000E+00    1.609000E+08  0.00800  1.596E-03    0   0.6963   age120_m52            0.0000     9.2868E+02     7.8247   2.9896    99.8403
 88      0.0000     0.0000E+00    0.0000E+00    2.861200E+08  0.00800  1.002E-03    0   0.6665   age125_m52            0.0000     1.1311E+03     8.2500   2.6740   102.6215
 89      0.0000     0.0000E+00    0.0000E+00    5.088000E+08  0.00800  5.759E-04    0   0.6377   age130_m52            0.0000     1.1227E+03     8.5277   2.2971   107.0459
 90      0.0000     0.0000E+00    0.0000E+00    9.047900E+08  0.00800  2.972E-04    0   0.6086   age135_m52            0.0000     6.4266E+02     7.2570   1.7082   108.2750
 91      0.0000     0.0000E+00    0.0000E+00    1.278050E+09  0.00800  2.242E-04    0   0.5907   age138_m52            0.0000     2.3413E+02     4.7317   1.0888   108.9225
 92      0.0000     0.0000E+00    0.0000E+00    1.434000E+09  0.00800  1.645E-04    0   0.5787   age139_m52            0.0000     2.2793E+02     4.4521   1.2455   108.1595
 93      0.0000     0.0000E+00    0.0000E+00    2.500000E+09  0.00800  7.723E-05    0   0.5519   age150_m52            0.0000     6.8875E+01     3.1080   0.9070   105.9558
 94      0.0000     0.0000E+00    0.0000E+00    4.250000E+09  0.00800  4.151E-05    0   0.5320   age158_m52            0.0000     3.4666E+01     2.7531   0.8409   103.7929
 95      0.2169     1.3167E-01    1.3589E-01    6.250000E+09  0.00800  3.010E-05    0   0.5197   age166_m52            0.0000     1.8622E+01     3.0561   0.6405   103.2578
 96      0.0000     0.0000E+00    0.0000E+00    7.500000E+09  0.00800  2.467E-05    0   0.5139   age171_m52            0.0000     1.9014E+01     3.2543   0.5961   103.0831
 97     39.2369     3.8504E+01    3.8646E+01    1.000000E+10  0.00800  1.862E-05    0   0.5054   age181_m52            0.0000     2.8731E+01     3.9588   0.4562   103.3251
 98     21.7521     2.7736E+01    2.7475E+01    1.300000E+10  0.00800  1.433E-05    0   0.4988   age193_m52            0.0000     4.8708E+01     4.5759   0.3525   104.6143
 99      2.7082     3.9778E+00    3.8992E+00    1.500000E+10  0.00800  1.244E-05    0   0.4936   age201_m52            0.0000     5.9735E+01     4.7834   0.3203   105.3332
100      0.0000     0.0000E+00    0.0000E+00    1.800000E+10  0.00800  1.070E-05    0   0.4888   age213_m52            0.0000     6.8054E+01     5.0017   0.2816   105.4062
101      0.0000     0.0000E+00    0.0000E+00    1.000000E+06  0.02000  1.989E-02    0   1.0000   age020_m62            0.0000     1.3425E+03    29.0573   4.0000    79.5389
102      0.0000     0.0000E+00    0.0000E+00    3.160000E+06  0.02000  3.772E-02    0   0.9858   age045_m62            0.0000     1.1333E+03    25.8937   4.0000    81.5954
103      0.0000     0.0000E+00    0.0000E+00    5.010000E+06  0.02000  3.227E-02    0   0.9342   age055_m62            0.0000     5.1754E+02    12.4106   4.0000    87.5541
104      0.0000     0.0000E+00    0.0000E+00    6.610000E+06  0.02000  2.387E-02    0   0.9090   age061_m62            0.0000     4.8031E+02    10.7953   4.0000    85.5384
105      0.9651     1.6002E-03    2.8160E-03    8.710000E+06  0.02000  1.102E-02    0   0.8861   age067_m62            0.0000     7.3310E+02    16.1307   3.7332    80.2662
106      0.0000     0.0000E+00    0.0000E+00    1.000000E+07  0.02000  1.011E-02    0   0.8751   age070_m62            0.0000     5.7483E+02    13.7898   3.7369    82.8930
107      0.0000     0.0000E+00    0.0000E+00    1.445000E+07  0.02000  7.331E-03    0   0.8472   age078_m62            0.0000     4.7930E+02    11.8336   3.7392    84.5683
108      0.0000     0.0000E+00    0.0000E+00    2.512000E+07  0.02000  4.206E-03    0   0.8099   age090_m62            0.0000     4.9802E+02    11.8230   3.6536    84.0389
109      0.0000     0.0000E+00    0.0000E+00    4.000000E+07  0.02000  3.373E-03    0   0.7799   age104_m62            0.0000     4.7171E+02     8.6700   3.4249    91.5781
110      0.0000     0.0000E+00    0.0000E+00    5.500000E+07  0.02000  2.747E-03    0   0.7595   age110_m62            0.0000     6.0552E+02     8.0912   3.3459    94.3731
111      0.0000     0.0000E+00    0.0000E+00    1.015200E+08  0.02000  1.878E-03    0   0.7221   age116_m62            0.0000     9.3835E+02     8.0703   3.1982    98.2248
112      0.0000     0.0000E+00    0.0000E+00    1.609000E+08  0.02000  1.378E-03    0   0.6978   age120_m62            0.0000     1.1380E+03     8.3158   3.0325   100.5063
113      0.0000     0.0000E+00    0.0000E+00    2.861200E+08  0.02000  8.869E-04    0   0.6700   age125_m62            0.0000     1.4324E+03     9.0594   2.6438   104.5547
114      0.0000     0.0000E+00    0.0000E+00    5.088000E+08  0.02000  4.834E-04    0   0.6430   age130_m62            0.0000     1.2060E+03     8.8972   2.1545   108.5003
115      0.0000     0.0000E+00    0.0000E+00    9.047900E+08  0.02000  2.312E-04    0   0.6152   age135_m62            0.0000     5.9065E+02     7.0296   1.5064   110.4229
116      0.0000     0.0000E+00    0.0000E+00    1.278050E+09  0.02000  1.387E-04    0   0.5927   age138_m62            0.0000     2.3892E+02     4.5112   1.1264   108.0204
117      0.0000     0.0000E+00    0.0000E+00    1.434000E+09  0.02000  1.168E-04    0   0.5865   age139_m62            0.0000     1.8287E+02     4.0673   1.1004   106.8557
118      0.0000     0.0000E+00    0.0000E+00    2.500000E+09  0.02000  5.505E-05    0   0.5610   age150_m62            0.0000     5.3319E+01     3.5850   0.7170   105.7339
119      0.0000     0.0000E+00    0.0000E+00    4.250000E+09  0.02000  3.070E-05    0   0.5407   age158_m62            0.0000     5.2594E+01     4.8422   0.3983   107.1834
120      0.0000     0.0000E+00    0.0000E+00    6.250000E+09  0.02000  2.104E-05    0   0.5277   age166_m62            0.0000     7.3053E+01     5.5188   0.2554   108.3679
121      0.0000     0.0000E+00    0.0000E+00    7.500000E+09  0.02000  1.770E-05    0   0.5223   age171_m62            0.0000     8.9685E+01     5.9670   0.1590   109.1642
122      5.1181     7.2104E+00    7.3329E+00    1.000000E+10  0.02000  1.297E-05    0   0.5121   age181_m62            0.0000     1.3293E+02     6.8686  -0.0169   110.5534
123      1.4833     2.7967E+00    2.8031E+00    1.300000E+10  0.02000  9.691E-06    0   0.5047   age193_m62            0.0000     1.7000E+02     7.4459  -0.1123   111.5448
124      1.7295     3.7801E+00    3.7527E+00    1.500000E+10  0.02000  8.360E-06    0   0.4999   age201_m62            0.0000     2.0426E+02     8.0026  -0.1959   112.3437
125      4.1524     1.0979E+01    1.0784E+01    1.800000E+10  0.02000  6.911E-06    0   0.4946   age213_m62            0.0000     2.4955E+02     8.7195  -0.2866   113.3157
126      0.0000     0.0000E+00    0.0000E+00    1.000000E+06  0.05000  2.651E-02    0   0.9998   age020_m72            0.0000     1.3030E+03    28.8024   4.0000    80.5405
127      0.0000     0.0000E+00    0.0000E+00    3.160000E+06  0.05000  4.817E-02    0   0.9577   age045_m72            0.0000     8.7538E+02    21.8906   4.0000    84.7662
128      0.0000     0.0000E+00    0.0000E+00    5.010000E+06  0.05000  3.101E-02    0   0.9147   age055_m72            0.0000     5.6981E+02    13.2934   4.0000    86.2741
129      0.0000     0.0000E+00    0.0000E+00    6.610000E+06  0.05000  1.472E-02    0   0.8877   age061_m72            0.0000     6.3028E+02    13.7120   3.9260    82.2226
130      0.0000     0.0000E+00    0.0000E+00    8.710000E+06  0.05000  1.050E-02    0   0.8638   age067_m72            0.0000     6.0244E+02    13.4158   4.0000    84.6479
131      0.0000     0.0000E+00    0.0000E+00    1.000000E+07  0.05000  8.954E-03    0   0.8524   age070_m72            0.0000     7.1429E+02    18.5362   4.0000    85.9741
132      0.0000     0.0000E+00    0.0000E+00    1.445000E+07  0.05000  6.392E-03    0   0.8262   age078_m72            0.0000     6.3640E+02    16.9300   4.0000    86.9200
133      0.0000     0.0000E+00    0.0000E+00    2.512000E+07  0.05000  4.207E-03    0   0.7902   age090_m72            0.0000     4.2942E+02     8.8927   4.0000    89.3063
134      0.0000     0.0000E+00    0.0000E+00    4.000000E+07  0.05000  3.198E-03    0   0.7618   age104_m72            0.0000     6.9748E+02     7.2000   3.5729    95.2472
135      0.0000     0.0000E+00    0.0000E+00    5.500000E+07  0.05000  2.593E-03    0   0.7432   age110_m72            0.0000     8.2249E+02     7.5653   3.4797    96.5090
136      0.0000     0.0000E+00    0.0000E+00    1.015200E+08  0.05000  1.716E-03    0   0.7092   age116_m72            0.0000     1.0428E+03     8.1548   3.2816    98.3767
137      0.0000     0.0000E+00    0.0000E+00    1.609000E+08  0.05000  1.218E-03    0   0.6876   age120_m72            0.0000     1.2530E+03     8.3746   2.9992   101.0486
138      0.0000     0.0000E+00    0.0000E+00    2.861200E+08  0.05000  7.047E-04    0   0.6618   age125_m72            0.0000     1.3658E+03     8.6719   2.4177   105.9237
139      0.0000     0.0000E+00    0.0000E+00    5.088000E+08  0.05000  3.590E-04    0   0.6356   age130_m72            0.0000     1.0067E+03     8.2256   1.7723   110.8530
140      0.0000     0.0000E+00    0.0000E+00    9.047900E+08  0.05000  1.484E-04    0   0.6088   age135_m72            0.0000     2.6317E+02     5.3728   0.9976   108.1876
141      0.0000     0.0000E+00    0.0000E+00    1.278050E+09  0.05000  9.435E-05    0   0.5924   age138_m72            0.0000     1.1151E+02     5.3101   0.5764   107.5190
142      0.0000     0.0000E+00    0.0000E+00    1.434000E+09  0.05000  7.827E-05    0   0.5847   age139_m72            0.0000     8.7026E+01     4.9558   0.5956   106.9713
143      0.0000     0.0000E+00    0.0000E+00    2.500000E+09  0.05000  3.759E-05    0   0.5583   age150_m72            0.0000     7.4993E+01     5.6327   0.2598   107.6488
144      3.8029     3.7724E+00    4.0260E+00    4.250000E+09  0.05000  1.842E-05    0   0.5374   age158_m72            0.0000     1.2975E+02     6.7620  -0.0787   108.3153
145      0.2895     4.3829E-01    4.5627E-01    6.250000E+09  0.05000  1.207E-05    0   0.5242   age166_m72            0.0000     1.9543E+02     8.2581  -0.3513   109.4334
146      0.0016     2.9126E-03    2.9979E-03    7.500000E+09  0.05000  9.993E-06    0   0.5183   age171_m72            0.0000     2.0382E+02     8.5019  -0.4013   109.6383
147      0.0000     0.0000E+00    0.0000E+00    1.000000E+10  0.05000  7.291E-06    0   0.5081   age181_m72            0.0000     2.5780E+02     9.6724  -0.5561   110.6773
148      0.0000     0.0000E+00    0.0000E+00    1.300000E+10  0.05000  5.316E-06    0   0.5018   age193_m72            0.0000     3.5525E+02    11.4335  -0.7957   112.3401
149      0.0000     0.0000E+00    0.0000E+00    1.500000E+10  0.05000  4.497E-06    0   0.4972   age201_m72            0.0000     4.1093E+02    12.3200  -0.8990   113.5046
150      0.0000     0.0000E+00    0.0000E+00    1.800000E+10  0.05000  3.739E-06    0   0.4924   age213_m72            0.0000     4.8768E+02    13.0222  -1.0000   114.4994


## Synthesis Results - Average & Chains ##

# j      x_j: min, <> & last-chain-values for 1 ...  7 chains
  1      0.3965      0.8205      0.8098      0.8568      0.8558      0.8232      0.8550      0.7522      0.9021
  2     11.8872      9.9220      9.6495     10.2189     10.9911     10.3143     10.3798     10.3196     10.2164
  3      2.2756      1.0609      1.3418      1.2232      1.1263      1.2146      1.0213      1.1352      1.2636
  4      0.0000      0.0296      0.0000      0.0702      0.0000      0.1177      0.0000      0.0417      0.0000
  5      0.0000      0.0521      0.0769      0.0000      0.0000      0.0285      0.0000      0.2849      0.0000
  6      0.0000      0.0656      0.1955      0.0000      0.1056      0.0000      0.0000      0.0000      0.0000
  7      0.0000      0.0392      0.0000      0.0000      0.0000      0.1032      0.0833      0.1679      0.0000
  8      0.0000      0.0574      0.0661      0.0168      0.1357      0.0000      0.0866      0.0000      0.0000
  9      0.0000      0.0289      0.0000      0.0000      0.0000      0.0000      0.1009      0.0000      0.0000
 10      0.0000      0.0199      0.1171      0.0000      0.0380      0.0000      0.0000      0.0000      0.0000
 11      0.0000      0.0137      0.0381      0.0000      0.0000      0.0000      0.0000      0.0000      0.0000
 12      0.0000      0.0071      0.0000      0.0000      0.0000      0.0000      0.0000      0.0000      0.0000
 13      0.0000      0.0063      0.0000      0.0000      0.0000      0.0000      0.0000      0.0000      0.0000
 14      0.0000      0.0055      0.0000      0.0000      0.0000      0.0000      0.0000      0.0000      0.0000
 15      0.0000      0.0068      0.0000      0.0243      0.0000      0.0000      0.0000      0.0000      0.0000
 16      0.0000      0.0094      0.0000      0.0000      0.0000      0.0000      0.0000      0.0000      0.0000
 17      0.0000      0.0110      0.0000      0.0000      0.0000      0.0000      0.0000      0.0515      0.0000
 18      0.0000      0.0237      0.0000      0.0000      0.0000      0.0000      0.0000      0.0000      0.0000
 19      0.0000      0.0382      0.0000      0.0000      0.0000      0.0000      0.0000      0.0000      0.1239
 20      0.0000      0.0645      0.0000      0.0000      0.0588      0.1545      0.0000      0.1904      0.2049
 21      0.0000      0.0836      0.3796      0.0000      0.0000      0.0000      0.0000      0.0000      0.0000
 22      0.0000      0.0693      0.2962      0.2365      0.0576      0.0000      0.0000      0.0000      0.5955
 23      0.0000      0.0704      0.0000      0.0000      0.0000      0.0000      0.5155      0.1679      0.1574
 24      0.0000      0.0704      0.0000      0.0000      0.0000      0.0000      0.1968      0.0000      0.0663
 25      0.0000      0.0509      0.0000      0.1323      0.0878      0.0000      0.0000      0.0000      0.0000
 26      0.0000      0.0358      0.0000      0.0000      0.0000      0.0265      0.0708      0.0000      0.1092
 27      0.0000      0.0415      0.0000      0.0035      0.0000      0.1278      0.2465      0.1118      0.0000
 28      0.0000      0.0563      0.0000      0.0000      0.1640      0.0000      0.2872      0.1739      0.0000
 29      0.0000      0.0623      0.0927      0.0732      0.0000      0.0000      0.0000      0.0000      0.2155
 30      0.0000      0.0193      0.0405      0.0000      0.1531      0.0000      0.0000      0.0000      0.0000
 31      0.0000      0.0638      0.0345      0.0000      0.0000      0.0000      0.1687      0.0000      0.0673
 32      0.0000      0.0690      0.0000      0.0000      0.0000      0.0806      0.0000      0.0000      0.0522
 33      0.0000      0.0316      0.0000      0.0211      0.0275      0.0000      0.0000      0.0000      0.0000
 34      0.0000      0.0331      0.0694      0.0000      0.0550      0.0000      0.1409      0.0000      0.0000
 35      0.0000      0.0271      0.0083      0.0000      0.0000      0.0433      0.0026      0.1859      0.0000
 36      0.0000      0.0083      0.0000      0.0000      0.0000      0.0000      0.0000      0.0000      0.0000
 37      0.0000      0.0075      0.0634      0.0000      0.0000      0.0000      0.0000      0.0000      0.0000
 38      0.0000      0.0056      0.0000      0.0000      0.0000      0.0000      0.0000      0.0000      0.0000
 39      0.0000      0.0056      0.0000      0.0000      0.0000      0.0000      0.0000      0.0000      0.0000
 40      0.0000      0.0093      0.0000      0.0000      0.0000      0.0060      0.0000      0.0000      0.0000
 41      0.0000      0.0164      0.0000      0.0000      0.0000      0.0000      0.0000      0.0000      0.0038
 42      0.0000      0.0177      0.0000      0.0299      0.0000      0.0000      0.0000      0.1532      0.0000
 43      0.0000      0.0455      0.0000      0.1704      0.1791      0.0000      0.0000      0.0323      0.0000
 44      0.0000      0.0962      0.1135      0.0799      0.0294      0.3347      0.7039      0.4236      0.0514
 45      0.0000      0.1771      0.6446      0.3480      0.1813      0.5116      0.0662      0.1163      0.0000
 46      1.4854      0.1452      0.0000      0.0000      0.2422      0.0000      0.0000      0.4023      0.0000
 47      0.1814      1.3455      0.7210      1.4763      0.6405      1.4644      0.7701      0.6161      1.0681
 48      0.0000      0.0702      0.0000      0.3439      0.0000      0.0000      0.2109      0.0000      0.0000
 49      0.0000      0.0661      0.1478      0.0000      0.0000      0.0000      0.0000      0.0549      0.0000
 50      0.0113      0.0590      0.0000      0.0000      0.3722      0.1320      0.1686      0.0000      0.2904
 51      0.0000      0.0136      0.0000      0.0437      0.0000      0.1028      0.0000      0.0000      0.0000
 52      0.0000      0.0643      0.0502      0.0345      0.0000      0.0000      0.0000      0.0649      0.0000
 53      0.0000      0.0314      0.1126      0.0542      0.0000      0.0000      0.0000      0.0000      0.0000
 54      3.1708      3.5990      3.7113      3.7624      3.8219      3.6287      3.4948      3.7730      3.8421
 55      0.0000      0.0362      0.0704      0.1653      0.0000      0.0677      0.0000      0.0000      0.2884
 56      0.0000      0.0401      0.0000      0.0000      0.0000      0.0045      0.3001      0.0000      0.0350
 57      0.0000      0.0489      0.0575      0.0000      0.0000      0.0000      0.0090      0.0000      0.0000
 58      0.0000      0.0467      0.0000      0.0000      0.0000      0.0000      0.0000      0.0000      0.0155
 59      0.0000      0.0171      0.0000      0.0000      0.0000      0.0000      0.0000      0.0122      0.0235
 60      0.0000      0.0092      0.0000      0.0000      0.0000      0.0000      0.0000      0.0000      0.0000
 61      0.0000      0.0063      0.0000      0.0000      0.0000      0.0000      0.0000      0.0000      0.0000
 62      0.0000      0.0085      0.0000      0.0058      0.0000      0.0000      0.0000      0.0000      0.0000
 63      0.0000      0.0065      0.0000      0.0000      0.0000      0.0000      0.0000      0.0000      0.0000
 64      0.0000      0.0138      0.0440      0.0000      0.0130      0.0000      0.0000      0.0279      0.0000
 65      0.0000      0.0312      0.1325      0.0000      0.0000      0.0000      0.0000      0.0000      0.0000
 66      0.7345      0.0506      0.0000      0.0000      0.2846      0.0000      0.0000      0.0000      0.4599
 67      0.0000      0.0377      0.4727      0.0000      0.0000      0.0819      0.0329      0.1481      0.0039
 68      0.0000      0.0588      0.0141      0.0000      0.0000      0.0112      0.0000      0.0000      0.0903
 69      0.0137      0.0855      0.0476      0.0000      0.2286      0.0000      0.0000      0.0000      0.0000
 70      0.0000      0.0649      0.0000      0.0000      0.0155      0.0000      0.0311      0.0000      0.0000
 71      0.0000      0.0587      0.0000      0.0640      0.0000      0.0000      0.3120      0.0000      0.0000
 72      0.0000      0.0735      0.0000      0.0551      0.0000      0.0000      0.0000      0.0000      0.0000
 73      0.0000      0.1002      0.0000      0.0000      0.0000      0.0822      0.3159      0.0000      0.0000
 74      0.0000      0.0820      0.0000      0.0000      0.0064      0.0184      0.0000      0.0241      0.0000
 75      0.0000      0.0774      0.0000      0.0000      0.0000      0.0000      0.0000      0.0554      0.0000
 76      0.0000      0.0113      0.0000      0.0000      0.0000      0.0000      0.0000      0.0000      0.0000
 77      0.0000      0.0215      0.0222      0.0000      0.0400      0.0000      0.0024      0.0000      0.0000
 78      0.0000      0.0136      0.0000      0.0000      0.0000      0.0000      0.0000      0.0000      0.0000
 79      0.0000      0.0247      0.0000      0.0878      0.0000      0.0000      0.0000      0.0389      0.0000
 80      0.0000      0.0199      0.0000      0.0000      0.0302      0.0000      0.0000      0.0000      0.0000
 81      0.0000      0.0130      0.0000      0.0000      0.0000      0.0000      0.0000      0.0000      0.0835
 82      0.0000      0.0114      0.0000      0.0103      0.0013      0.0000      0.0000      0.0000      0.0000
 83      0.0000      0.0171      0.0000      0.0071      0.0000      0.0000      0.0540      0.0495      0.0000
 84      0.0000      0.0112      0.0000      0.0000      0.0000      0.0000      0.0000      0.0000      0.0000
 85      0.0000      0.0084      0.0000      0.0000      0.0114      0.0000      0.0000      0.0000      0.0000
 86      0.0000      0.0082      0.0000      0.0000      0.0000      0.0000      0.0000      0.0000      0.0000
 87      0.0000      0.0095      0.0000      0.0000      0.0000      0.0000      0.0000      0.0000      0.0000
 88      0.0000      0.0059      0.0000      0.0000      0.0000      0.0000      0.0135      0.0293      0.0000
 89      0.0000      0.0106      0.0000      0.0000      0.0000      0.1308      0.0000      0.0000      0.0000
 90      0.0000      0.0161      0.0000      0.0000      0.0000      0.0311      0.0000      0.0000      0.0000
 91      0.0000      0.0293      0.0000      0.0000      0.0000      0.0000      0.0000      0.0000      0.0000
 92      0.0000      0.0285      0.0000      0.1372      0.0000      0.0000      0.0000      0.0000      0.0000
 93      0.0000      0.0806      0.0162      0.0700      0.0000      0.0000      0.4101      0.0467      0.0000
 94      0.0000      0.2279      0.0000      0.2017      0.0055      0.3422      0.0000      0.3609      0.0000
 95      0.2169      0.4451      1.3392      0.3318      0.4785      0.2298      0.0000      0.4142      0.2928
 96      0.0000      0.3769      0.6686      0.0000      0.0359      0.5642      0.0079      0.4075      0.1023
 97     39.2369     42.1656     42.0905     42.9110     44.1488     43.4618     41.7984     41.9099     42.3740
 98     21.7521     19.1714     19.2671     19.4036     19.9325     19.7999     19.7871     19.4232     19.8234
 99      2.7082      0.6578      0.6613      0.4952      0.4058      0.2946      0.5165      1.3348      1.5072
100      0.0000      0.5604      0.7574      0.4553      0.0000      0.5479      0.8024      0.3460      0.4483
101      0.0000      0.0137      0.0000      0.0000      0.0000      0.0000      0.0000      0.0000      0.0000
102      0.0000      0.0364      0.1233      0.0000      0.1061      0.0000      0.0000      0.0000      0.0000
103      0.0000      0.0494      0.0000      0.0000      0.0521      0.0247      0.0000      0.0000      0.0000
104      0.0000      0.0231      0.0000      0.0134      0.0000      0.0000      0.0000      0.0589      0.0000
105      0.9651      0.2597      0.2497      0.4837      0.3762      0.2072      0.3743      0.3587      0.2732
106      0.0000      0.0843      0.0983      0.0960      0.0000      0.1225      0.0000      0.0000      0.1297
107      0.0000      0.0503      0.0000      0.1638      0.0000      0.0000      0.0000      0.0000      0.0000
108      0.0000      0.0127      0.0965      0.0000      0.0000      0.0000      0.0000      0.0000      0.0000
109      0.0000      0.0098      0.0005      0.0000      0.0000      0.0000      0.0000      0.0000      0.0000
110      0.0000      0.0088      0.0000      0.0000      0.0000      0.0000      0.0000      0.0000      0.0000
111      0.0000      0.0073      0.0041      0.0000      0.0000      0.0000      0.0000      0.0000      0.0000
112      0.0000      0.0067      0.0000      0.0000      0.0207      0.0000      0.0000      0.0000      0.0000
113      0.0000      0.0068      0.0000      0.0497      0.0000      0.0000      0.0000      0.0000      0.0000
114      0.0000      0.0091      0.0032      0.0000      0.0000      0.0000      0.0000      0.0000      0.0000
115      0.0000      0.0144      0.0000      0.0000      0.0000      0.0000      0.0000      0.0000      0.0000
116      0.0000      0.0175      0.0000      0.0000      0.0000      0.0000      0.0000      0.0989      0.0000
117      0.0000      0.0186      0.0000      0.0000      0.0000      0.0000      0.0000      0.0000      0.0000
118      0.0000      0.0378      0.0000      0.0000      0.0000      0.0000      0.0000      0.0000      0.0000
119      0.0000      0.0780      0.0000      0.0000      0.0000      0.0245      0.0000      0.0000      0.0000
120      0.0000      0.1358      0.1016      0.2856      0.0000      0.0471      0.1202      0.0000      0.0000
121      0.0000      0.1410      0.0897      0.0000      0.0445      0.0000      0.1699      0.0679      0.3376
122      5.1181      4.3233      4.3356      4.4246      4.4581      4.4208      4.7020      5.0136      3.8505
123      1.4833      0.5804      0.8473      0.6282      0.2338      0.1060      0.4108      0.4417      0.4750
124      1.7295      2.7183      2.9343      1.9208      2.3431      2.4951      2.7928      2.0657      2.6415
125      4.1524      6.8156      6.2811      6.8795      7.0108      6.7153      6.7286      6.5933      6.7617
126      0.0000      0.0366      0.0000      0.0000      0.0000      0.0000      0.0000      0.1013      0.0000
127      0.0000      0.0352      0.0000      0.0000      0.0000      0.0000      0.0621      0.0996      0.0000
128      0.0000      0.0221      0.0087      0.0000      0.0000      0.0000      0.0000      0.0000      0.0000
129      0.0000      0.0336      0.1708      0.0000      0.0000      0.0770      0.0000      0.0295      0.0000
130      0.0000      0.0234      0.0000      0.1738      0.0000      0.0070      0.0000      0.0333      0.0000
131      0.0000      0.0219      0.0000      0.0000      0.0000      0.0000      0.0018      0.0000      0.0000
132      0.0000      0.0227      0.0000      0.0000      0.0160      0.3840      0.0000      0.0000      0.0000
133      0.0000      0.0148      0.0000      0.0000      0.0000      0.0000      0.0000      0.0046      0.1936
134      0.0000      0.0063      0.0000      0.0000      0.0000      0.0000      0.0000      0.0000      0.0000
135      0.0000      0.0062      0.0000      0.0000      0.0000      0.0374      0.0001      0.0000      0.0000
136      0.0000      0.0062      0.0000      0.0000      0.0000      0.0000      0.0000      0.0000      0.0000
137      0.0000      0.0048      0.0000      0.0000      0.0000      0.0000      0.0000      0.0339      0.0000
138      0.0000      0.0046      0.0000      0.0000      0.0000      0.0000      0.0000      0.0000      0.0000
139      0.0000      0.0077      0.0000      0.0000      0.0000      0.0000      0.0000      0.0000      0.0000
140      0.0000      0.0178      0.0000      0.0000      0.0000      0.0000      0.0031      0.0000      0.0000
141      0.0000      0.0168      0.0286      0.0000      0.0000      0.0000      0.0000      0.0000      0.0000
142      0.0000      0.0258      0.0000      0.0000      0.0000      0.0000      0.0000      0.0000      0.0000
143      0.0000      0.0655      0.0000      0.0000      0.0000      0.0539      0.0000      0.0058      0.0000
144      3.8029      0.9275      1.0043      2.0492      1.1574      0.9436      1.5242      1.6197      1.0334
145      0.2895      0.5490      0.5525      0.6403      0.4908      0.9076      0.5454      0.4796      0.6775
146      0.0016      0.3632      0.1908      0.2469      0.2449      0.0000      0.2878      0.7730      0.4011
147      0.0000      0.1360      0.1471      0.0000      0.0000      0.1607      0.0213      0.0000      0.0713
148      0.0000      0.0926      0.0000      0.0000      0.1187      0.0000      0.0000      0.0000      0.0634
149      0.0000      0.0444      0.0000      0.0000      0.0635      0.0000      0.0000      0.0000      0.0000
150      0.0000      0.0351      0.0000      0.0000      0.0000      0.0000      0.0000      0.0000      0.0000

# j      m_j: min, <> & last-chain-values for 1 ...  7 chains
  1  1.7633E-03  3.4861E-03  3.4737E-03  3.6875E-03  3.6658E-03  3.5421E-03  3.6420E-03  3.2303E-03  3.8375E-03
  2  9.0638E-03  7.2280E-03  7.0975E-03  7.5412E-03  8.0722E-03  7.6101E-03  7.5815E-03  7.5985E-03  7.4519E-03
  3  4.0953E-03  1.8242E-03  2.3295E-03  2.1306E-03  1.9524E-03  2.1152E-03  1.7607E-03  1.9728E-03  2.1755E-03
  4  0.0000E+00  9.5560E-05  0.0000E+00  2.2995E-04  0.0000E+00  3.8537E-04  0.0000E+00  1.3614E-04  0.0000E+00
  5  0.0000E+00  2.1224E-04  3.1604E-04  0.0000E+00  0.0000E+00  1.1733E-04  0.0000E+00  1.1724E-03  0.0000E+00
  6  0.0000E+00  3.1764E-04  9.5540E-04  0.0000E+00  5.1540E-04  0.0000E+00  0.0000E+00  0.0000E+00  0.0000E+00
  7  0.0000E+00  2.3978E-04  0.0000E+00  0.0000E+00  0.0000E+00  6.3878E-04  5.1020E-04  1.0369E-03  0.0000E+00
  8  0.0000E+00  3.9647E-04  4.6101E-04  1.1789E-04  9.4511E-04  0.0000E+00  5.9989E-04  0.0000E+00  0.0000E+00
  9  0.0000E+00  2.1464E-04  0.0000E+00  0.0000E+00  0.0000E+00  0.0000E+00  7.5168E-04  0.0000E+00  0.0000E+00
 10  0.0000E+00  1.6953E-04  1.0066E-03  0.0000E+00  3.2583E-04  0.0000E+00  0.0000E+00  0.0000E+00  0.0000E+00
 11  0.0000E+00  1.3919E-04  3.9148E-04  0.0000E+00  0.0000E+00  0.0000E+00  0.0000E+00  0.0000E+00  0.0000E+00
 12  0.0000E+00  1.2591E-04  0.0000E+00  0.0000E+00  0.0000E+00  0.0000E+00  0.0000E+00  0.0000E+00  0.0000E+00
 13  0.0000E+00  1.3093E-04  0.0000E+00  0.0000E+00  0.0000E+00  0.0000E+00  0.0000E+00  0.0000E+00  0.0000E+00
 14  0.0000E+00  1.6172E-04  0.0000E+00  0.0000E+00  0.0000E+00  0.0000E+00  0.0000E+00  0.0000E+00  0.0000E+00
 15  0.0000E+00  2.9984E-04  0.0000E+00  1.0892E-03  0.0000E+00  0.0000E+00  0.0000E+00  0.0000E+00  0.0000E+00
 16  0.0000E+00  6.0592E-04  0.0000E+00  0.0000E+00  0.0000E+00  0.0000E+00  0.0000E+00  0.0000E+00  0.0000E+00
 17  0.0000E+00  7.8351E-04  0.0000E+00  0.0000E+00  0.0000E+00  0.0000E+00  0.0000E+00  3.7074E-03  0.0000E+00
 18  0.0000E+00  2.7504E-03  0.0000E+00  0.0000E+00  0.0000E+00  0.0000E+00  0.0000E+00  0.0000E+00  0.0000E+00
 19  0.0000E+00  6.7219E-03  0.0000E+00  0.0000E+00  0.0000E+00  0.0000E+00  0.0000E+00  0.0000E+00  2.1816E-02
 20  0.0000E+00  1.6224E-02  0.0000E+00  0.0000E+00  1.4906E-02  3.9371E-02  0.0000E+00  4.8414E-02  5.1622E-02
 21  0.0000E+00  2.4324E-02  1.1155E-01  0.0000E+00  0.0000E+00  0.0000E+00  0.0000E+00  0.0000E+00  0.0000E+00
 22  0.0000E+00  2.6029E-02  1.1231E-01  8.9982E-02  2.1805E-02  0.0000E+00  0.0000E+00  0.0000E+00  2.2391E-01
 23  0.0000E+00  3.3512E-02  0.0000E+00  0.0000E+00  0.0000E+00  0.0000E+00  2.4603E-01  8.0793E-02  7.5050E-02
 24  0.0000E+00  3.8322E-02  0.0000E+00  0.0000E+00  0.0000E+00  0.0000E+00  1.0743E-01  0.0000E+00  3.6143E-02
 25  0.0000E+00  3.3287E-02  0.0000E+00  8.7628E-02  5.7903E-02  0.0000E+00  0.0000E+00  0.0000E+00  0.0000E+00
 26  0.0000E+00  1.4663E-04  0.0000E+00  0.0000E+00  0.0000E+00  1.0996E-04  2.9087E-04  0.0000E+00  4.4836E-04
 27  0.0000E+00  3.6181E-05  0.0000E+00  3.1200E-06  0.0000E+00  1.1297E-04  2.1563E-04  9.8628E-05  0.0000E+00
 28  0.0000E+00  9.6071E-05  0.0000E+00  0.0000E+00  2.8234E-04  0.0000E+00  4.9186E-04  3.0018E-04  0.0000E+00
 29  0.0000E+00  1.6572E-04  2.4898E-04  1.9740E-04  0.0000E+00  0.0000E+00  0.0000E+00  0.0000E+00  5.7425E-04
 30  0.0000E+00  6.3943E-05  1.3542E-04  0.0000E+00  5.1071E-04  0.0000E+00  0.0000E+00  0.0000E+00  0.0000E+00
 31  0.0000E+00  2.4382E-04  1.3323E-04  0.0000E+00  0.0000E+00  0.0000E+00  6.4640E-04  0.0000E+00  2.5750E-04
 32  0.0000E+00  2.9196E-04  0.0000E+00  0.0000E+00  0.0000E+00  3.4548E-04  0.0000E+00  0.0000E+00  2.2127E-04
 33  0.0000E+00  1.9019E-04  0.0000E+00  1.2865E-04  1.6686E-04  0.0000E+00  0.0000E+00  0.0000E+00  0.0000E+00
 34  0.0000E+00  2.4164E-04  5.1222E-04  0.0000E+00  4.0536E-04  0.0000E+00  1.0322E-03  0.0000E+00  0.0000E+00
 35  0.0000E+00  2.3893E-04  7.3652E-05  0.0000E+00  0.0000E+00  3.8699E-04  2.2905E-05  1.6586E-03  0.0000E+00
 36  0.0000E+00  9.4433E-05  0.0000E+00  0.0000E+00  0.0000E+00  0.0000E+00  0.0000E+00  0.0000E+00  0.0000E+00
 37  0.0000E+00  1.0591E-04  8.9982E-04  0.0000E+00  0.0000E+00  0.0000E+00  0.0000E+00  0.0000E+00  0.0000E+00
 38  0.0000E+00  1.1040E-04  0.0000E+00  0.0000E+00  0.0000E+00  0.0000E+00  0.0000E+00  0.0000E+00  0.0000E+00
 39  0.0000E+00  1.6317E-04  0.0000E+00  0.0000E+00  0.0000E+00  0.0000E+00  0.0000E+00  0.0000E+00  0.0000E+00
 40  0.0000E+00  4.8067E-04  0.0000E+00  0.0000E+00  0.0000E+00  3.1254E-04  0.0000E+00  0.0000E+00  0.0000E+00
 41  0.0000E+00  1.1299E-03  0.0000E+00  0.0000E+00  0.0000E+00  0.0000E+00  0.0000E+00  0.0000E+00  2.6353E-04
 42  0.0000E+00  1.3637E-03  0.0000E+00  2.3335E-03  0.0000E+00  0.0000E+00  0.0000E+00  1.1947E-02  0.0000E+00
 43  0.0000E+00  5.7156E-03  0.0000E+00  2.1665E-02  2.2657E-02  0.0000E+00  0.0000E+00  4.0959E-03  0.0000E+00
 44  0.0000E+00  1.9099E-02  2.2735E-02  1.6065E-02  5.8809E-03  6.7274E-02  1.4007E-01  8.4974E-02  1.0221E-02
 45  0.0000E+00  4.8981E-02  1.8002E-01  9.7502E-02  5.0571E-02  1.4333E-01  1.8362E-02  3.2506E-02  0.0000E+00
 46  5.1232E-01  4.7853E-02  0.0000E+00  0.0000E+00  8.0458E-02  0.0000E+00  0.0000E+00  1.3399E-01  0.0000E+00
 47  8.2016E-02  5.8110E-01  3.1438E-01  6.4590E-01  2.7888E-01  6.4055E-01  3.3345E-01  2.6895E-01  4.6187E-01
 48  0.0000E+00  3.6113E-02  0.0000E+00  1.7916E-01  0.0000E+00  0.0000E+00  1.0877E-01  0.0000E+00  0.0000E+00
 49  0.0000E+00  3.8027E-02  8.5881E-02  0.0000E+00  0.0000E+00  0.0000E+00  0.0000E+00  3.1927E-02  0.0000E+00
 50  8.0292E-03  3.9921E-02  0.0000E+00  0.0000E+00  2.5392E-01  9.0485E-02  1.1436E-01  0.0000E+00  1.9675E-01
 51  0.0000E+00  4.2255E-05  0.0000E+00  1.3793E-04  0.0000E+00  3.2397E-04  0.0000E+00  0.0000E+00  0.0000E+00
 52  0.0000E+00  5.4755E-05  4.3130E-05  2.9787E-05  0.0000E+00  0.0000E+00  0.0000E+00  5.5804E-05  0.0000E+00
 53  0.0000E+00  4.0776E-05  1.4764E-04  7.1267E-05  0.0000E+00  0.0000E+00  0.0000E+00  0.0000E+00  0.0000E+00
 54  4.1070E-03  4.4537E-03  4.6371E-03  4.7165E-03  4.7682E-03  4.5480E-03  4.3362E-03  4.7192E-03  4.7607E-03
 55  0.0000E+00  6.6037E-05  1.2979E-04  3.0575E-04  0.0000E+00  1.2522E-04  0.0000E+00  0.0000E+00  5.2710E-04
 56  0.0000E+00  9.7003E-05  0.0000E+00  0.0000E+00  0.0000E+00  1.0967E-05  7.2742E-04  0.0000E+00  8.4699E-05
 57  0.0000E+00  1.8959E-04  2.2504E-04  0.0000E+00  0.0000E+00  0.0000E+00  3.4838E-05  0.0000E+00  0.0000E+00
 58  0.0000E+00  2.6086E-04  0.0000E+00  0.0000E+00  0.0000E+00  0.0000E+00  0.0000E+00  0.0000E+00  8.6524E-05
 59  0.0000E+00  1.3299E-04  0.0000E+00  0.0000E+00  0.0000E+00  0.0000E+00  0.0000E+00  9.5492E-05  1.8309E-04
 60  0.0000E+00  7.9928E-05  0.0000E+00  0.0000E+00  0.0000E+00  0.0000E+00  0.0000E+00  0.0000E+00  0.0000E+00
 61  0.0000E+00  6.9940E-05  0.0000E+00  0.0000E+00  0.0000E+00  0.0000E+00  0.0000E+00  0.0000E+00  0.0000E+00
 62  0.0000E+00  1.1817E-04  0.0000E+00  8.2033E-05  0.0000E+00  0.0000E+00  0.0000E+00  0.0000E+00  0.0000E+00
 63  0.0000E+00  1.3736E-04  0.0000E+00  0.0000E+00  0.0000E+00  0.0000E+00  0.0000E+00  0.0000E+00  0.0000E+00
 64  0.0000E+00  4.8396E-04  1.5544E-03  0.0000E+00  4.5764E-04  0.0000E+00  0.0000E+00  9.8430E-04  0.0000E+00
 65  0.0000E+00  1.8438E-03  7.9013E-03  0.0000E+00  0.0000E+00  0.0000E+00  0.0000E+00  0.0000E+00  0.0000E+00
 66  5.8115E-02  3.8269E-03  0.0000E+00  0.0000E+00  2.1688E-02  0.0000E+00  0.0000E+00  0.0000E+00  3.4807E-02
 67  0.0000E+00  3.9079E-03  4.9520E-02  0.0000E+00  0.0000E+00  8.6100E-03  3.4181E-03  1.5529E-02  4.0036E-04
 68  0.0000E+00  1.1338E-02  2.7552E-03  0.0000E+00  0.0000E+00  2.1950E-03  0.0000E+00  0.0000E+00  1.7438E-02
 69  4.7777E-03  2.8428E-02  1.5999E-02  0.0000E+00  7.6655E-02  0.0000E+00  0.0000E+00  0.0000E+00  0.0000E+00
 70  0.0000E+00  3.0060E-02  0.0000E+00  0.0000E+00  7.2253E-03  0.0000E+00  1.4425E-02  0.0000E+00  0.0000E+00
 71  0.0000E+00  3.2068E-02  0.0000E+00  3.5425E-02  0.0000E+00  0.0000E+00  1.7090E-01  0.0000E+00  0.0000E+00
 72  0.0000E+00  5.2822E-02  0.0000E+00  4.0103E-02  0.0000E+00  0.0000E+00  0.0000E+00  0.0000E+00  0.0000E+00
 73  0.0000E+00  9.0879E-02  0.0000E+00  0.0000E+00  0.0000E+00  7.5553E-02  2.8735E-01  0.0000E+00  0.0000E+00
 74  0.0000E+00  8.3029E-02  0.0000E+00  0.0000E+00  6.5571E-03  1.8893E-02  0.0000E+00  2.4658E-02  0.0000E+00
 75  0.0000E+00  9.0074E-02  0.0000E+00  0.0000E+00  0.0000E+00  0.0000E+00  0.0000E+00  6.5180E-02  0.0000E+00
 76  0.0000E+00  3.0551E-05  0.0000E+00  0.0000E+00  0.0000E+00  0.0000E+00  0.0000E+00  0.0000E+00  0.0000E+00
 77  0.0000E+00  2.3627E-05  2.4620E-05  0.0000E+00  4.4293E-05  0.0000E+00  2.6414E-06  0.0000E+00  0.0000E+00
 78  0.0000E+00  1.6751E-05  0.0000E+00  0.0000E+00  0.0000E+00  0.0000E+00  0.0000E+00  0.0000E+00  0.0000E+00
 79  0.0000E+00  3.6544E-05  0.0000E+00  1.3154E-04  0.0000E+00  0.0000E+00  0.0000E+00  5.8101E-05  0.0000E+00
 80  0.0000E+00  3.8003E-05  0.0000E+00  0.0000E+00  5.8051E-05  0.0000E+00  0.0000E+00  0.0000E+00  0.0000E+00
 81  0.0000E+00  3.2631E-05  0.0000E+00  0.0000E+00  0.0000E+00  0.0000E+00  0.0000E+00  0.0000E+00  2.1057E-04
 82  0.0000E+00  3.8670E-05  0.0000E+00  3.5429E-05  4.2779E-06  0.0000E+00  0.0000E+00  0.0000E+00  0.0000E+00
 83  0.0000E+00  8.5439E-05  0.0000E+00  3.5953E-05  0.0000E+00  0.0000E+00  2.7001E-04  2.4931E-04  0.0000E+00
 84  0.0000E+00  7.7269E-05  0.0000E+00  0.0000E+00  0.0000E+00  0.0000E+00  0.0000E+00  0.0000E+00  0.0000E+00
 85  0.0000E+00  7.0540E-05  0.0000E+00  0.0000E+00  9.6558E-05  0.0000E+00  0.0000E+00  0.0000E+00  0.0000E+00
 86  0.0000E+00  9.3659E-05  0.0000E+00  0.0000E+00  0.0000E+00  0.0000E+00  0.0000E+00  0.0000E+00  0.0000E+00
 87  0.0000E+00  1.4414E-04  0.0000E+00  0.0000E+00  0.0000E+00  0.0000E+00  0.0000E+00  0.0000E+00  0.0000E+00
 88  0.0000E+00  1.3638E-04  0.0000E+00  0.0000E+00  0.0000E+00  0.0000E+00  3.1144E-04  6.8331E-04  0.0000E+00
 89  0.0000E+00  4.0741E-04  0.0000E+00  0.0000E+00  0.0000E+00  5.0864E-03  0.0000E+00  0.0000E+00  0.0000E+00
 90  0.0000E+00  1.1440E-03  0.0000E+00  0.0000E+00  0.0000E+00  2.2353E-03  0.0000E+00  0.0000E+00  0.0000E+00
 91  0.0000E+00  2.6739E-03  0.0000E+00  0.0000E+00  0.0000E+00  0.0000E+00  0.0000E+00  0.0000E+00  0.0000E+00
 92  0.0000E+00  3.4722E-03  0.0000E+00  1.6951E-02  0.0000E+00  0.0000E+00  0.0000E+00  0.0000E+00  0.0000E+00
 93  0.0000E+00  1.9959E-02  4.0507E-03  1.7570E-02  0.0000E+00  0.0000E+00  1.0186E-01  1.1683E-02  0.0000E+00
 94  0.0000E+00  1.0125E-01  0.0000E+00  9.0774E-02  2.4688E-03  1.5401E-01  0.0000E+00  1.6206E-01  0.0000E+00
 95  1.3589E-01  2.6642E-01  8.0937E-01  2.0118E-01  2.8876E-01  1.3931E-01  0.0000E+00  2.5058E-01  1.7548E-01
 96  0.0000E+00  2.7217E-01  4.8756E-01  0.0000E+00  2.6111E-02  4.1267E-01  5.7053E-03  2.9747E-01  7.3947E-02
 97  3.8646E+01  3.9678E+01  3.9991E+01  4.0905E+01  4.1883E+01  4.1422E+01  3.9436E+01  3.9861E+01  3.9925E+01
 98  2.7475E+01  2.3135E+01  2.3476E+01  2.3720E+01  2.4250E+01  2.4200E+01  2.3941E+01  2.3691E+01  2.3952E+01
 99  3.8992E+00  9.0485E-01  9.1842E-01  6.9012E-01  5.6279E-01  4.1047E-01  7.1244E-01  1.8558E+00  2.0759E+00
100  0.0000E+00  8.8749E-01  1.2111E+00  7.3044E-01  0.0000E+00  8.7887E-01  1.2742E+00  5.5385E-01  7.1086E-01
101  0.0000E+00  2.3923E-05  0.0000E+00  0.0000E+00  0.0000E+00  0.0000E+00  0.0000E+00  0.0000E+00  0.0000E+00
102  0.0000E+00  3.2989E-05  1.1281E-04  0.0000E+00  9.6895E-05  0.0000E+00  0.0000E+00  0.0000E+00  0.0000E+00
103  0.0000E+00  4.9534E-05  0.0000E+00  0.0000E+00  5.2731E-05  2.5113E-05  0.0000E+00  0.0000E+00  0.0000E+00
104  0.0000E+00  3.0437E-05  0.0000E+00  1.7971E-05  0.0000E+00  0.0000E+00  0.0000E+00  7.8639E-05  0.0000E+00
105  2.8160E-03  7.2398E-04  7.0286E-04  1.3660E-03  1.0573E-03  5.8502E-04  1.0462E-03  1.0106E-03  7.6268E-04
106  0.0000E+00  2.5293E-04  2.9787E-04  2.9169E-04  0.0000E+00  3.7225E-04  0.0000E+00  0.0000E+00  3.8973E-04
107  0.0000E+00  2.0138E-04  0.0000E+00  6.6475E-04  0.0000E+00  0.0000E+00  0.0000E+00  0.0000E+00  0.0000E+00
108  0.0000E+00  8.4558E-05  6.5066E-04  0.0000E+00  0.0000E+00  0.0000E+00  0.0000E+00  0.0000E+00  0.0000E+00
109  0.0000E+00  7.8602E-05  3.8061E-06  0.0000E+00  0.0000E+00  0.0000E+00  0.0000E+00  0.0000E+00  0.0000E+00
110  0.0000E+00  8.4506E-05  0.0000E+00  0.0000E+00  0.0000E+00  0.0000E+00  0.0000E+00  0.0000E+00  0.0000E+00
111  0.0000E+00  9.6897E-05  5.4618E-05  0.0000E+00  0.0000E+00  0.0000E+00  0.0000E+00  0.0000E+00  0.0000E+00
112  0.0000E+00  1.1747E-04  0.0000E+00  0.0000E+00  3.6612E-04  0.0000E+00  0.0000E+00  0.0000E+00  0.0000E+00
113  0.0000E+00  1.7738E-04  0.0000E+00  1.3173E-03  0.0000E+00  0.0000E+00  0.0000E+00  0.0000E+00  0.0000E+00
114  0.0000E+00  4.2010E-04  1.4857E-04  0.0000E+00  0.0000E+00  0.0000E+00  0.0000E+00  0.0000E+00  0.0000E+00
115  0.0000E+00  1.3273E-03  0.0000E+00  0.0000E+00  0.0000E+00  0.0000E+00  0.0000E+00  0.0000E+00  0.0000E+00
116  0.0000E+00  2.5922E-03  0.0000E+00  0.0000E+00  0.0000E+00  0.0000E+00  0.0000E+00  1.4809E-02  0.0000E+00
117  0.0000E+00  3.2370E-03  0.0000E+00  0.0000E+00  0.0000E+00  0.0000E+00  0.0000E+00  0.0000E+00  0.0000E+00
118  0.0000E+00  1.3338E-02  0.0000E+00  0.0000E+00  0.0000E+00  0.0000E+00  0.0000E+00  0.0000E+00  0.0000E+00
119  0.0000E+00  4.7648E-02  0.0000E+00  0.0000E+00  0.0000E+00  1.5152E-02  0.0000E+00  0.0000E+00  0.0000E+00
120  0.0000E+00  1.1808E-01  8.9192E-02  2.5158E-01  0.0000E+00  4.1465E-02  1.0483E-01  0.0000E+00  0.0000E+00
121  0.0000E+00  1.4420E-01  9.2616E-02  0.0000E+00  4.5899E-02  0.0000E+00  1.7427E-01  7.0184E-02  3.4585E-01
122  7.3329E+00  5.9179E+00  5.9921E+00  6.1354E+00  6.1522E+00  6.1289E+00  6.4533E+00  6.9365E+00  5.2774E+00
123  2.8031E+00  1.0480E+00  1.5447E+00  1.1491E+00  4.2552E-01  1.9386E-01  7.4363E-01  8.0605E-01  8.5865E-01
124  3.7527E+00  5.6353E+00  6.1420E+00  4.0338E+00  4.8971E+00  5.2388E+00  5.8050E+00  4.3283E+00  5.4829E+00
125  1.0784E+01  1.6911E+01  1.5735E+01  1.7291E+01  1.7537E+01  1.6875E+01  1.6739E+01  1.6534E+01  1.6798E+01
126  0.0000E+00  4.7800E-05  0.0000E+00  0.0000E+00  0.0000E+00  0.0000E+00  0.0000E+00  1.3384E-04  0.0000E+00
127  0.0000E+00  2.4264E-05  0.0000E+00  0.0000E+00  0.0000E+00  0.0000E+00  4.2925E-05  6.9393E-05  0.0000E+00
128  0.0000E+00  2.2614E-05  9.0154E-06  0.0000E+00  0.0000E+00  0.0000E+00  0.0000E+00  0.0000E+00  0.0000E+00
129  0.0000E+00  7.0342E-05  3.6060E-04  0.0000E+00  0.0000E+00  1.6308E-04  0.0000E+00  6.2396E-05  0.0000E+00
130  0.0000E+00  6.6627E-05  0.0000E+00  5.0218E-04  0.0000E+00  2.0160E-05  0.0000E+00  9.5975E-05  0.0000E+00
131  0.0000E+00  7.2354E-05  0.0000E+00  0.0000E+00  0.0000E+00  0.0000E+00  5.8553E-06  0.0000E+00  0.0000E+00
132  0.0000E+00  1.0183E-04  0.0000E+00  0.0000E+00  7.2420E-05  1.7428E-03  0.0000E+00  0.0000E+00  0.0000E+00
133  0.0000E+00  9.6269E-05  0.0000E+00  0.0000E+00  0.0000E+00  0.0000E+00  0.0000E+00  3.0028E-05  1.2622E-03
134  0.0000E+00  5.1758E-05  0.0000E+00  0.0000E+00  0.0000E+00  0.0000E+00  0.0000E+00  0.0000E+00  0.0000E+00
135  0.0000E+00  6.1805E-05  0.0000E+00  0.0000E+00  0.0000E+00  3.7676E-04  1.4138E-06  0.0000E+00  0.0000E+00
136  0.0000E+00  8.9049E-05  0.0000E+00  0.0000E+00  0.0000E+00  0.0000E+00  0.0000E+00  0.0000E+00  0.0000E+00
137  0.0000E+00  9.3421E-05  0.0000E+00  0.0000E+00  0.0000E+00  0.0000E+00  0.0000E+00  6.6961E-04  0.0000E+00
138  0.0000E+00  1.4989E-04  0.0000E+00  0.0000E+00  0.0000E+00  0.0000E+00  0.0000E+00  0.0000E+00  0.0000E+00
139  0.0000E+00  4.7078E-04  0.0000E+00  0.0000E+00  0.0000E+00  0.0000E+00  0.0000E+00  0.0000E+00  0.0000E+00
140  0.0000E+00  2.5374E-03  0.0000E+00  0.0000E+00  0.0000E+00  0.0000E+00  4.4562E-04  0.0000E+00  0.0000E+00
141  0.0000E+00  3.6672E-03  6.2759E-03  0.0000E+00  0.0000E+00  0.0000E+00  0.0000E+00  0.0000E+00  0.0000E+00
142  0.0000E+00  6.6725E-03  0.0000E+00  0.0000E+00  0.0000E+00  0.0000E+00  0.0000E+00  0.0000E+00  0.0000E+00
143  0.0000E+00  3.3730E-02  0.0000E+00  0.0000E+00  0.0000E+00  2.8130E-02  0.0000E+00  2.9931E-03  0.0000E+00
144  4.0260E+00  9.3812E-01  1.0257E+00  2.0997E+00  1.1802E+00  9.6661E-01  1.5457E+00  1.6559E+00  1.0466E+00
145  4.5627E-01  8.2655E-01  8.3988E-01  9.7665E-01  7.4508E-01  1.3841E+00  8.2336E-01  7.2981E-01  1.0213E+00
146  2.9979E-03  6.5302E-01  3.4649E-01  4.4981E-01  4.4404E-01  0.0000E+00  5.1895E-01  1.4048E+00  7.2219E-01
147  0.0000E+00  3.2851E-01  3.5895E-01  0.0000E+00  0.0000E+00  3.9322E-01  5.1669E-02  0.0000E+00  1.7238E-01
148  0.0000E+00  3.0289E-01  0.0000E+00  0.0000E+00  3.9165E-01  0.0000E+00  0.0000E+00  0.0000E+00  2.0775E-01
149  0.0000E+00  1.7035E-01  0.0000E+00  0.0000E+00  2.4552E-01  0.0000E+00  0.0000E+00  0.0000E+00  0.0000E+00
150  0.0000E+00  1.6026E-01  0.0000E+00  0.0000E+00  0.0000E+00  0.0000E+00  0.0000E+00  0.0000E+00  0.0000E+00

# AV, chi2 & Mass for <> & i_chain = 1 ...  7 solutions
AV       0.7498      0.7376      0.7423      0.7393      0.7432      0.7446      0.7400      0.7404      0.7415
chi2 2.8792E+00  2.9429E+00  2.9269E+00  2.9221E+00  2.9239E+00  2.9244E+00  2.9251E+00  2.9213E+00  2.9238E+00
Mass 8.3400E-10  8.5884E-10  8.5589E-10  8.4972E-10  8.5831E-10  8.5596E-10  8.5930E-10  8.5289E-10  8.6214E-10
   4.98                                  [v0_min (km/s) before EX0s...]
  70.01                                  [vd_min (km/s) before EX0s...]


## Synthetic spectrum (Best Model) ##l_obs f_obs f_syn wei
 3070    [Nl_obs]
 3359.00    0.08593   0.41843   -1.000
 3360.00    0.21175   0.38527   -1.000
 3361.00    0.21317   0.38203   -1.000
 3362.00    0.22768   0.40807   -1.000
 3363.00    0.26071   0.44770   -1.000
 3364.00    0.26928   0.47945   -1.000
 3365.00    0.25580   0.48862   -1.000
 3366.00    0.26151   0.47483   -1.000
 3367.00    0.26895   0.45003   -1.000
 3368.00    0.25245   0.42627   -1.000
 3369.00    0.23814   0.40989   -1.000
 3370.00    0.24378   0.40026   -1.000
 3371.00    0.25596   0.39589   -1.000
 3372.00    0.26374   0.40046   -1.000
 3373.00    0.28131   0.41902   -1.000
 3374.00    0.27829   0.45015   -1.000
 3375.00    0.28472   0.48459   -1.000
 3376.00    0.31282   0.50804   -1.000
 3377.00    0.32134   0.50866   -1.000
 3378.00    0.32390   0.48752   -1.000
 3379.00    0.31997   0.46082   -1.000
 3380.00    0.30559   0.44548   -1.000
 3381.00    0.29206   0.44841   -1.000
 3382.00    0.29591   0.46387   -1.000
 3383.00    0.31348   0.48122   -1.000
 3384.00    0.32830   0.49518   -1.000
 3385.00    0.32775   0.50559   -1.000
 3386.00    0.33356   0.51078   -1.000
 3387.00    0.34267   0.51150   -1.000
 3388.00    0.35768   0.51138   -1.000
 3389.00    0.36219   0.51088   -1.000
 3390.00    0.36794   0.50596   -1.000
 3391.00    0.36788   0.49269   -1.000
 3392.00    0.36323   0.47591   -1.000
 3393.00    0.35620   0.46794   -1.000
 3394.00    0.35906   0.47613   -1.000
 3395.00    0.37813   0.49739   -1.000
 3396.00    0.40147   0.52204   -1.000
 3397.00    0.42023   0.54407   -1.000
 3398.00    0.43271   0.56122   -1.000
 3399.00    0.44346   0.56940   -1.000
 3400.00    0.46085   0.56670   -1.000
 3401.00    0.46179   0.55540   -1.000
 3402.00    0.43186   0.53903   -1.000
 3403.00    0.42396   0.52342   -1.000
 3404.00    0.42341   0.51233   -1.000
 3405.00    0.40328   0.50427   -1.000
 3406.00    0.39058   0.49684   -1.000
 3407.00    0.39215   0.49068   -1.000
 3408.00    0.40010   0.48872   -1.000
 3409.00    0.40241   0.49248   -1.000
 3410.00    0.40223   0.49910   -1.000
 3411.00    0.40355   0.49977   -1.000
 3412.00    0.39625   0.48891   -1.000
 3413.00    0.38541   0.47168   -1.000
 3414.00    0.38410   0.45953   -1.000
 3415.00    0.39679   0.46189   -1.000
 3416.00    0.40580   0.47849   -1.000
 3417.00    0.40826   0.50378   -1.000
 3418.00    0.42104   0.53055   -1.000
 3419.00    0.43985   0.55227   -1.000
 3420.00    0.45686   0.56159   -1.000
 3421.00    0.45589   0.55430   -1.000
 3422.00    0.45440   0.53604   -1.000
 3423.00    0.45297   0.52129   -1.000
 3424.00    0.44583   0.51757   -1.000
 3425.00    0.43947   0.52078   -1.000
 3426.00    0.44394   0.52580   -1.000
 3427.00    0.46397   0.53450   -1.000
 3428.00    0.47341   0.55126   -1.000
 3429.00    0.48929   0.57083   -1.000
 3430.00    0.50439   0.57726   -1.000
 3431.00    0.48936   0.56402   -1.000
 3432.00    0.47700   0.54136   -1.000
 3433.00    0.46973   0.52653   -1.000
 3434.00    0.47720   0.52786   -1.000
 3435.00    0.48546   0.53578   -1.000
 3436.00    0.47328   0.53602   -1.000
 3437.00    0.46144   0.52300   -1.000
 3438.00    0.44937   0.49754   -1.000
 3439.00    0.42499   0.46238   -1.000
 3440.00    0.39351   0.42648   -1.000
 3441.00    0.36673   0.40133   -1.000
 3442.00    0.37197   0.39410  139.307
 3443.00    0.38969   0.40309  136.561
 3444.00    0.40546   0.42051  130.198
 3445.00    0.42767   0.44042  123.017
 3446.00    0.44179   0.46269  117.302
 3447.00    0.46450   0.48771   -1.000
 3448.00    0.47908   0.51380   -1.000
 3449.00    0.48511   0.53562   -1.000
 3450.00    0.48637   0.54325   -1.000
 3451.00    0.48783   0.53355   -1.000
 3452.00    0.48151   0.51897   -1.000
 3453.00    0.47950   0.51337   -1.000
 3454.00    0.48720   0.51866   -1.000
 3455.00    0.50255   0.52478   -1.000
 3456.00    0.50447   0.52048   -1.000
 3457.00    0.48881   0.50400   -1.000
 3458.00    0.47050   0.48208  233.042
 3459.00    0.46617   0.46395  112.710
 3460.00    0.46973   0.45464  113.271
 3461.00    0.47058   0.45807  181.172
 3462.00    0.47688   0.47574  880.029
 3463.00    0.49616   0.49892  880.029
 3464.00    0.50648   0.51104  880.029
 3465.00    0.51467   0.50958   -1.000
 3466.00    0.51788   0.50666   -1.000
 3467.00    0.52205   0.51287   -1.000
 3468.00    0.53886   0.52908   -1.000
 3469.00    0.55206   0.54594   -1.000
 3470.00    0.54923   0.55184  880.029
 3471.00    0.54245   0.54138  880.029
 3472.00    0.52371   0.51795   -1.000
 3473.00    0.50829   0.48787   -1.000
 3474.00    0.49814   0.45836   -1.000
 3475.00    0.46912   0.43763   -1.000
 3476.00    0.44462   0.43460  116.161
 3477.00    0.45032   0.45040  184.085
 3478.00    0.47967   0.47586   -1.000
 3479.00    0.51211   0.49948   -1.000
 3480.00    0.53292   0.51421   -1.000
 3481.00    0.54593   0.51707   -1.000
 3482.00    0.55318   0.50954   -1.000
 3483.00    0.54391   0.49954   -1.000
 3484.00    0.53277   0.49835   -1.000
 3485.00    0.54088   0.51172   -1.000
 3486.00    0.54887   0.53088   -1.000
 3487.00    0.55695   0.53964   -1.000
 3488.00    0.55455   0.52812   -1.000
 3489.00    0.52895   0.50191   -1.000
 3490.00    0.50712   0.47692   -1.000
 3491.00    0.49934   0.46599   -1.000
 3492.00    0.50180   0.47046   -1.000
 3493.00    0.51213   0.48151   -1.000
 3494.00    0.51664   0.48798   -1.000
 3495.00    0.50534   0.48403   -1.000
 3496.00    0.49025   0.47663   -1.000
 3497.00    0.49293   0.48115   -1.000
 3498.00    0.52036   0.50413   -1.000
 3499.00    0.55287   0.53433   -1.000
 3500.00    0.58251   0.55578   -1.000
 3501.00    0.58879   0.56713   -1.000
 3502.00    0.58454   0.57519   -1.000
 3503.00    0.58750   0.57881   -1.000
 3504.00    0.58299   0.57317   -1.000
 3505.00    0.57231   0.56019   -1.000
 3506.00    0.57083   0.54830   -1.000
 3507.00    0.56908   0.54351   -1.000
 3508.00    0.57323   0.54111   -1.000
 3509.00    0.56729   0.53329   -1.000
 3510.00    0.55843   0.52058   -1.000
 3511.00    0.55724   0.50641   -1.000
 3512.00    0.54586   0.49156   -1.000
 3513.00    0.51702   0.47841   -1.000
 3514.00    0.50096   0.47607   -1.000
 3515.00    0.51398   0.49446   -1.000
 3516.00    0.53964   0.52956   -1.000
 3517.00    0.56940   0.56252   -1.000
 3518.00    0.58556   0.57580   -1.000
 3519.00    0.57408   0.56459   -1.000
 3520.00    0.54966   0.53862   -1.000
 3521.00    0.52366   0.51028   -1.000
 3522.00    0.50351   0.48569   -1.000
 3523.00    0.48822   0.46343   -1.000
 3524.00    0.46136   0.44342  113.732
 3525.00    0.43867   0.43401  115.742
 3526.00    0.45302   0.44543  186.818
 3527.00    0.48524   0.47656   -1.000
 3528.00    0.51360   0.51492  880.029
 3529.00    0.53912   0.54404   -1.000
 3530.00    0.55429   0.55478  880.029
 3531.00    0.56010   0.55099   -1.000
 3532.00    0.56019   0.54677   -1.000
 3533.00    0.56428   0.55164   -1.000
 3534.00    0.56409   0.56269  880.029
 3535.00    0.57186   0.57214  880.029
 3536.00    0.58030   0.57708   -1.000
 3537.00    0.58427   0.58274  880.029
 3538.00    0.59330   0.59254  880.029
 3539.00    0.60435   0.59982   -1.000
 3540.00    0.59877   0.59768  880.029
 3541.00    0.57629   0.58922   -1.000
 3542.00    0.56880   0.58480   -1.000
 3543.00    0.57428   0.58982   -1.000
 3544.00    0.58141   0.59852   -1.000
 3545.00    0.57756   0.60231   -1.000
 3546.00    0.57491   0.59846   -1.000
 3547.00    0.57181   0.59209   -1.000
 3548.00    0.56147   0.58929   -1.000
 3549.00    0.56529   0.59026   -1.000
 3550.00    0.56962   0.58958   -1.000
 3551.00    0.55663   0.58178   -1.000
 3552.00    0.54248   0.56705   -1.000
 3553.00    0.53637   0.55193   -1.000
 3554.00    0.52716   0.54468   -1.000
 3555.00    0.53067   0.54715   -1.000
 3556.00    0.53653   0.55242   -1.000
 3557.00    0.52921   0.55375   -1.000
 3558.00    0.52740   0.55067   -1.000
 3559.00    0.52670   0.54898   -1.000
 3560.00    0.52238   0.55450   -1.000
 3561.00    0.52439   0.56639   -1.000
 3562.00    0.53622   0.57397   -1.000
 3563.00    0.53732   0.56154   -1.000
 3564.00    0.51374   0.52612  228.483
 3565.00    0.47810   0.48485  115.142
 3566.00    0.45390   0.46025  117.204
 3567.00    0.45198   0.45524  116.121
 3568.00    0.45201   0.45358  117.474
 3569.00    0.44064   0.44536  120.723
 3570.00    0.42996   0.43757  120.244
 3571.00    0.43273   0.44066  115.703
 3572.00    0.45426   0.45536  184.688
 3573.00    0.47312   0.47251  880.029
 3574.00    0.48588   0.48539  880.029
 3575.00    0.50254   0.49347   -1.000
 3576.00    0.51270   0.49589   -1.000
 3577.00    0.50222   0.48888   -1.000
 3578.00    0.48043   0.47017   -1.000
 3579.00    0.45641   0.44177  120.872
 3580.00    0.42344   0.41277  129.263
 3581.00    0.39645   0.39424  133.587
 3582.00    0.38934   0.39167  134.271
 3583.00    0.39268   0.39731  136.063
 3584.00    0.38468   0.39746  139.990
 3585.00    0.37256   0.38977  143.466
 3586.00    0.37183   0.38391  141.254
 3587.00    0.38218   0.38970  133.868
 3588.00    0.40178   0.41008  127.027
 3589.00    0.42554   0.44241  118.452
 3590.00    0.46628   0.47913  184.097
 3591.00    0.51405   0.50927   -1.000
 3592.00    0.52486   0.52495  880.029
 3593.00    0.51818   0.53068   -1.000
 3594.00    0.52537   0.53902   -1.000
 3595.00    0.55043   0.55680   -1.000
 3596.00    0.57367   0.57941   -1.000
 3597.00    0.58599   0.59801   -1.000
 3598.00    0.59676   0.61102   -1.000
 3599.00    0.60710   0.61926   -1.000
 3600.00    0.60541   0.61652   -1.000
 3601.00    0.59374   0.59679  880.029
 3602.00    0.56900   0.56528   -1.000
 3603.00    0.53908   0.53403   -1.000
 3604.00    0.52780   0.51362   -1.000
 3605.00    0.52673   0.50584   -1.000
 3606.00    0.52037   0.50233   -1.000
 3607.00    0.50733   0.49299   -1.000
 3608.00    0.49104   0.47832   -1.000
 3609.00    0.48023   0.47019   -1.000
 3610.00    0.48962   0.47783   -1.000
 3611.00    0.51040   0.49763   -1.000
 3612.00    0.52923   0.51759   -1.000
 3613.00    0.53507   0.53361  880.029
 3614.00    0.54248   0.54909   -1.000
 3615.00    0.56529   0.55991   -1.000
 3616.00    0.56459   0.55230   -1.000
 3617.00    0.53459   0.52050   -1.000
 3618.00    0.48694   0.48073  224.258
 3619.00    0.45961   0.46263  183.661
 3620.00    0.48302   0.47927   -1.000
 3621.00    0.53119   0.51893   -1.000
 3622.00    0.56097   0.55910  880.029
 3623.00    0.57689   0.58739   -1.000
 3624.00    0.59674   0.61018   -1.000
 3625.00    0.61270   0.63747   -1.000
 3626.00    0.64242   0.66597   -1.000
 3627.00    0.65870   0.68162   -1.000
 3628.00    0.64675   0.67005   -1.000
 3629.00    0.60572   0.62697   -1.000
 3630.00    0.54710   0.56661   -1.000
 3631.00    0.50160   0.51778   -1.000
 3632.00    0.49017   0.49925   -1.000
 3633.00    0.50763   0.50910  880.029
 3634.00    0.52842   0.53234  880.029
 3635.00    0.53946   0.55528   -1.000
 3636.00    0.55189   0.57408   -1.000
 3637.00    0.57163   0.59410   -1.000
 3638.00    0.61255   0.61835   -1.000
 3639.00    0.64336   0.64017  809.349
 3640.00    0.64292   0.64980   -1.000
 3641.00    0.62052   0.64218   -1.000
 3642.00    0.59525   0.62066   -1.000
 3643.00    0.57451   0.59401   -1.000
 3644.00    0.55179   0.56909   -1.000
 3645.00    0.53638   0.54796   -1.000
 3646.00    0.53326   0.52986   -1.000
 3647.00    0.52716   0.51679   -1.000
 3648.00    0.51859   0.51535   -1.000
 3649.00    0.53323   0.52934   -1.000
 3650.00    0.56070   0.55714   -1.000
 3651.00    0.58501   0.59208   -1.000
 3652.00    0.61030   0.62502   -1.000
 3653.00    0.63532   0.64781   -1.000
 3654.00    0.64738   0.66082   -1.000
 3655.00    0.64858   0.67055   -1.000
 3656.00    0.65616   0.68281   -1.000
 3657.00    0.66532   0.69754   -1.000
 3658.00    0.67127   0.70905   -1.000
 3659.00    0.67628   0.71362   -1.000
 3660.00    0.67923   0.71037   -1.000
 3661.00    0.67307   0.69911   -1.000
 3662.00    0.65281   0.68268   -1.000
 3663.00    0.64293   0.66884   -1.000
 3664.00    0.64577   0.66305   -1.000
 3665.00    0.64888   0.66343   -1.000
 3666.00    0.65342   0.66256   -1.000
 3667.00    0.64605   0.65421   -1.000
 3668.00    0.63664   0.64039   -1.000
 3669.00    0.62816   0.63130   -1.000
 3670.00    0.62343   0.63697   -1.000
 3671.00    0.63975   0.65523   -1.000
 3672.00    0.65871   0.67371   -1.000
 3673.00    0.66620   0.68362   -1.000
 3674.00    0.66493   0.68351   -1.000
 3675.00    0.65497   0.67311   -1.000
 3676.00    0.64185   0.65243   -1.000
 3677.00    0.62753   0.62535  849.822
 3678.00    0.60179   0.59914  873.738
 3679.00    0.57262   0.58240   -1.000
 3680.00    0.57043   0.58165   -1.000
 3681.00    0.59924   0.59523  848.086
 3682.00    0.62627   0.61278   -1.000
 3683.00    0.62843   0.62204   -1.000
 3684.00    0.61421   0.61447  863.384
 3685.00    0.59222   0.59079  880.029
 3686.00    0.56974   0.56359   -1.000
 3687.00    0.55649   0.55202   -1.000
 3688.00    0.56468   0.56696  880.029
 3689.00    0.59624   0.60430   -1.000
 3690.00    0.63654   0.64725   -1.000
 3691.00    0.66815   0.67650   -1.000
 3692.00    0.67288   0.68216   -1.000
 3693.00    0.65554   0.67070   -1.000
 3694.00    0.64638   0.65719   -1.000
 3695.00    0.65939   0.65084   -1.000
 3696.00    0.66451   0.65403   -1.000
 3697.00    0.66002   0.66800   -1.000
 3698.00    0.67745   0.69152   -1.000
 3699.00    0.71329   0.71518   -1.000
 3700.00    0.72928   0.72607  737.423
 3701.00    0.71025   0.71417   -1.000
 3702.00    0.67934   0.67589  812.646
 3703.00    0.62769   0.61842   -1.000
 3704.00    0.56815   0.56106   -1.000
 3705.00    0.53936   0.52209   -1.000
 3706.00    0.54171   0.50873   -1.000
 3707.00    0.54568   0.51397   -1.000
 3708.00    0.54118   0.52776   -1.000
 3709.00    0.55979   0.54793   -1.000
 3710.00    0.59704   0.57635   -1.000
 3711.00    0.63002   0.61217   -1.000
 3712.00    0.66743   0.65173   -1.000
 3713.00    0.70741   0.68750   -1.000
 3714.00    0.73130   0.70946   -1.000
 3715.00    0.72290   0.71165   -1.000
 3716.00    0.69915   0.69420  759.366
 3717.00    0.67539   0.65679   -1.000
 3718.00    0.62426   0.59878   -1.000
 3719.00    0.54108   0.52849   -1.000
 3720.00    0.47926   0.46747   -1.000
 3721.00    0.46981   0.44054   -1.000
 3722.00    0.49589   0.45636   -1.000
 3723.00    0.54485   0.50445   -1.000
 3724.00    0.59855   0.56329   -1.000
 3725.00    0.62666   0.60635   -1.000
 3726.00    0.62677   0.61917   -1.000
 3727.00    0.61688   0.61350  845.475
 3728.00    0.61396   0.60985   -1.000
 3729.00    0.61581   0.61116   -1.000
 3730.00    0.60821   0.60366   -1.000
 3731.00    0.58546   0.57286   -1.000
 3732.00    0.54879   0.51779   -1.000
 3733.00    0.49479   0.45474   -1.000
 3734.00    0.44017   0.40386   -1.000
 3735.00    0.41289   0.38080   -1.000
 3736.00    0.42471   0.39284   -1.000
 3737.00    0.46296   0.43682   -1.000
 3738.00    0.51805   0.49994   -1.000
 3739.00    0.58102   0.56405   -1.000
 3740.00    0.62228   0.60855   -1.000
 3741.00    0.62760   0.62024   -1.000
 3742.00    0.60666   0.60086   -1.000
 3743.00    0.57304   0.56476   -1.000
 3744.00    0.53849   0.52715   -1.000
 3745.00    0.51058   0.49648   -1.000
 3746.00    0.48990   0.46999   -1.000
 3747.00    0.46629   0.44164   -1.000
 3748.00    0.43678   0.41597  121.182
 3749.00    0.42414   0.40875   -1.000
 3750.00    0.45903   0.43404   -1.000
 3751.00    0.53033   0.48924   -1.000
 3752.00    0.59379   0.55621   -1.000
 3753.00    0.64428   0.61838   -1.000
 3754.00    0.69083   0.66355   -1.000
 3755.00    0.70419   0.67684   -1.000
 3756.00    0.67128   0.65088   -1.000
 3757.00    0.61115   0.59836   -1.000
 3758.00    0.55414   0.54914   -1.000
 3759.00    0.53635   0.52889   -1.000
 3760.00    0.55333   0.53700   -1.000
 3761.00    0.58518   0.55490   -1.000
 3762.00    0.60859   0.56746   -1.000
 3763.00    0.60806   0.57272   -1.000
 3764.00    0.59750   0.57450   -1.000
 3765.00    0.59834   0.57215   -1.000
 3766.00    0.59838   0.56536   -1.000
 3767.00    0.59504   0.55990   -1.000
 3768.00    0.59787   0.55966   -1.000
 3769.00    0.59711   0.56276   -1.000
 3770.00    0.59805   0.57009   -1.000
 3771.00    0.62052   0.58761   -1.000
 3772.00    0.65800   0.61465   -1.000
 3773.00    0.68820   0.64092   -1.000
 3774.00    0.69381   0.65751   -1.000
 3775.00    0.68594   0.66548   -1.000
 3776.00    0.67894   0.67204   -1.000
 3777.00    0.67831   0.68270   -1.000
 3778.00    0.68992   0.69857   -1.000
 3779.00    0.70877   0.71710   -1.000
 3780.00    0.72721   0.73422   -1.000
 3781.00    0.73595   0.74624   -1.000
 3782.00    0.74062   0.75220   -1.000
 3783.00    0.74467   0.75059   -1.000
 3784.00    0.73198   0.73472  741.383
 3785.00    0.69361   0.70073   -1.000
 3786.00    0.64850   0.65688   -1.000
 3787.00    0.61641   0.61745  868.857
 3788.00    0.59674   0.59335   -1.000
 3789.00    0.58822   0.58839  868.752
 3790.00    0.60081   0.59674   -1.000
 3791.00    0.61980   0.60576   -1.000
 3792.00    0.61328   0.60362   -1.000
 3793.00    0.58895   0.58664   -1.000
 3794.00    0.57520   0.56146   -1.000
 3795.00    0.56792   0.53509   -1.000
 3796.00    0.54898   0.50825   -1.000
 3797.00    0.52376   0.48269   -1.000
 3798.00    0.51191   0.47080   -1.000
 3799.00    0.53035   0.48752   -1.000
 3800.00    0.57261   0.53277   -1.000
 3801.00    0.60886   0.59007   -1.000
 3802.00    0.64065   0.64134  799.710
 3803.00    0.66660   0.67527   -1.000
 3804.00    0.67629   0.68702   -1.000
 3805.00    0.66686   0.67771   -1.000
 3806.00    0.64710   0.65914   -1.000
 3807.00    0.63556   0.64913   -1.000
 3808.00    0.63939   0.65744   -1.000
 3809.00    0.65497   0.67750   -1.000
 3810.00    0.67353   0.69205   -1.000
 3811.00    0.66545   0.68544   -1.000
 3812.00    0.63540   0.65421   -1.000
 3813.00    0.59711   0.60931   -1.000
 3814.00    0.56302   0.56794  880.029
 3815.00    0.54478   0.54497  880.029
 3816.00    0.54036   0.54349  880.029
 3817.00    0.55213   0.55056  880.029
 3818.00    0.55492   0.54637   -1.000
 3819.00    0.52896   0.52532   -1.000
 3820.00    0.49431   0.50483   -1.000
 3821.00    0.49376   0.50240   -1.000
 3822.00    0.51419   0.51281   -1.000
 3823.00    0.51318   0.51398  880.029
 3824.00    0.48208   0.49491  224.274
 3825.00    0.45255   0.46802  118.208
 3826.00    0.44304   0.45033  119.028
 3827.00    0.44044   0.44735  117.526
 3828.00    0.44272   0.45460  115.596
 3829.00    0.45506   0.46340  115.279
 3830.00    0.46064   0.46338  118.558
 3831.00    0.44325   0.44836  125.942
 3832.00    0.41460   0.42232  133.204
 3833.00    0.40000   0.39742  133.959
 3834.00    0.40505   0.38506  129.864
 3835.00    0.42037   0.38659   -1.000
 3836.00    0.43281   0.39527   -1.000
 3837.00    0.42671   0.40301   -1.000
 3838.00    0.41350   0.40800  129.033
 3839.00    0.41264   0.41767  124.148
 3840.00    0.43209   0.44204  205.807
 3841.00    0.47744   0.48357   -1.000
 3842.00    0.53037   0.53245  880.029
 3843.00    0.56518   0.57436   -1.000
 3844.00    0.58948   0.60037   -1.000
 3845.00    0.59639   0.61254   -1.000
 3846.00    0.58839   0.61818   -1.000
 3847.00    0.58679   0.61894   -1.000
 3848.00    0.57424   0.61178   -1.000
 3849.00    0.54860   0.60022   -1.000
 3850.00    0.54178   0.59474   -1.000
 3851.00    0.56136   0.60091   -1.000
 3852.00    0.58225   0.61135   -1.000
 3853.00    0.58111   0.61404   -1.000
 3854.00    0.56375   0.60480   -1.000
 3855.00    0.54386   0.58832   -1.000
 3856.00    0.52949   0.56995   -1.000
 3857.00    0.51382   0.54953   -1.000
 3858.00    0.48526   0.52759   -1.000
 3859.00    0.45942   0.51403   -1.000
 3860.00    0.46337   0.52224   -1.000
 3861.00    0.50184   0.55401   -1.000
 3862.00    0.55554   0.59313   -1.000
 3863.00    0.59414   0.61857   -1.000
 3864.00    0.60418   0.62344   -1.000
 3865.00    0.59127   0.61687   -1.000
 3866.00    0.57295   0.61032   -1.000
 3867.00    0.56614   0.60639   -1.000
 3868.00    0.55655   0.59994   -1.000
 3869.00    0.53468   0.58546   -1.000
 3870.00    0.50440   0.56339   -1.000
 3871.00    0.48574   0.54301   -1.000
 3872.00    0.49511   0.53732   -1.000
 3873.00    0.53526   0.55482   -1.000
 3874.00    0.58538   0.58784  880.029
 3875.00    0.60251   0.61304   -1.000
 3876.00    0.58876   0.61094   -1.000
 3877.00    0.55827   0.58716   -1.000
 3878.00    0.52683   0.56534   -1.000
 3879.00    0.51879   0.55881   -1.000
 3880.00    0.52294   0.56231   -1.000
 3881.00    0.51831   0.56701   -1.000
 3882.00    0.53004   0.57148   -1.000
 3883.00    0.56242   0.57676   -1.000
 3884.00    0.58762   0.57385   -1.000
 3885.00    0.58438   0.55257   -1.000
 3886.00    0.56173   0.51912   -1.000
 3887.00    0.55139   0.49066   -1.000
 3888.00    0.55308   0.48259   -1.000
 3889.00    0.56526   0.50181   -1.000
 3890.00    0.60931   0.54495   -1.000
 3891.00    0.66759   0.59833   -1.000
 3892.00    0.70807   0.64166   -1.000
 3893.00    0.71148   0.66166   -1.000
 3894.00    0.69380   0.66408   -1.000
 3895.00    0.69148   0.66464   -1.000
 3896.00    0.70634   0.67081   -1.000
 3897.00    0.72482   0.67780   -1.000
 3898.00    0.72458   0.67911   -1.000
 3899.00    0.71656   0.67657   -1.000
 3900.00    0.71758   0.67696   -1.000
 3901.00    0.71802   0.68065   -1.000
 3902.00    0.71413   0.68053   -1.000
 3903.00    0.69689   0.67132   -1.000
 3904.00    0.66969   0.65561   -1.000
 3905.00    0.64928   0.64394   -1.000
 3906.00    0.64704   0.64903  784.720
 3907.00    0.68417   0.67478   -1.000
 3908.00    0.73495   0.71042   -1.000
 3909.00    0.76032   0.74097   -1.000
 3910.00    0.76740   0.76032   -1.000
 3911.00    0.77996   0.77035   -1.000
 3912.00    0.78745   0.77215   -1.000
 3913.00    0.78217   0.76586   -1.000
 3914.00    0.77103   0.75437   -1.000
 3915.00    0.75518   0.74251   -1.000
 3916.00    0.74634   0.73165   -1.000
 3917.00    0.73436   0.71860   -1.000
 3918.00    0.70525   0.69873   -1.000
 3919.00    0.67502   0.67131   -1.000
 3920.00    0.64368   0.64422  835.324
 3921.00    0.62212   0.62835   -1.000
 3922.00    0.62476   0.62761  828.088
 3923.00    0.64375   0.63436   -1.000
 3924.00    0.64748   0.63548   -1.000
 3925.00    0.62156   0.62086  880.029
 3926.00    0.57958   0.58699   -1.000
 3927.00    0.51739   0.53864   -1.000
 3928.00    0.44697   0.48456   -1.000
 3929.00    0.38597   0.43224   -1.000
 3930.00    0.32910   0.38368   -1.000
 3931.00    0.28116   0.33716   -1.000
 3932.00    0.24533   0.29500   -1.000
 3933.00    0.22201   0.26739   -1.000
 3934.00    0.22500   0.26585   -1.000
 3935.00    0.24976   0.29241   -1.000
 3936.00    0.28940   0.33894   -1.000
 3937.00    0.35224   0.39564   -1.000
 3938.00    0.42091   0.45467   -1.000
 3939.00    0.47160   0.50782   -1.000
 3940.00    0.51317   0.54829   -1.000
 3941.00    0.54239   0.57166   -1.000
 3942.00    0.55299   0.58032   -1.000
 3943.00    0.55838   0.58675   -1.000
 3944.00    0.57794   0.60369   -1.000
 3945.00    0.62062   0.63201   -1.000
 3946.00    0.66829   0.66105   -1.000
 3947.00    0.69444   0.68170   -1.000
 3948.00    0.69712   0.69630  743.901
 3949.00    0.71349   0.71187  717.740
 3950.00    0.74337   0.72673   -1.000
 3951.00    0.75771   0.73394   -1.000
 3952.00    0.75852   0.73651   -1.000
 3953.00    0.76039   0.74219   -1.000
 3954.00    0.76740   0.74819   -1.000
 3955.00    0.76213   0.74650   -1.000
 3956.00    0.74172   0.73723  728.689
 3957.00    0.73001   0.72817  728.019
 3958.00    0.72958   0.72153   -1.000
 3959.00    0.72021   0.70386   -1.000
 3960.00    0.67146   0.66205   -1.000
 3961.00    0.59237   0.60537   -1.000
 3962.00    0.53260   0.55353   -1.000
 3963.00    0.50178   0.51437  216.655
 3964.00    0.47156   0.47818  125.596
 3965.00    0.41569   0.43085  150.815
 3966.00    0.34440   0.37061   -1.000
 3967.00    0.27778   0.31053   -1.000
 3968.00    0.24422   0.27052   -1.000
 3969.00    0.25933   0.26428  191.486
 3970.00    0.30392   0.29243  157.417
 3971.00    0.36128   0.34564  130.581
 3972.00    0.42821   0.41151   -1.000
 3973.00    0.50465   0.48018   -1.000
 3974.00    0.57190   0.54621   -1.000
 3975.00    0.63242   0.60646   -1.000
 3976.00    0.68701   0.66094   -1.000
 3977.00    0.72641   0.71120   -1.000
 3978.00    0.76587   0.75698   -1.000
 3979.00    0.81253   0.79360   -1.000
 3980.00    0.84806   0.81356   -1.000
 3981.00    0.84408   0.81587   -1.000
 3982.00    0.82834   0.80929   -1.000
 3983.00    0.83265   0.80734   -1.000
 3984.00    0.84644   0.81720   -1.000
 3985.00    0.85803   0.83456   -1.000
 3986.00    0.86976   0.85300   -1.000
 3987.00    0.88711   0.86937   -1.000
 3988.00    0.90194   0.88064   -1.000
 3989.00    0.91136   0.88627   -1.000
 3990.00    0.90982   0.89139   -1.000
 3991.00    0.91947   0.90098   -1.000
 3992.00    0.94278   0.91321   -1.000
 3993.00    0.94645   0.92008   -1.000
 3994.00    0.93206   0.91447   -1.000
 3995.00    0.91675   0.89714   -1.000
 3996.00    0.90063   0.87876   -1.000
 3997.00    0.87287   0.87319  605.462
 3998.00    0.87814   0.88661   -1.000
 3999.00    0.92555   0.91301   -1.000
 4000.00    0.96231   0.93985   -1.000
 4001.00    0.98337   0.95781   -1.000
 4002.00    1.00182   0.96033   -1.000
 4003.00    0.98518   0.94143   -1.000
 4004.00    0.92443   0.90429   -1.000
 4005.00    0.87022   0.87041  611.353
 4006.00    0.86189   0.86447  590.137
 4007.00    0.90617   0.88989   -1.000
 4008.00    0.95717   0.92758   -1.000
 4009.00    0.98482   0.95705   -1.000
 4010.00    0.98879   0.97270   -1.000
 4011.00    1.00366   0.97852   -1.000
 4012.00    1.01349   0.98066   -1.000
 4013.00    1.00243   0.98470   -1.000
 4014.00    1.00310   0.99069   -1.000
 4015.00    1.00112   0.99406  532.752
 4016.00    0.99542   0.99327  538.587
 4017.00    0.98855   0.99286   -1.000
 4018.00    0.99197   0.99761   -1.000
 4019.00    1.00654   1.00560  531.324
 4020.00    1.00743   1.01036  536.057
 4021.00    1.00032   1.00779   -1.000
 4022.00    0.99742   0.99897  544.975
 4023.00    0.99398   0.98755  548.912
 4024.00    0.98963   0.97985   -1.000
 4025.00    0.99574   0.98478   -1.000
 4026.00    1.01714   1.00469   -1.000
 4027.00    1.04472   1.02578   -1.000
 4028.00    1.05552   1.02598   -1.000
 4029.00    1.02018   0.99423   -1.000
 4030.00    0.95692   0.94210   -1.000
 4031.00    0.90966   0.89406   -1.000
 4032.00    0.90107   0.86780   -1.000
 4033.00    0.91038   0.86880   -1.000
 4034.00    0.93187   0.89550   -1.000
 4035.00    0.97532   0.94202   -1.000
 4036.00    1.02195   0.99608   -1.000
 4037.00    1.06506   1.04094   -1.000
 4038.00    1.08504   1.06207   -1.000
 4039.00    1.06852   1.05854   -1.000
 4040.00    1.04799   1.04308  524.668
 4041.00    1.04255   1.02655   -1.000
 4042.00    1.03826   1.00139   -1.000
 4043.00    1.00000   0.95136   -1.000
 4044.00    0.90835   0.88177   -1.000
 4045.00    0.82728   0.82916  644.608
 4046.00    0.83327   0.83082  597.608
 4047.00    0.91138   0.88544   -1.000
 4048.00    0.99129   0.95685   -1.000
 4049.00    1.03893   1.01173   -1.000
 4050.00    1.05571   1.03751   -1.000
 4051.00    1.04912   1.03827   -1.000
 4052.00    1.02848   1.02270  538.362
 4053.00    1.00450   0.99968  549.496
 4054.00    0.98105   0.97760  555.834
 4055.00    0.96891   0.96004   -1.000
 4056.00    0.96186   0.94643   -1.000
 4057.00    0.95208   0.94029   -1.000
 4058.00    0.95686   0.94924  550.116
 4059.00    0.98112   0.97016   -1.000
 4060.00    1.01079   0.98275   -1.000
 4061.00    1.01024   0.96502   -1.000
 4062.00    0.95610   0.91896   -1.000
 4063.00    0.89131   0.87501   -1.000
 4064.00    0.87881   0.85949   -1.000
 4065.00    0.91093   0.87287   -1.000
 4066.00    0.94304   0.90142   -1.000
 4067.00    0.97109   0.93306   -1.000
 4068.00    1.00803   0.95842   -1.000
 4069.00    1.02611   0.96543   -1.000
 4070.00    1.00293   0.94802   -1.000
 4071.00    0.96466   0.92301   -1.000
 4072.00    0.95424   0.91682   -1.000
 4073.00    0.97837   0.93128   -1.000
 4074.00    0.99221   0.94090   -1.000
 4075.00    0.97477   0.92275   -1.000
 4076.00    0.92216   0.88487   -1.000
 4077.00    0.87030   0.85954   -1.000
 4078.00    0.87787   0.87165  593.516
 4079.00    0.93333   0.91992   -1.000
 4080.00    1.00176   0.97763   -1.000
 4081.00    1.04641   1.01472   -1.000
 4082.00    1.03826   1.01868   -1.000
 4083.00    1.00891   1.00058   -1.000
 4084.00    0.99197   0.98428   -1.000
 4085.00    0.99432   0.98849  535.298
 4086.00    1.03087   1.01568   -1.000
 4087.00    1.07781   1.05255   -1.000
 4088.00    1.10646   1.08144   -1.000
 4089.00    1.11636   1.09090   -1.000
 4090.00    1.10255   1.08193   -1.000
 4091.00    1.07649   1.06566   -1.000
 4092.00    1.06246   1.05161   -1.000
 4093.00    1.06018   1.03785   -1.000
 4094.00    1.05293   1.01686   -1.000
 4095.00    1.02443   0.98661   -1.000
 4096.00    0.98509   0.95410   -1.000
 4097.00    0.95945   0.92642   -1.000
 4098.00    0.94566   0.89759   -1.000
 4099.00    0.91454   0.85560   -1.000
 4100.00    0.84678   0.80363   -1.000
 4101.00    0.78760   0.76433   -1.000
 4102.00    0.79037   0.76212   -1.000
 4103.00    0.84550   0.80301   -1.000
 4104.00    0.90962   0.86773   -1.000
 4105.00    0.95877   0.92939   -1.000
 4106.00    0.99780   0.97193   -1.000
 4107.00    1.01723   0.99203   -1.000
 4108.00    1.01669   0.99365   -1.000
 4109.00    1.00560   0.98575   -1.000
 4110.00    0.98563   0.97931  565.049
 4111.00    0.97745   0.98287   -1.000
 4112.00    0.99151   0.99807   -1.000
 4113.00    1.01614   1.02035   -1.000
 4114.00    1.03061   1.04181   -1.000
 4115.00    1.03624   1.05440   -1.000
 4116.00    1.04592   1.05201   -1.000
 4117.00    1.04311   1.03476   -1.000
 4118.00    1.02067   1.01200   -1.000
 4119.00    1.00027   0.99673  561.120
 4120.00    0.99847   0.99467  554.475
 4121.00    1.00509   1.00035  552.032
 4122.00    1.00494   1.00730  549.318
 4123.00    1.01327   1.01548  541.244
 4124.00    1.03297   1.02503   -1.000
 4125.00    1.04327   1.03060   -1.000
 4126.00    1.03385   1.02574   -1.000
 4127.00    1.01490   1.01157  556.525
 4128.00    0.99885   0.99609  560.059
 4129.00    0.99378   0.98280   -1.000
 4130.00    0.98781   0.96626   -1.000
 4131.00    0.96451   0.94382   -1.000
 4132.00    0.93522   0.92500   -1.000
 4133.00    0.92182   0.92540  596.123
 4134.00    0.94113   0.95065   -1.000
 4135.00    0.98230   0.99073   -1.000
 4136.00    1.02008   1.03021   -1.000
 4137.00    1.04794   1.06003   -1.000
 4138.00    1.06323   1.07799   -1.000
 4139.00    1.06422   1.08150   -1.000
 4140.00    1.05870   1.06300  544.899
 4141.00    1.01976   1.01765  582.916
 4142.00    0.94868   0.95839   -1.000
 4143.00    0.89491   0.91657   -1.000
 4144.00    0.89690   0.91602   -1.000
 4145.00    0.95268   0.95170  565.611
 4146.00    1.00681   0.99545   -1.000
 4147.00    1.01916   1.02089  555.683
 4148.00    1.00421   1.02261   -1.000
 4149.00    0.98306   1.01231   -1.000
 4150.00    0.96736   1.00314   -1.000
 4151.00    0.97198   0.99861   -1.000
 4152.00    0.97903   0.99426   -1.000
 4153.00    0.96077   0.98645   -1.000
 4154.00    0.99932   0.97807   -1.000
 4155.00    1.16561   0.97593   -1.000
 4156.00    1.14839   0.98469   -1.000
 4157.00    0.86111   1.00368   -1.000
 4158.00    0.81735   1.02806   -1.000
 4159.00    0.99820   1.05142   -1.000
 4160.00    1.05248   1.06939   -1.000
 4161.00    1.05073   1.08188   -1.000
 4162.00    1.06562   1.08987   -1.000
 4163.00    1.06890   1.09180   -1.000
 4164.00    1.05337   1.08508   -1.000
 4165.00    1.02467   1.06993   -1.000
 4166.00    0.99627   1.05157   -1.000
 4167.00    0.98068   1.03977   -1.000
 4168.00    0.99334   1.03868   -1.000
 4169.00    1.01186   1.03855   -1.000
 4170.00    1.00117   1.02251   -1.000
 4171.00    0.95651   0.98591   -1.000
 4172.00    0.90419   0.94642   -1.000
 4173.00    0.88786   0.92744   -1.000
 4174.00    0.91538   0.93580   -1.000
 4175.00    0.95036   0.95731   -1.000
 4176.00    0.96397   0.97426   -1.000
 4177.00    0.96150   0.98326   -1.000
 4178.00    0.96197   0.99135   -1.000
 4179.00    0.97169   1.00152   -1.000
 4180.00    0.98234   1.00913   -1.000
 4181.00    0.98418   1.01118   -1.000
 4182.00    0.98261   1.01409   -1.000
 4183.00    0.99562   1.02523   -1.000
 4184.00    1.01889   1.03836   -1.000
 4185.00    1.01740   1.03973   -1.000
 4186.00    0.99400   1.02541   -1.000
 4187.00    0.96843   1.00881   -1.000
 4188.00    0.96111   1.00583   -1.000
 4189.00    0.98691   1.01598   -1.000
 4190.00    1.00924   1.02964   -1.000
 4191.00    1.01343   1.04362   -1.000
 4192.00    1.03865   1.05740   -1.000
 4193.00    1.06627   1.06351  546.286
 4194.00    1.04487   1.05042  569.549
 4195.00    0.99345   1.01680   -1.000
 4196.00    0.95443   0.97729   -1.000
 4197.00    0.93523   0.94784   -1.000
 4198.00    0.93001   0.93412  611.026
 4199.00    0.93929   0.93218   -1.000
 4200.00    0.95064   0.93616   -1.000
 4201.00    0.95420   0.94307   -1.000
 4202.00    0.95943   0.95485  587.470
 4203.00    0.97247   0.97562  580.785
 4204.00    0.98921   1.00435   -1.000
 4205.00    1.00930   1.03482   -1.000
 4206.00    1.02930   1.06220   -1.000
 4207.00    1.04642   1.08276   -1.000
 4208.00    1.05751   1.09190   -1.000
 4209.00    1.06076   1.09086   -1.000
 4210.00    1.06550   1.08787   -1.000
 4211.00    1.07013   1.08811   -1.000
 4212.00    1.06489   1.08503   -1.000
 4213.00    1.05335   1.06670   -1.000
 4214.00    1.01418   1.03544   -1.000
 4215.00    0.97198   1.01238   -1.000
 4216.00    0.97851   1.01892   -1.000
 4217.00    1.02858   1.05679   -1.000
 4218.00    1.08863   1.10449   -1.000
 4219.00    1.12536   1.13982   -1.000
 4220.00    1.14363   1.15198   -1.000
 4221.00    1.14293   1.13720  514.402
 4222.00    1.10838   1.09302   -1.000
 4223.00    1.04536   1.02072   -1.000
 4224.00    0.95974   0.92964   -1.000
 4225.00    0.84793   0.84403  732.204
 4226.00    0.76230   0.79895   -1.000
 4227.00    0.78213   0.82108   -1.000
 4228.00    0.89424   0.90303   -1.000
 4229.00    1.00799   1.00286  534.448
 4230.00    1.06967   1.07315   -1.000
 4231.00    1.09826   1.09620  524.763
 4232.00    1.09549   1.08445   -1.000
 4233.00    1.06510   1.05858  547.534
 4234.00    1.04893   1.03329   -1.000
 4235.00    1.03213   1.01604   -1.000
 4236.00    1.01027   1.00894  570.839
 4237.00    1.01569   1.01329  561.237
 4238.00    1.03347   1.02924  550.688
 4239.00    1.04411   1.05283   -1.000
 4240.00    1.06072   1.07804   -1.000
 4241.00    1.07724   1.10111   -1.000
 4242.00    1.09005   1.12198   -1.000
 4243.00    1.10998   1.14182   -1.000
 4244.00    1.13405   1.15590   -1.000
 4245.00    1.12702   1.15151   -1.000
 4246.00    1.09625   1.12141   -1.000
 4247.00    1.06112   1.07559   -1.000
 4248.00    1.02854   1.03305  574.243
 4249.00    1.00497   1.00878  576.062
 4250.00    0.99468   1.00755   -1.000
 4251.00    1.02388   1.02266  549.903
 4252.00    1.05609   1.03721   -1.000
 4253.00    1.05581   1.03957   -1.000
 4254.00    1.02822   1.03754   -1.000
 4255.00    1.02951   1.04742   -1.000
 4256.00    1.07392   1.06846  529.392
 4257.00    1.09620   1.07680   -1.000
 4258.00    1.07366   1.05446   -1.000
 4259.00    1.02108   1.01538   -1.000
 4260.00    0.97647   0.99396   -1.000
 4261.00    0.98868   1.01418   -1.000
 4262.00    1.04785   1.06951   -1.000
 4263.00    1.11166   1.13180   -1.000
 4264.00    1.15249   1.17351   -1.000
 4265.00    1.16621   1.18521   -1.000
 4266.00    1.15675   1.17217   -1.000
 4267.00    1.12979   1.14054   -1.000
 4268.00    1.09730   1.09261  549.929
 4269.00    1.05766   1.03173   -1.000
 4270.00    0.99696   0.96718   -1.000
 4271.00    0.93478   0.91611   -1.000
 4272.00    0.91111   0.89401   -1.000
 4273.00    0.92508   0.90424   -1.000
 4274.00    0.94866   0.93929   -1.000
 4275.00    0.98117   0.99132   -1.000
 4276.00    1.03903   1.05128   -1.000
 4277.00    1.09691   1.10080  518.318
 4278.00    1.11828   1.11974  531.301
 4279.00    1.09020   1.10744   -1.000
 4280.00    1.04934   1.08446   -1.000
 4281.00    1.04209   1.07329   -1.000
 4282.00    1.05095   1.07639   -1.000
 4283.00    1.05952   1.07888   -1.000
 4284.00    1.05924   1.07029   -1.000
 4285.00    1.03313   1.05254   -1.000
 4286.00    1.00355   1.03159   -1.000
 4287.00    0.98365   1.00704   -1.000
 4288.00    0.95328   0.97504   -1.000
 4289.00    0.92221   0.94355   -1.000
 4290.00    0.90861   0.93282   -1.000
 4291.00    0.93270   0.95352   -1.000
 4292.00    0.99306   0.99092  572.101
 4293.00    1.02897   1.01730   -1.000
 4294.00    1.02307   1.01909  578.706
 4295.00    1.00947   1.00108   -1.000
 4296.00    0.98930   0.96867   -1.000
 4297.00    0.94314   0.92140   -1.000
 4298.00    0.87578   0.86464   -1.000
 4299.00    0.81806   0.81417   -1.000
 4300.00    0.78593   0.78578  729.341
 4301.00    0.78837   0.78234   -1.000
 4302.00    0.80712   0.79407   -1.000
 4303.00    0.82718   0.80879   -1.000
 4304.00    0.84946   0.81750   -1.000
 4305.00    0.84987   0.81247   -1.000
 4306.00    0.82697   0.79097   -1.000
 4307.00    0.79024   0.76263   -1.000
 4308.00    0.76071   0.74623   -1.000
 4309.00    0.76230   0.75633   -1.000
 4310.00    0.80094   0.79279   -1.000
 4311.00    0.85367   0.84465   -1.000
 4312.00    0.90055   0.90249  621.599
 4313.00    0.94649   0.96795   -1.000
 4314.00    1.00445   1.04813   -1.000
 4315.00    1.09305   1.13978   -1.000
 4316.00    1.18897   1.22530   -1.000
 4317.00    1.25146   1.28192   -1.000
 4318.00    1.26526   1.29933   -1.000
 4319.00    1.25051   1.28488   -1.000
 4320.00    1.22691   1.25022   -1.000
 4321.00    1.18167   1.19827   -1.000
 4322.00    1.12133   1.12683  550.117
 4323.00    1.05114   1.04115   -1.000
 4324.00    0.97293   0.96582   -1.000
 4325.00    0.92559   0.93814   -1.000
 4326.00    0.95114   0.97866   -1.000
 4327.00    1.05114   1.06805   -1.000
 4328.00    1.15550   1.15987   -1.000
 4329.00    1.19890   1.21712   -1.000
 4330.00    1.19690   1.23770   -1.000
 4331.00    1.19839   1.24290   -1.000
 4332.00    1.21424   1.25099   -1.000
 4333.00    1.22842   1.26241   -1.000
 4334.00    1.23860   1.26330   -1.000
 4335.00    1.23401   1.23632  500.399
 4336.00    1.18757   1.17107   -1.000
 4337.00    1.09639   1.07515   -1.000
 4338.00    0.99298   0.97538   -1.000
 4339.00    0.90720   0.90655  678.987
 4340.00    0.87244   0.89109   -1.000
 4341.00    0.91213   0.92986   99.597
 4342.00    0.99811   1.00308   54.971
 4343.00    1.07956   1.08107   52.581
 4344.00    1.13526   1.14284   51.092
 4345.00    1.17086   1.18610   50.003
 4346.00    1.18898   1.21872   49.351
 4347.00    1.20634   1.24554   48.672
 4348.00    1.23515   1.25961   48.388
 4349.00    1.23859   1.24446   49.961
 4350.00    1.18178   1.19516   53.374
 4351.00    1.09482   1.13527   55.597
 4352.00    1.05643   1.10248   54.525
 4353.00    1.09187   1.11561   52.072
 4354.00    1.14198   1.15907   50.137
 4355.00    1.18338   1.20385   48.897
 4356.00    1.21935   1.23178   48.479
 4357.00    1.22729   1.23917   49.115
 4358.00    1.21381   1.23294   49.960
 4359.00    1.20057   1.22912   49.658
 4360.00    1.20808   1.24126   48.331
 4361.00    1.23628   1.26712   47.373
 4362.00    1.26112   1.29492   47.065
 4363.00    1.27454   1.31626   46.688
 4364.00    1.28137   1.32702   46.425
 4365.00    1.28269   1.32112   47.231
 4366.00    1.25554   1.29468   48.899
 4367.00    1.20660   1.25763   49.995
 4368.00    1.18510   1.22923   49.913
 4369.00    1.19763   1.21753   49.496
 4370.00    1.20293   1.21375   49.346
 4371.00    1.20348   1.20378   49.614
 4372.00    1.20347   1.17889   50.990
 4373.00    1.16713   1.14171   53.102
 4374.00    1.11432   1.10948   54.033
 4375.00    1.10035   1.10520   52.691
 4376.00    1.13558   1.13555   50.174
 4377.00    1.19021   1.18184   48.574
 4378.00    1.22726   1.21425   48.414
 4379.00    1.22745   1.21396   49.063
 4380.00    1.20660   1.17569   50.770
 4381.00    1.16630   1.10054   -1.000
 4382.00    1.06500   1.00377   -1.000
 4383.00    0.94816   0.92489   64.709
 4384.00    0.90995   0.90499   61.261
 4385.00    0.97250   0.95136   55.367
 4386.00    1.07462   1.02923   52.109
 4387.00    1.13537   1.09163   51.490
 4388.00    1.14601   1.11904   51.873
 4389.00    1.14040   1.12359   52.226
 4390.00    1.13869   1.12619   51.700
 4391.00    1.15005   1.13677   50.566
 4392.00    1.17491   1.15065   50.267
 4393.00    1.18968   1.15903   51.100
 4394.00    1.16859   1.16408   51.502
 4395.00    1.16620   1.17932   49.999
 4396.00    1.20887   1.20859   48.128
 4397.00    1.25394   1.23386   47.936
 4398.00    1.26112   1.23400   49.303
 4399.00    1.21938   1.21014   50.966
 4400.00    1.17803   1.18454   51.251
 4401.00    1.18214   1.16979   50.396
 4402.00    1.20248   1.15357   50.994
 4403.00    1.17599   1.12096   53.562
 4404.00    1.11006   1.08083   55.205
 4405.00    1.07545   1.06046   54.223
 4406.00    1.10057   1.07296   52.931
 4407.00    1.12293   1.10558   52.367
 4408.00    1.13162   1.14535   51.006
 4409.00    1.17367   1.19287   48.866
 4410.00    1.23839   1.24623   47.019
 4411.00    1.29179   1.28797   46.037
 4412.00    1.31242   1.29510   46.544
 4413.00    1.28930   1.26221   48.676
 4414.00    1.22262   1.20936   50.946
 4415.00    1.16196   1.17010   51.520
 4416.00    1.15422   1.17073   50.279
 4417.00    1.19271   1.20992   48.280
 4418.00    1.24220   1.26256   46.639
 4419.00    1.28251   1.30022   46.254
 4420.00    1.29318   1.30755   47.123
 4421.00    1.25946   1.28880   48.178
 4422.00    1.22360   1.26431   48.374
 4423.00    1.21352   1.25280   48.086
 4424.00    1.22121   1.25618   48.094
 4425.00    1.22657   1.26490   48.315
 4426.00    1.21564   1.27190   48.217
 4427.00    1.21679   1.27639   47.945
 4428.00    1.23583   1.27749   48.148
 4429.00    1.23628   1.27423   48.470
 4430.00    1.22450   1.26964   48.194
 4431.00    1.23293   1.26679   47.712
 4432.00    1.24818   1.25966   48.466
 4433.00    1.22814   1.23877   50.588
 4434.00    1.17353   1.21147   51.994
 4435.00    1.14377   1.20295   -1.000
 4436.00    1.17455   1.23184   48.175
 4437.00    1.24711   1.28827   45.729
 4438.00    1.31534   1.33907   44.871
 4439.00    1.34055   1.35501   45.689
 4440.00    1.31712   1.33027   47.623
 4441.00    1.26191   1.28481   49.787
 4442.00    1.21062   1.24944   50.764
 4443.00    1.19692   1.24697   49.654
 4444.00    1.22986   1.27906   47.581
 4445.00    1.28563   1.32651   46.202
 4446.00    1.31925   1.36426   45.878
 4447.00    1.32134   1.38065   45.963
 4448.00    1.32070   1.38159   46.298
 4449.00    1.31527   1.37645   46.795
 4450.00    1.30532   1.36788   -1.000
 4451.00    1.30696   1.35411   46.786
 4452.00    1.29958   1.33047   47.939
 4453.00    1.26250   1.29265   50.020
 4454.00    1.20161   1.24697   51.615
 4455.00    1.16398   1.21201   51.505
 4456.00    1.17832   1.20018   50.549
 4457.00    1.20358   1.20429   50.191
 4458.00    1.20791   1.20889   50.385
 4459.00    1.20311   1.20659   50.808
 4460.00    1.19210   1.20256   51.305
 4461.00    1.18252   1.20806   50.896
 4462.00    1.19928   1.23049   49.250
 4463.00    1.24727   1.26538   47.737
 4464.00    1.28662   1.29786   47.251
 4465.00    1.29608   1.31564   47.272
 4466.00    1.28952   1.31725   47.601
 4467.00    1.28120   1.30848   48.382
 4468.00    1.26974   1.29761   48.957
 4469.00    1.25442   1.29456   48.657
 4470.00    1.25758   1.30837   47.443
 4471.00    1.29622   1.34016   45.835
 4472.00    1.34798   1.37981   44.446
 4473.00    1.37966   1.41472   43.734
 4474.00    1.39426   1.43946   43.651
 4475.00    1.39893   1.45699   43.474
 4476.00    1.41168   1.47095   43.151
 4477.00    1.43510   1.47391   43.277
 4478.00    1.42568   1.45137   44.390
 4479.00    1.37447   1.40148   46.298
 4480.00    1.31579   1.34529   47.959
 4481.00    1.27319   1.31414   48.179
 4482.00    1.27405   1.32588   46.692
 4483.00    1.32048   1.37340   44.799
 4484.00    1.38083   1.43090   43.545
 4485.00    1.42380   1.47077   43.216
 4486.00    1.43462   1.47714   43.845
 4487.00    1.41113   1.45052   45.276
 4488.00    1.36165   1.40757   46.639
 4489.00    1.31293   1.37403   46.761
 4490.00    1.30926   1.36769   45.764
 4491.00    1.35325   1.38314   44.809
 4492.00    1.38559   1.39643   44.917
 4493.00    1.37271   1.38840   46.047
 4494.00    1.33129   1.36499   47.241
 4495.00    1.29684   1.35001   47.345
 4496.00    1.30189   1.36021   46.117
 4497.00    1.34370   1.39113   44.666
 4498.00    1.38628   1.42356   43.891
 4499.00    1.39778   1.44131   44.033
 4500.00    1.38860   1.44446   44.419
 4501.00    1.38406   1.44825   43.826
 4502.00    1.40335   1.46714   42.427
 4503.00    1.44697   1.49974   41.375
 4504.00    1.48555   1.53156   41.256
 4505.00    1.49058   1.54809   41.899
 4506.00    1.47409   1.54535   -1.000
 4507.00    1.45891   1.53203   -1.000
 4508.00    1.45010   1.52121   -1.000
 4509.00    1.46103   1.51893   42.183
 4510.00    1.47196   1.52003   42.272
 4511.00    1.45785   1.51420   42.933
 4512.00    1.43115   1.49633   43.752
 4513.00    1.40414   1.47208   -1.000
 4514.00    1.38450   1.45181   -1.000
 4515.00    1.39031   1.44093   44.077
 4516.00    1.40250   1.43746   44.387
 4517.00    1.38984   1.43691   44.781
 4518.00    1.37768   1.43999   44.428
 4519.00    1.39711   1.45059   43.570
 4520.00    1.43325   1.46490   43.289
 4521.00    1.44812   1.47143   43.974
 4522.00    1.42252   1.46260   44.959
 4523.00    1.38469   1.44084   45.557
 4524.00    1.36808   1.41270   46.151
 4525.00    1.34821   1.37999   47.314
 4526.00    1.30738   1.34135   48.721
 4527.00    1.27288   1.30072   49.630
 4528.00    1.24920   1.26975   49.638
 4529.00    1.24289   1.26037   48.946
 4530.00    1.26869   1.27379   48.050
 4531.00    1.30159   1.29737   47.550
 4532.00    1.31109   1.31296   48.250
 4533.00    1.28459   1.31120   49.823
 4534.00    1.24382   1.30192   50.139
 4535.00    1.23799   1.30778   -1.000
 4536.00    1.29226   1.34311   45.230
 4537.00    1.37924   1.39635   43.421
 4538.00    1.43476   1.43922   43.222
 4539.00    1.43656   1.45393   44.053
 4540.00    1.41612   1.44622   44.483
 4541.00    1.39659   1.43493   44.240
 4542.00    1.43669   1.43166   44.003
 4543.00    1.25896   1.43289   -1.000
 4544.00    0.48735   1.43019   -2.000
 4545.00   -0.02818   1.42179   -2.000
 4546.00    0.18057   1.41181   -2.000
 4547.00    0.78469   1.40151   -1.000
 4548.00    0.65950   1.38887   -1.000
 4549.00    0.84092   1.37747   -1.000
 4550.00    1.32440   1.37559   48.148
 4551.00    1.35848   1.38377   45.958
 4552.00    1.36611   1.39080   46.501
 4553.00    1.35842   1.38742   47.066
 4554.00    1.34463   1.38005   46.814
 4555.00    1.34963   1.38471   45.476
 4556.00    1.37947   1.41079   43.684
 4557.00    1.42718   1.45156   42.508
 4558.00    1.46645   1.49007   42.366
 4559.00    1.48015   1.51488   42.473
 4560.00    1.48459   1.52518   42.464
 4561.00    1.47889   1.52188   43.052
 4562.00    1.45980   1.50375   44.127
 4563.00    1.41936   1.47385   45.028
 4564.00    1.37788   1.44526   45.039
 4565.00    1.37779   1.43499   44.123
 4566.00    1.41619   1.44992   42.957
 4567.00    1.46292   1.48035   42.237
 4568.00    1.48356   1.50640   42.354
 4569.00    1.47711   1.51243   43.203
 4570.00    1.44039   1.49807   44.344
 4571.00    1.39684   1.47742   -1.000
 4572.00    1.39376   1.46859   -1.000
 4573.00    1.43523   1.47951   42.720
 4574.00    1.47053   1.50062   42.504
 4575.00    1.46715   1.51577   42.646
 4576.00    1.46343   1.51703   42.877
 4577.00    1.46772   1.50464   43.413
 4578.00    1.44560   1.48000   44.500
 4579.00    1.40315   1.44686   45.609
 4580.00    1.36975   1.41545   45.907
 4581.00    1.37038   1.39761   45.442
 4582.00    1.39082   1.39606   44.969
 4583.00    1.40406   1.40282   44.920
 4584.00    1.40346   1.40934   45.155
 4585.00    1.39118   1.41535   44.902
 4586.00    1.39146   1.42781   43.922
 4587.00    1.42224   1.45173   42.886
 4588.00    1.45519   1.48083   42.481
 4589.00    1.47087   1.50071   42.844
 4590.00    1.47090   1.50176   43.593
 4591.00    1.44381   1.48561   44.383
 4592.00    1.41171   1.46233   44.725
 4593.00    1.40623   1.44326   44.496
 4594.00    1.41454   1.43333   44.124
 4595.00    1.42086   1.43035   43.914
 4596.00    1.42821   1.43221   43.817
 4597.00    1.43709   1.43861   43.722
 4598.00    1.44031   1.44644   43.909
 4599.00    1.42987   1.45111   44.315
 4600.00    1.41203   1.45169   44.551
 4601.00    1.40469   1.45143   44.312
 4602.00    1.41278   1.45338   43.810
 4603.00    1.42851   1.45676   43.652
 4604.00    1.44359   1.45993   43.653
 4605.00    1.44968   1.46623   43.335
 4606.00    1.45643   1.48252   42.622
 4607.00    1.47768   1.51103   41.726
 4608.00    1.51398   1.54451   41.070
 4609.00    1.54079   1.56969   40.992
 4610.00    1.53442   1.57663   41.420
 4611.00    1.51443   1.56632   41.935
 4612.00    1.49596   1.54932   42.283
 4613.00    1.48579   1.53759   42.264
 4614.00    1.49325   1.53727   41.942
 4615.00    1.50498   1.54552   41.687
 4616.00    1.50574   1.55391   41.791
 4617.00    1.50189   1.55677   42.101
 4618.00    1.49364   1.55488   42.204
 4619.00    1.48619   1.55310   41.937
 4620.00    1.49381   1.55607   41.366
 4621.00    1.51403   1.56378   41.086
 4622.00    1.52752   1.57103   41.160
 4623.00    1.52917   1.57266   41.253
 4624.00    1.52590   1.56870   41.512
 4625.00    1.51772   1.56309   41.735
 4626.00    1.50894   1.55877   41.755
 4627.00    1.51179   1.55640   41.905
 4628.00    1.51191   1.55570   42.076
 4629.00    1.50005   1.55674   41.980
 4630.00    1.50717   1.55970   41.596
 4631.00    1.52762   1.56232   41.506
 4632.00    1.52671   1.55984   41.962
 4633.00    1.50285   1.54984   42.498
 4634.00    1.49101   1.53549   42.658
 4635.00    1.48773   1.52147   42.837
 4636.00    1.48035   1.50833   43.328
 4637.00    1.46282   1.49475   43.672
 4638.00    1.44556   1.48291   43.696
 4639.00    1.45579   1.47814   43.217
 4640.00    1.47551   1.48490   42.267
 4641.00    1.49558   1.50158   41.498
 4642.00    1.51516   1.51804   41.382
 4643.00    1.52151   1.52138   41.930
 4644.00    1.50854   1.50500   42.969
 4645.00    1.47536   1.47265   44.182
 4646.00    1.43514   1.43667   44.785
 4647.00    1.41174   1.41393   44.353
 4648.00    1.41704   1.41629   43.389
 4649.00    1.44230   1.44218   42.621
 4650.00    1.47756   1.47911   42.354
 4651.00    1.50265   1.51106   42.285
 4652.00    1.50240   1.52593   42.550
 4653.00    1.48859   1.52100   43.363
 4654.00    1.46960   1.50349   44.081
 4655.00    1.44770   1.48801   44.039
 4656.00    1.44150   1.49010   43.013
 4657.00    1.47022   1.51644   41.444
 4658.00    1.52144   1.55902   40.248
 4659.00    1.56952   1.59843   39.880
 4660.00    1.59298   1.61608   40.184
 4661.00    1.57395   1.60641   40.992
 4662.00    1.53282   1.57809   41.895
 4663.00    1.50693   1.54355   42.276
 4664.00    1.49830   1.50755   42.714
 4665.00    1.47815   1.46643   44.113
 4666.00    1.42160   1.42005   46.012
 4667.00    1.35743   1.38203   46.800
 4668.00    1.34091   1.37157   45.892
 4669.00    1.37975   1.39547   44.128
 4670.00    1.44722   1.43994   42.666
 4671.00    1.50221   1.48212   42.074
 4672.00    1.51475   1.50828   42.017
 4673.00    1.50630   1.51993   42.010
 4674.00    1.50660   1.52752   41.657
 4675.00    1.52084   1.53827   41.049
 4676.00    1.54054   1.54806   40.926
 4677.00    1.55001   1.54633   41.567
 4678.00    1.53116   1.52833   42.442
 4679.00    1.49664   1.50081   43.196
 4680.00    1.46469   1.47616   43.728
 4681.00    1.44525   1.46482   43.554
 4682.00    1.45556   1.47036   42.644
 4683.00    1.48013   1.48769   41.867
 4684.00    1.50922   1.50637   41.751
 4685.00    1.52645   1.51774   41.835
 4686.00    1.52657   1.51985   41.983
 4687.00    1.51743   1.51602   42.085
 4688.00    1.51700   1.51076   42.082
 4689.00    1.51973   1.50670   42.268
 4690.00    1.50427   1.50423   42.450
 4691.00    1.49604   1.50396   42.170
 4692.00    1.50556   1.50875   41.576
 4693.00    1.53145   1.52124   40.763
 4694.00    1.56157   1.53879   40.083
 4695.00    1.58367   1.55292   40.012
 4696.00    1.58692   1.55386   40.807
 4697.00    1.55601   1.53689   42.049
 4698.00    1.50665   1.50744   42.848
 4699.00    1.48336   1.47821   42.811
 4700.00    1.48412   1.45768   42.849
 4701.00    1.47724   1.44462   43.456
 4702.00    1.45614   1.43698   43.908
 4703.00    1.44115   1.43819   43.470
 4704.00    1.45905   1.44944   42.730
 4705.00    1.49245   1.46314   42.848
 4706.00    1.49063   1.46849   43.641
 4707.00    1.46328   1.46248   44.249
 4708.00    1.44506   1.45386   44.261
 4709.00    1.44065   1.45504   43.349
 4710.00    1.46131   1.47049   42.099
 4711.00    1.50894   1.49235   41.398
 4712.00    1.54204   1.50692   41.498
 4713.00    1.53403   1.50744   42.155
 4714.00    1.51359   1.50216   42.478
 4715.00    1.51114   1.50678   41.937
 4716.00    1.53250   1.52821   41.099
 4717.00    1.56275   1.56003   40.637
 4718.00    1.57956   1.59093   40.466
 4719.00    1.58383   1.61265   40.327
 4720.00    1.58579   1.62224   40.484
 4721.00    1.57591   1.62110   40.807
 4722.00    1.55744   1.61486   40.771
 4723.00    1.55397   1.61121   40.393
 4724.00    1.57302   1.61105   40.255
 4725.00    1.57605   1.60384   40.888
 4726.00    1.54923   1.57795   42.251
 4727.00    1.50988   1.53454   43.476
 4728.00    1.47266   1.48962   43.737
 4729.00    1.45968   1.46232   43.371
 4730.00    1.46925   1.46012   42.983
 4731.00    1.48412   1.47701   42.537
 4732.00    1.50156   1.50214   42.107
 4733.00    1.51871   1.52616   41.823
 4734.00    1.53331   1.54236   41.591
 4735.00    1.54168   1.54794   41.775
 4736.00    1.52852   1.54699   42.000
 4737.00    1.52248   1.54799   41.674
 4738.00    1.54032   1.55571   41.461
 4739.00    1.55357   1.56638   41.631
 4740.00    1.54136   1.57296   41.764
 4741.00    1.52679   1.57443   41.574
 4742.00    1.53507   1.57585   41.155
 4743.00    1.55428   1.58000   41.029
 4744.00    1.56644   1.58619   41.098
 4745.00    1.56853   1.59497   40.920
 4746.00    1.56823   1.60673   40.538
 4747.00    1.58092   1.61938   40.325
 4748.00    1.59049   1.63026   40.339
 4749.00    1.58890   1.63759   40.382
 4750.00    1.58549   1.64002   40.572
 4751.00    1.58198   1.63580   40.977
 4752.00    1.56823   1.62389   41.373
 4753.00    1.55183   1.60655   41.678
 4754.00    1.53681   1.58927   41.741
 4755.00    1.53266   1.57784   41.803
 4756.00    1.52833   1.57568   42.064
 4757.00    1.51936   1.58244   42.217
 4758.00    1.52333   1.59428   42.010
 4759.00    1.53689   1.60510   41.819
 4760.00    1.54206   1.60709   42.198
 4761.00    1.52419   1.59397   43.123
 4762.00    1.49005   1.56717   -1.000
 4763.00    1.46586   1.53618   44.137
 4764.00    1.45929   1.51110   44.093
 4765.00    1.46053   1.49681   43.863
 4766.00    1.46821   1.49521   43.363
 4767.00    1.48553   1.50948   42.515
 4768.00    1.51261   1.53963   41.771
 4769.00    1.53824   1.57598   41.601
 4770.00    1.54636   1.60303   41.862
 4771.00    1.53687   1.61315   -1.000
 4772.00    1.52843   1.61428   -1.000
 4773.00    1.53846   1.62088   -1.000
 4774.00    1.56413   1.63822   -1.000
 4775.00    1.58502   1.65906   -1.000
 4776.00    1.58430   1.67387   -1.000
 4777.00    1.57528   1.67978   -1.000
 4778.00    1.56775   1.67827   -1.000
 4779.00    1.55173   1.67027   -1.000
 4780.00    1.53615   1.65735   -1.000
 4781.00    1.53452   1.64233   -1.000
 4782.00    1.52984   1.62714   -1.000
 4783.00    1.52763   1.61310   -1.000
 4784.00    1.53131   1.60194   42.551
 4785.00    1.52151   1.59344   -1.000
 4786.00    1.50843   1.58517   -1.000
 4787.00    1.50164   1.57719   -1.000
 4788.00    1.49704   1.57313   -1.000
 4789.00    1.49380   1.57515   -1.000
 4790.00    1.50965   1.58332   -1.000
 4791.00    1.52554   1.59944   -1.000
 4792.00    1.54294   1.62575   -1.000
 4793.00    1.57416   1.66055   -1.000
 4794.00    1.60617   1.69581   -1.000
 4795.00    1.62406   1.71956   -1.000
 4796.00    1.61575   1.72239   -1.000
 4797.00    1.58550   1.70294   -1.000
 4798.00    1.55331   1.66991   -1.000
 4799.00    1.53745   1.64027   -1.000
 4800.00    1.54165   1.63005   -1.000
 4801.00    1.56700   1.64316   -1.000
 4802.00    1.59559   1.66857   40.537
 4803.00    1.60582   1.68769   -1.000
 4804.00    1.58712   1.68749   -1.000
 4805.00    1.56172   1.67001   -1.000
 4806.00    1.54795   1.64796   -1.000
 4807.00    1.54083   1.63240   -1.000
 4808.00    1.54385   1.62763   -1.000
 4809.00    1.55288   1.63303   -1.000
 4810.00    1.56303   1.64494   -1.000
 4811.00    1.58013   1.65748   -1.000
 4812.00    1.58962   1.66619   -1.000
 4813.00    1.58864   1.67114   -1.000
 4814.00    1.59498   1.67620   -1.000
 4815.00    1.60250   1.68553   -1.000
 4816.00    1.60659   1.70011   -1.000
 4817.00    1.62034   1.71704   -1.000
 4818.00    1.63437   1.73182   -1.000
 4819.00    1.63396   1.74046   -1.000
 4820.00    1.62827   1.73941   -1.000
 4821.00    1.61846   1.72469   -1.000
 4822.00    1.58833   1.69550   -1.000
 4823.00    1.54375   1.66105   -1.000
 4824.00    1.53216   1.63794   -1.000
 4825.00    1.56755   1.63663   40.835
 4826.00    1.59822   1.65147   40.703
 4827.00    1.60035   1.66600   41.085
 4828.00    1.58581   1.66853   -1.000
 4829.00    1.56840   1.66011   -1.000
 4830.00    1.56040   1.64710   -1.000
 4831.00    1.55285   1.63395   -1.000
 4832.00    1.55155   1.62525   41.549
 4833.00    1.56428   1.62685   40.937
 4834.00    1.58514   1.63998   40.641
 4835.00    1.60202   1.65749   40.634
 4836.00    1.60403   1.66914   40.785
 4837.00    1.60245   1.66936   41.209
 4838.00    1.58464   1.65873   41.891
 4839.00    1.55342   1.64141   -1.000
 4840.00    1.54038   1.62447   -1.000
 4841.00    1.55365   1.61445   41.964
 4842.00    1.56214   1.61277   41.687
 4843.00    1.56300   1.61812   41.307
 4844.00    1.57458   1.63092   40.743
 4845.00    1.60137   1.64932   40.365
 4846.00    1.61621   1.66386   40.804
 4847.00    1.60110   1.66422   41.521
 4848.00    1.57337   1.65197   -1.000
 4849.00    1.56356   1.64061   -1.000
 4850.00    1.57572   1.64057   41.074
 4851.00    1.58794   1.64767   41.194
 4852.00    1.58476   1.64887   41.509
 4853.00    1.57324   1.63366   42.414
 4854.00    1.53971   1.60082   43.666
 4855.00    1.49543   1.56132   44.071
 4856.00    1.48308   1.53065   43.726
 4857.00    1.49538   1.51119   44.286
 4858.00    1.47754   1.48392   47.115
 4859.00    1.38803   1.42530   52.153
 4860.00    1.24977   1.33732   -1.000
 4861.00    1.16350   1.25771   -1.000
 4862.00    1.18943   1.23180   50.421
 4863.00    1.29346   1.27272   46.864
 4864.00    1.39584   1.35412   44.819
 4865.00    1.45372   1.43725   43.651
 4866.00    1.49025   1.50081   43.066
 4867.00    1.52045   1.54161   42.813
 4868.00    1.52872   1.56042   42.977
 4869.00    1.51028   1.55593   43.882
 4870.00    1.47506   1.52922   45.041
 4871.00    1.43618   1.49257   45.215
 4872.00    1.42735   1.46977   44.229
 4873.00    1.46565   1.47838   43.259
 4874.00    1.50648   1.51258   42.777
 4875.00    1.51786   1.55093   42.514
 4876.00    1.52446   1.58049   42.339
 4877.00    1.53561   1.60448   41.901
 4878.00    1.55175   1.62912   -1.000
 4879.00    1.57236   1.65190   -1.000
 4880.00    1.56995   1.66321   -1.000
 4881.00    1.54878   1.65805   -1.000
 4882.00    1.53745   1.64187   -1.000
 4883.00    1.54046   1.62367   -1.000
 4884.00    1.54185   1.60571   43.037
 4885.00    1.52054   1.58539   43.442
 4886.00    1.50315   1.56560   43.376
 4887.00    1.50829   1.55325   43.243
 4888.00    1.51854   1.54661   43.620
 4889.00    1.50233   1.53527   44.483
 4890.00    1.46289   1.51652   44.680
 4891.00    1.45765   1.50644   43.415
 4892.00    1.50371   1.52852   41.468
 4893.00    1.57726   1.58900   39.975
 4894.00    1.64036   1.66808   39.074
 4895.00    1.67538   1.73680   38.686
 4896.00    1.68994   1.77718   -1.000
 4897.00    1.69143   1.78760   -1.000
 4898.00    1.67681   1.77599   -1.000
 4899.00    1.64167   1.75258   -1.000
 4900.00    1.61409   1.72762   -1.000
 4901.00    1.61473   1.70813   -1.000
 4902.00    1.61163   1.69484   -1.000
 4903.00    1.59867   1.68713   -1.000
 4904.00    1.59918   1.68955   -1.000
 4905.00    1.62595   1.70549   39.770
 4906.00    1.65605   1.72565   39.889
 4907.00    1.65450   1.73096   40.638
 4908.00    1.61876   1.71009   -1.000
 4909.00    1.57467   1.67052   -1.000
 4910.00    1.54673   1.63235   -1.000
 4911.00    1.54439   1.61474   41.686
 4912.00    1.57172   1.62427   41.041
 4913.00    1.61417   1.65282   40.498
 4914.00    1.64544   1.68567   40.076
 4915.00    1.66112   1.70843   40.062
 4916.00    1.65312   1.70721   41.007
 4917.00    1.60770   1.67019   42.968
 4918.00    1.53457   1.59849   45.161
 4919.00    1.45840   1.51458   46.304
 4920.00    1.42170   1.45381   45.530
 4921.00    1.45265   1.44087   43.908
 4922.00    1.51057   1.47134   42.898
 4923.00    1.54515   1.51824   42.645
 4924.00    1.55838   1.55930   42.299
 4925.00    1.56806   1.59323   41.393
 4926.00    1.60241   1.62968   40.515
 4927.00    1.64070   1.67098   40.009
 4928.00    1.66432   1.71031   39.702
 4929.00    1.67984   1.74104   39.451
 4930.00    1.68903   1.75789   39.602
 4931.00    1.68746   1.75457   40.429
 4932.00    1.65191   1.72916   41.776
 4933.00    1.60032   1.69102   -1.000
 4934.00    1.57431   1.65814   -1.000
 4935.00    1.59757   1.64121   41.650
 4936.00    1.61098   1.63091   42.409
 4937.00    1.57508   1.61061   43.636
 4938.00    1.53109   1.58188   43.853
 4939.00    1.52028   1.56769   42.745
 4940.00    1.54962   1.58831   41.323
 4941.00    1.61089   1.63937   40.350
 4942.00    1.65613   1.69629   39.846
 4943.00    1.67985   1.73614   39.731
 4944.00    1.68378   1.75174   39.925
 4945.00    1.66717   1.75046   -1.000
 4946.00    1.66454   1.74574   39.894
 4947.00    1.67749   1.74873   39.456
 4948.00    1.69150   1.76169   39.204
 4949.00    1.70154   1.77819   39.061
 4950.00    1.71544   1.78987   39.125
 4951.00    1.71779   1.79236   39.375
 4952.00    1.70546   1.78584   39.763
 4953.00    1.68354   1.77145   -1.000
 4954.00    1.67077   1.74611   41.108
 4955.00    1.64085   1.70145   42.850
 4956.00    1.56367   1.63529   44.790
 4957.00    1.48570   1.56803   -1.000
 4958.00    1.48722   1.53777   42.884
 4959.00    1.55805   1.56609   41.021
 4960.00    1.62597   1.63378   40.304
 4961.00    1.65853   1.69994   40.318
 4962.00    1.66096   1.73648   40.597
 4963.00    1.64972   1.73975   -1.000
 4964.00    1.62623   1.71984   -1.000
 4965.00    1.59338   1.68876   -1.000
 4966.00    1.56992   1.65901   -1.000
 4967.00    1.56778   1.64092   42.559
 4968.00    1.57766   1.63685   42.314
 4969.00    1.58332   1.64330   41.910
 4970.00    1.59465   1.65794   41.458
 4971.00    1.62055   1.67992   40.981
 4972.00    1.64052   1.70645   40.555
 4973.00    1.65064   1.73125   -1.000
 4974.00    1.65942   1.74698   -1.000
 4975.00    1.67043   1.74927   40.804
 4976.00    1.65813   1.73773   -1.000
 4977.00    1.63215   1.71499   -1.000
 4978.00    1.60769   1.68657   -1.000
 4979.00    1.58519   1.65754   43.102
 4980.00    1.56909   1.62682   44.218
 4981.00    1.52712   1.58853   45.677
 4982.00    1.46366   1.54287   -1.000
 4983.00    1.44015   1.50407   45.670
 4984.00    1.46324   1.49220   44.531
 4985.00    1.51550   1.51533   43.169
 4986.00    1.55841   1.56337   41.985
 4987.00    1.59907   1.61643   41.620
 4988.00    1.62582   1.65517   42.031
 4989.00    1.61966   1.66976   42.543
 4990.00    1.59996   1.66548   42.717
 4991.00    1.59280   1.65722   42.478
 4992.00    1.60608   1.65583   42.219
 4993.00    1.61315   1.66176   42.143
 4994.00    1.61191   1.67053   42.000
 4995.00    1.61570   1.67951   41.786
 4996.00    1.62074   1.68667   41.867
 4997.00    1.61858   1.68607   42.319
 4998.00    1.60245   1.67075   43.073
 4999.00    1.57487   1.64089   43.742
 5000.00    1.54988   1.60656   43.963
 5001.00    1.54045   1.58090   43.704
 5002.00    1.55011   1.56885   43.363
 5003.00    1.56304   1.56293   43.646
 5004.00    1.56078   1.55160   44.591
 5005.00    1.52501   1.53242   45.182
 5006.00    1.49469   1.51770   44.562
 5007.00    1.51878   1.52451   43.282
 5008.00    1.57250   1.55595   42.498
 5009.00    1.60625   1.59334   42.687
 5010.00    1.59757   1.61061   43.712
 5011.00    1.55883   1.59524   45.243
 5012.00    1.50414   1.55572   46.548
 5013.00    1.45940   1.51323   46.802
 5014.00    1.44893   1.48784   46.045
 5015.00    1.47028   1.48685   45.049
 5016.00    1.50502   1.50168   44.581
 5017.00    1.52223   1.51796   44.526
 5018.00    1.53066   1.52951   44.211
 5019.00    1.54807   1.54000   43.790
 5020.00    1.55972   1.55238   43.782
 5021.00    1.56461   1.56356   43.922
 5022.00    1.55725   1.57219   43.797
 5023.00    1.55931   1.58333   43.407
 5024.00    1.58247   1.60010   43.050
 5025.00    1.58736   1.61622   43.075
 5026.00    1.58251   1.62273   43.288
 5027.00    1.58113   1.62019   43.114
 5028.00    1.58611   1.62005   42.444
 5029.00    1.60281   1.63275   41.762
 5030.00    1.62758   1.65859   41.115
 5031.00    1.65045   1.69041   40.569
 5032.00    1.67688   1.71874   40.441
 5033.00    1.68836   1.73285   41.286
 5034.00    1.65881   1.72321   42.831
 5035.00    1.59166   1.69036   -1.000
 5036.00    1.54785   1.64881   -1.000
 5037.00    1.54748   1.61346   44.666
 5038.00    1.53568   1.58236   45.981
 5039.00    1.48816   1.54281   47.853
 5040.00    1.42834   1.49542   48.585
 5041.00    1.40379   1.46406   47.050
 5042.00    1.45387   1.47688   44.329
 5043.00    1.54069   1.53786   42.179
 5044.00    1.66211   1.62229   41.003
 5045.00    1.07278   1.69659   -1.000
 5046.00    0.28172   1.73718   -1.000
 5047.00   -0.00254   1.73673    0.000
 5048.00    0.52875   1.70322   -1.000
 5049.00    1.33891   1.65638   -1.000
 5050.00    1.58090   1.61842   43.296
 5051.00    1.57060   1.60296   42.993
 5052.00    1.60213   1.61242   41.938
 5053.00    1.63708   1.64224   41.065
 5054.00    1.67276   1.68240   40.549
 5055.00    1.69189   1.71921   40.330
 5056.00    1.69777   1.74350   40.334
 5057.00    1.70833   1.75614   40.412
 5058.00    1.71477   1.76413   40.429
 5059.00    1.70983   1.77378   40.244
 5060.00    1.70853   1.78632   40.156
 5061.00    1.71488   1.79554   40.514
 5062.00    1.71235   1.78959   41.472
 5063.00    1.67740   1.75998   -1.000
 5064.00    1.61646   1.71229   -1.000
 5065.00    1.57814   1.66606   -1.000
 5066.00    1.58758   1.63968   42.937
 5067.00    1.60978   1.63560   42.614
 5068.00    1.61295   1.64442   42.443
 5069.00    1.62980   1.65736   42.189
 5070.00    1.64265   1.66866   42.306
 5071.00    1.64129   1.67318   42.654
 5072.00    1.63219   1.67012   42.435
 5073.00    1.62885   1.66583   42.022
 5074.00    1.64182   1.66711   41.871
 5075.00    1.65234   1.67318   41.834
 5076.00    1.64990   1.67625   42.083
 5077.00    1.63716   1.66604   43.175
 5078.00    1.60828   1.63530   45.057
 5079.00    1.54470   1.58887   46.175
 5080.00    1.49859   1.54760   45.706
 5081.00    1.51503   1.53334   44.711
 5082.00    1.54982   1.54834   43.985
 5083.00    1.57004   1.57860   43.243
 5084.00    1.60177   1.61200   42.470
 5085.00    1.63821   1.64363   42.018
 5086.00    1.66530   1.67031   41.880
 5087.00    1.67418   1.68938   41.727
 5088.00    1.67335   1.70178   41.454
 5089.00    1.67762   1.71167   41.199
 5090.00    1.68322   1.72292   40.982
 5091.00    1.69676   1.73729   40.600
 5092.00    1.72327   1.75389   40.194
 5093.00    1.74170   1.76773   40.304
 5094.00    1.73460   1.76980   40.991
 5095.00    1.70725   1.75181   41.875
 5096.00    1.66873   1.71316   42.853
 5097.00    1.62655   1.66348   43.805
 5098.00    1.58860   1.61924   44.218
 5099.00    1.56952   1.59769   43.544
 5100.00    1.58849   1.60804   42.327
 5101.00    1.64011   1.64237   41.652
 5102.00    1.67171   1.67881   41.696
 5103.00    1.66056   1.69801   42.149
 5104.00    1.65121   1.69611   42.696
 5105.00    1.64356   1.68070   43.225
 5106.00    1.61849   1.65962   43.763
 5107.00    1.59409   1.63773   43.913
 5108.00    1.59041   1.61964   43.696
 5109.00    1.59561   1.61097   43.390
 5110.00    1.60134   1.61664   42.873
 5111.00    1.62351   1.63730   42.310
 5112.00    1.65273   1.66713   41.795
 5113.00    1.67361   1.69689   41.372
 5114.00    1.68578   1.72090   41.100
 5115.00    1.70433   1.74008   40.741
 5116.00    1.72331   1.75735   40.366
 5117.00    1.73772   1.77221   40.327
 5118.00    1.74143   1.77964   40.721
 5119.00    1.72465   1.77365   41.314
 5120.00    1.70132   1.75200   41.978
 5121.00    1.67329   1.71734   42.925
 5122.00    1.63065   1.67512   44.163
 5123.00    1.59221   1.63305   44.833
 5124.00    1.57231   1.60088   44.660
 5125.00    1.57545   1.58537   44.369
 5126.00    1.58846   1.58466   44.123
 5127.00    1.59388   1.59037   44.073
 5128.00    1.58891   1.59633   44.075
 5129.00    1.58398   1.60339   43.680
 5130.00    1.59852   1.61587   42.984
 5131.00    1.63110   1.63536   42.500
 5132.00    1.65440   1.65855   42.122
 5133.00    1.66008   1.68054   41.739
 5134.00    1.67745   1.69784   41.542
 5135.00    1.69981   1.70654   41.999
 5136.00    1.68718   1.70065   42.947
 5137.00    1.65176   1.67745   43.764
 5138.00    1.61967   1.64549   44.037
 5139.00    1.59860   1.62077   43.785
 5140.00    1.60371   1.61123   43.855
 5141.00    1.60899   1.61082   44.451
 5142.00    1.58872   1.61091   44.536
 5143.00    1.58487   1.61157   43.932
 5144.00    1.60883   1.61631   43.570
 5145.00    1.61573   1.62101   43.797
 5146.00    1.59775   1.61859   44.020
 5147.00    1.59303   1.61191   43.692
 5148.00    1.61495   1.61032   43.335
 5149.00    1.62911   1.61543   43.610
 5150.00    1.62033   1.61887   44.336
 5151.00    1.59958   1.61379   44.811
 5152.00    1.58427   1.60374   44.751
 5153.00    1.57782   1.59874   44.096
 5154.00    1.59269   1.60715   43.055
 5155.00    1.63186   1.63172   41.955
 5156.00    1.68738   1.66810   41.075
 5157.00    1.72996   1.70596   40.620
 5158.00    1.74858   1.73473   40.522
 5159.00    1.75446   1.74917   40.615
 5160.00    1.74993   1.74925   40.818
 5161.00    1.73477   1.73663   41.204
 5162.00    1.71376   1.71227   41.790
 5163.00    1.68616   1.67408   43.063
 5164.00    1.64130   1.61530   45.969
 5165.00    1.54371   1.52909   50.473
 5166.00    1.39457   1.42202   54.565
 5167.00    1.27742   1.32469   55.014
 5168.00    1.27522   1.27556   52.420
 5169.00    1.35266   1.28239   -1.000
 5170.00    1.39085   1.30803   -1.000
 5171.00    1.33238   1.30698   56.482
 5172.00    1.23934   1.27898   56.182
 5173.00    1.23645   1.27188   51.147
 5174.00    1.36518   1.32610   46.442
 5175.00    1.51967   1.43092   -1.000
 5176.00    1.61058   1.53958   -1.000
 5177.00    1.64434   1.61465   42.980
 5178.00    1.65607   1.64895   43.241
 5179.00    1.65258   1.64862   44.396
 5180.00    1.61352   1.61231   47.060
 5181.00    1.51169   1.53346   51.847
 5182.00    1.35321   1.42155   -1.000
 5183.00    1.22325   1.31703   -1.000
 5184.00    1.22665   1.27477   50.977
 5185.00    1.37139   1.32241   46.107
 5186.00    1.53988   1.43245   -1.000
 5187.00    1.62920   1.54629   -1.000
 5188.00    1.65616   1.62314   42.954
 5189.00    1.66617   1.65587   43.207
 5190.00    1.66195   1.65210   44.290
 5191.00    1.62031   1.62161   45.600
 5192.00    1.57147   1.58197   45.778
 5193.00    1.57218   1.55707   45.100
 5194.00    1.60010   1.55862   44.389
 5195.00    1.61798   1.57862   43.741
 5196.00    1.64015   1.60563   42.938
 5197.00    1.67009   1.63647   42.159
 5198.00    1.69906   1.67008   41.695
 5199.00    1.72473   1.70094   41.563
 5200.00    1.73382   1.72097   41.780
 5201.00    1.71157   1.72379   42.408
 5202.00    1.69499   1.70622   43.323
 5203.00    1.66800   1.66836   44.569
 5204.00    1.61220   1.61536   45.963
 5205.00    1.56524   1.55903   46.539
 5206.00    1.54733   1.51365   46.734
 5207.00    1.54029   1.48777   47.010
 5208.00    1.52354   1.48259   46.638
 5209.00    1.53039   1.49885   45.363
 5210.00    1.58078   1.53930   43.628
 5211.00    1.65615   1.60003   41.898
 5212.00    1.72989   1.66430   40.782
 5213.00    1.77304   1.70982   40.825
 5214.00    1.76702   1.72285   41.653
 5215.00    1.73121   1.70832   42.330
 5216.00    1.70391   1.68742   42.247
 5217.00    1.70447   1.68281   41.494
 5218.00    1.73344   1.70246   40.767
 5219.00    1.76966   1.73668   40.361
 5220.00    1.78826   1.76857   40.158
 5221.00    1.79238   1.78408   40.459
 5222.00    1.78538   1.77497   41.478
 5223.00    1.75007   1.73820   43.064
 5224.00    1.68518   1.67659   45.017
 5225.00    1.60788   1.60278   46.556
 5226.00    1.55169   1.54158   46.272
 5227.00    1.56441   1.52068   44.137
 5228.00    1.64450   1.55179   -1.000
 5229.00    1.72407   1.61870   -1.000
 5230.00    1.76419   1.68525   -1.000
 5231.00    1.77486   1.71910   41.345
 5232.00    1.76001   1.71329   42.137
 5233.00    1.73230   1.68809   42.312
 5234.00    1.72232   1.67378   41.598
 5235.00    1.75070   1.68830   40.597
 5236.00    1.79047   1.72694   39.977
 5237.00    1.81369   1.77099   39.820
 5238.00    1.83430   1.80321   39.904
 5239.00    1.83362   1.81814   39.899
 5240.00    1.82554   1.82069   39.711
 5241.00    1.82555   1.81843   39.674
 5242.00    1.82501   1.81700   39.644
 5243.00    1.82412   1.81862   39.572
 5244.00    1.83185   1.81921   40.092
 5245.00    1.81687   1.80871   41.227
 5246.00    1.76876   1.78080   42.306
 5247.00    1.71665   1.74265   42.685
 5248.00    1.70951   1.70938   42.753
 5249.00    1.70946   1.68930   42.967
 5250.00    1.69842   1.68156   42.919
 5251.00    1.70569   1.68439   42.434
 5252.00    1.72631   1.69535   41.952
 5253.00    1.74799   1.70772   41.830
 5254.00    1.74604   1.71692   41.635
 5255.00    1.75249   1.72923   40.862
 5256.00    1.79105   1.75609   39.787
 5257.00    1.84300   1.79733   39.206
 5258.00    1.86856   1.83491   39.364
 5259.00    1.86088   1.84677   40.235
 5260.00    1.82223   1.82199   41.767
 5261.00    1.75940   1.76369   43.705
 5262.00    1.67795   1.68478   45.407
 5263.00    1.61145   1.60257   46.533
 5264.00    1.57920   1.53446   46.908
 5265.00    1.56734   1.49365   -1.000
 5266.00    1.58075   1.48195   -1.000
 5267.00    1.60680   1.48445   -1.000
 5268.00    1.59425   1.47877   -1.000
 5269.00    1.53865   1.46034   -1.000
 5270.00    1.52930   1.45365   -1.000
 5271.00    1.61569   1.48581   -1.000
 5272.00    1.70867   1.55244   -1.000
 5273.00    1.73698   1.61921   -1.000
 5274.00    1.73475   1.65981   -1.000
 5275.00    1.74174   1.68190   41.525
 5276.00    1.77306   1.71045   40.276
 5277.00    1.82866   1.75537   -1.000
 5278.00    1.86770   1.80097   -1.000
 5279.00    1.87122   1.82274   40.015
 5280.00    1.84304   1.81054   41.052
 5281.00    1.80176   1.77451   41.905
 5282.00    1.76232   1.73515   42.278
 5283.00    1.74455   1.71312   41.735
 5284.00    1.76825   1.72316   40.564
 5285.00    1.83087   1.76582   39.287
 5286.00    1.89637   1.82344   -1.000
 5287.00    1.92680   1.87154   38.773
 5288.00    1.91659   1.89874   38.843
 5289.00    1.91541   1.91067   38.678
 5290.00    1.92355   1.91628   38.546
 5291.00    1.92441   1.91737   38.681
 5292.00    1.92138   1.91134   39.012
 5293.00    1.90883   1.89715   39.488
 5294.00    1.89474   1.87349   40.394
 5295.00    1.85233   1.83544   41.821
 5296.00    1.78159   1.78168   43.109
 5297.00    1.71038   1.72580   43.263
 5298.00    1.69628   1.69151   42.380
 5299.00    1.74267   1.69247   41.487
 5300.00    1.78908   1.71956   -1.000
 5301.00    1.80714   1.75407   40.654
 5302.00    1.82935   1.78854   39.729
 5303.00    1.87592   1.82671   38.881
 5304.00    1.91781   1.86781   38.602
 5305.00    1.93348   1.90037   38.847
 5306.00    1.92491   1.91405   39.209
 5307.00    1.91120   1.91269   39.132
 5308.00    1.90643   1.91048   38.754
 5309.00    1.91986   1.91658   38.455
 5310.00    1.94225   1.92741   38.410
 5311.00    1.94979   1.93307   38.579
 5312.00    1.93854   1.92844   38.766
 5313.00    1.92311   1.91556   39.011
 5314.00    1.91683   1.89824   39.370
 5315.00    1.90456   1.87916   39.735
 5316.00    1.88884   1.86183   39.849
 5317.00    1.88347   1.85163   39.638
 5318.00    1.88725   1.85139   39.424
 5319.00    1.89827   1.85686   39.478
 5320.00    1.90367   1.85967   39.723
 5321.00    1.89608   1.85319   40.137
 5322.00    1.87580   1.83476   40.777
 5323.00    1.84513   1.80656   41.263
 5324.00    1.82250   1.77419   41.358
 5325.00    1.81130   1.73853   -1.000
 5326.00    1.77255   1.69154   -1.000
 5327.00    1.67982   1.63125   -1.000
 5328.00    1.60556   1.57964   45.439
 5329.00    1.63469   1.57218   -1.000
 5330.00    1.74189   1.62198   -1.000
 5331.00    1.83020   1.70165   -1.000
 5332.00    1.85469   1.77171   -1.000
 5333.00    1.86252   1.81692   39.678
 5334.00    1.88846   1.84562   39.417
 5335.00    1.90540   1.86665   39.551
 5336.00    1.90346   1.87811   39.817
 5337.00    1.89298   1.87332   40.200
 5338.00    1.87326   1.84939   41.049
 5339.00    1.83291   1.81109   41.882
 5340.00    1.79092   1.77323   41.848
 5341.00    1.78907   1.75613   40.918
 5342.00    1.83539   1.76915   -1.000
 5343.00    1.87829   1.79945   -1.000
 5344.00    1.88954   1.82443   -1.000
 5345.00    1.87936   1.83216   40.315
 5346.00    1.86713   1.82541   40.531
 5347.00    1.86302   1.81215   40.847
 5348.00    1.85308   1.79950   41.030
 5349.00    1.84792   1.79551   40.602
 5350.00    1.86698   1.80793   39.731
 5351.00    1.90104   1.83630   -1.000
 5352.00    1.92899   1.87084   38.883
 5353.00    1.94175   1.90230   38.638
 5354.00    1.95652   1.92882   38.193
 5355.00    1.97762   1.95224   37.842
 5356.00    1.99173   1.97134   37.788
 5357.00    1.99694   1.98225   37.847
 5358.00    1.99508   1.98311   37.962
 5359.00    1.99087   1.97436   38.319
 5360.00    1.97387   1.95655   38.914
 5361.00    1.94625   1.93168   39.515
 5362.00    1.92523   1.90453   39.879
 5363.00    1.89917   1.87997   40.117
 5364.00    1.88088   1.86023   40.356
 5365.00    1.87337   1.84552   40.339
 5366.00    1.87994   1.83507   40.292
 5367.00    1.88453   1.82491   -1.000
 5368.00    1.87264   1.80579   -1.000
 5369.00    1.83639   1.77059   -1.000
 5370.00    1.77856   1.72764   43.122
 5371.00    1.74397   1.70184   41.996
 5372.00    1.78962   1.71629   -1.000
 5373.00    1.87653   1.77062   -1.000
 5374.00    1.94362   1.83969   -1.000
 5375.00    1.97036   1.89436   -1.000
 5376.00    1.97795   1.92158   38.500
 5377.00    1.97518   1.92716   38.555
 5378.00    1.97128   1.92357   38.738
 5379.00    1.95825   1.91744   39.081
 5380.00    1.94406   1.90792   39.471
 5381.00    1.92811   1.89377   39.720
 5382.00    1.91945   1.87896   39.752
 5383.00    1.91259   1.87102   39.604
 5384.00    1.92070   1.87423   39.241
 5385.00    1.94661   1.88522   -1.000
 5386.00    1.95723   1.89499   -1.000
 5387.00    1.94384   1.89487   39.502
 5388.00    1.92016   1.88154   40.049
 5389.00    1.89500   1.85802   40.552
 5390.00    1.87749   1.83168   40.806
 5391.00    1.86170   1.80998   40.865
 5392.00    1.85884   1.79633   -1.000
 5393.00    1.86525   1.78861   -1.000
 5394.00    1.86270   1.78033   -1.000
 5395.00    1.83763   1.76477   -1.000
 5396.00    1.79757   1.74289   -1.000
 5397.00    1.78178   1.72740   41.804
 5398.00    1.81179   1.73299   -1.000
 5399.00    1.86728   1.76077   -1.000
 5400.00    1.90132   1.79621   -1.000
 5401.00    1.90845   1.82100   -1.000
 5402.00    1.90091   1.82198   -1.000
 5403.00    1.85846   1.79390   -1.000
 5404.00    1.78999   1.74395   43.507
 5405.00    1.74212   1.69430   43.330
 5406.00    1.75599   1.67053   -1.000
 5407.00    1.80515   1.67967   -1.000
 5408.00    1.83333   1.70470   -1.000
 5409.00    1.82285   1.72631   -1.000
 5410.00    1.81369   1.74368   -1.000
 5411.00    1.84745   1.76911   -1.000
 5412.00    1.89507   1.80598   -1.000
 5413.00    1.92351   1.84213   -1.000
 5414.00    1.91993   1.86682   39.619
 5415.00    1.92760   1.88304   39.407
 5416.00    1.95137   1.89886   39.135
 5417.00    1.96339   1.91368   39.185
 5418.00    1.96099   1.91908   39.523
 5419.00    1.93729   1.91151   39.809
 5420.00    1.92244   1.89753   39.753
 5421.00    1.93240   1.88547   39.583
 5422.00    1.93622   1.87656   -1.000
 5423.00    1.91676   1.86790   40.382
 5424.00    1.89770   1.86307   40.162
 5425.00    1.90967   1.87099   39.528
 5426.00    1.95099   1.88938   -1.000
 5427.00    1.96074   1.89832   -1.000
 5428.00    1.91154   1.87931   41.549
 5429.00    1.84501   1.83848   41.973
 5430.00    1.82797   1.80243   41.406
 5431.00    1.85801   1.78872   -1.000
 5432.00    1.87423   1.78915   -1.000
 5433.00    1.85184   1.78542   -1.000
 5434.00    1.82704   1.77366   42.157
 5435.00    1.83012   1.76862   -1.000
 5436.00    1.85769   1.78670   -1.000
 5437.00    1.90215   1.83003   -1.000
 5438.00    1.95418   1.88571   -1.000
 5439.00    1.98864   1.93631   38.486
 5440.00    2.00689   1.97077   38.357
 5441.00    2.02524   1.98731   38.345
 5442.00    2.02248   1.98798   38.641
 5443.00    1.99693   1.97122   39.515
 5444.00    1.95418   1.93247   41.009
 5445.00    1.87944   1.87462   42.478
 5446.00    1.81025   1.81634   42.618
 5447.00    1.79679   1.78467   41.475
 5448.00    1.84437   1.79449   40.243
 5449.00    1.90469   1.83561   -1.000
 5450.00    1.93508   1.88094   39.590
 5451.00    1.94660   1.90621   39.849
 5452.00    1.94434   1.90240   40.629
 5453.00    1.91344   1.87275   41.758
 5454.00    1.84960   1.82837   42.752
 5455.00    1.80299   1.78973   42.535
 5456.00    1.81859   1.78061   41.239
 5457.00    1.88917   1.80977   -1.000
 5458.00    1.94717   1.85953   -1.000
 5459.00    1.95656   1.89843   39.870
 5460.00    1.93683   1.90632   40.565
 5461.00    1.91401   1.88572   41.180
 5462.00    1.87967   1.85473   41.488
 5463.00    1.86420   1.83372   41.158
 5464.00    1.89102   1.83355   40.649
 5465.00    1.92301   1.85049   -1.000
 5466.00    1.93732   1.87238   -1.000
 5467.00    1.94659   1.88953   39.761
 5468.00    1.95481   1.89815   40.001
 5469.00    1.94432   1.89741   40.424
 5470.00    1.92949   1.88855   40.641
 5471.00    1.92652   1.87512   40.825
 5472.00    1.91617   1.86011   41.191
 5473.00    1.89315   1.84279   41.740
 5474.00    1.87636   1.81940   -1.000
 5475.00    1.84409   1.78875   -1.000
 5476.00    1.79869   1.75926   43.177
 5477.00    1.79774   1.74778   42.062
 5478.00    1.85426   1.76378   -1.000
 5479.00    1.90541   1.79393   -1.000
 5480.00    1.90464   1.81379   -1.000
 5481.00    1.87012   1.81516   41.724
 5482.00    1.85561   1.81365   41.143
 5483.00    1.88657   1.82825   40.314
 5484.00    1.93234   1.85885   -1.000
 5485.00    1.95227   1.88678   -1.000
 5486.00    1.93863   1.89478   40.595
 5487.00    1.90958   1.88299   40.927
 5488.00    1.88659   1.86664   40.984
 5489.00    1.89425   1.86060   40.765
 5490.00    1.92354   1.86781   40.462
 5491.00    1.93808   1.88041   40.276
 5492.00    1.93829   1.88922   40.308
 5493.00    1.94260   1.89141   40.349
 5494.00    1.94785   1.88998   -1.000
 5495.00    1.95385   1.88782   -1.000
 5496.00    1.94055   1.88499   40.861
 5497.00    1.92351   1.88305   40.770
 5498.00    1.92318   1.88597   40.354
 5499.00    1.94871   1.89209   40.469
 5500.00    1.94982   1.89176   -1.000
 5501.00    1.92050   1.87906   41.294
 5502.00    1.91250   1.86043   41.039
 5503.00    1.91951   1.84673   -1.000
 5504.00    1.92126   1.84006   -1.000
 5505.00    1.90567   1.83417   -1.000
 5506.00    1.87684   1.82736   41.559
 5507.00    1.88279   1.82668   40.938
 5508.00    1.92213   1.83694   -1.000
 5509.00    1.94422   1.85068   -1.000
 5510.00    1.92522   1.85333   -1.000
 5511.00    1.89488   1.83787   -1.000
 5512.00    1.86452   1.81200   42.669
 5513.00    1.85015   1.79173   -1.000
 5514.00    1.86338   1.78906   -1.000
 5515.00    1.88265   1.80498   -1.000
 5516.00    1.91282   1.83287   -1.000
 5517.00    1.95594   1.86563   -1.000
 5518.00    1.99051   1.89780   -1.000
 5519.00    2.00983   1.92385   -1.000
 5520.00    2.01060   1.93890   -1.000
 5521.00    2.00375   1.94270   -1.000
 5522.00    1.99428   1.94004   39.668
 5523.00    1.98601   1.93484   39.861
 5524.00    1.98115   1.92520   -1.000
 5525.00    1.96315   1.90531   -1.000
 5526.00    1.92076   1.87300   42.226
 5527.00    1.87045   1.83628   42.685
 5528.00    1.85028   1.81198   42.025
 5529.00    1.87568   1.81403   -1.000
 5530.00    1.92148   1.84024   -1.000
 5531.00    1.95249   1.87278   -1.000
 5532.00    1.96028   1.89330   -1.000
 5533.00    1.95382   1.89619   -1.000
 5534.00    1.93998   1.88831   40.715
 5535.00    1.93833   1.87990   -1.000
 5536.00    1.94776   1.87749   -1.000
 5537.00    1.97144   1.88274   -1.000
 5538.00    1.98747   1.89468   -1.000
 5539.00    1.99561   1.91144   -1.000
 5540.00    2.01306   1.92885   -1.000
 5541.00    2.01850   1.93966   -1.000
 5542.00    1.99751   1.93845   -1.000
 5543.00    1.98014   1.92762   40.277
 5544.00    1.97484   1.91574   -1.000
 5545.00    1.97595   1.91031   -1.000
 5546.00    1.97510   1.91403   -1.000
 5547.00    1.98779   1.92658   -1.000
 5548.00    2.01429   1.94560   -1.000
 5549.00    2.03193   1.96531   -1.000
 5550.00    2.03490   1.97838   39.173
 5551.00    2.03553   1.98018   39.491
 5552.00    2.02626   1.97072   -1.000
 5553.00    2.00278   1.95451   40.185
 5554.00    1.98264   1.93928   40.179
 5555.00    1.98103   1.93133   40.061
 5556.00    1.99275   1.93099   -1.000
 5557.00    1.99363   1.93385   -1.000
 5558.00    1.99474   1.93614   -1.000
 5559.00    2.00850   1.93694   -1.000
 5560.00    2.00545   1.93549   -1.000
 5561.00    1.99074   1.92945   -1.000
 5562.00    1.97489   1.91811   -1.000
 5563.00    1.96024   1.90474   -1.000
 5564.00    1.95245   1.89372   -1.000
 5565.00    1.94830   1.88665   -1.000
 5566.00    1.94376   1.88227   -1.000
 5567.00    1.94936   1.87955   -1.000
 5568.00    1.95992   1.87899   -1.000
 5569.00    1.95897   1.88109   -1.000
 5570.00    1.96283   1.88446   -1.000
 5571.00    1.96394   1.88648   -1.000
 5572.00    1.93784   1.88651   41.011
 5573.00    1.89649   1.88790   40.626
 5574.00    1.75538   1.89515   -1.000
 5575.00    1.40736   1.90821   -1.000
 5576.00    1.11956   1.92191   -1.000
 5577.00    1.25694   1.93217   -1.000
 5578.00    1.71609   1.93959   -1.000
 5579.00    2.05829   1.94575   -1.000
 5580.00    2.04458   1.94955   -1.000
 5581.00    2.01162   1.94869   -1.000
 5582.00    2.00253   1.94236   -1.000
 5583.00    1.99301   1.93092   -1.000
 5584.00    1.98841   1.91221   -1.000
 5585.00    1.95947   1.88139   -1.000
 5586.00    1.90261   1.83825   -1.000
 5587.00    1.84951   1.79332   -1.000
 5588.00    1.83233   1.76324   -1.000
 5589.00    1.83965   1.75898   -1.000
 5590.00    1.87224   1.77767   -1.000
 5591.00    1.90157   1.80568   -1.000
 5592.00    1.90723   1.82944   -1.000
 5593.00    1.90483   1.84545   -1.000
 5594.00    1.91990   1.86037   -1.000
 5595.00    1.94450   1.88010   -1.000
 5596.00    1.96926   1.89942   -1.000
 5597.00    1.96107   1.90559   -1.000
 5598.00    1.91604   1.89262   42.318
 5599.00    1.89749   1.86711   42.394
 5600.00    1.89452   1.84019   -1.000
 5601.00    1.88466   1.82044   -1.000
 5602.00    1.87075   1.81517   -1.000
 5603.00    1.89160   1.83186   -1.000
 5604.00    1.94158   1.87167   -1.000
 5605.00    2.00073   1.92323   -1.000
 5606.00    2.03957   1.96867   -1.000
 5607.00    2.04244   1.99667   39.506
 5608.00    2.03804   2.00782   39.586
 5609.00    2.04491   2.01004   39.575
 5610.00    2.03808   2.01084   39.466
 5611.00    2.03161   2.01071   39.579
 5612.00    2.03989   2.00090   40.259
 5613.00    2.01511   1.97001   41.551
 5614.00    1.94826   1.91787   42.651
 5615.00    1.89304   1.86357   42.597
 5616.00    1.88682   1.83381   41.687
 5617.00    1.92027   1.83935   -1.000
 5618.00    1.95623   1.86707   -1.000
 5619.00    1.97119   1.89648   -1.000
 5620.00    1.97975   1.91769   -1.000
 5621.00    2.00033   1.92976   -1.000
 5622.00    2.00461   1.92948   -1.000
 5623.00    1.96595   1.91284   -1.000
 5624.00    1.91749   1.88631   42.044
 5625.00    1.90851   1.86734   41.422
 5626.00    1.94267   1.87022   -1.000
 5627.00    1.97901   1.89382   -1.000
 5628.00    1.99428   1.92571   -1.000
 5629.00    2.00926   1.95482   39.809
 5630.00    2.02835   1.97594   39.664
 5631.00    2.02867   1.98680   39.658
 5632.00    2.02723   1.98661   39.915
 5633.00    2.01446   1.97669   40.217
 5634.00    2.01260   1.96002   40.476
 5635.00    2.00354   1.94013   -1.000
 5636.00    1.98268   1.92096   -1.000
 5637.00    1.96440   1.90692   -1.000
 5638.00    1.96628   1.90066   -1.000
 5639.00    1.97480   1.89991   -1.000
 5640.00    1.97272   1.89933   -1.000
 5641.00    1.95728   1.89677   -1.000
 5642.00    1.96156   1.89578   -1.000
 5643.00    1.97027   1.90057   -1.000
 5644.00    1.97818   1.91073   -1.000
 5645.00    1.98919   1.92229   -1.000
 5646.00    1.99290   1.93166   -1.000
 5647.00    2.00421   1.93657   -1.000
 5648.00    1.99972   1.93623   -1.000
 5649.00    1.99461   1.93318   -1.000
 5650.00    2.00480   1.93277   -1.000
 5651.00    2.01393   1.93789   -1.000
 5652.00    2.02240   1.94460   -1.000
 5653.00    2.03030   1.94544   -1.000
 5654.00    2.01213   1.93667   -1.000
 5655.00    1.97629   1.91928   -1.000
 5656.00    1.95660   1.89414   -1.000
 5657.00    1.91789   1.86247   -1.000
 5658.00    1.87111   1.83231   43.074
 5659.00    1.87977   1.81733   -1.000
 5660.00    1.92291   1.82355   -1.000
 5661.00    1.93985   1.84183   -1.000
 5662.00    1.93249   1.86017   -1.000
 5663.00    1.94749   1.87748   -1.000
 5664.00    1.98015   1.89729   -1.000
 5665.00    1.99287   1.91541   -1.000
 5666.00    1.99083   1.92324   -1.000
 5667.00    1.97803   1.91923   -1.000
 5668.00    1.96272   1.91137   41.094
 5669.00    1.96828   1.90921   -1.000
 5670.00    1.98210   1.91701   -1.000
 5671.00    1.99947   1.93382   -1.000
 5672.00    2.02293   1.95579   -1.000
 5673.00    2.03888   1.97674   -1.000
 5674.00    2.04405   1.99100   39.771
 5675.00    2.04553   1.99726   39.704
 5676.00    2.04618   1.99821   39.619
 5677.00    2.05373   1.99604   -1.000
 5678.00    2.04994   1.99011   -1.000
 5679.00    2.03706   1.97908   -1.000
 5680.00    2.02630   1.96324   -1.000
 5681.00    2.00496   1.94398   -1.000
 5682.00    1.97532   1.92411   41.255
 5683.00    1.96535   1.90931   -1.000
 5684.00    1.97288   1.90402   -1.000
 5685.00    1.97644   1.90525   -1.000
 5686.00    1.97130   1.90562   -1.000
 5687.00    1.96036   1.90293   -1.000
 5688.00    1.95380   1.90313   41.289
 5689.00    1.96788   1.91311   -1.000
 5690.00    1.99064   1.93293   -1.000
 5691.00    2.02477   1.95588   -1.000
 5692.00    2.04872   1.97437   -1.000
 5693.00    2.05307   1.98442   -1.000
 5694.00    2.04541   1.98636   -1.000
 5695.00    2.04250   1.98269   -1.000
 5696.00    2.03956   1.97492   -1.000
 5697.00    2.01946   1.96273   -1.000
 5698.00    1.98905   1.94641   41.072
 5699.00    1.97716   1.92838   41.494
 5700.00    1.97067   1.91159   -1.000
 5701.00    1.95530   1.89918   -1.000
 5702.00    1.94693   1.89496   41.099
 5703.00    1.95629   1.89945   -1.000
 5704.00    1.97146   1.90563   -1.000
 5705.00    1.97088   1.90308   -1.000
 5706.00    1.95044   1.88675   -1.000
 5707.00    1.92177   1.86098   -1.000
 5708.00    1.89227   1.83495   -1.000
 5709.00    1.86731   1.81662   -1.000
 5710.00    1.86651   1.81085   -1.000
 5711.00    1.88836   1.82023   -1.000
 5712.00    1.92386   1.84549   -1.000
 5713.00    1.97690   1.88289   -1.000
 5714.00    2.01470   1.92257   -1.000
 5715.00    2.02363   1.95431   -1.000
 5716.00    2.02939   1.97490   -1.000
 5717.00    2.03633   1.98775   39.853
 5718.00    2.04020   1.99774   39.605
 5719.00    2.05165   2.00816   39.404
 5720.00    2.07101   2.02010   39.294
 5721.00    2.08484   2.03262   39.229
 5722.00    2.09648   2.04354   39.180
 5723.00    2.09170   2.05003   39.246
 5724.00    2.08394   2.04873   39.535
 5725.00    2.07055   2.03774   39.945
 5726.00    2.04467   2.02037   40.286
 5727.00    2.02118   2.00527   40.172
 5728.00    2.02753   1.99965   39.919
 5729.00    2.05201   2.00172   39.960
 5730.00    2.05148   2.00376   40.157
 5731.00    2.03877   2.00288   40.079
 5732.00    2.04844   2.00445   39.723
 5733.00    2.06438   2.01396   39.438
 5734.00    2.07187   2.02828   39.422
 5735.00    2.07363   2.03846   39.475
 5736.00    2.06550   2.03928   39.580
 5737.00    2.06438   2.03337   39.629
 5738.00    2.06855   2.02681   39.702
 5739.00    2.06126   2.02293   39.768
 5740.00    2.05954   2.02098   39.852
 5741.00    2.05998   2.01932   39.794
 5742.00    2.05344   2.01871   39.740
 5743.00    2.05308   2.02213   39.498
 5744.00    2.06099   2.03010   39.261
 5745.00    2.07094   2.03740   39.396
 5746.00    2.06880   2.03682   39.768
 5747.00    2.05567   2.02776   39.972
 5748.00    2.05312   2.01881   39.803
 5749.00    2.06130   2.01760   39.649
 5750.00    2.06429   2.02012   39.881
 5751.00    2.05966   2.01376   40.348
 5752.00    2.03462   1.99229   40.773
 5753.00    2.00004   1.96607   40.843
 5754.00    1.99399   1.95411   40.408
 5755.00    2.02539   1.96721   -1.000
 5756.00    2.06929   1.99818   -1.000
 5757.00    2.10638   2.02853   -1.000
 5758.00    2.10912   2.04213   -1.000
 5759.00    2.08478   2.03386   -1.000
 5760.00    2.05310   2.00968   40.630
 5761.00    2.01865   1.98201   40.902
 5762.00    1.99732   1.96485   40.575
 5763.00    2.00698   1.96849   39.886
 5764.00    2.04552   1.99323   39.348
 5765.00    2.08435   2.02714   -1.000
 5766.00    2.10269   2.05526   39.117
 5767.00    2.09611   2.07025   39.057
 5768.00    2.09624   2.07361   39.107
 5769.00    2.09647   2.06963   39.232
 5770.00    2.07478   2.06168   39.435
 5771.00    2.06387   2.05189   39.678
 5772.00    2.06794   2.04178   39.806
 5773.00    2.05631   2.03292   39.860
 5774.00    2.04887   2.02718   39.801
 5775.00    2.04552   2.02615   39.620
 5776.00    2.03419   2.02872   39.548
 5777.00    2.02741   2.02913   39.646
 5778.00    2.00663   2.01889   40.140
 5779.00    1.96644   1.99269   41.000
 5780.00    1.93615   1.95444   41.622
 5781.00    1.92723   1.91615   41.656
 5782.00    1.94699   1.89005   -1.000
 5783.00    1.96332   1.87972   -1.000
 5784.00    1.96013   1.88094   -1.000
 5785.00    1.96848   1.89119   -1.000
 5786.00    1.99620   1.91232   -1.000
 5787.00    2.02021   1.94203   -1.000
 5788.00    2.04866   1.97070   -1.000
 5789.00    2.06194   1.98863   -1.000
 5790.00    2.04619   1.99477   40.037
 5791.00    2.03974   1.99698   39.752
 5792.00    2.05101   2.00488   39.462
 5793.00    2.05768   2.02141   39.220
 5794.00    2.06628   2.04038   39.152
 5795.00    2.08205   2.05188   39.341
 5796.00    2.07943   2.05063   39.597
 5797.00    2.05524   2.04198   39.495
 5798.00    2.05939   2.03842   39.040
 5799.00    2.09512   2.04855   38.502
 5800.00    2.12438   2.06911   -1.000
 5801.00    2.14262   2.08753   -1.000
 5802.00    2.13944   2.09226   38.894
 5803.00    2.12007   2.08073   39.208
 5804.00    2.09430   2.06069   39.412
 5805.00    2.08661   2.04377   39.370
 5806.00    2.09065   2.03734   -1.000
 5807.00    2.08714   2.04117   39.102
 5808.00    2.09192   2.05062   39.078
 5809.00    2.10546   2.06131   39.051
 5810.00    2.11643   2.07066   38.923
 5811.00    2.12551   2.07647   38.799
 5812.00    2.12521   2.07635   38.840
 5813.00    2.11396   2.06851   39.122
 5814.00    2.10190   2.05408   39.337
 5815.00    2.08852   2.03861   39.205
 5816.00    2.08338   2.03129   38.939
 5817.00    2.09705   2.03870   -1.000
 5818.00    2.11519   2.05843   -1.000
 5819.00    2.12890   2.08054   38.381
 5820.00    2.13950   2.09536   38.408
 5821.00    2.13963   2.09959   38.535
 5822.00    2.13276   2.09626   38.507
 5823.00    2.12873   2.09103   38.442
 5824.00    2.12975   2.08813   38.374
 5825.00    2.13470   2.08858   38.330
 5826.00    2.13413   2.09119   38.333
 5827.00    2.13943   2.09480   38.399
 5828.00    2.14074   2.09898   38.353
 5829.00    2.14316   2.10301   38.343
 5830.00    2.14399   2.10522   38.305
 5831.00    2.14556   2.10424   38.355
 5832.00    2.14451   2.09978   38.583
 5833.00    2.14391   2.09248   -1.000
 5834.00    2.13718   2.08440   -1.000
 5835.00    2.14267   2.07879   -1.000
 5836.00    2.13922   2.07716   -1.000
 5837.00    2.12827   2.07813   38.688
 5838.00    2.13129   2.08093   38.603
 5839.00    2.14140   2.08707   -1.000
 5840.00    2.13992   2.09709   38.123
 5841.00    2.14499   2.10799   38.095
 5842.00    2.15222   2.11475   38.205
 5843.00    2.15685   2.11390   38.352
 5844.00    2.13571   2.10480   38.590
 5845.00    2.11846   2.08946   38.798
 5846.00    2.10896   2.07187   38.988
 5847.00    2.10734   2.05729   38.989
 5848.00    2.10028   2.04940   39.026
 5849.00    2.09548   2.04706   39.223
 5850.00    2.09783   2.04387   -1.000
 5851.00    2.09270   2.03375   -1.000
 5852.00    2.07039   2.01720   -1.000
 5853.00    2.05468   2.00075   -1.000
 5854.00    2.05741   1.98930   -1.000
 5855.00    2.05862   1.97962   -1.000
 5856.00    2.03226   1.96550   -1.000
 5857.00    2.00050   1.94885   -1.000
 5858.00    1.99962   1.94035   -1.000
 5859.00    2.02643   1.94847   -1.000
 5860.00    2.06070   1.96951   -1.000
 5861.00    2.07768   1.99221   -1.000
 5862.00    2.07358   2.00838   -1.000
 5863.00    2.07702   2.01710   -1.000
 5864.00    2.08319   2.02025   -1.000
 5865.00    2.07354   2.01875   -1.000
 5866.00    2.06386   2.01469   39.928
 5867.00    2.07162   2.01423   -1.000
 5868.00    2.08904   2.02269   -1.000
 5869.00    2.10541   2.03796   -1.000
 5870.00    2.12071   2.05234   -1.000
 5871.00    2.11965   2.05946   -1.000
 5872.00    2.10944   2.05928   39.138
 5873.00    2.10871   2.05595   39.087
 5874.00    2.10448   2.05313   39.170
 5875.00    2.10312   2.05088   39.334
 5876.00    2.09729   2.04622   39.413
 5877.00    2.08379   2.03638   39.674
 5878.00    2.08358   2.02155   -1.000
 5879.00    2.08083   2.00529   -1.000
 5880.00    2.06020   1.99248   -1.000
 5881.00    2.06576   1.98615   -1.000
 5882.00    2.06844   1.98465   -1.000
 5883.00    2.06092   1.98356   -1.000
 5884.00    2.04053   1.98034   -1.000
 5885.00    1.99097   1.97092   40.630
 5886.00    1.87636   1.94244   41.921
 5887.00    1.64530   1.87781   -1.000
 5888.00    1.35547   1.77425   -1.000
 5889.00    1.18996   1.66114   -1.000
 5890.00    1.28223   1.58647   -1.000
 5891.00    1.51534   1.57984   45.788
 5892.00    1.65355   1.62482   44.723
 5893.00    1.61352   1.67283   45.022
 5894.00    1.45604   1.68622   -1.000
 5895.00    1.37293   1.66793   -1.000
 5896.00    1.47426   1.65673   -1.000
 5897.00    1.68524   1.68551   43.561
 5898.00    1.85551   1.75116   -1.000
 5899.00    1.94598   1.82670   -1.000
 5900.00    1.99608   1.88987   -1.000
 5901.00    2.03172   1.93400   -1.000
 5902.00    2.05522   1.96156   -1.000
 5903.00    2.06524   1.97667   -1.000
 5904.00    2.05775   1.98341   -1.000
 5905.00    2.05104   1.98617   -1.000
 5906.00    2.04719   1.98952   -1.000
 5907.00    2.05004   1.99610   40.038
 5908.00    2.06588   2.00474   -1.000
 5909.00    2.07369   2.01265   -1.000
 5910.00    2.07004   2.01723   40.258
 5911.00    2.06363   2.01563   40.391
 5912.00    2.05038   2.00499   40.910
 5913.00    2.01863   1.98574   41.277
 5914.00    2.00065   1.96448   41.252
 5915.00    2.00550   1.95114   -1.000
 5916.00    2.01142   1.95139   -1.000
 5917.00    2.02879   1.96393   -1.000
 5918.00    2.04522   1.98213   -1.000
 5919.00    2.04564   1.99863   40.445
 5920.00    2.05499   2.00871   40.431
 5921.00    2.05741   2.01193   40.471
 5922.00    2.04434   2.01197   40.339
 5923.00    2.04379   2.01345   40.201
 5924.00    2.06276   2.01837   40.122
 5925.00    2.07512   2.02487   40.086
 5926.00    2.07733   2.02866   40.146
 5927.00    2.08073   2.02560   -1.000
 5928.00    2.06587   2.01530   40.727
 5929.00    2.04600   2.00299   40.745
 5930.00    2.04647   1.99704   40.390
 5931.00    2.05382   2.00072   40.162
 5932.00    2.06382   2.00761   -1.000
 5933.00    2.07339   2.00940   -1.000
 5934.00    2.06415   2.00536   -1.000
 5935.00    2.05516   2.00321   40.567
 5936.00    2.06625   2.00942   -1.000
 5937.00    2.07911   2.02153   -1.000
 5938.00    2.08166   2.03138   40.151
 5939.00    2.07212   2.03194   40.534
 5940.00    2.05209   2.02254   40.794
 5941.00    2.03739   2.00924   40.799
 5942.00    2.03320   2.00122   40.585
 5943.00    2.05253   2.00368   40.342
 5944.00    2.07599   2.01418   -1.000
 5945.00    2.08344   2.02493   -1.000
 5946.00    2.07784   2.02781   -1.000
 5947.00    2.07122   2.02025   -1.000
 5948.00    2.05282   2.00737   41.149
 5949.00    2.04221   1.99827   40.976
 5950.00    2.04793   1.99636   -1.000
 5951.00    2.05963   1.99736   -1.000
 5952.00    2.05623   1.99708   -1.000
 5953.00    2.05086   1.99652   -1.000
 5954.00    2.04970   1.99767   -1.000
 5955.00    2.05102   1.99888   -1.000
 5956.00    2.05396   1.99771   -1.000
 5957.00    2.04350   1.99680   40.888
 5958.00    2.04707   2.00194   40.456
 5959.00    2.07651   2.01514   -1.000
 5960.00    2.09746   2.03260   -1.000
 5961.00    2.11683   2.04780   -1.000
 5962.00    2.11802   2.05623   -1.000
 5963.00    2.11278   2.05680   -1.000
 5964.00    2.10110   2.05147   40.236
 5965.00    2.08806   2.04437   40.378
 5966.00    2.07489   2.04085   40.320
 5967.00    2.07409   2.04369   40.037
 5968.00    2.09726   2.05125   39.905
 5969.00    2.11931   2.06018   -1.000
 5970.00    2.12551   2.06797   -1.000
 5971.00    2.12654   2.07293   -1.000
 5972.00    2.11251   2.07321   39.940
 5973.00    2.11146   2.06673   40.250
 5974.00    2.09754   2.05244   40.561
 5975.00    2.07250   2.03237   40.853
 5976.00    2.05839   2.01285   41.052
 5977.00    2.05563   2.00136   -1.000
 5978.00    2.06208   2.00213   -1.000
 5979.00    2.07599   2.01291   -1.000
 5980.00    2.09313   2.02545   -1.000
 5981.00    2.09643   2.02956   -1.000
 5982.00    2.08352   2.01984   -1.000
 5983.00    2.06230   2.00065   -1.000
 5984.00    2.04445   1.98381   -1.000
 5985.00    2.04670   1.98020   -1.000
 5986.00    2.06498   1.99076   -1.000
 5987.00    2.08300   2.00818   -1.000
 5988.00    2.09336   2.02433   -1.000
 5989.00    2.09823   2.03479   -1.000
 5990.00    2.10017   2.03935   -1.000
 5991.00    2.10382   2.04187   -1.000
 5992.00    2.11381   2.04768   -1.000
 5993.00    2.12655   2.05725   -1.000
 5994.00    2.13218   2.06474   -1.000
 5995.00    2.12441   2.06325   -1.000
 5996.00    2.11192   2.05203   -1.000
 5997.00    2.09355   2.03772   -1.000
 5998.00    2.08576   2.02873   -1.000
 5999.00    2.10033   2.02822   -1.000
 6000.00    2.10869   2.03205   -1.000
 6001.00    2.10140   2.03399   -1.000
 6002.00    2.07930   2.03141   40.876
 6003.00    2.07292   2.02725   40.774
 6004.00    2.07883   2.02408   -1.000
 6005.00    2.07675   2.01883   -1.000
 6006.00    2.06479   2.00753   -1.000
 6007.00    2.04771   1.99338   -1.000
 6008.00    2.03889   1.98671   -1.000
 6009.00    2.05290   1.99472   -1.000
 6010.00    2.07508   2.01114   -1.000
 6011.00    2.08468   2.02256   -1.000
 6012.00    2.08795   2.02245   -1.000
 6013.00    2.07719   2.01532   -1.000
 6014.00    2.07289   2.00943   -1.000
 6015.00    2.07670   2.00737   -1.000
 6016.00    2.07307   2.00675   -1.000
 6017.00    2.08146   2.00557   -1.000
 6018.00    2.08278   2.00264   -1.000
 6019.00    2.07054   1.99714   -1.000
 6020.00    2.06551   1.99125   -1.000
 6021.00    2.06240   1.98941   -1.000
 6022.00    2.06950   1.99428   -1.000
 6023.00    2.07934   2.00500   -1.000
 6024.00    2.09360   2.01900   -1.000
 6025.00    2.10362   2.03377   -1.000
 6026.00    2.11191   2.04727   -1.000
 6027.00    2.11931   2.05919   -1.000
 6028.00    2.13449   2.07028   -1.000
 6029.00    2.14542   2.07999   -1.000
 6030.00    2.14396   2.08752   -1.000
 6031.00    2.14220   2.09362   -1.000
 6032.00    2.14489   2.09974   39.912
 6033.00    2.15644   2.10623   -1.000
 6034.00    2.16002   2.11216   39.772
 6035.00    2.15706   2.11602   39.707
 6036.00    2.15212   2.11660   39.732
 6037.00    2.15217   2.11347   39.938
 6038.00    2.13647   2.10723   40.043
 6039.00    2.13727   2.09968   40.160
 6040.00    2.13000   2.09343   40.105
 6041.00    2.13168   2.09061   40.042
 6042.00    2.14333   2.09242   -1.000
 6043.00    2.15700   2.09930   -1.000
 6044.00    2.16844   2.10936   -1.000
 6045.00    2.16350   2.11920   39.545
 6046.00    2.16634   2.12635   39.488
 6047.00    2.16882   2.13053   39.511
 6048.00    2.17099   2.13244   39.639
 6049.00    2.17024   2.13277   39.737
 6050.00    2.15974   2.13136   39.779
 6051.00    2.16118   2.12689   39.848
 6052.00    2.15931   2.11823   40.001
 6053.00    2.14973   2.10609   40.131
 6054.00    2.14186   2.09279   -1.000
 6055.00    2.13030   2.08121   -1.000
 6056.00    2.12432   2.07475   -1.000
 6057.00    2.13074   2.07571   -1.000
 6058.00    2.14183   2.08313   -1.000
 6059.00    2.15023   2.09269   -1.000
 6060.00    2.14506   2.09829   -1.000
 6061.00    2.11434   2.09502   40.637
 6062.00    2.15376   2.08136   -1.000
 6063.00    1.69213   2.06090   -1.000
 6064.00    0.98962   2.04239   -1.000
 6065.00    1.33726   2.03672   -1.000
 6066.00    1.98092   2.04954   26.449
 6067.00    2.10022   2.07633   41.658
 6068.00    2.21626   2.10552   -1.000
 6069.00    1.54321   2.12766   -1.000
 6070.00    0.83399   2.14011   -1.000
 6071.00    1.85835   2.14478   -1.000
 6072.00    2.19941   2.14351   -1.000
 6073.00    2.17809   2.13988   39.696
 6074.00    2.18035   2.13606   -1.000
 6075.00    2.17385   2.12977   -1.000
 6076.00    2.16644   2.11800   -1.000
 6077.00    2.14534   2.10106   -1.000
 6078.00    2.12332   2.08366   40.803
 6079.00    2.11441   2.07034   -1.000
 6080.00    2.11064   2.06115   -1.000
 6081.00    2.10400   2.05417   -1.000
 6082.00    2.10398   2.04957   -1.000
 6083.00    2.11151   2.04849   -1.000
 6084.00    2.11717   2.05078   -1.000
 6085.00    2.11199   2.05547   -1.000
 6086.00    2.12009   2.06124   -1.000
 6087.00    2.12916   2.06571   -1.000
 6088.00    2.12870   2.06555   -1.000
 6089.00    2.10727   2.05934   -1.000
 6090.00    2.08377   2.05048   41.137
 6091.00    2.08711   2.04500   40.902
 6092.00    2.09920   2.04696   -1.000
 6093.00    2.12053   2.05639   -1.000
 6094.00    2.13572   2.06968   -1.000
 6095.00    2.14638   2.08185   -1.000
 6096.00    2.14594   2.09006   -1.000
 6097.00    2.14187   2.09503   -1.000
 6098.00    2.14272   2.09706   -1.000
 6099.00    2.14306   2.09142   -1.000
 6100.00    2.12338   2.07134   -1.000
 6101.00    2.08299   2.03697   -1.000
 6102.00    2.03610   2.00317   42.317
 6103.00    2.03850   1.98932   -1.000
 6104.00    2.08153   2.00178   -1.000
 6105.00    2.11931   2.02965   -1.000
 6106.00    2.13068   2.05661   -1.000
 6107.00    2.12312   2.07444   -1.000
 6108.00    2.11666   2.08472   40.928
 6109.00    2.12305   2.09089   40.847
 6110.00    2.14330   2.09426   -1.000
 6111.00    2.13360   2.09639   40.644
 6112.00    2.13219   2.09981   40.461
 6113.00    2.15500   2.10507   -1.000
 6114.00    2.16591   2.10905   -1.000
 6115.00    2.14979   2.10853   40.723
 6116.00    2.13289   2.10397   40.812
 6117.00    2.12781   2.09620   40.985
 6118.00    2.11643   2.08275   41.528
 6119.00    2.09142   2.06044   42.085
 6120.00    2.06830   2.03127   42.505
 6121.00    2.04611   2.00510   42.590
 6122.00    2.03572   1.99457   41.994
 6123.00    2.05478   2.00459   -1.000
 6124.00    2.09169   2.02632   -1.000
 6125.00    2.11638   2.04544   -1.000
 6126.00    2.10448   2.05395   -1.000
 6127.00    2.08936   2.05416   41.453
 6128.00    2.09553   2.05483   41.149
 6129.00    2.11347   2.06338   -1.000
 6130.00    2.12743   2.07957   -1.000
 6131.00    2.13233   2.09562   40.696
 6132.00    2.12870   2.10089   41.041
 6133.00    2.11720   2.08589   41.901
 6134.00    2.09448   2.04681   -1.000
 6135.00    2.03184   1.99132   -1.000
 6136.00    1.96542   1.94133   44.501
 6137.00    1.95503   1.92090   43.538
 6138.00    1.99994   1.93727   -1.000
 6139.00    2.06626   1.97463   -1.000
 6140.00    2.09452   2.00894   -1.000
 6141.00    2.09097   2.03023   -1.000
 6142.00    2.09035   2.04531   -1.000
 6143.00    2.10006   2.06231   40.967
 6144.00    2.12420   2.08030   -1.000
 6145.00    2.13481   2.09217   -1.000
 6146.00    2.12330   2.09298   41.263
 6147.00    2.11196   2.08368   41.558
 6148.00    2.10388   2.06966   41.810
 6149.00    2.08715   2.05735   41.845
 6150.00    2.07107   2.05159   41.708
 6151.00    2.06798   2.05303   41.432
 6152.00    2.08635   2.05730   41.346
 6153.00    2.09744   2.05814   41.648
 6154.00    2.08752   2.05287   41.889
 6155.00    2.07800   2.04436   41.940
 6156.00    2.07012   2.03606   42.092
 6157.00    2.06690   2.02672   42.507
 6158.00    2.04531   2.00928   43.276
 6159.00    2.00701   1.97537   44.532
 6160.00    1.95435   1.92492   45.845
 6161.00    1.89224   1.87179   46.407
 6162.00    1.85757   1.83810   45.853
 6163.00    1.86679   1.83758   44.640
 6164.00    1.91708   1.86600   -1.000
 6165.00    1.96369   1.90492   -1.000
 6166.00    1.98089   1.93451   43.715
 6167.00    1.97941   1.94364   44.231
 6168.00    1.95029   1.93461   44.706
 6169.00    1.92130   1.92195   44.476
 6170.00    1.92364   1.92194   43.665
 6171.00    1.96364   1.93967   43.016
 6172.00    1.99637   1.96608   42.979
 6173.00    2.01629   1.98890   43.026
 6174.00    2.02308   2.00257   42.936
 6175.00    2.01402   2.00876   42.849
 6176.00    2.00658   2.01249   42.738
 6177.00    2.01906   2.01787   42.537
 6178.00    2.02705   2.02581   42.374
 6179.00    2.03984   2.03484   42.238
 6180.00    2.05339   2.04396   42.049
 6181.00    2.05368   2.05283   41.930
 6182.00    2.06187   2.05957   41.992
 6183.00    2.05887   2.06115   42.136
 6184.00    2.04525   2.05513   42.451
 6185.00    2.02883   2.04135   42.905
 6186.00    2.01635   2.02245   43.354
 6187.00    1.99707   2.00202   43.770
 6188.00    1.98052   1.98127   44.098
 6189.00    1.96252   1.95943   44.645
 6190.00    1.94757   1.93926   44.973
 6191.00    1.92848   1.92998   44.560
 6192.00    1.93796   1.93971   43.507
 6193.00    1.97449   1.96684   42.744
 6194.00    2.01031   2.00012   42.437
 6195.00    2.03830   2.02705   42.357
 6196.00    2.03534   2.04019   42.596
 6197.00    2.02529   2.03809   43.074
 6198.00    2.00835   2.02506   43.446
 6199.00    1.98468   2.01120   43.449
 6200.00    1.97099   2.00732   43.047
 6201.00    1.98017   2.01703   42.511
 6202.00    2.00450   2.03512   42.342
 6203.00    2.02785   2.05282   42.340
 6204.00    2.04188   2.06471   42.278
 6205.00    2.05203   2.07110   42.266
 6206.00    2.05820   2.07456   42.414
 6207.00    2.05906   2.07610   42.432
 6208.00    2.05720   2.07422   42.594
 6209.00    2.04220   2.06649   42.967
 6210.00    2.03154   2.05103   43.312
 6211.00    2.01432   2.02688   43.726
 6212.00    1.98711   1.99551   44.370
 6213.00    1.95367   1.96333   44.848
 6214.00    1.92821   1.93941   44.999
 6215.00    1.93219   1.92992   44.483
 6216.00    1.94171   1.93326   44.215
 6217.00    1.95594   1.94113   44.499
 6218.00    1.96238   1.94530   44.400
 6219.00    1.95395   1.94461   44.078
 6220.00    1.96465   1.94472   44.282
 6221.00    1.75256   1.95046   -1.000
 6222.00    1.80619   1.96104   -1.000
 6223.00    1.97339   1.97223   44.130
 6224.00    2.00415   1.98080   43.795
 6225.00    1.99424   1.98554   43.843
 6226.00    1.99349   1.98444   44.062
 6227.00    1.98244   1.97367   44.629
 6228.00    1.95942   1.95073   45.363
 6229.00    1.92828   1.91968   45.964
 6230.00    1.90379   1.89333   45.857
 6231.00    1.89478   1.88528   45.236
 6232.00    1.92353   1.90075   44.395
 6233.00    1.95952   1.93335   43.657
 6234.00    1.98474   1.96927   43.398
 6235.00    1.99860   1.99440   43.641
 6236.00    1.99511   2.00093   44.074
 6237.00    1.98697   1.99020   44.524
 6238.00    1.96991   1.96971   44.997
 6239.00    1.94838   1.94830   45.218
 6240.00    1.93231   1.93156   45.220
 6241.00    1.92565   1.91946   45.508
 6242.00    1.91630   1.90908   45.819
 6243.00    1.89886   1.89998   45.828
 6244.00    1.89740   1.89551   45.560
 6245.00    1.91679   1.90002   45.123
 6246.00    1.94177   1.91581   44.559
 6247.00    1.96121   1.93971   44.081
 6248.00    1.97158   1.96287   43.988
 6249.00    1.98396   1.97496   44.350
 6250.00    1.97401   1.96966   45.131
 6251.00    1.94580   1.94875   45.729
 6252.00    1.91911   1.92196   46.066
 6253.00    1.89575   1.89966   46.213
 6254.00    1.89567   1.88552   46.209
 6255.00    1.89377   1.87629   46.575
 6256.00    1.87652   1.86798   47.000
 6257.00    1.86509   1.86244   46.874
 6258.00    1.87291   1.86620   46.216
 6259.00    1.89815   1.88386   45.514
 6260.00    1.93248   1.91345   44.890
 6261.00    1.96576   1.94718   44.204
 6262.00    1.98401   1.97560   43.925
 6263.00    1.98509   1.99209   44.214
 6264.00    1.97962   1.99672   44.524
 6265.00    1.97117   1.99563   44.384
 6266.00    1.96842   1.99539   44.066
 6267.00    1.97554   1.99725   44.162
 6268.00    1.97411   1.99849   44.387
 6269.00    1.96987   1.99841   44.364
 6270.00    1.96395   1.99940   44.217
 6271.00    1.97080   2.00354   44.106
 6272.00    1.98167   2.00912   44.196
 6273.00    1.98001   2.01156   44.496
 6274.00    1.95269   2.00726   44.855
 6275.00    1.91979   1.99567   45.531
 6276.00    1.89897   1.97802   46.641
 6277.00    1.87324   1.95653   47.536
 6278.00    1.85760   1.93439   47.899
 6279.00    1.85361   1.91661   47.767
 6280.00    1.84137   1.90938   47.076
 6281.00    1.82982   1.91627   46.263
 6282.00    1.84331   1.93579   -1.000
 6283.00    1.87359   1.96195   44.972
 6284.00    1.89685   1.98824   44.583
 6285.00    1.92896   2.01118   44.183
 6286.00    1.95836   2.02974   43.862
 6287.00    1.97990   2.04296   43.749
 6288.00    1.99063   2.04837   43.946
 6289.00    1.99880   2.04424   44.308
 6290.00    1.99515   2.03255   44.646
 6291.00    1.98707   2.01851   44.763
 6292.00    1.97420   2.00728   44.812
 6293.00    1.96274   1.99985   44.888
 6294.00    1.95832   1.99285   45.204
 6295.00    1.94753   1.98244   45.513
 6296.00    1.93523   1.96946   45.610
 6297.00    1.92170   1.95873   45.555
 6298.00    1.91981   1.95301   45.377
 6299.00    1.92685   1.95014   45.174
 6300.00    1.93501   1.94674   45.483
 6301.00    1.93637   1.94399   45.998
 6302.00    1.93507   1.94725   45.731
 6303.00    1.94686   1.95961   45.032
 6304.00    1.95315   1.97931   44.455
 6305.00    1.96643   2.00196   44.057
 6306.00    1.98102   2.02351   43.662
 6307.00    1.99991   2.04032   43.548
 6308.00    2.00974   2.04876   43.713
 6309.00    1.99756   2.04746   44.002
 6310.00    1.98501   2.03877   44.189
 6311.00    1.97382   2.02703   44.367
 6312.00    1.96815   2.01492   44.427
 6313.00    1.95512   2.00213   44.789
 6314.00    1.94063   1.98787   44.989
 6315.00    1.92644   1.97394   44.978
 6316.00    1.92171   1.96295   44.934
 6317.00    1.92011   1.95721   44.983
 6318.00    1.92228   1.95962   44.849
 6319.00    1.93577   1.97160   44.350
 6320.00    1.95592   1.99028   43.896
 6321.00    1.97838   2.01067   43.696
 6322.00    1.98772   2.02957   43.551
 6323.00    1.99474   2.04593   43.326
 6324.00    2.00805   2.05917   43.176
 6325.00    2.02355   2.06809   43.140
 6326.00    2.01486   2.07240   42.949
 6327.00    2.00896   2.07371   42.954
 6328.00    2.01032   2.07413   42.990
 6329.00    2.01570   2.07482   43.020
 6330.00    2.01778   2.07678   42.887
 6331.00    2.02446   2.07951   42.801
 6332.00    2.02290   2.07865   42.895
 6333.00    1.99813   2.06844   43.007
 6334.00    1.98253   2.04788   43.897
 6335.00    1.96390   2.02452   44.136
 6336.00    1.96220   2.01007   43.808
 6337.00    1.97289   2.01102   43.366
 6338.00    1.99049   2.02516   42.891
 6339.00    1.99785   2.04472   42.647
 6340.00    2.02203   2.06067   42.442
 6341.00    2.02358   2.06672   42.443
 6342.00    2.01000   2.06241   42.787
 6343.00    1.99429   2.05370   42.897
 6344.00    1.98881   2.04935   42.796
 6345.00    1.98902   2.05464   42.576
 6346.00    2.00831   2.06833   42.284
 6347.00    2.01712   2.08557   42.104
 6348.00    2.02772   2.10155   42.094
 6349.00    2.02983   2.11306   42.017
 6350.00    2.02911   2.11845   42.037
 6351.00    2.02952   2.11650   42.202
 6352.00    2.02051   2.10681   42.397
 6353.00    2.00601   2.09100   42.848
 6354.00    1.98736   2.07324   43.240
 6355.00    1.96778   2.05757   43.304
 6356.00    1.97107   2.04377   43.410
 6357.00    1.96365   2.02913   43.861
 6358.00    1.94384   2.01282   44.097
 6359.00    1.93087   1.99711   43.962
 6360.00    1.92187   1.98479   43.810
 6361.00    1.92721   1.97788   43.757
 6362.00    1.93341   1.97798   43.622
 6363.00    1.93575   1.98623   43.349
 6364.00    1.95969   2.00229   43.069
 6365.00    1.96178   2.02379   42.833
 6366.00    1.96656   2.04692   42.566
 6367.00    1.98252   2.06767   42.283
 6368.00    1.99465   2.08310   42.150
 6369.00    2.00424   2.09306   42.165
 6370.00    1.98764   2.10053   -1.000
 6371.00    1.99711   2.10857   -1.000
 6372.00    2.00492   2.11783   -1.000
 6373.00    1.99594   2.12591   -1.000
 6374.00    1.98726   2.13002   -1.000
 6375.00    1.99272   2.12907   -1.000
 6376.00    1.98082   2.12339   -1.000
 6377.00    1.97610   2.11413   -1.000
 6378.00    1.96866   2.10373   -1.000
 6379.00    1.95591   2.09528   -1.000
 6380.00    1.94339   2.09104   -1.000
 6381.00    1.94948   2.09154   -1.000
 6382.00    1.95449   2.09504   -1.000
 6383.00    1.95061   2.09928   -1.000
 6384.00    1.94822   2.10349   -1.000
 6385.00    1.94864   2.10825   -1.000
 6386.00    1.94508   2.11363   -1.000
 6387.00    1.94189   2.11823   -1.000
 6388.00    1.94050   2.11982   -1.000
 6389.00    1.91736   2.11568   -1.000
 6390.00    1.89483   2.10326   -1.000
 6391.00    1.88382   2.08273   -1.000
 6392.00    1.84697   2.06038   -1.000
 6393.00    1.81758   2.04735   -1.000
 6394.00    1.81441   2.05180   -1.000
 6395.00    1.84264   2.06980   -1.000
 6396.00    1.85938   2.08729   -1.000
 6397.00    1.85462   2.09049   -1.000
 6398.00    1.82424   2.07617   -1.000
 6399.00    1.77732   2.05626   -1.000
 6400.00    1.76108   2.04838   -1.000
 6401.00    1.77966   2.06197   -1.000
 6402.00    1.79622   2.09044   -1.000
 6403.00    1.80705   2.11825   -1.000
 6404.00    1.80771   2.13257   -1.000
 6405.00    1.79069   2.12975   -1.000
 6406.00    1.77183   2.11555   -1.000
 6407.00    1.74866   2.09960   -1.000
 6408.00    1.72758   2.08935   -1.000
 6409.00    1.72242   2.08520   -1.000
 6410.00    1.70618   2.08365   -1.000
 6411.00    1.67458   2.08284   -1.000
 6412.00    1.66795   2.08391   -1.000
 6413.00    1.67299   2.08809   -1.000
 6414.00    1.65897   2.09460   -1.000
 6415.00    1.64459   2.10075   -1.000
 6416.00    1.64353   2.10301   -1.000
 6417.00    1.63439   2.09798   -1.000
 6418.00    1.61304   2.08478   -1.000
 6419.00    1.58576   2.06803   -1.000
 6420.00    1.55353   2.05727   -1.000
 6421.00    1.53442   2.06107   -1.000
 6422.00    1.54023   2.07992   -1.000
 6423.00    1.55436   2.10556   -1.000
 6424.00    1.54916   2.12878   -1.000
 6425.00    1.54324   2.14445   -1.000
 6426.00    1.52769   2.15104   -1.000
 6427.00    1.50264   2.14685   -1.000
 6428.00    1.48865   2.13037   -1.000
