###################################################################
## OUTPUT of StarlightChains_v04.for    [Cid@UFSC - 01/Apr/2007] ##
###################################################################

## Some input info
NGC6266_a_1.cxt                          [arq_obs]
Base.BC03.S                              [arq_base]
NGC6266_a_1.msk                          [arq_masks]
StCv04.C99.config                        [arq_config]
  150                                    [N_base]
    0                                    [N_YAV_components = # of components with extra extinction!]
    0                                    [i_FitPowerLaw (1/0 = Yes/No)]
-9.99                                    [alpha_PowerLaw]
CCM                                      [red_law_option]
 1.458241                                [q_norm = A(l_norm)/A(V)]

## (Re)Sampling Parameters
 3359.00                                 [l_ini (A)]
 6428.00                                 [l_fin (A)]
    1.00                                 [dl    (A)]     (OBS: dl_cushion =    50.00 A)

## Normalization info
 4020.00                                 [l_norm (A) - for base]
 4010.00                                 [llow_norm (A) - window for f_obs]
 4060.00                                 [lupp_norm (A) - window for f_obs]
4.260575E-14                             [fobs_norm (in input units)]

## S/N
 4730.00                                 [llow_SN (A) - window for S/N]
 4780.00                                 [lupp_SN (A) - window for S/N]
  58.893                                 [S/N in S/N window]
  42.056                                 [S/N in norm. window]
 225.721                                 [S/N_err in S/N window]
 161.191                                 [S/N_err in norm. window]
  1.0000                                 [fscale_chi2]

## etc...
  2147483622                             [idum_orig]
  3065                                   [NOl_eff]
   800                                   [Nl_eff]
  2265    NSIGMA                         [Ntot_cliped & clip_method]
  4105780                                [Nglobal_steps]
   7                                     [N_chains]
  20                                     [NEX0s_base = N_base in EX0s-fits]
 0   0   1        2   2.0   4.776E+02    [Clip-Bug, RC-Crash & Burn-In warning-flags, n_censored_weights, wei_nsig_threshold & wei_limit]
   192    192.010    191.986      0.024  [idt_all, wdt_TotTime, wdt_UsrTime & wdt_SysTime (sec)]

## Synthesis Results - Best model ##

 2.36442E+00                             [chi2/Nl_eff]
     1.04278                             [adev (%)]

    97.34515                             [sum-of-x (%)]
 2.65301E-13                             [Flux_tot (units of input spectrum!)]
 6.83745E-09                             [Mini_tot (???)]
 3.44506E-09                             [Mcor_tot (???)]

  -9.21                                  [v0_min  (km/s)]
  26.07                                  [vd_min  (km/s)]
 1.3817                                  [AV_min  (mag)]
 0.0000                                  [YAV_min (mag)]

# j     x_j(%)      Mini_j(%)     Mcor_j(%)     age_j(yr)     Z_j      (L/M)_j    YAV?  Mstars   component_j        a/Fe...       SSP_chi2r SSP_adev(%)   SSP_AV   SSP_x(%)
  1      0.0000     0.0000E+00    0.0000E+00    1.000000E+06  0.00010  8.160E-03    0   1.0000   age020_m22            0.0000     3.2654E+03    28.4477   4.0000    91.0358
  2     11.1698     9.3554E-03    1.8568E-02    3.160000E+06  0.00010  4.759E-02    0   1.0000   age045_m22            0.0000     7.7782E+01     4.4465   2.8758    94.6796
  3      1.2819     2.6447E-03    5.0295E-03    5.010000E+06  0.00010  1.932E-02    0   0.9582   age055_m22            0.0000     5.3786E+02    12.1532   3.1562    80.5643
  4      0.0000     0.0000E+00    0.0000E+00    6.610000E+06  0.00010  9.973E-03    0   0.9297   age061_m22            0.0000     2.9958E+03    27.0855   4.0000    93.6633
  5      0.0000     0.0000E+00    0.0000E+00    8.710000E+06  0.00010  7.690E-03    0   0.9030   age067_m22            0.0000     2.9014E+03    26.6300   4.0000    94.1629
  6      0.0000     0.0000E+00    0.0000E+00    1.000000E+07  0.00010  6.375E-03    0   0.8902   age070_m22            0.0000     2.9409E+03    26.6611   4.0000    94.6628
  7      0.0000     0.0000E+00    0.0000E+00    1.445000E+07  0.00010  4.874E-03    0   0.8589   age078_m22            0.0000     1.8111E+03    21.4950   4.0000    95.4409
  8      0.0000     0.0000E+00    0.0000E+00    2.512000E+07  0.00010  4.103E-03    0   0.8174   age090_m22            0.0000     3.5333E+02    10.5461   4.0000    94.4159
  9      0.0000     0.0000E+00    0.0000E+00    4.000000E+07  0.00010  3.654E-03    0   0.7830   age104_m22            0.0000     1.6720E+02     6.1909   3.9438    93.5543
 10      0.0000     0.0000E+00    0.0000E+00    5.500000E+07  0.00010  3.093E-03    0   0.7597   age110_m22            0.0000     1.9235E+02     6.1561   3.8447    95.3415
 11      0.0000     0.0000E+00    0.0000E+00    1.015200E+08  0.00010  2.431E-03    0   0.7138   age116_m22            0.0000     2.6951E+02     6.8790   3.4893    98.8247
 12      0.0000     0.0000E+00    0.0000E+00    1.609000E+08  0.00010  1.319E-03    0   0.6775   age120_m22            0.0000     2.5132E+02     6.4697   3.0097   101.2170
 13      0.0000     0.0000E+00    0.0000E+00    2.861200E+08  0.00010  1.075E-03    0   0.6412   age125_m22            0.0000     7.2565E+02    11.7406   3.0901   105.2614
 14      0.0000     0.0000E+00    0.0000E+00    5.088000E+08  0.00010  7.183E-04    0   0.6083   age130_m22            0.0000     9.0782E+02    13.3479   2.8662   106.9833
 15      0.0000     0.0000E+00    0.0000E+00    9.047900E+08  0.00010  4.524E-04    0   0.5785   age135_m22            0.0000     9.2976E+02    13.5537   2.6630   108.2968
 16      0.0000     0.0000E+00    0.0000E+00    1.278050E+09  0.00010  3.018E-04    0   0.5588   age138_m22            0.0000     4.5725E+02     9.2446   2.1226   106.3389
 17      0.0000     0.0000E+00    0.0000E+00    1.434000E+09  0.00010  2.691E-04    0   0.5532   age139_m22            0.0000     3.7953E+02     8.3687   1.9659   105.7118
 18      0.0000     0.0000E+00    0.0000E+00    2.500000E+09  0.00010  1.582E-04    0   0.5296   age150_m22            0.0000     3.1599E+02     7.4841   1.8426   106.5321
 19      0.0000     0.0000E+00    0.0000E+00    4.250000E+09  0.00010  1.007E-04    0   0.5110   age158_m22            0.0000     1.7628E+02     5.4938   1.6960   104.3152
 20      0.0000     0.0000E+00    0.0000E+00    6.250000E+09  0.00010  6.869E-05    0   0.4985   age166_m22            0.0000     7.9926E+01     3.6438   1.6439   100.9915
 21      0.0000     0.0000E+00    0.0000E+00    7.500000E+09  0.00010  5.873E-05    0   0.4931   age171_m22            0.0000     6.6839E+01     3.3706   1.6283   100.4368
 22      0.0000     0.0000E+00    0.0000E+00    1.000000E+10  0.00010  4.481E-05    0   0.4854   age181_m22            0.0000     6.3444E+01     3.2846   1.5913   100.0410
 23      0.0000     0.0000E+00    0.0000E+00    1.300000E+10  0.00010  3.489E-05    0   0.4791   age193_m22            0.0000     5.5515E+01     3.0651   1.5374    99.4083
 24      0.0000     0.0000E+00    0.0000E+00    1.500000E+10  0.00010  3.035E-05    0   0.4766   age201_m22            0.0000     4.9853E+01     2.9089   1.4987    99.2055
 25      0.4447     7.0612E-01    6.6358E-01    1.800000E+10  0.00010  2.510E-05    0   0.4735   age213_m22            0.0000     3.7855E+01     2.5543   1.4315    98.5314
 26      0.0000     0.0000E+00    0.0000E+00    1.000000E+06  0.00040  8.458E-03    0   1.0000   age020_m32            0.0000     3.3342E+03    28.4911   4.0000    92.0041
 27      0.0000     0.0000E+00    0.0000E+00    3.160000E+06  0.00040  3.973E-02    0   1.0000   age045_m32            0.0000     2.4874E+02     9.1634   4.0000    91.5267
 28      0.0000     0.0000E+00    0.0000E+00    5.010000E+06  0.00040  1.935E-02    0   0.9532   age055_m32            0.0000     8.8672E+02    16.3846   4.0000    89.8798
 29      0.0000     0.0000E+00    0.0000E+00    6.610000E+06  0.00040  1.204E-02    0   0.9243   age061_m32            0.0000     2.1047E+03    23.2385   4.0000    93.9813
 30      0.0000     0.0000E+00    0.0000E+00    8.710000E+06  0.00040  9.433E-03    0   0.9001   age067_m32            0.0000     1.9010E+03    22.1362   4.0000    94.6907
 31      0.0000     0.0000E+00    0.0000E+00    1.000000E+07  0.00040  8.053E-03    0   0.8877   age070_m32            0.0000     1.7150E+03    21.1738   4.0000    94.6113
 32      0.0000     0.0000E+00    0.0000E+00    1.445000E+07  0.00040  7.027E-03    0   0.8578   age078_m32            0.0000     2.6858E+02     9.6150   4.0000    88.6919
 33      0.0000     0.0000E+00    0.0000E+00    2.512000E+07  0.00040  4.707E-03    0   0.8166   age090_m32            0.0000     1.5594E+02     7.1169   3.7857    90.9654
 34      0.0000     0.0000E+00    0.0000E+00    4.000000E+07  0.00040  3.714E-03    0   0.7827   age104_m32            0.0000     1.4539E+02     5.8859   3.5839    94.9633
 35      0.0000     0.0000E+00    0.0000E+00    5.500000E+07  0.00040  2.982E-03    0   0.7593   age110_m32            0.0000     1.6635E+02     5.8714   3.5240    96.3580
 36      0.0000     0.0000E+00    0.0000E+00    1.015200E+08  0.00040  2.188E-03    0   0.7143   age116_m32            0.0000     3.8285E+02     8.1665   3.2668   101.3888
 37      0.0000     0.0000E+00    0.0000E+00    1.609000E+08  0.00040  1.690E-03    0   0.6856   age120_m32            0.0000     5.8117E+02    10.2324   3.0605   104.5352
 38      0.0000     0.0000E+00    0.0000E+00    2.861200E+08  0.00040  1.152E-03    0   0.6509   age125_m32            0.0000     7.7538E+02    12.2266   2.8471   106.3502
 39      0.0000     0.0000E+00    0.0000E+00    5.088000E+08  0.00040  7.331E-04    0   0.6182   age130_m32            0.0000     8.6140E+02    13.0194   2.6881   107.0364
 40      0.0000     0.0000E+00    0.0000E+00    9.047900E+08  0.00040  3.960E-04    0   0.5890   age135_m32            0.0000     4.9443E+02     9.8563   2.2254   105.4228
 41      0.0000     0.0000E+00    0.0000E+00    1.278050E+09  0.00040  2.854E-04    0   0.5687   age138_m32            0.0000     3.7367E+02     8.2943   1.9166   107.3936
 42      0.0000     0.0000E+00    0.0000E+00    1.434000E+09  0.00040  2.531E-04    0   0.5632   age139_m32            0.0000     3.6217E+02     8.1333   1.8536   107.4189
 43      0.1638     4.3865E-02    4.6890E-02    2.500000E+09  0.00040  1.488E-04    0   0.5386   age150_m32            0.0000     2.6408E+02     6.9375   1.6032   105.3531
 44      1.0315     4.5271E-01    4.6712E-01    4.250000E+09  0.00040  9.082E-05    0   0.5199   age158_m32            0.0000     8.4648E+01     3.7285   1.5109   101.2848
 45     40.1970     2.5184E+01    2.5372E+01    6.250000E+09  0.00040  6.362E-05    0   0.5076   age166_m32            0.0000     1.5534E+01     1.7539   1.4716    97.3128
 46     30.8299     2.3234E+01    2.3181E+01    7.500000E+09  0.00040  5.289E-05    0   0.5027   age171_m32            0.0000     1.0631E+01     1.5301   1.4389    95.9359
 47      0.0000     0.0000E+00    0.0000E+00    1.000000E+10  0.00040  3.972E-05    0   0.4948   age181_m32            0.0000     9.1424E+00     1.4301   1.3799    94.5488
 48      0.0018     2.2445E-03    2.1694E-03    1.300000E+10  0.00040  3.283E-05    0   0.4870   age193_m32            0.0000     2.2185E+01     2.0067   1.3342    97.6141
 49      0.0394     5.3729E-02    5.1762E-02    1.500000E+10  0.00040  2.925E-05    0   0.4854   age201_m32            0.0000     4.0716E+01     2.6993   1.3141    99.4248
 50      0.0000     0.0000E+00    0.0000E+00    1.800000E+10  0.00040  2.469E-05    0   0.4819   age213_m32            0.0000     4.9779E+01     3.0208   1.2743   100.0346
 51      0.0000     0.0000E+00    0.0000E+00    1.000000E+06  0.00400  1.114E-02    0   1.0000   age020_m42            0.0000     2.8808E+03    26.7351   4.0000    91.6073
 52      0.0000     0.0000E+00    0.0000E+00    3.160000E+06  0.00400  4.073E-02    0   0.9999   age045_m42            0.0000     1.2106E+02     6.0716   3.8604    90.2985
 53      0.0000     0.0000E+00    0.0000E+00    5.010000E+06  0.00400  2.534E-02    0   0.9488   age055_m42            0.0000     4.7250E+02    12.4053   4.0000    90.0553
 54      0.5533     8.5388E-04    1.5625E-03    6.610000E+06  0.00400  2.583E-02    0   0.9220   age061_m42            0.0000     1.1603E+02     5.7780   3.6642    91.7754
 55      0.0000     0.0000E+00    0.0000E+00    8.710000E+06  0.00400  1.706E-02    0   0.8983   age067_m42            0.0000     1.6265E+02     7.5654   3.4715    89.8196
 56      0.0000     0.0000E+00    0.0000E+00    1.000000E+07  0.00400  1.271E-02    0   0.8862   age070_m42            0.0000     2.5939E+02     9.5218   3.4487    88.2279
 57      0.0000     0.0000E+00    0.0000E+00    1.445000E+07  0.00400  7.666E-03    0   0.8571   age078_m42            0.0000     3.2986E+02    10.4977   3.8566    84.5284
 58      0.0000     0.0000E+00    0.0000E+00    2.512000E+07  0.00400  5.070E-03    0   0.8174   age090_m42            0.0000     2.1659E+02     8.8705   3.3194    90.0046
 59      0.0000     0.0000E+00    0.0000E+00    4.000000E+07  0.00400  3.505E-03    0   0.7851   age104_m42            0.0000     1.2349E+02     6.8369   3.0108    93.2365
 60      0.0001     1.5928E-06    2.4117E-06    5.500000E+07  0.00400  3.059E-03    0   0.7629   age110_m42            0.0000     1.2104E+02     4.8801   3.0693    98.9223
 61      0.0000     0.0000E+00    0.0000E+00    1.015200E+08  0.00400  2.268E-03    0   0.7207   age116_m42            0.0000     4.9571E+02     9.5863   2.9823   105.2021
 62      0.0000     0.0000E+00    0.0000E+00    1.609000E+08  0.00400  1.720E-03    0   0.6930   age120_m42            0.0000     5.7985E+02    10.6108   2.8552   106.5122
 63      0.0000     0.0000E+00    0.0000E+00    2.861200E+08  0.00400  1.079E-03    0   0.6613   age125_m42            0.0000     5.6116E+02    10.5687   2.4930   107.2617
 64      0.0000     0.0000E+00    0.0000E+00    5.088000E+08  0.00400  6.261E-04    0   0.6313   age130_m42            0.0000     6.5914E+02    11.3974   2.2889   110.5956
 65      0.0000     0.0000E+00    0.0000E+00    9.047900E+08  0.00400  3.535E-04    0   0.6024   age135_m42            0.0000     3.9945E+02     8.8828   1.8928   110.4567
 66      0.0000     0.0000E+00    0.0000E+00    1.278050E+09  0.00400  2.677E-04    0   0.5837   age138_m42            0.0000     1.9487E+02     6.6511   1.2424   107.0023
 67      0.0000     0.0000E+00    0.0000E+00    1.434000E+09  0.00400  1.910E-04    0   0.5716   age139_m42            0.0000     2.3202E+02     7.0800   1.4087   107.9255
 68      0.0000     0.0000E+00    0.0000E+00    2.500000E+09  0.00400  9.818E-05    0   0.5463   age150_m42            0.0000     1.1515E+02     5.2302   1.1698   101.7787
 69      0.0000     0.0000E+00    0.0000E+00    4.250000E+09  0.00400  5.491E-05    0   0.5269   age158_m42            0.0000     1.0014E+02     4.6269   1.0518    98.6908
 70      0.0000     0.0000E+00    0.0000E+00    6.250000E+09  0.00400  3.857E-05    0   0.5151   age166_m42            0.0000     1.3498E+02     5.1974   0.9386    97.1051
 71      0.0000     0.0000E+00    0.0000E+00    7.500000E+09  0.00400  3.243E-05    0   0.5110   age171_m42            0.0000     1.6502E+02     5.6536   0.8678    96.4555
 72      0.0000     0.0000E+00    0.0000E+00    1.000000E+10  0.00400  2.424E-05    0   0.5028   age181_m42            0.0000     2.0986E+02     6.2998   0.7975    95.6797
 73      0.0000     0.0000E+00    0.0000E+00    1.300000E+10  0.00400  1.883E-05    0   0.4927   age193_m42            0.0000     2.4806E+02     6.8137   0.7622    95.2821
 74      0.3817     9.0296E-01    8.8154E-01    1.500000E+10  0.00400  1.685E-05    0   0.4919   age201_m42            0.0000     2.3844E+02     6.6756   0.7659    95.3323
 75      0.0000     0.0000E+00    0.0000E+00    1.800000E+10  0.00400  1.452E-05    0   0.4874   age213_m42            0.0000     2.2119E+02     6.4220   0.7783    95.6716
 76      0.0000     0.0000E+00    0.0000E+00    1.000000E+06  0.00800  1.286E-02    0   1.0000   age020_m52            0.0000     2.6759E+03    25.4330   4.0000    93.4718
 77      0.0000     0.0000E+00    0.0000E+00    3.160000E+06  0.00800  3.147E-02    0   0.9966   age045_m52            0.0000     2.1748E+03    23.3976   4.0000    93.8848
 78      0.0000     0.0000E+00    0.0000E+00    5.010000E+06  0.00800  2.664E-02    0   0.9443   age055_m52            0.0000     7.8859E+02    15.3189   4.0000    91.6004
 79      0.0000     0.0000E+00    0.0000E+00    6.610000E+06  0.00800  2.151E-02    0   0.9177   age061_m52            0.0000     2.0030E+02     8.1199   3.0616    89.5341
 80      0.0000     0.0000E+00    0.0000E+00    8.710000E+06  0.00800  1.628E-02    0   0.8948   age067_m52            0.0000     1.9779E+02     8.4202   3.4272    90.2178
 81      0.0000     0.0000E+00    0.0000E+00    1.000000E+07  0.00800  1.215E-02    0   0.8827   age070_m52            0.0000     2.4806E+02     9.3171   3.7702    88.1197
 82      0.0000     0.0000E+00    0.0000E+00    1.445000E+07  0.00800  8.739E-03    0   0.8552   age078_m52            0.0000     1.9682E+02     8.3163   3.8109    89.6704
 83      0.0000     0.0000E+00    0.0000E+00    2.512000E+07  0.00800  5.676E-03    0   0.8162   age090_m52            0.0000     1.5360E+02     6.6494   3.4007    95.4481
 84      0.0000     0.0000E+00    0.0000E+00    4.000000E+07  0.00800  3.939E-03    0   0.7841   age104_m52            0.0000     1.5067E+02     5.6930   3.2431    98.3122
 85      0.0000     0.0000E+00    0.0000E+00    5.500000E+07  0.00800  3.155E-03    0   0.7627   age110_m52            0.0000     1.9617E+02     5.8422   3.2129   100.3966
 86      0.0000     0.0000E+00    0.0000E+00    1.015200E+08  0.00800  2.206E-03    0   0.7226   age116_m52            0.0000     3.6947E+02     7.9704   3.0367   104.7129
 87      0.0000     0.0000E+00    0.0000E+00    1.609000E+08  0.00800  1.596E-03    0   0.6963   age120_m52            0.0000     4.6089E+02     9.2555   2.8256   106.5733
 88      0.0000     0.0000E+00    0.0000E+00    2.861200E+08  0.00800  1.002E-03    0   0.6665   age125_m52            0.0000     7.2393E+02    12.2060   2.5461   109.6096
 89      0.0000     0.0000E+00    0.0000E+00    5.088000E+08  0.00800  5.759E-04    0   0.6377   age130_m52            0.0000     8.1709E+02    13.0884   2.2158   113.3460
 90      0.0000     0.0000E+00    0.0000E+00    9.047900E+08  0.00800  2.972E-04    0   0.6086   age135_m52            0.0000     5.1733E+02    10.4962   1.7074   110.9725
 91      0.0000     0.0000E+00    0.0000E+00    1.278050E+09  0.00800  2.242E-04    0   0.5907   age138_m52            0.0000     2.5491E+02     7.4303   1.0934   109.5936
 92      0.0000     0.0000E+00    0.0000E+00    1.434000E+09  0.00800  1.645E-04    0   0.5787   age139_m52            0.0000     2.1358E+02     6.8113   1.2415   108.7870
 93      0.0000     0.0000E+00    0.0000E+00    2.500000E+09  0.00800  7.723E-05    0   0.5519   age150_m52            0.0000     1.9335E+02     6.4280   0.9259   104.2020
 94      0.0000     0.0000E+00    0.0000E+00    4.250000E+09  0.00800  4.151E-05    0   0.5320   age158_m52            0.0000     1.8996E+02     6.4048   0.8650   101.2113
 95      0.0000     0.0000E+00    0.0000E+00    6.250000E+09  0.00800  3.010E-05    0   0.5197   age166_m52            0.0000     2.6499E+02     7.3393   0.6876    99.5926
 96      0.0710     1.1464E-01    1.1693E-01    7.500000E+09  0.00800  2.467E-05    0   0.5139   age171_m52            0.0000     2.8810E+02     7.6100   0.6495    99.1682
 97      0.0000     0.0000E+00    0.0000E+00    1.000000E+10  0.00800  1.862E-05    0   0.5054   age181_m52            0.0000     3.7007E+02     8.5225   0.5316    98.6995
 98      0.0000     0.0000E+00    0.0000E+00    1.300000E+10  0.00800  1.433E-05    0   0.4988   age193_m52            0.0000     4.6628E+02     9.4541   0.4460    99.2540
 99      0.0000     0.0000E+00    0.0000E+00    1.500000E+10  0.00800  1.244E-05    0   0.4936   age201_m52            0.0000     5.0559E+02     9.7757   0.4201    99.6982
100      0.0000     0.0000E+00    0.0000E+00    1.800000E+10  0.00800  1.070E-05    0   0.4888   age213_m52            0.0000     5.3428E+02    10.0194   0.3892    99.5247
101      0.0000     0.0000E+00    0.0000E+00    1.000000E+06  0.02000  1.989E-02    0   1.0000   age020_m62            0.0000     2.6476E+03    25.5677   4.0000    91.9471
102      0.0000     0.0000E+00    0.0000E+00    3.160000E+06  0.02000  3.772E-02    0   0.9858   age045_m62            0.0000     1.8749E+03    22.3160   4.0000    92.3076
103      0.0000     0.0000E+00    0.0000E+00    5.010000E+06  0.02000  3.227E-02    0   0.9342   age055_m62            0.0000     2.1965E+02     8.8402   4.0000    89.9471
104      0.0000     0.0000E+00    0.0000E+00    6.610000E+06  0.02000  2.387E-02    0   0.9090   age061_m62            0.0000     3.1353E+02    10.2917   3.8351    86.5898
105      0.0000     0.0000E+00    0.0000E+00    8.710000E+06  0.02000  1.102E-02    0   0.8861   age067_m62            0.0000     1.0731E+03    17.2233   3.4582    81.0507
106      0.0000     0.0000E+00    0.0000E+00    1.000000E+07  0.02000  1.011E-02    0   0.8751   age070_m62            0.0000     6.9419E+02    14.2895   3.4834    83.8494
107      0.0000     0.0000E+00    0.0000E+00    1.445000E+07  0.02000  7.331E-03    0   0.8472   age078_m62            0.0000     4.4511E+02    11.8437   3.5062    85.5458
108      0.0000     0.0000E+00    0.0000E+00    2.512000E+07  0.02000  4.206E-03    0   0.8099   age090_m62            0.0000     4.7065E+02    12.0687   3.4213    84.9139
109      0.0000     0.0000E+00    0.0000E+00    4.000000E+07  0.02000  3.373E-03    0   0.7799   age104_m62            0.0000     1.2494E+02     6.4116   3.2143    95.4021
110      0.0000     0.0000E+00    0.0000E+00    5.500000E+07  0.02000  2.747E-03    0   0.7595   age110_m62            0.0000     1.4531E+02     5.4616   3.1427    99.8075
111      0.0000     0.0000E+00    0.0000E+00    1.015200E+08  0.02000  1.878E-03    0   0.7221   age116_m62            0.0000     3.8225E+02     8.0131   2.9984   105.9194
112      0.0000     0.0000E+00    0.0000E+00    1.609000E+08  0.02000  1.378E-03    0   0.6978   age120_m62            0.0000     5.9533E+02    10.5393   2.8471   108.9146
113      0.0000     0.0000E+00    0.0000E+00    2.861200E+08  0.02000  8.869E-04    0   0.6700   age125_m62            0.0000     9.5838E+02    13.7713   2.4871   113.6702
114      0.0000     0.0000E+00    0.0000E+00    5.088000E+08  0.02000  4.834E-04    0   0.6430   age130_m62            0.0000     8.9657E+02    13.5769   2.0797   115.1892
115      0.0000     0.0000E+00    0.0000E+00    9.047900E+08  0.02000  2.312E-04    0   0.6152   age135_m62            0.0000     4.5461E+02     9.7759   1.4950   113.5917
116      0.0000     0.0000E+00    0.0000E+00    1.278050E+09  0.02000  1.387E-04    0   0.5927   age138_m62            0.0000     2.2878E+02     7.0181   1.1354   108.3607
117      0.0000     0.0000E+00    0.0000E+00    1.434000E+09  0.02000  1.168E-04    0   0.5865   age139_m62            0.0000     2.0522E+02     6.6574   1.1159   106.4261
118      0.0000     0.0000E+00    0.0000E+00    2.500000E+09  0.02000  5.505E-05    0   0.5610   age150_m62            0.0000     2.5276E+02     7.2324   0.7701   102.9774
119      0.0000     0.0000E+00    0.0000E+00    4.250000E+09  0.02000  3.070E-05    0   0.5407   age158_m62            0.0000     4.3115E+02     9.1588   0.4954   102.9236
120      0.0000     0.0000E+00    0.0000E+00    6.250000E+09  0.02000  2.104E-05    0   0.5277   age166_m62            0.0000     5.4406E+02    10.1203   0.3733   103.3145
121      0.0000     0.0000E+00    0.0000E+00    7.500000E+09  0.02000  1.770E-05    0   0.5223   age171_m62            0.0000     6.0894E+02    10.6731   0.2910   103.7049
122      2.3291     7.1578E+00    7.2750E+00    1.000000E+10  0.02000  1.297E-05    0   0.5121   age181_m62            0.0000     7.5107E+02    11.7741   0.1436   104.2068
123      3.0064     1.2366E+01    1.2386E+01    1.300000E+10  0.02000  9.691E-06    0   0.5047   age193_m62            0.0000     8.5050E+02    12.4661   0.0662   104.5919
124      1.0775     5.1374E+00    5.0971E+00    1.500000E+10  0.02000  8.360E-06    0   0.4999   age201_m62            0.0000     9.4086E+02    13.0985   0.0022   104.8202
125      3.4347     1.9810E+01    1.9446E+01    1.800000E+10  0.02000  6.911E-06    0   0.4946   age213_m62            0.0000     1.0589E+03    13.9093  -0.0644   105.0971
126      0.0000     0.0000E+00    0.0000E+00    1.000000E+06  0.05000  2.651E-02    0   0.9998   age020_m72            0.0000     2.6188E+03    25.1416   4.0000    93.1421
127      0.0000     0.0000E+00    0.0000E+00    3.160000E+06  0.05000  4.817E-02    0   0.9577   age045_m72            0.0000     1.1282E+03    17.6748   4.0000    93.6323
128      0.0000     0.0000E+00    0.0000E+00    5.010000E+06  0.05000  3.101E-02    0   0.9147   age055_m72            0.0000     3.6846E+02    10.9739   4.0000    88.3628
129      0.0000     0.0000E+00    0.0000E+00    6.610000E+06  0.05000  1.472E-02    0   0.8877   age061_m72            0.0000     7.7230E+02    14.3531   3.7044    82.4596
130      0.0000     4.0955E-08    7.0214E-08    8.710000E+06  0.05000  1.050E-02    0   0.8638   age067_m72            0.0000     4.9856E+02    12.3307   4.0000    85.6367
131      0.0000     0.0000E+00    0.0000E+00    1.000000E+07  0.05000  8.954E-03    0   0.8524   age070_m72            0.0000     7.8514E+02    14.9040   4.0000    92.7033
132      0.0000     0.0000E+00    0.0000E+00    1.445000E+07  0.05000  6.392E-03    0   0.8262   age078_m72            0.0000     5.9991E+02    13.1991   4.0000    92.7547
133      0.0000     0.0000E+00    0.0000E+00    2.512000E+07  0.05000  4.207E-03    0   0.7902   age090_m72            0.0000     1.5123E+02     6.9870   3.9356    89.9135
134      0.0000     0.0000E+00    0.0000E+00    4.000000E+07  0.05000  3.198E-03    0   0.7618   age104_m72            0.0000     2.3375E+02     6.3285   3.4139   100.0301
135      0.0000     0.0000E+00    0.0000E+00    5.500000E+07  0.05000  2.593E-03    0   0.7432   age110_m72            0.0000     3.2086E+02     7.3366   3.3112   102.5753
136      0.0000     0.0000E+00    0.0000E+00    1.015200E+08  0.05000  1.716E-03    0   0.7092   age116_m72            0.0000     5.0722E+02     9.4469   3.1084   105.8722
137      0.0000     0.0000E+00    0.0000E+00    1.609000E+08  0.05000  1.218E-03    0   0.6876   age120_m72            0.0000     7.3805E+02    11.8342   2.8375   109.1321
138      0.0000     0.0000E+00    0.0000E+00    2.861200E+08  0.05000  7.047E-04    0   0.6618   age125_m72            0.0000     9.9326E+02    14.0887   2.3172   113.2733
139      0.0000     0.0000E+00    0.0000E+00    5.088000E+08  0.05000  3.590E-04    0   0.6356   age130_m72            0.0000     8.3109E+02    13.0070   1.7644   115.3335
140      0.0000     0.0000E+00    0.0000E+00    9.047900E+08  0.05000  1.484E-04    0   0.6088   age135_m72            0.0000     3.5814E+02     8.9464   1.0614   107.5202
141      0.0000     0.0000E+00    0.0000E+00    1.278050E+09  0.05000  9.435E-05    0   0.5924   age138_m72            0.0000     4.1316E+02     9.2998   0.6908   103.9613
142      0.0000     0.0000E+00    0.0000E+00    1.434000E+09  0.05000  7.827E-05    0   0.5847   age139_m72            0.0000     3.9842E+02     9.0468   0.7074   103.1500
143      0.0000     0.0000E+00    0.0000E+00    2.500000E+09  0.05000  3.759E-05    0   0.5583   age150_m72            0.0000     5.5360E+02    10.3053   0.4023   102.1661
144      0.0000     0.0000E+00    0.0000E+00    4.250000E+09  0.05000  1.842E-05    0   0.5374   age158_m72            0.0000     7.8883E+02    11.9254   0.1128   101.6261
145      0.7131     2.3548E+00    2.4499E+00    6.250000E+09  0.05000  1.207E-05    0   0.5242   age166_m72            0.0000     1.0173E+03    13.4059  -0.1113   101.4601
146      0.6184     2.4666E+00    2.5373E+00    7.500000E+09  0.05000  9.993E-06    0   0.5183   age171_m72            0.0000     1.0555E+03    13.6161  -0.1524   101.4515
147      0.0000     0.0000E+00    0.0000E+00    1.000000E+10  0.05000  7.291E-06    0   0.5081   age181_m72            0.0000     1.2215E+03    14.6496  -0.2658   101.4625
148      0.0000     0.0000E+00    0.0000E+00    1.300000E+10  0.05000  5.316E-06    0   0.5018   age193_m72            0.0000     1.5053E+03    16.3127  -0.4339   101.4510
149      0.0000     0.0000E+00    0.0000E+00    1.500000E+10  0.05000  4.497E-06    0   0.4972   age201_m72            0.0000     1.6496E+03    17.1371  -0.5014   101.8047
150      0.0000     0.0000E+00    0.0000E+00    1.800000E+10  0.05000  3.739E-06    0   0.4924   age213_m72            0.0000     1.8447E+03    18.2442  -0.5960   101.9284


## Synthesis Results - Average & Chains ##

# j      x_j: min, <> & last-chain-values for 1 ...  7 chains
  1      0.0000      0.0143      0.0314      0.0518      0.0000      0.0190      0.0000      0.0000      0.0000
  2     11.1698      9.5374      9.6124      9.8782      9.9939      9.8053     10.0661     10.0221      9.4893
  3      1.2819      1.2911      1.0390      1.2528      1.3119      1.4109      1.3324      1.2398      1.4166
  4      0.0000      0.0151      0.0000      0.0000      0.0000      0.0000      0.0000      0.0085      0.0755
  5      0.0000      0.0108      0.0000      0.0000      0.0000      0.0000      0.0000      0.0329      0.0000
  6      0.0000      0.0115      0.0000      0.0000      0.0118      0.0107      0.0170      0.0000      0.0000
  7      0.0000      0.0114      0.0091      0.0000      0.0000      0.0000      0.0000      0.0206      0.0000
  8      0.0000      0.0327      0.1946      0.0000      0.1909      0.0000      0.0000      0.0000      0.0000
  9      0.0000      0.0418      0.1042      0.0000      0.1628      0.0000      0.0000      0.1459      0.0000
 10      0.0000      0.0267      0.0000      0.1813      0.0017      0.0858      0.0000      0.0000      0.0185
 11      0.0000      0.0297      0.1753      0.1571      0.0000      0.0000      0.0475      0.0000      0.0904
 12      0.0000      0.0145      0.0000      0.0819      0.0000      0.0000      0.0000      0.0000      0.0000
 13      0.0000      0.0110      0.0087      0.0021      0.0005      0.0000      0.0000      0.0000      0.0000
 14      0.0000      0.0075      0.0000      0.0023      0.0000      0.0000      0.0000      0.0000      0.0278
 15      0.0000      0.0087      0.0000      0.0000      0.0000      0.0000      0.0000      0.0569      0.0000
 16      0.0000      0.0136      0.0000      0.0000      0.0000      0.0000      0.0000      0.0000      0.0000
 17      0.0000      0.0231      0.0000      0.0000      0.0000      0.0383      0.0000      0.0000      0.0176
 18      0.0000      0.0325      0.0084      0.1631      0.0000      0.2006      0.0161      0.0000      0.0000
 19      0.0000      0.0753      0.0000      0.0660      0.0000      0.2187      0.0000      0.0000      0.0000
 20      0.0000      0.1020      0.0000      0.0000      0.0000      0.3474      0.1463      0.0184      0.0000
 21      0.0000      0.1926      0.4689      0.2354      0.0000      0.0000      0.0000      0.3593      0.0000
 22      0.0000      0.1604      0.0000      0.0000      0.3246      0.0000      0.0000      0.0000      0.0000
 23      0.0000      0.1935      0.0203      0.0716      0.1850      0.0000      0.1165      0.0876      0.1851
 24      0.0000      0.3076      0.0604      0.0000      0.1000      0.3849      0.0336      0.3047      0.0000
 25      0.4447      0.3667      0.3238      0.1437      0.0000      0.0000      0.4395      0.4203      0.3996
 26      0.0000      0.0109      0.0031      0.0413      0.0160      0.0934      0.0000      0.0000      0.0078
 27      0.0000      0.0255      0.0547      0.0002      0.0000      0.0000      0.0086      0.0000      0.0204
 28      0.0000      0.0229      0.0000      0.0000      0.0000      0.0000      0.0000      0.0000      0.0219
 29      0.0000      0.0238      0.0000      0.0000      0.0000      0.0000      0.0112      0.0000      0.0000
 30      0.0000      0.0170      0.0000      0.0000      0.1200      0.0000      0.0000      0.0000      0.0000
 31      0.0000      0.0168      0.0000      0.0476      0.0000      0.0000      0.0315      0.0000      0.0000
 32      0.0000      0.0272      0.0406      0.0000      0.0038      0.0305      0.0237      0.0123      0.1204
 33      0.0000      0.0264      0.0000      0.0898      0.0324      0.0000      0.0705      0.0000      0.0000
 34      0.0000      0.0374      0.0790      0.0312      0.0000      0.0226      0.0000      0.0075      0.0000
 35      0.0000      0.0542      0.1033      0.0000      0.0902      0.1378      0.0353      0.0000      0.0000
 36      0.0000      0.0221      0.0000      0.0000      0.0000      0.0560      0.0000      0.0976      0.2277
 37      0.0000      0.0195      0.0000      0.0000      0.0000      0.0000      0.0000      0.0000      0.0579
 38      0.0000      0.0095      0.0000      0.0000      0.0000      0.0000      0.0000      0.0000      0.0000
 39      0.0000      0.0088      0.0052      0.0000      0.1018      0.0000      0.0000      0.0000      0.0000
 40      0.0000      0.0113      0.0000      0.0000      0.0000      0.0648      0.0000      0.0000      0.0000
 41      0.0000      0.0230      0.0000      0.0000      0.0000      0.0000      0.0000      0.0000      0.0121
 42      0.0000      0.0352      0.0000      0.0651      0.0000      0.0184      0.0000      0.0000      0.3265
 43      0.1638      0.1072      0.0031      0.2556      0.0663      0.0000      0.3844      0.0000      0.0000
 44      1.0315      1.8473      1.6231      1.6905      2.2269      1.6994      2.3392      1.9161      1.5438
 45     40.1970     36.9217     38.5140     37.7316     38.5664     38.2991     37.5044     37.3296     38.9112
 46     30.8299     31.0970     31.2573     30.8684     31.5548     31.9303     31.0523     31.0174     30.6883
 47      0.0000      0.3514      0.5457      0.3720      0.0000      0.0102      0.0000      0.1062      0.2370
 48      0.0018      0.3290      0.1039      0.6365      0.1748      0.0000      0.3701      0.8559      0.1952
 49      0.0394      0.2676      0.2033      0.2270      0.0932      0.0000      0.2283      0.1702      0.0919
 50      0.0000      0.2097      0.0789      0.0336      0.0000      0.0000      0.0421      0.0501      0.2307
 51      0.0000      0.0145      0.0000      0.0000      0.0000      0.0473      0.0000      0.0000      0.0000
 52      0.0000      0.0464      0.0000      0.0252      0.0000      0.0000      0.0000      0.3127      0.2467
 53      0.0000      0.0148      0.0000      0.0000      0.0000      0.0000      0.0000      0.0506      0.0000
 54      0.5533      0.0716      0.1135      0.2416      0.0000      0.1794      0.2174      0.1282      0.0000
 55      0.0000      0.0631      0.1681      0.0634      0.0045      0.0000      0.0000      0.0000      0.0000
 56      0.0000      0.0661      0.0966      0.2273      0.0000      0.0257      0.0454      0.0715      0.1352
 57      0.0000      0.0280      0.0000      0.1583      0.0240      0.0180      0.0501      0.0000      0.0000
 58      0.0000      0.0283      0.0058      0.0000      0.0000      0.0000      0.0000      0.0000      0.0000
 59      0.0000      0.0150      0.0142      0.0090      0.0000      0.0000      0.0000      0.0535      0.0000
 60      0.0001      0.0188      0.0000      0.0000      0.0420      0.0000      0.2212      0.0045      0.0383
 61      0.0000      0.0131      0.0000      0.0000      0.0000      0.0000      0.0605      0.0000      0.0000
 62      0.0000      0.0127      0.0000      0.0032      0.0169      0.0000      0.0000      0.0755      0.0000
 63      0.0000      0.0093      0.0000      0.0000      0.0000      0.0000      0.0000      0.0000      0.0000
 64      0.0000      0.0154      0.0000      0.0000      0.0000      0.0458      0.0000      0.0000      0.0000
 65      0.0000      0.0242      0.0000      0.0198      0.0000      0.0000      0.0000      0.0000      0.0523
 66      0.0000      0.0455      0.0131      0.0000      0.0000      0.0000      0.0000      0.0000      0.0000
 67      0.0000      0.0327      0.0000      0.0000      0.0000      0.0000      0.0000      0.0403      0.2100
 68      0.0000      0.0551      0.0024      0.0000      0.0000      0.0000      0.0000      0.0000      0.0000
 69      0.0000      0.0779      0.0377      0.0000      0.0000      0.0000      0.0000      0.1464      0.0000
 70      0.0000      0.0585      0.1258      0.0000      0.0634      0.0000      0.0000      0.0000      0.2207
 71      0.0000      0.0667      0.0429      0.3626      0.0942      0.0000      0.0772      0.2114      0.1035
 72      0.0000      0.0645      0.1224      0.0384      0.0738      0.0000      0.0000      0.0000      0.0000
 73      0.0000      0.0384      0.1003      0.0000      0.0647      0.0000      0.0000      0.0000      0.0000
 74      0.3817      0.0495      0.0000      0.0391      0.0000      0.2427      0.2076      0.0000      0.0000
 75      0.0000      0.0604      0.0000      0.0775      0.0389      0.0000      0.0000      0.0000      0.0000
 76      0.0000      0.0189      0.0000      0.0000      0.0000      0.0000      0.0000      0.0000      0.0484
 77      0.0000      0.0094      0.0000      0.0000      0.0000      0.0000      0.0000      0.0000      0.0000
 78      0.0000      0.0221      0.0000      0.0107      0.0000      0.0000      0.0000      0.0000      0.0038
 79      0.0000      0.0235      0.0000      0.0000      0.0138      0.0000      0.0000      0.0000      0.0000
 80      0.0000      0.0185      0.0572      0.0000      0.0014      0.0000      0.0000      0.0000      0.0000
 81      0.0000      0.0108      0.0000      0.0000      0.0000      0.0000      0.0000      0.0000      0.0758
 82      0.0000      0.0185      0.0000      0.0000      0.0000      0.0000      0.0000      0.2256      0.0457
 83      0.0000      0.0258      0.0000      0.0325      0.0685      0.0000      0.0000      0.0000      0.0000
 84      0.0000      0.0238      0.0000      0.0000      0.0309      0.1643      0.0000      0.0000      0.0197
 85      0.0000      0.0145      0.0000      0.0000      0.0000      0.0000      0.0000      0.0000      0.0000
 86      0.0000      0.0123      0.0000      0.0000      0.0000      0.0000      0.0089      0.0000      0.0000
 87      0.0000      0.0086      0.0000      0.0000      0.0000      0.0000      0.0000      0.0000      0.0000
 88      0.0000      0.0066      0.0000      0.0000      0.0000      0.0000      0.0000      0.0000      0.0000
 89      0.0000      0.0074      0.0000      0.0439      0.0000      0.0000      0.0000      0.0000      0.0069
 90      0.0000      0.0089      0.0000      0.0000      0.0000      0.0000      0.0000      0.0000      0.0000
 91      0.0000      0.0178      0.0118      0.0096      0.0000      0.0027      0.0000      0.0000      0.0000
 92      0.0000      0.0162      0.0000      0.0000      0.0000      0.0000      0.0000      0.0000      0.0317
 93      0.0000      0.0315      0.0000      0.0000      0.0000      0.0000      0.0334      0.0366      0.0000
 94      0.0000      0.0483      0.0000      0.0000      0.0000      0.0000      0.0000      0.0000      0.0000
 95      0.0000      0.0391      0.0000      0.0593      0.0000      0.0000      0.0318      0.1003      0.0779
 96      0.0710      0.0522      0.0000      0.0000      0.0000      0.0802      0.1542      0.0000      0.1192
 97      0.0000      0.0379      0.0000      0.1624      0.0000      0.0000      0.1105      0.0000      0.0000
 98      0.0000      0.0319      0.0214      0.0318      0.0000      0.0000      0.0000      0.0000      0.0000
 99      0.0000      0.0261      0.0000      0.0191      0.0000      0.0003      0.0000      0.0000      0.0721
100      0.0000      0.0344      0.0197      0.0676      0.0000      0.1861      0.0000      0.0000      0.0085
101      0.0000      0.0135      0.0042      0.0000      0.0000      0.0073      0.0000      0.0000      0.0000
102      0.0000      0.0103      0.0000      0.0000      0.0000      0.0000      0.0000      0.0000      0.0000
103      0.0000      0.0370      0.0000      0.0000      0.0000      0.0000      0.0678      0.0000      0.0000
104      0.0000      0.0345      0.0790      0.0000      0.0000      0.0221      0.0765      0.0000      0.1188
105      0.0000      0.0266      0.0000      0.0000      0.0000      0.0000      0.0000      0.0000      0.0469
106      0.0000      0.0443      0.0000      0.0000      0.0678      0.0503      0.0000      0.0397      0.0000
107      0.0000      0.0208      0.0000      0.0000      0.0066      0.0623      0.0043      0.0000      0.0000
108      0.0000      0.0240      0.1185      0.0000      0.0000      0.0000      0.0000      0.0000      0.0000
109      0.0000      0.0106      0.0834      0.0000      0.0200      0.0095      0.0000      0.0000      0.0000
110      0.0000      0.0141      0.0110      0.0000      0.0128      0.0000      0.0000      0.0000      0.0000
111      0.0000      0.0097      0.0000      0.0000      0.0373      0.0000      0.0000      0.0000      0.0009
112      0.0000      0.0070      0.0000      0.0000      0.0000      0.0143      0.0000      0.0000      0.0000
113      0.0000      0.0078      0.0000      0.0000      0.0000      0.0000      0.0000      0.0000      0.0000
114      0.0000      0.0076      0.0000      0.0000      0.0000      0.0000      0.0236      0.0000      0.0092
115      0.0000      0.0112      0.0000      0.0000      0.0000      0.0369      0.0000      0.0000      0.0000
116      0.0000      0.0157      0.0000      0.0000      0.0000      0.0000      0.0373      0.0000      0.0000
117      0.0000      0.0173      0.0000      0.0000      0.0000      0.0000      0.0000      0.0000      0.0000
118      0.0000      0.0277      0.0000      0.0185      0.0000      0.0094      0.0767      0.0000      0.0000
119      0.0000      0.0242      0.0000      0.0000      0.0000      0.0000      0.0000      0.0936      0.0000
120      0.0000      0.0309      0.0000      0.0265      0.2045      0.0000      0.0000      0.1103      0.0228
121      0.0000      0.0284      0.0579      0.0000      0.1286      0.0215      0.0000      0.0000      0.0035
122      2.3291      2.3395      2.3702      2.3860      2.2745      2.2406      2.3733      2.4158      2.3319
123      3.0064      3.1542      3.2211      3.1528      3.2620      3.1961      3.2145      3.1848      3.0802
124      1.0775      1.3180      1.3083      1.3483      1.1847      1.0272      1.3286      1.1537      1.3075
125      3.4347      3.6754      3.7446      3.7220      3.7038      3.8521      3.4092      3.7374      3.5205
126      0.0000      0.0065      0.0000      0.0000      0.0000      0.0146      0.0000      0.0000      0.0000
127      0.0000      0.0133      0.0000      0.0000      0.0000      0.0302      0.1279      0.1094      0.0000
128      0.0000      0.0253      0.0307      0.0000      0.0000      0.0000      0.0000      0.0000      0.0000
129      0.0000      0.0235      0.0000      0.0469      0.0000      0.0000      0.0000      0.0000      0.0000
130      0.0000      0.0119      0.0000      0.0000      0.0000      0.0000      0.1820      0.0000      0.0000
131      0.0000      0.0130      0.0000      0.0000      0.0000      0.0000      0.0000      0.0000      0.0000
132      0.0000      0.0141      0.0699      0.0000      0.0000      0.0000      0.0000      0.0000      0.0000
133      0.0000      0.0097      0.0192      0.0000      0.0000      0.0000      0.0000      0.0000      0.0057
134      0.0000      0.0114      0.0000      0.0000      0.0000      0.0000      0.0000      0.0000      0.0000
135      0.0000      0.0088      0.0000      0.0000      0.0000      0.0000      0.0000      0.0000      0.0000
136      0.0000      0.0096      0.0000      0.0000      0.0351      0.0722      0.0000      0.0000      0.0000
137      0.0000      0.0072      0.0000      0.0000      0.0000      0.0000      0.0000      0.0000      0.0000
138      0.0000      0.0078      0.0000      0.0000      0.0000      0.0000      0.0000      0.0000      0.0010
139      0.0000      0.0073      0.0000      0.0000      0.0000      0.0070      0.0000      0.0000      0.0000
140      0.0000      0.0163      0.0000      0.0000      0.0000      0.0000      0.0000      0.0151      0.0000
141      0.0000      0.0209      0.0100      0.0000      0.0000      0.0000      0.0000      0.0000      0.0000
142      0.0000      0.0302      0.0000      0.0000      0.0141      0.0217      0.0065      0.0275      0.0000
143      0.0000      0.0286      0.0000      0.0000      0.0000      0.0000      0.1368      0.0000      0.0036
144      0.0000      0.0856      0.0317      0.0557      0.1048      0.1256      0.1204      0.3102      0.3279
145      0.7131      0.2088      0.1935      0.1448      0.1547      0.2171      0.1954      0.2147      0.3283
146      0.6184      0.1955      0.2441      0.2203      0.2027      0.1478      0.3538      0.2338      0.1783
147      0.0000      0.0633      0.0725      0.0640      0.0963      0.0897      0.0000      0.0325      0.0690
148      0.0000      0.0569      0.0000      0.0651      0.0767      0.2617      0.1505      0.0000      0.0966
149      0.0000      0.0181      0.0658      0.0654      0.0000      0.0000      0.0000      0.0367      0.0000
150      0.0000      0.0173      0.0000      0.0000      0.0000      0.0059      0.0000      0.0000      0.0000

# j      m_j: min, <> & last-chain-values for 1 ...  7 chains
  1  0.0000E+00  1.3574E-04  2.9736E-04  4.9007E-04  0.0000E+00  1.7967E-04  0.0000E+00  0.0000E+00  0.0000E+00
  2  1.8568E-02  1.5503E-02  1.5633E-02  1.6030E-02  1.6423E-02  1.5937E-02  1.6555E-02  1.6388E-02  1.5614E-02
  3  5.0295E-03  4.9533E-03  3.9883E-03  4.7985E-03  5.0884E-03  5.4127E-03  5.1721E-03  4.7848E-03  5.5016E-03
  4  0.0000E+00  1.0863E-04  0.0000E+00  0.0000E+00  0.0000E+00  0.0000E+00  0.0000E+00  6.1355E-05  5.5119E-04
  5  0.0000E+00  9.7735E-05  0.0000E+00  0.0000E+00  0.0000E+00  0.0000E+00  0.0000E+00  3.0050E-04  0.0000E+00
  6  0.0000E+00  1.2429E-04  0.0000E+00  0.0000E+00  1.2893E-04  1.1574E-04  1.8620E-04  0.0000E+00  0.0000E+00
  7  0.0000E+00  1.5519E-04  1.2393E-04  0.0000E+00  0.0000E+00  0.0000E+00  0.0000E+00  2.8215E-04  0.0000E+00
  8  0.0000E+00  5.0425E-04  3.0011E-03  0.0000E+00  2.9745E-03  0.0000E+00  0.0000E+00  0.0000E+00  0.0000E+00
  9  0.0000E+00  6.9292E-04  1.7275E-03  0.0000E+00  2.7278E-03  0.0000E+00  0.0000E+00  2.4337E-03  0.0000E+00
 10  0.0000E+00  5.0752E-04  0.0000E+00  3.4384E-03  3.2590E-05  1.6292E-03  0.0000E+00  0.0000E+00  3.5511E-04
 11  0.0000E+00  6.7387E-04  3.9841E-03  3.5614E-03  0.0000E+00  0.0000E+00  1.0925E-03  0.0000E+00  2.0794E-03
 12  0.0000E+00  5.7514E-04  0.0000E+00  3.2502E-03  0.0000E+00  0.0000E+00  0.0000E+00  0.0000E+00  0.0000E+00
 13  0.0000E+00  5.0552E-04  4.0258E-04  9.7610E-05  2.5084E-05  0.0000E+00  0.0000E+00  0.0000E+00  0.0000E+00
 14  0.0000E+00  4.9004E-04  0.0000E+00  1.5068E-04  0.0000E+00  0.0000E+00  0.0000E+00  0.0000E+00  1.8417E-03
 15  0.0000E+00  8.6445E-04  0.0000E+00  0.0000E+00  0.0000E+00  0.0000E+00  0.0000E+00  5.6583E-03  0.0000E+00
 16  0.0000E+00  1.9494E-03  0.0000E+00  0.0000E+00  0.0000E+00  0.0000E+00  0.0000E+00  0.0000E+00  0.0000E+00
 17  0.0000E+00  3.6774E-03  0.0000E+00  0.0000E+00  0.0000E+00  6.0917E-03  0.0000E+00  0.0000E+00  2.8347E-03
 18  0.0000E+00  8.4059E-03  2.1857E-03  4.2155E-02  0.0000E+00  5.1934E-02  4.2256E-03  0.0000E+00  0.0000E+00
 19  0.0000E+00  2.9569E-02  0.0000E+00  2.5852E-02  0.0000E+00  8.5830E-02  0.0000E+00  0.0000E+00  0.0000E+00
 20  0.0000E+00  5.7271E-02  0.0000E+00  0.0000E+00  0.0000E+00  1.9501E-01  8.3088E-02  1.0392E-02  0.0000E+00
 21  0.0000E+00  1.2509E-01  3.0470E-01  1.5264E-01  0.0000E+00  0.0000E+00  0.0000E+00  2.3476E-01  0.0000E+00
 22  0.0000E+00  1.3441E-01  0.0000E+00  0.0000E+00  2.7496E-01  0.0000E+00  0.0000E+00  0.0000E+00  0.0000E+00
 23  0.0000E+00  2.0549E-01  2.1579E-02  7.5950E-02  1.9868E-01  0.0000E+00  1.2524E-01  9.3601E-02  1.9908E-01
 24  0.0000E+00  3.7368E-01  7.3394E-02  0.0000E+00  1.2287E-01  4.6756E-01  4.1345E-02  3.7238E-01  0.0000E+00
 25  6.6358E-01  5.3512E-01  4.7278E-01  2.0941E-01  0.0000E+00  0.0000E+00  6.4896E-01  6.1701E-01  5.9020E-01
 26  0.0000E+00  9.9300E-05  2.8766E-05  3.7704E-04  1.4783E-04  8.5402E-04  0.0000E+00  0.0000E+00  7.2673E-05
 27  0.0000E+00  4.9655E-05  1.0650E-04  3.5354E-07  0.0000E+00  0.0000E+00  1.6848E-05  0.0000E+00  4.0190E-05
 28  0.0000E+00  8.7281E-05  0.0000E+00  0.0000E+00  0.0000E+00  0.0000E+00  0.0000E+00  0.0000E+00  8.4286E-05
 29  0.0000E+00  1.4108E-04  0.0000E+00  0.0000E+00  0.0000E+00  0.0000E+00  6.7091E-05  0.0000E+00  0.0000E+00
 30  0.0000E+00  1.2520E-04  0.0000E+00  0.0000E+00  8.9548E-04  0.0000E+00  0.0000E+00  0.0000E+00  0.0000E+00
 31  0.0000E+00  1.4312E-04  0.0000E+00  4.0528E-04  0.0000E+00  0.0000E+00  2.7153E-04  0.0000E+00  0.0000E+00
 32  0.0000E+00  2.5698E-04  3.8369E-04  0.0000E+00  3.6537E-05  2.8817E-04  2.2686E-04  1.1638E-04  1.1512E-03
 33  0.0000E+00  3.5366E-04  0.0000E+00  1.2034E-03  4.3936E-04  0.0000E+00  9.5679E-04  0.0000E+00  0.0000E+00
 34  0.0000E+00  6.0901E-04  1.2891E-03  5.0741E-04  0.0000E+00  3.6880E-04  0.0000E+00  1.2299E-04  0.0000E+00
 35  0.0000E+00  1.0679E-03  2.0353E-03  0.0000E+00  1.7961E-03  2.7138E-03  7.0349E-04  0.0000E+00  0.0000E+00
 36  0.0000E+00  5.5766E-04  0.0000E+00  0.0000E+00  0.0000E+00  1.4129E-03  0.0000E+00  2.4789E-03  5.8195E-03
 37  0.0000E+00  6.1129E-04  0.0000E+00  0.0000E+00  0.0000E+00  0.0000E+00  0.0000E+00  0.0000E+00  1.8405E-03
 38  0.0000E+00  4.1501E-04  0.0000E+00  0.0000E+00  0.0000E+00  0.0000E+00  0.0000E+00  0.0000E+00  0.0000E+00
 39  0.0000E+00  5.7336E-04  3.4216E-04  0.0000E+00  6.7124E-03  0.0000E+00  0.0000E+00  0.0000E+00  0.0000E+00
 40  0.0000E+00  1.3055E-03  0.0000E+00  0.0000E+00  0.0000E+00  7.4505E-03  0.0000E+00  0.0000E+00  0.0000E+00
 41  0.0000E+00  3.5418E-03  0.0000E+00  0.0000E+00  0.0000E+00  0.0000E+00  0.0000E+00  0.0000E+00  1.8818E-03
 42  0.0000E+00  6.0639E-03  0.0000E+00  1.1195E-02  0.0000E+00  3.1686E-03  0.0000E+00  0.0000E+00  5.6883E-02
 43  4.6890E-02  3.0025E-02  8.7972E-04  7.1437E-02  1.8781E-02  0.0000E+00  1.0891E-01  0.0000E+00  0.0000E+00
 44  4.6712E-01  8.1802E-01  7.1915E-01  7.4733E-01  9.9697E-01  7.5249E-01  1.0481E+00  8.5353E-01  6.9200E-01
 45  2.5372E+01  2.2788E+01  2.3784E+01  2.3248E+01  2.4065E+01  2.3637E+01  2.3420E+01  2.3177E+01  2.4310E+01
 46  2.3181E+01  2.2864E+01  2.2994E+01  2.2657E+01  2.3455E+01  2.3475E+01  2.3100E+01  2.2941E+01  2.2840E+01
 47  0.0000E+00  3.3866E-01  5.2611E-01  3.5787E-01  0.0000E+00  9.8517E-03  0.0000E+00  1.0297E-01  2.3121E-01
 48  2.1694E-03  3.7749E-01  1.1928E-01  7.2920E-01  2.0277E-01  0.0000E+00  4.2969E-01  9.8794E-01  2.2671E-01
 49  5.1762E-02  3.4356E-01  2.6114E-01  2.9090E-01  1.2089E-01  0.0000E+00  2.9658E-01  2.1978E-01  1.1947E-01
 50  0.0000E+00  3.1660E-01  1.1923E-01  5.0683E-02  0.0000E+00  0.0000E+00  6.4270E-02  7.6057E-02  3.5266E-01
 51  0.0000E+00  1.0048E-04  0.0000E+00  0.0000E+00  0.0000E+00  3.2873E-04  0.0000E+00  0.0000E+00  0.0000E+00
 52  0.0000E+00  8.8041E-05  0.0000E+00  4.7811E-05  0.0000E+00  0.0000E+00  0.0000E+00  5.9733E-04  4.7415E-04
 53  0.0000E+00  4.2770E-05  0.0000E+00  0.0000E+00  0.0000E+00  0.0000E+00  0.0000E+00  1.4739E-04  0.0000E+00
 54  1.5625E-03  1.9766E-04  3.1344E-04  6.6600E-04  0.0000E+00  4.9536E-04  6.0738E-04  3.5611E-04  0.0000E+00
 55  0.0000E+00  2.5703E-04  6.8498E-04  2.5800E-04  1.8703E-05  0.0000E+00  0.0000E+00  0.0000E+00  0.0000E+00
 56  0.0000E+00  3.5650E-04  5.2108E-04  1.2238E-03  0.0000E+00  1.3850E-04  2.4800E-04  3.8817E-04  7.3797E-04
 57  0.0000E+00  2.4186E-04  0.0000E+00  1.3671E-03  2.0970E-04  1.5549E-04  4.3799E-04  0.0000E+00  0.0000E+00
 58  0.0000E+00  3.5248E-04  7.2236E-05  0.0000E+00  0.0000E+00  0.0000E+00  0.0000E+00  0.0000E+00  0.0000E+00
 59  0.0000E+00  2.5988E-04  2.4555E-04  1.5536E-04  0.0000E+00  0.0000E+00  0.0000E+00  9.3243E-04  0.0000E+00
 60  2.4117E-06  3.6325E-04  0.0000E+00  0.0000E+00  8.1927E-04  0.0000E+00  4.3186E-03  8.7287E-05  7.4703E-04
 61  0.0000E+00  3.2138E-04  0.0000E+00  0.0000E+00  0.0000E+00  0.0000E+00  1.5040E-03  0.0000E+00  0.0000E+00
 62  0.0000E+00  3.9484E-04  0.0000E+00  9.8738E-05  5.3380E-04  0.0000E+00  0.0000E+00  2.3668E-03  0.0000E+00
 63  0.0000E+00  4.4012E-04  0.0000E+00  0.0000E+00  0.0000E+00  0.0000E+00  0.0000E+00  0.0000E+00  0.0000E+00
 64  0.0000E+00  1.2006E-03  0.0000E+00  0.0000E+00  0.0000E+00  3.5683E-03  0.0000E+00  0.0000E+00  0.0000E+00
 65  0.0000E+00  3.1882E-03  0.0000E+00  2.6084E-03  0.0000E+00  0.0000E+00  0.0000E+00  0.0000E+00  6.9743E-03
 66  0.0000E+00  7.6703E-03  2.2107E-03  0.0000E+00  0.0000E+00  0.0000E+00  0.0000E+00  0.0000E+00  0.0000E+00
 67  0.0000E+00  7.5682E-03  0.0000E+00  0.0000E+00  0.0000E+00  0.0000E+00  0.0000E+00  9.3925E-03  4.9200E-02
 68  0.0000E+00  2.3708E-02  1.0225E-03  0.0000E+00  0.0000E+00  0.0000E+00  0.0000E+00  0.0000E+00  0.0000E+00
 69  0.0000E+00  5.7799E-02  2.8012E-02  0.0000E+00  0.0000E+00  0.0000E+00  0.0000E+00  1.0931E-01  0.0000E+00
 70  0.0000E+00  6.0389E-02  1.3000E-01  0.0000E+00  6.6265E-02  0.0000E+00  0.0000E+00  0.0000E+00  2.3082E-01
 71  0.0000E+00  8.1334E-02  5.2375E-02  4.4122E-01  1.1606E-01  0.0000E+00  9.5187E-02  2.5921E-01  1.2766E-01
 72  0.0000E+00  1.0345E-01  1.9644E-01  6.1562E-02  1.1975E-01  0.0000E+00  0.0000E+00  0.0000E+00  0.0000E+00
 73  0.0000E+00  7.7787E-02  2.0323E-01  0.0000E+00  1.3234E-01  0.0000E+00  0.0000E+00  0.0000E+00  0.0000E+00
 74  8.8154E-01  1.1184E-01  0.0000E+00  8.8218E-02  0.0000E+00  5.4804E-01  4.7427E-01  0.0000E+00  0.0000E+00
 75  0.0000E+00  1.5682E-01  0.0000E+00  2.0089E-01  1.0210E-01  0.0000E+00  0.0000E+00  0.0000E+00  0.0000E+00
 76  0.0000E+00  1.1360E-04  0.0000E+00  0.0000E+00  0.0000E+00  0.0000E+00  0.0000E+00  0.0000E+00  2.9489E-04
 77  0.0000E+00  2.2944E-05  0.0000E+00  0.0000E+00  0.0000E+00  0.0000E+00  0.0000E+00  0.0000E+00  0.0000E+00
 78  0.0000E+00  6.0472E-05  0.0000E+00  2.9173E-05  0.0000E+00  0.0000E+00  0.0000E+00  0.0000E+00  1.0578E-05
 79  0.0000E+00  7.7594E-05  0.0000E+00  0.0000E+00  4.5878E-05  0.0000E+00  0.0000E+00  0.0000E+00  0.0000E+00
 80  0.0000E+00  7.8505E-05  2.4343E-04  0.0000E+00  5.8078E-06  0.0000E+00  0.0000E+00  0.0000E+00  0.0000E+00
 81  0.0000E+00  6.0475E-05  0.0000E+00  0.0000E+00  0.0000E+00  0.0000E+00  0.0000E+00  0.0000E+00  4.3116E-04
 82  0.0000E+00  1.4014E-04  0.0000E+00  0.0000E+00  0.0000E+00  0.0000E+00  0.0000E+00  1.7183E-03  3.5032E-04
 83  0.0000E+00  2.8662E-04  0.0000E+00  3.6091E-04  7.7063E-04  0.0000E+00  0.0000E+00  0.0000E+00  0.0000E+00
 84  0.0000E+00  3.6622E-04  0.0000E+00  0.0000E+00  4.8034E-04  2.5303E-03  0.0000E+00  0.0000E+00  3.0768E-04
 85  0.0000E+00  2.7153E-04  0.0000E+00  0.0000E+00  0.0000E+00  0.0000E+00  0.0000E+00  0.0000E+00  0.0000E+00
 86  0.0000E+00  3.1246E-04  0.0000E+00  0.0000E+00  0.0000E+00  0.0000E+00  2.2869E-04  0.0000E+00  0.0000E+00
 87  0.0000E+00  2.9091E-04  0.0000E+00  0.0000E+00  0.0000E+00  0.0000E+00  0.0000E+00  0.0000E+00  0.0000E+00
 88  0.0000E+00  3.3909E-04  0.0000E+00  0.0000E+00  0.0000E+00  0.0000E+00  0.0000E+00  0.0000E+00  0.0000E+00
 89  0.0000E+00  6.3172E-04  0.0000E+00  3.7552E-03  0.0000E+00  0.0000E+00  0.0000E+00  0.0000E+00  5.9571E-04
 90  0.0000E+00  1.4117E-03  0.0000E+00  0.0000E+00  0.0000E+00  0.0000E+00  0.0000E+00  0.0000E+00  0.0000E+00
 91  0.0000E+00  3.6207E-03  2.4059E-03  1.9564E-03  0.0000E+00  5.4452E-04  0.0000E+00  0.0000E+00  0.0000E+00
 92  0.0000E+00  4.4146E-03  0.0000E+00  0.0000E+00  0.0000E+00  0.0000E+00  0.0000E+00  0.0000E+00  8.7458E-03
 93  0.0000E+00  1.7418E-02  0.0000E+00  0.0000E+00  0.0000E+00  0.0000E+00  1.8693E-02  2.0358E-02  0.0000E+00
 94  0.0000E+00  4.7854E-02  0.0000E+00  0.0000E+00  0.0000E+00  0.0000E+00  0.0000E+00  0.0000E+00  0.0000E+00
 95  0.0000E+00  5.2195E-02  0.0000E+00  7.9124E-02  0.0000E+00  0.0000E+00  4.2998E-02  1.3479E-01  1.0539E-01
 96  1.1693E-01  8.4081E-02  0.0000E+00  0.0000E+00  0.0000E+00  1.2917E-01  2.5137E-01  0.0000E+00  1.9444E-01
 97  0.0000E+00  7.9544E-02  0.0000E+00  3.4044E-01  0.0000E+00  0.0000E+00  2.3471E-01  0.0000E+00  0.0000E+00
 98  0.0000E+00  8.5950E-02  5.7565E-02  8.5430E-02  0.0000E+00  0.0000E+00  0.0000E+00  0.0000E+00  0.0000E+00
 99  0.0000E+00  7.9963E-02  0.0000E+00  5.8508E-02  0.0000E+00  9.5953E-04  0.0000E+00  0.0000E+00  2.2399E-01
100  0.0000E+00  1.2149E-01  6.9799E-02  2.3856E-01  0.0000E+00  6.5756E-01  0.0000E+00  0.0000E+00  3.0431E-02
101  0.0000E+00  5.2496E-05  1.6313E-05  0.0000E+00  0.0000E+00  2.8284E-05  0.0000E+00  0.0000E+00  0.0000E+00
102  0.0000E+00  2.0810E-05  0.0000E+00  0.0000E+00  0.0000E+00  0.0000E+00  0.0000E+00  0.0000E+00  0.0000E+00
103  0.0000E+00  8.2941E-05  0.0000E+00  0.0000E+00  0.0000E+00  0.0000E+00  1.5362E-04  0.0000E+00  0.0000E+00
104  0.0000E+00  1.0170E-04  2.3287E-04  0.0000E+00  0.0000E+00  6.5055E-05  2.2794E-04  0.0000E+00  3.5435E-04
105  0.0000E+00  1.6571E-04  0.0000E+00  0.0000E+00  0.0000E+00  0.0000E+00  0.0000E+00  0.0000E+00  2.9526E-04
106  0.0000E+00  2.9657E-04  0.0000E+00  0.0000E+00  4.5918E-04  3.3689E-04  0.0000E+00  2.6773E-04  0.0000E+00
107  0.0000E+00  1.8560E-04  0.0000E+00  0.0000E+00  6.0050E-05  5.5664E-04  3.9176E-05  0.0000E+00  0.0000E+00
108  0.0000E+00  3.5813E-04  1.7655E-03  0.0000E+00  0.0000E+00  0.0000E+00  0.0000E+00  0.0000E+00  0.0000E+00
109  0.0000E+00  1.8972E-04  1.4930E-03  0.0000E+00  3.6149E-04  1.7079E-04  0.0000E+00  0.0000E+00  0.0000E+00
110  0.0000E+00  3.0139E-04  2.3472E-04  0.0000E+00  2.7675E-04  0.0000E+00  0.0000E+00  0.0000E+00  0.0000E+00
111  0.0000E+00  2.8839E-04  0.0000E+00  0.0000E+00  1.1220E-03  0.0000E+00  0.0000E+00  0.0000E+00  2.7636E-05
112  0.0000E+00  2.7252E-04  0.0000E+00  0.0000E+00  0.0000E+00  5.5994E-04  0.0000E+00  0.0000E+00  0.0000E+00
113  0.0000E+00  4.5374E-04  0.0000E+00  0.0000E+00  0.0000E+00  0.0000E+00  0.0000E+00  0.0000E+00  0.0000E+00
114  0.0000E+00  7.8572E-04  0.0000E+00  0.0000E+00  0.0000E+00  0.0000E+00  2.4595E-03  0.0000E+00  9.5350E-04
115  0.0000E+00  2.3090E-03  0.0000E+00  0.0000E+00  0.0000E+00  7.5994E-03  0.0000E+00  0.0000E+00  0.0000E+00
116  0.0000E+00  5.1907E-03  0.0000E+00  0.0000E+00  0.0000E+00  0.0000E+00  1.2486E-02  0.0000E+00  0.0000E+00
117  0.0000E+00  6.7214E-03  0.0000E+00  0.0000E+00  0.0000E+00  0.0000E+00  0.0000E+00  0.0000E+00  0.0000E+00
118  0.0000E+00  2.1856E-02  0.0000E+00  1.4592E-02  0.0000E+00  7.4059E-03  6.1205E-02  0.0000E+00  0.0000E+00
119  0.0000E+00  3.2912E-02  0.0000E+00  0.0000E+00  0.0000E+00  0.0000E+00  0.0000E+00  1.2824E-01  0.0000E+00
120  0.0000E+00  5.9993E-02  0.0000E+00  5.1270E-02  4.0119E-01  0.0000E+00  0.0000E+00  2.1532E-01  4.4811E-02
121  0.0000E+00  6.4885E-02  1.3231E-01  0.0000E+00  2.9679E-01  4.9084E-02  0.0000E+00  0.0000E+00  8.1281E-03
122  7.2750E+00  7.1456E+00  7.2432E+00  7.2752E+00  7.0234E+00  6.8432E+00  7.3341E+00  7.4225E+00  7.2095E+00
123  1.2386E+01  1.2707E+01  1.2984E+01  1.2680E+01  1.3286E+01  1.2875E+01  1.3103E+01  1.2907E+01  1.2561E+01
124  5.0971E+00  6.0967E+00  6.0552E+00  6.2260E+00  5.5401E+00  4.7512E+00  6.2181E+00  5.3683E+00  6.1219E+00
125  1.9446E+01  2.0348E+01  2.0742E+01  2.0571E+01  2.0730E+01  2.1325E+01  1.9096E+01  2.0814E+01  1.9729E+01
126  0.0000E+00  1.8828E-05  0.0000E+00  0.0000E+00  0.0000E+00  4.2570E-05  0.0000E+00  0.0000E+00  0.0000E+00
127  0.0000E+00  2.0466E-05  0.0000E+00  0.0000E+00  0.0000E+00  4.6449E-05  1.9898E-04  1.6921E-04  0.0000E+00
128  0.0000E+00  5.7780E-05  7.0068E-05  0.0000E+00  0.0000E+00  0.0000E+00  0.0000E+00  0.0000E+00  0.0000E+00
129  0.0000E+00  1.0969E-04  0.0000E+00  2.1855E-04  0.0000E+00  0.0000E+00  0.0000E+00  0.0000E+00  0.0000E+00
130  7.0214E-08  7.6023E-05  0.0000E+00  0.0000E+00  0.0000E+00  0.0000E+00  1.1719E-03  0.0000E+00  0.0000E+00
131  0.0000E+00  9.5877E-05  0.0000E+00  0.0000E+00  0.0000E+00  0.0000E+00  0.0000E+00  0.0000E+00  0.0000E+00
132  0.0000E+00  1.4085E-04  6.9923E-04  0.0000E+00  0.0000E+00  0.0000E+00  0.0000E+00  0.0000E+00  0.0000E+00
133  0.0000E+00  1.4131E-04  2.7860E-04  0.0000E+00  0.0000E+00  0.0000E+00  0.0000E+00  0.0000E+00  8.3681E-05
134  0.0000E+00  2.0955E-04  0.0000E+00  0.0000E+00  0.0000E+00  0.0000E+00  0.0000E+00  0.0000E+00  0.0000E+00
135  0.0000E+00  1.9615E-04  0.0000E+00  0.0000E+00  0.0000E+00  0.0000E+00  0.0000E+00  0.0000E+00  0.0000E+00
136  0.0000E+00  3.0774E-04  0.0000E+00  0.0000E+00  1.1339E-03  2.3080E-03  0.0000E+00  0.0000E+00  0.0000E+00
137  0.0000E+00  3.1645E-04  0.0000E+00  0.0000E+00  0.0000E+00  0.0000E+00  0.0000E+00  0.0000E+00  0.0000E+00
138  0.0000E+00  5.6471E-04  0.0000E+00  0.0000E+00  0.0000E+00  0.0000E+00  0.0000E+00  0.0000E+00  7.4293E-05
139  0.0000E+00  1.0047E-03  0.0000E+00  0.0000E+00  0.0000E+00  9.5651E-04  0.0000E+00  0.0000E+00  0.0000E+00
140  0.0000E+00  5.1593E-03  0.0000E+00  0.0000E+00  0.0000E+00  0.0000E+00  0.0000E+00  4.8161E-03  0.0000E+00
141  0.0000E+00  1.0152E-02  4.8511E-03  0.0000E+00  0.0000E+00  0.0000E+00  0.0000E+00  0.0000E+00  0.0000E+00
142  0.0000E+00  1.7465E-02  0.0000E+00  0.0000E+00  8.2530E-03  1.2516E-02  3.8219E-03  1.5993E-02  0.0000E+00
143  0.0000E+00  3.2895E-02  0.0000E+00  0.0000E+00  0.0000E+00  0.0000E+00  1.5903E-01  0.0000E+00  4.2045E-03
144  0.0000E+00  1.9309E-01  7.1532E-02  1.2547E-01  2.3916E-01  2.8342E-01  2.7500E-01  7.0424E-01  7.4897E-01
145  2.4499E+00  7.0155E-01  6.5034E-01  4.8564E-01  5.2549E-01  7.2939E-01  6.6408E-01  7.2543E-01  1.1163E+00
146  2.5373E+00  7.8447E-01  9.8006E-01  8.8256E-01  8.2229E-01  5.9285E-01  1.4363E+00  9.4353E-01  7.2432E-01
147  0.0000E+00  3.4100E-01  3.9117E-01  3.4443E-01  5.2487E-01  4.8379E-01  0.0000E+00  1.7632E-01  3.7661E-01
148  0.0000E+00  4.1550E-01  0.0000E+00  4.7454E-01  5.6652E-01  1.9106E+00  1.1121E+00  0.0000E+00  7.1417E-01
149  0.0000E+00  1.5458E-01  5.6350E-01  5.5837E-01  0.0000E+00  0.0000E+00  0.0000E+00  3.1534E-01  0.0000E+00
150  0.0000E+00  1.7598E-01  0.0000E+00  0.0000E+00  0.0000E+00  6.0120E-02  0.0000E+00  0.0000E+00  0.0000E+00

# AV, chi2 & Mass for <> & i_chain = 1 ...  7 solutions
AV       1.3817      1.3785      1.3786      1.3785      1.3785      1.3785      1.3805      1.3787      1.3794
chi2 2.3644E+00  2.4265E+00  2.4019E+00  2.4028E+00  2.4095E+00  2.4051E+00  2.4013E+00  2.4068E+00  2.4069E+00
Mass 3.4451E-09  3.5081E-09  3.5065E-09  3.5140E-09  3.4697E-09  3.5079E-09  3.4764E-09  3.4880E-09  3.4699E-09
  -9.07                                  [v0_min (km/s) before EX0s...]
  25.73                                  [vd_min (km/s) before EX0s...]


## Synthetic spectrum (Best Model) ##l_obs f_obs f_syn wei
 3070    [Nl_obs]
 3359.00    0.00000   0.37855   -2.000
 3360.00    0.03347   0.36180   -1.000
 3361.00    0.22091   0.37365   -1.000
 3362.00    0.23046   0.39973   -1.000
 3363.00    0.24720   0.43148   -1.000
 3364.00    0.25518   0.45042   -1.000
 3365.00    0.26359   0.44682   -1.000
 3366.00    0.26715   0.43854   -1.000
 3367.00    0.26695   0.43256   -1.000
 3368.00    0.26084   0.42354   -1.000
 3369.00    0.25089   0.41333   -1.000
 3370.00    0.24019   0.39116   -1.000
 3371.00    0.24586   0.37689   -1.000
 3372.00    0.25243   0.38119   -1.000
 3373.00    0.25670   0.40166   -1.000
 3374.00    0.26443   0.42789   -1.000
 3375.00    0.27956   0.45219   -1.000
 3376.00    0.29598   0.46117   -1.000
 3377.00    0.29952   0.45493   -1.000
 3378.00    0.30092   0.44011   -1.000
 3379.00    0.29520   0.43104   -1.000
 3380.00    0.29040   0.43435   -1.000
 3381.00    0.29195   0.44259   -1.000
 3382.00    0.29511   0.44891   -1.000
 3383.00    0.30084   0.45293   -1.000
 3384.00    0.30582   0.45761   -1.000
 3385.00    0.31050   0.46419   -1.000
 3386.00    0.31445   0.45807   -1.000
 3387.00    0.31709   0.44369   -1.000
 3388.00    0.31703   0.43449   -1.000
 3389.00    0.32888   0.44285   -1.000
 3390.00    0.33383   0.45681   -1.000
 3391.00    0.33775   0.46503   -1.000
 3392.00    0.33890   0.45732   -1.000
 3393.00    0.33661   0.44869   -1.000
 3394.00    0.34669   0.45302   -1.000
 3395.00    0.35629   0.46478   -1.000
 3396.00    0.36560   0.47951   -1.000
 3397.00    0.37949   0.49068   -1.000
 3398.00    0.39390   0.50041   -1.000
 3399.00    0.40350   0.50492   -1.000
 3400.00    0.40649   0.50161   -1.000
 3401.00    0.40921   0.49116   -1.000
 3402.00    0.40973   0.47091   45.227
 3403.00    0.39622   0.46014   -1.000
 3404.00    0.39604   0.45416   47.540
 3405.00    0.39454   0.45982   -1.000
 3406.00    0.38781   0.46249   -1.000
 3407.00    0.38557   0.45750   -1.000
 3408.00    0.38289   0.45004   -1.000
 3409.00    0.38217   0.45176   -1.000
 3410.00    0.39032   0.46338   -1.000
 3411.00    0.39482   0.46187   -1.000
 3412.00    0.39413   0.45247   49.292
 3413.00    0.39215   0.43959   49.274
 3414.00    0.39290   0.43807   51.296
 3415.00    0.39403   0.45433   -1.000
 3416.00    0.39704   0.47246   -1.000
 3417.00    0.40723   0.48460   -1.000
 3418.00    0.41740   0.49218   -1.000
 3419.00    0.43015   0.49795   -1.000
 3420.00    0.44402   0.50206   43.775
 3421.00    0.44636   0.49878   43.613
 3422.00    0.43946   0.47993   43.387
 3423.00    0.43858   0.46105   43.801
 3424.00    0.43937   0.45668   45.069
 3425.00    0.43818   0.46366   45.754
 3426.00    0.44079   0.47322   44.419
 3427.00    0.44809   0.48635   43.380
 3428.00    0.45958   0.50490   49.163
 3429.00    0.46638   0.52075   -1.000
 3430.00    0.47347   0.52392   -1.000
 3431.00    0.47189   0.50503   -1.000
 3432.00    0.46176   0.48380   -1.000
 3433.00    0.45756   0.47666   -1.000
 3434.00    0.45886   0.49069   43.334
 3435.00    0.46539   0.50843   48.925
 3436.00    0.47026   0.50969   -1.000
 3437.00    0.46310   0.49571   -1.000
 3438.00    0.45178   0.47830   43.321
 3439.00    0.43663   0.46113   45.447
 3440.00    0.41618   0.44534   48.304
 3441.00    0.40187   0.42953   51.926
 3442.00    0.40292   0.42285   53.728
 3443.00    0.40921   0.42585   53.753
 3444.00    0.42029   0.43551   53.259
 3445.00    0.43122   0.44859   51.010
 3446.00    0.44068   0.46959   48.204
 3447.00    0.45437   0.49327   45.670
 3448.00    0.46772   0.51179   50.118
 3449.00    0.48468   0.51999   -1.000
 3450.00    0.48409   0.50810   -1.000
 3451.00    0.48023   0.48635  398.778
 3452.00    0.47109   0.47155  403.951
 3453.00    0.47487   0.47080  419.134
 3454.00    0.47797   0.48033  424.537
 3455.00    0.48656   0.49108  418.093
 3456.00    0.48742   0.49288  406.703
 3457.00    0.48767   0.48796  401.217
 3458.00    0.48422   0.47902  404.168
 3459.00    0.47594   0.46910  197.655
 3460.00    0.46810   0.45771   43.264
 3461.00    0.46564   0.45484   43.742
 3462.00    0.46785   0.46684   49.036
 3463.00    0.47741   0.47886  417.708
 3464.00    0.49140   0.48238   -1.000
 3465.00    0.49284   0.47651   -1.000
 3466.00    0.49301   0.47847   -1.000
 3467.00    0.49412   0.49171  393.990
 3468.00    0.50260   0.50880  388.140
 3469.00    0.51435   0.52140  374.642
 3470.00    0.51610   0.52455   -1.000
 3471.00    0.51538   0.51666  365.438
 3472.00    0.50952   0.50390  370.053
 3473.00    0.49780   0.48056   -1.000
 3474.00    0.48280   0.46054   -1.000
 3475.00    0.46330   0.45179  202.156
 3476.00    0.46208   0.45678   43.746
 3477.00    0.46497   0.47620   45.076
 3478.00    0.47607   0.49432   49.604
 3479.00    0.49664   0.50623   -1.000
 3480.00    0.51169   0.51598  380.712
 3481.00    0.51663   0.51711  370.053
 3482.00    0.51628   0.51138  368.267
 3483.00    0.51565   0.50520   -1.000
 3484.00    0.50870   0.50362  374.656
 3485.00    0.51498   0.51206  377.417
 3486.00    0.52267   0.52152  368.443
 3487.00    0.53411   0.52175   -1.000
 3488.00    0.52691   0.51145   -1.000
 3489.00    0.50611   0.49396   -1.000
 3490.00    0.49207   0.48066   -1.000
 3491.00    0.48022   0.48403  404.311
 3492.00    0.48193   0.49686   -1.000
 3493.00    0.49580   0.50188  406.645
 3494.00    0.49267   0.49910  401.895
 3495.00    0.48457   0.48962  396.430
 3496.00    0.48194   0.48157  395.775
 3497.00    0.48445   0.48470  403.403
 3498.00    0.49339   0.49015  403.868
 3499.00    0.51272   0.49849   -1.000
 3500.00    0.52723   0.50050   -1.000
 3501.00    0.53354   0.50132   -1.000
 3502.00    0.53398   0.50988   -1.000
 3503.00    0.54356   0.51559   -1.000
 3504.00    0.53877   0.51490   -1.000
 3505.00    0.53121   0.50548   -1.000
 3506.00    0.51806   0.49569   -1.000
 3507.00    0.52235   0.49124   -1.000
 3508.00    0.52870   0.48930   -1.000
 3509.00    0.53270   0.49233   -1.000
 3510.00    0.52173   0.49306   -1.000
 3511.00    0.50901   0.49033   -1.000
 3512.00    0.50728   0.48220   -1.000
 3513.00    0.50257   0.47370   -1.000
 3514.00    0.49517   0.47484   -1.000
 3515.00    0.50271   0.48875   -1.000
 3516.00    0.51910   0.51554  387.248
 3517.00    0.53761   0.53556  366.364
 3518.00    0.54484   0.53786  346.215
 3519.00    0.53059   0.51973   -1.000
 3520.00    0.52074   0.50096   -1.000
 3521.00    0.51342   0.48849   -1.000
 3522.00    0.50300   0.48076   -1.000
 3523.00    0.48722   0.47235   -1.000
 3524.00    0.47044   0.45954  212.878
 3525.00    0.46301   0.45213   43.339
 3526.00    0.46817   0.46161   44.705
 3527.00    0.48117   0.47859   49.260
 3528.00    0.49900   0.49929  412.420
 3529.00    0.51501   0.51563  382.384
 3530.00    0.52444   0.52489  363.443
 3531.00    0.52490   0.52856  359.325
 3532.00    0.52764   0.52063  366.558
 3533.00    0.52954   0.50033   -1.000
 3534.00    0.53351   0.48828   -1.000
 3535.00    0.53846   0.49049   -1.000
 3536.00    0.54606   0.51145   -1.000
 3537.00    0.54432   0.53597  345.465
 3538.00    0.55142   0.54891  346.918
 3539.00    0.55251   0.55322  342.977
 3540.00    0.54971   0.54913  339.352
 3541.00    0.55392   0.54359   -1.000
 3542.00    0.54317   0.54384  348.994
 3543.00    0.53996   0.55287   -1.000
 3544.00    0.54500   0.55896   -1.000
 3545.00    0.54539   0.55638   -1.000
 3546.00    0.54320   0.55002  343.639
 3547.00    0.54762   0.54379  350.297
 3548.00    0.53926   0.54208  357.680
 3549.00    0.54195   0.54588  358.758
 3550.00    0.54886   0.55297  357.772
 3551.00    0.54514   0.55730   -1.000
 3552.00    0.53130   0.55026   -1.000
 3553.00    0.52495   0.53467   -1.000
 3554.00    0.52388   0.52505  383.281
 3555.00    0.52300   0.52788  388.427
 3556.00    0.52300   0.53670   -1.000
 3557.00    0.52426   0.54821   -1.000
 3558.00    0.52852   0.55495   -1.000
 3559.00    0.52431   0.55578   -1.000
 3560.00    0.52766   0.55659   -1.000
 3561.00    0.53301   0.55775   -1.000
 3562.00    0.53454   0.55407   -1.000
 3563.00    0.53675   0.53969  375.725
 3564.00    0.52042   0.51873  378.784
 3565.00    0.49441   0.49778  219.638
 3566.00    0.48033   0.48903   43.785
 3567.00    0.47766   0.49034   45.353
 3568.00    0.47789   0.49143   44.833
 3569.00    0.47355   0.48757   44.761
 3570.00    0.46737   0.47668   46.245
 3571.00    0.46553   0.47002   46.850
 3572.00    0.47521   0.47311   45.291
 3573.00    0.48976   0.47922   47.669
 3574.00    0.49821   0.48735   -1.000
 3575.00    0.50310   0.49709  412.227
 3576.00    0.50687   0.50399  411.703
 3577.00    0.50906   0.50717  410.928
 3578.00    0.49843   0.50723   -1.000
 3579.00    0.49382   0.49755  233.734
 3580.00    0.47405   0.48324   45.401
 3581.00    0.45441   0.47069   48.937
 3582.00    0.44610   0.46493   51.379
 3583.00    0.45172   0.46611   51.673
 3584.00    0.45354   0.46303   51.989
 3585.00    0.43300   0.45025   53.357
 3586.00    0.42676   0.43543   55.031
 3587.00    0.43377   0.43226   55.437
 3588.00    0.44778   0.44616   52.578
 3589.00    0.46115   0.47393   49.799
 3590.00    0.48198   0.49977   47.182
 3591.00    0.50112   0.51423   47.284
 3592.00    0.51888   0.51516  398.660
 3593.00    0.53028   0.51443   -1.000
 3594.00    0.53133   0.52064   -1.000
 3595.00    0.53554   0.53424  376.990
 3596.00    0.54587   0.54721  364.232
 3597.00    0.55843   0.55360  347.104
 3598.00    0.56248   0.55635  337.144
 3599.00    0.57594   0.55743   -1.000
 3600.00    0.56803   0.55340   -1.000
 3601.00    0.55567   0.53795   -1.000
 3602.00    0.54331   0.52352   -1.000
 3603.00    0.52966   0.51599   -1.000
 3604.00    0.52409   0.51994  380.390
 3605.00    0.52378   0.52463  386.459
 3606.00    0.52660   0.52096  388.249
 3607.00    0.52429   0.51233   -1.000
 3608.00    0.50918   0.50318  390.652
 3609.00    0.49653   0.50051  410.190
 3610.00    0.49685   0.50260  415.483
 3611.00    0.50352   0.50976  406.004
 3612.00    0.51536   0.51938  393.636
 3613.00    0.52272   0.52876  379.996
 3614.00    0.52955   0.54144   -1.000
 3615.00    0.53801   0.55650   -1.000
 3616.00    0.54072   0.55433   -1.000
 3617.00    0.52954   0.53831   -1.000
 3618.00    0.50449   0.51617   -1.000
 3619.00    0.48859   0.50520   -1.000
 3620.00    0.50054   0.51478   46.549
 3621.00    0.52359   0.53321   -1.000
 3622.00    0.54531   0.54795  365.815
 3623.00    0.55449   0.55804  346.164
 3624.00    0.56004   0.56822   -1.000
 3625.00    0.56934   0.58622   -1.000
 3626.00    0.58378   0.60877   -1.000
 3627.00    0.59701   0.62450   -1.000
 3628.00    0.58831   0.61448   -1.000
 3629.00    0.56750   0.58264   -1.000
 3630.00    0.53455   0.54020  332.240
 3631.00    0.50763   0.51761   -1.000
 3632.00    0.50329   0.52112   -1.000
 3633.00    0.51550   0.54007   -1.000
 3634.00    0.52715   0.55315   -1.000
 3635.00    0.53080   0.55419   -1.000
 3636.00    0.54042   0.55663   -1.000
 3637.00    0.55180   0.57040   -1.000
 3638.00    0.57473   0.58633   -1.000
 3639.00    0.58228   0.59580   -1.000
 3640.00    0.58827   0.59788   -1.000
 3641.00    0.57791   0.59096   -1.000
 3642.00    0.55673   0.57719   -1.000
 3643.00    0.55217   0.56390   -1.000
 3644.00    0.54123   0.55326   -1.000
 3645.00    0.53464   0.54627   -1.000
 3646.00    0.53107   0.54096   -1.000
 3647.00    0.52705   0.53687   -1.000
 3648.00    0.52408   0.53634   -1.000
 3649.00    0.52923   0.53829   -1.000
 3650.00    0.53902   0.54512  365.902
 3651.00    0.55721   0.55598  350.771
 3652.00    0.57634   0.57292  333.882
 3653.00    0.59034   0.58706  320.372
 3654.00    0.59138   0.60035   -1.000
 3655.00    0.59228   0.61345   -1.000
 3656.00    0.60237   0.62359   -1.000
 3657.00    0.60713   0.62890   -1.000
 3658.00    0.61047   0.62830   -1.000
 3659.00    0.61007   0.62648   -1.000
 3660.00    0.60592   0.62265   -1.000
 3661.00    0.60554   0.61398   -1.000
 3662.00    0.59945   0.60320  299.969
 3663.00    0.59360   0.59697  303.329
 3664.00    0.59150   0.59931   -1.000
 3665.00    0.59059   0.60578   -1.000
 3666.00    0.60070   0.60871   -1.000
 3667.00    0.60055   0.60638  307.343
 3668.00    0.58739   0.59747   -1.000
 3669.00    0.57380   0.58791   -1.000
 3670.00    0.57464   0.58717   -1.000
 3671.00    0.58915   0.59526  321.619
 3672.00    0.60559   0.60646  309.734
 3673.00    0.61169   0.61329  304.001
 3674.00    0.60834   0.61183  303.101
 3675.00    0.60532   0.60464  303.104
 3676.00    0.59563   0.59029  304.445
 3677.00    0.58419   0.57206   -1.000
 3678.00    0.57354   0.55809   -1.000
 3679.00    0.56229   0.55645  333.585
 3680.00    0.56186   0.56315  341.362
 3681.00    0.57524   0.57124  339.640
 3682.00    0.58225   0.57743  330.509
 3683.00    0.58277   0.57910  321.392
 3684.00    0.57979   0.57694  319.296
 3685.00    0.57027   0.56841  327.695
 3686.00    0.55382   0.55965  341.316
 3687.00    0.54732   0.56228   -1.000
 3688.00    0.56181   0.57752   -1.000
 3689.00    0.58330   0.60043   -1.000
 3690.00    0.60402   0.61488   -1.000
 3691.00    0.61511   0.61994  304.290
 3692.00    0.61714   0.61770  296.087
 3693.00    0.61526   0.61283  298.979
 3694.00    0.61372   0.61160  307.158
 3695.00    0.61367   0.61325  310.881
 3696.00    0.61366   0.61123  309.303
 3697.00    0.61589   0.61039  306.443
 3698.00    0.62412   0.62204  302.223
 3699.00    0.64216   0.64038  292.304
 3700.00    0.65916   0.65644  285.176
 3701.00    0.65317   0.64877  282.050
 3702.00    0.62711   0.61663  288.153
 3703.00    0.59264   0.57274   -1.000
 3704.00    0.55279   0.54028   -1.000
 3705.00    0.53847   0.52735   -1.000
 3706.00    0.54452   0.53397   -1.000
 3707.00    0.55618   0.54748   -1.000
 3708.00    0.56751   0.56158  366.128
 3709.00    0.57298   0.56550  361.903
 3710.00    0.58080   0.56047   -1.000
 3711.00    0.58654   0.55756   -1.000
 3712.00    0.60795   0.56822   -1.000
 3713.00    0.63504   0.59542   -1.000
 3714.00    0.65988   0.62564   -1.000
 3715.00    0.67334   0.64724   -1.000
 3716.00    0.67596   0.65446   -1.000
 3717.00    0.66224   0.64554   -1.000
 3718.00    0.63260   0.61585   -1.000
 3719.00    0.57496   0.56746  331.716
 3720.00    0.52983   0.50769   -1.000
 3721.00    0.49688   0.47551   -1.000
 3722.00    0.50134   0.48437   46.352
 3723.00    0.54579   0.52612   -1.000
 3724.00    0.60227   0.58087   -1.000
 3725.00    0.63495   0.61954   -1.000
 3726.00    0.64620   0.63007   -1.000
 3727.00    0.63181   0.62980  314.747
 3728.00    0.63231   0.63321  324.834
 3729.00    0.63544   0.63868  326.882
 3730.00    0.63771   0.63481  321.809
 3731.00    0.61543   0.60647   -1.000
 3732.00    0.57046   0.54579   -1.000
 3733.00    0.51636   0.48606   -1.000
 3734.00    0.47362   0.44461   43.295
 3735.00    0.45597   0.43860   48.360
 3736.00    0.47125   0.46775   49.880
 3737.00    0.51388   0.52086   47.204
 3738.00    0.55927   0.57375   45.261
 3739.00    0.60784   0.62470   -1.000
 3740.00    0.64451   0.65384   -1.000
 3741.00    0.65630   0.65717  321.939
 3742.00    0.64377   0.63757  321.191
 3743.00    0.62492   0.61460   -1.000
 3744.00    0.60444   0.59206   -1.000
 3745.00    0.57662   0.57226  377.213
 3746.00    0.55858   0.55215   -1.000
 3747.00    0.53222   0.52187   -1.000
 3748.00    0.49285   0.48988   43.780
 3749.00    0.46887   0.46411   46.510
 3750.00    0.48117   0.46552   49.317
 3751.00    0.53221   0.50361   -1.000
 3752.00    0.58684   0.56124   -1.000
 3753.00    0.63857   0.61711   -1.000
 3754.00    0.68480   0.65823   -1.000
 3755.00    0.70531   0.67523   -1.000
 3756.00    0.69640   0.66735   -1.000
 3757.00    0.66231   0.63883   -1.000
 3758.00    0.62649   0.61204   -1.000
 3759.00    0.61262   0.60302   -1.000
 3760.00    0.62353   0.60829   -1.000
 3761.00    0.64962   0.62493   -1.000
 3762.00    0.66905   0.63712   -1.000
 3763.00    0.66480   0.64083   -1.000
 3764.00    0.66455   0.63741   -1.000
 3765.00    0.65901   0.62883   -1.000
 3766.00    0.64560   0.61447   -1.000
 3767.00    0.62469   0.59306   -1.000
 3768.00    0.60979   0.56239   -1.000
 3769.00    0.60124   0.53067   -1.000
 3770.00    0.58728   0.51470   -1.000
 3771.00    0.58855   0.53035   -1.000
 3772.00    0.61898   0.56935   -1.000
 3773.00    0.65253   0.61558   -1.000
 3774.00    0.67767   0.64565   -1.000
 3775.00    0.69094   0.65770   -1.000
 3776.00    0.69982   0.66527   -1.000
 3777.00    0.71613   0.67894   -1.000
 3778.00    0.73392   0.70189   -1.000
 3779.00    0.75181   0.72483   -1.000
 3780.00    0.76299   0.74269   -1.000
 3781.00    0.77529   0.74888   -1.000
 3782.00    0.77891   0.74561   -1.000
 3783.00    0.78077   0.73783   -1.000
 3784.00    0.77079   0.72819   -1.000
 3785.00    0.75620   0.71241   -1.000
 3786.00    0.72898   0.69373   -1.000
 3787.00    0.69620   0.67479   -1.000
 3788.00    0.68654   0.66295   -1.000
 3789.00    0.68336   0.66323   -1.000
 3790.00    0.68783   0.66887   -1.000
 3791.00    0.69162   0.67091   -1.000
 3792.00    0.67984   0.66436   -1.000
 3793.00    0.65750   0.64094   -1.000
 3794.00    0.62942   0.60774   -1.000
 3795.00    0.59930   0.56724   -1.000
 3796.00    0.56636   0.52593   -1.000
 3797.00    0.53376   0.49049   -1.000
 3798.00    0.52102   0.47898   -1.000
 3799.00    0.54804   0.50594   -1.000
 3800.00    0.58863   0.57125   -1.000
 3801.00    0.63808   0.63328  352.436
 3802.00    0.68059   0.68006  324.759
 3803.00    0.70779   0.70183  311.068
 3804.00    0.72302   0.70815   -1.000
 3805.00    0.71867   0.70511   -1.000
 3806.00    0.70518   0.70072  308.275
 3807.00    0.70347   0.70482  320.033
 3808.00    0.72024   0.72005  325.539
 3809.00    0.74398   0.73932  316.498
 3810.00    0.75898   0.75257  304.398
 3811.00    0.75665   0.74678   -1.000
 3812.00    0.73673   0.71773   -1.000
 3813.00    0.71090   0.68570   -1.000
 3814.00    0.68733   0.66244   -1.000
 3815.00    0.67292   0.66068   -1.000
 3816.00    0.68190   0.67563  381.718
 3817.00    0.69054   0.69314  374.209
 3818.00    0.69446   0.69375  360.481
 3819.00    0.67574   0.67423  367.786
 3820.00    0.65196   0.65588  394.103
 3821.00    0.64330   0.65237   -1.000
 3822.00    0.66050   0.66573  402.674
 3823.00    0.66645   0.66749  385.035
 3824.00    0.64346   0.64534  390.404
 3825.00    0.60898   0.62315   -1.000
 3826.00    0.59556   0.60999   45.147
 3827.00    0.59369   0.60254   46.057
 3828.00    0.58879   0.59821   45.617
 3829.00    0.59145   0.59239   44.870
 3830.00    0.58026   0.58197   44.175
 3831.00    0.55780   0.56111   44.806
 3832.00    0.51956   0.52546   46.947
 3833.00    0.48427   0.48048   50.698
 3834.00    0.47010   0.44369   52.103
 3835.00    0.47004   0.43265   50.977
 3836.00    0.48278   0.44543   48.913
 3837.00    0.49241   0.47383   47.933
 3838.00    0.50600   0.50637   49.016
 3839.00    0.52489   0.53889   50.143
 3840.00    0.55457   0.56987   49.131
 3841.00    0.59492   0.60763   47.662
 3842.00    0.64018   0.64566  418.853
 3843.00    0.67923   0.68193  378.973
 3844.00    0.70072   0.70631  355.712
 3845.00    0.71384   0.71819  349.663
 3846.00    0.72160   0.72799  349.795
 3847.00    0.72227   0.73555   -1.000
 3848.00    0.72129   0.73526   -1.000
 3849.00    0.71440   0.72636   -1.000
 3850.00    0.71178   0.72058   -1.000
 3851.00    0.71537   0.73140   -1.000
 3852.00    0.73396   0.74861   -1.000
 3853.00    0.73986   0.76018   -1.000
 3854.00    0.73423   0.75540   -1.000
 3855.00    0.72503   0.74089   -1.000
 3856.00    0.70563   0.72473   -1.000
 3857.00    0.69457   0.71179   -1.000
 3858.00    0.67597   0.69796   -1.000
 3859.00    0.65304   0.69311   42.786
 3860.00    0.65367   0.70181   45.424
 3861.00    0.68652   0.72403   45.397
 3862.00    0.72431   0.74567   -1.000
 3863.00    0.75516   0.75686  356.180
 3864.00    0.76560   0.75597   -1.000
 3865.00    0.75782   0.75122  343.839
 3866.00    0.74870   0.75150  350.806
 3867.00    0.74556   0.75645   -1.000
 3868.00    0.74649   0.76116   -1.000
 3869.00    0.72633   0.75757   -1.000
 3870.00    0.69737   0.74273   -1.000
 3871.00    0.67701   0.72432   -1.000
 3872.00    0.67027   0.70733   44.180
 3873.00    0.68611   0.70503   -1.000
 3874.00    0.71891   0.71564  378.645
 3875.00    0.73879   0.72766   -1.000
 3876.00    0.73176   0.72252   -1.000
 3877.00    0.70091   0.70188  344.285
 3878.00    0.67150   0.68326   -1.000
 3879.00    0.66910   0.67978   -1.000
 3880.00    0.66568   0.68982   -1.000
 3881.00    0.65415   0.69326   -1.000
 3882.00    0.64275   0.68462   -1.000
 3883.00    0.65317   0.67412   -1.000
 3884.00    0.66619   0.65716   -1.000
 3885.00    0.64769   0.62030   -1.000
 3886.00    0.61186   0.57148   -1.000
 3887.00    0.58442   0.52010   -1.000
 3888.00    0.56263   0.49058   -1.000
 3889.00    0.56785   0.49684   -1.000
 3890.00    0.60445   0.53897   -1.000
 3891.00    0.65161   0.59570   -1.000
 3892.00    0.70107   0.64594   -1.000
 3893.00    0.71906   0.66985   -1.000
 3894.00    0.72396   0.67831   -1.000
 3895.00    0.72879   0.68759   -1.000
 3896.00    0.74436   0.69963   -1.000
 3897.00    0.76794   0.71502   -1.000
 3898.00    0.77318   0.72361   -1.000
 3899.00    0.76611   0.72324   -1.000
 3900.00    0.77018   0.72821   -1.000
 3901.00    0.78217   0.73735   -1.000
 3902.00    0.79476   0.73933   -1.000
 3903.00    0.78768   0.73477   -1.000
 3904.00    0.77136   0.72445   -1.000
 3905.00    0.75763   0.72093   -1.000
 3906.00    0.76071   0.72864   -1.000
 3907.00    0.78297   0.75375   -1.000
 3908.00    0.81543   0.78391   -1.000
 3909.00    0.83805   0.80825   -1.000
 3910.00    0.85473   0.81937   -1.000
 3911.00    0.86213   0.82185   -1.000
 3912.00    0.85847   0.81942   -1.000
 3913.00    0.84619   0.81113   -1.000
 3914.00    0.83602   0.79747   -1.000
 3915.00    0.83167   0.79035   -1.000
 3916.00    0.82571   0.78898   -1.000
 3917.00    0.81614   0.78461   -1.000
 3918.00    0.80768   0.77458   -1.000
 3919.00    0.78649   0.76094   -1.000
 3920.00    0.77509   0.75213   -1.000
 3921.00    0.76162   0.74737   -1.000
 3922.00    0.76500   0.74924   -1.000
 3923.00    0.77513   0.75507   -1.000
 3924.00    0.77323   0.75611   -1.000
 3925.00    0.75463   0.74792  318.881
 3926.00    0.71700   0.72115  335.415
 3927.00    0.67075   0.68424   -1.000
 3928.00    0.61948   0.63664   -1.000
 3929.00    0.55660   0.58067   47.824
 3930.00    0.50363   0.51454   56.079
 3931.00    0.44731   0.42467   65.606
 3932.00    0.38041   0.33792   -1.000
 3933.00    0.33167   0.28141   -1.000
 3934.00    0.31161   0.28659   98.959
 3935.00    0.34977   0.34973   94.554
 3936.00    0.42574   0.44626   81.903
 3937.00    0.50626   0.53292   67.672
 3938.00    0.57657   0.61415   55.572
 3939.00    0.63386   0.67128   47.027
 3940.00    0.67091   0.70832   -1.000
 3941.00    0.69191   0.72875   -1.000
 3942.00    0.71035   0.73450   -1.000
 3943.00    0.71047   0.73267   -1.000
 3944.00    0.72382   0.73851   -1.000
 3945.00    0.75862   0.75405  347.169
 3946.00    0.78459   0.77277   -1.000
 3947.00    0.79531   0.78334   -1.000
 3948.00    0.79941   0.78243   -1.000
 3949.00    0.80613   0.77983   -1.000
 3950.00    0.81496   0.77990   -1.000
 3951.00    0.81886   0.77827   -1.000
 3952.00    0.81492   0.78002   -1.000
 3953.00    0.82239   0.79133   -1.000
 3954.00    0.83452   0.79834   -1.000
 3955.00    0.82437   0.79398   -1.000
 3956.00    0.80328   0.78189   -1.000
 3957.00    0.79369   0.77127   -1.000
 3958.00    0.79879   0.77157   -1.000
 3959.00    0.78772   0.76781   -1.000
 3960.00    0.75052   0.74120  284.664
 3961.00    0.70116   0.70712  315.859
 3962.00    0.64921   0.66942   -1.000
 3963.00    0.61557   0.63620   -1.000
 3964.00    0.58132   0.59894   -1.000
 3965.00    0.51811   0.53012   44.933
 3966.00    0.43688   0.44374   52.778
 3967.00    0.35688   0.34670   65.195
 3968.00    0.29974   0.28259   79.741
 3969.00    0.28770   0.27545   87.948
 3970.00    0.32738   0.32953   81.471
 3971.00    0.40375   0.41297   67.056
 3972.00    0.48400   0.50672   55.084
 3973.00    0.55507   0.57917   46.093
 3974.00    0.62248   0.63915   -1.000
 3975.00    0.68392   0.68719  351.339
 3976.00    0.73013   0.72441  316.609
 3977.00    0.76907   0.75776  291.885
 3978.00    0.80095   0.78485   -1.000
 3979.00    0.84063   0.80723   -1.000
 3980.00    0.85705   0.81447   -1.000
 3981.00    0.85776   0.81175   -1.000
 3982.00    0.85847   0.81124   -1.000
 3983.00    0.85713   0.81777   -1.000
 3984.00    0.87065   0.83274   -1.000
 3985.00    0.89343   0.84814   -1.000
 3986.00    0.90921   0.85968   -1.000
 3987.00    0.91659   0.87086   -1.000
 3988.00    0.92754   0.87965   -1.000
 3989.00    0.93148   0.88098   -1.000
 3990.00    0.93035   0.88262   -1.000
 3991.00    0.94226   0.88972   -1.000
 3992.00    0.96671   0.90089   -1.000
 3993.00    0.96426   0.90970   -1.000
 3994.00    0.94716   0.90809   -1.000
 3995.00    0.93501   0.89477   -1.000
 3996.00    0.91650   0.87412   -1.000
 3997.00    0.90769   0.86357   -1.000
 3998.00    0.92086   0.86947   -1.000
 3999.00    0.94225   0.88951   -1.000
 4000.00    0.96536   0.90667   -1.000
 4001.00    0.97836   0.91741   -1.000
 4002.00    0.98960   0.91883   -1.000
 4003.00    0.98314   0.91054   -1.000
 4004.00    0.95357   0.89035   -1.000
 4005.00    0.92253   0.87255   -1.000
 4006.00    0.91892   0.87563   -1.000
 4007.00    0.94470   0.89596   -1.000
 4008.00    0.97730   0.92098   -1.000
 4009.00    0.99176   0.93472   -1.000
 4010.00    0.99077   0.93975   -1.000
 4011.00    0.99256   0.94088   -1.000
 4012.00    0.98943   0.93986   -1.000
 4013.00    0.98965   0.93966   -1.000
 4014.00    0.99270   0.94404   -1.000
 4015.00    0.99981   0.95053   -1.000
 4016.00    1.00017   0.95470   -1.000
 4017.00    0.99603   0.95685   -1.000
 4018.00    1.00046   0.96240   -1.000
 4019.00    1.01059   0.96859   -1.000
 4020.00    1.01063   0.97194   -1.000
 4021.00    1.00378   0.96697   -1.000
 4022.00    0.99613   0.95827   -1.000
 4023.00    0.99344   0.94975   -1.000
 4024.00    0.99331   0.94396   -1.000
 4025.00    0.99199   0.94714   -1.000
 4026.00    1.01017   0.96168   -1.000
 4027.00    1.03517   0.97650   -1.000
 4028.00    1.03176   0.97508   -1.000
 4029.00    1.00634   0.95683   -1.000
 4030.00    0.97235   0.92611   -1.000
 4031.00    0.94770   0.90332   -1.000
 4032.00    0.94280   0.89429   -1.000
 4033.00    0.95012   0.89892   -1.000
 4034.00    0.96045   0.91445   -1.000
 4035.00    0.98636   0.94133   -1.000
 4036.00    1.02357   0.97101   -1.000
 4037.00    1.05075   0.99774   -1.000
 4038.00    1.05778   1.00602   -1.000
 4039.00    1.04631   1.00043   -1.000
 4040.00    1.03008   0.98966   -1.000
 4041.00    1.02517   0.98228   -1.000
 4042.00    1.02032   0.97364   -1.000
 4043.00    1.00170   0.94949   -1.000
 4044.00    0.95051   0.91266   -1.000
 4045.00    0.89741   0.88192   -1.000
 4046.00    0.91233   0.88294   -1.000
 4047.00    0.96320   0.91908   -1.000
 4048.00    1.01290   0.95859   -1.000
 4049.00    1.04020   0.98493   -1.000
 4050.00    1.04028   0.99196   -1.000
 4051.00    1.03719   0.99121   -1.000
 4052.00    1.02911   0.98235   -1.000
 4053.00    1.01175   0.97067   -1.000
 4054.00    1.00000   0.96270   -1.000
 4055.00    0.99761   0.95869   -1.000
 4056.00    0.99578   0.95685   -1.000
 4057.00    0.98930   0.95616   -1.000
 4058.00    0.99158   0.96373   -1.000
 4059.00    1.01329   0.97931   -1.000
 4060.00    1.03301   0.98393   -1.000
 4061.00    1.02279   0.96752   -1.000
 4062.00    0.98164   0.93238   -1.000
 4063.00    0.94204   0.90611   -1.000
 4064.00    0.93821   0.89801   -1.000
 4065.00    0.95869   0.90634   -1.000
 4066.00    0.97753   0.92298   -1.000
 4067.00    0.99276   0.93563   -1.000
 4068.00    1.01634   0.94248   -1.000
 4069.00    1.02719   0.94286   -1.000
 4070.00    1.01355   0.92935   -1.000
 4071.00    0.98194   0.90846   -1.000
 4072.00    0.97548   0.90483   -1.000
 4073.00    0.98836   0.91680   -1.000
 4074.00    1.00476   0.92710   -1.000
 4075.00    0.98400   0.91750   -1.000
 4076.00    0.93746   0.89081   -1.000
 4077.00    0.90554   0.87101   -1.000
 4078.00    0.90862   0.87202   -1.000
 4079.00    0.94359   0.90176   -1.000
 4080.00    0.99113   0.93623   -1.000
 4081.00    1.01378   0.95953   -1.000
 4082.00    1.01705   0.96116   -1.000
 4083.00    0.99790   0.94832   -1.000
 4084.00    0.98053   0.93482   -1.000
 4085.00    0.97891   0.93209   -1.000
 4086.00    0.99970   0.94426   -1.000
 4087.00    1.02870   0.96171   -1.000
 4088.00    1.04553   0.97662   -1.000
 4089.00    1.04600   0.97863   -1.000
 4090.00    1.03360   0.97216   -1.000
 4091.00    1.02222   0.96351   -1.000
 4092.00    1.00226   0.95672   -1.000
 4093.00    0.99825   0.94421   -1.000
 4094.00    0.98794   0.92689   -1.000
 4095.00    0.96196   0.90354   -1.000
 4096.00    0.93329   0.87743   -1.000
 4097.00    0.90540   0.85148   -1.000
 4098.00    0.88458   0.81646   -1.000
 4099.00    0.84375   0.76612   -1.000
 4100.00    0.77842   0.69996   -1.000
 4101.00    0.71514   0.65055   -1.000
 4102.00    0.71019   0.64868   -1.000
 4103.00    0.76230   0.70707   -1.000
 4104.00    0.83080   0.78060   -1.000
 4105.00    0.88672   0.84456   -1.000
 4106.00    0.92588   0.88095   -1.000
 4107.00    0.94358   0.89906   -1.000
 4108.00    0.94437   0.90838   -1.000
 4109.00    0.94961   0.91192   -1.000
 4110.00    0.95387   0.91727   -1.000
 4111.00    0.96048   0.92679   -1.000
 4112.00    0.97797   0.94043   -1.000
 4113.00    0.99490   0.95626   -1.000
 4114.00    1.00724   0.97238   -1.000
 4115.00    1.01936   0.98544   -1.000
 4116.00    1.02429   0.98557   -1.000
 4117.00    1.01547   0.97424   -1.000
 4118.00    1.00115   0.95897   -1.000
 4119.00    0.99033   0.94850   -1.000
 4120.00    0.98964   0.95110   -1.000
 4121.00    0.99734   0.95852   -1.000
 4122.00    1.00075   0.96476   -1.000
 4123.00    1.00877   0.96979   -1.000
 4124.00    1.02149   0.97724   -1.000
 4125.00    1.03362   0.98497   -1.000
 4126.00    1.02048   0.98527   -1.000
 4127.00    1.00529   0.97821   -1.000
 4128.00    0.99690   0.97231   -1.000
 4129.00    1.00004   0.97038   -1.000
 4130.00    0.99674   0.96376   -1.000
 4131.00    0.99027   0.95000   -1.000
 4132.00    0.96684   0.93617   -1.000
 4133.00    0.95595   0.94010  233.131
 4134.00    0.96619   0.96044  233.810
 4135.00    1.00189   0.98419   -1.000
 4136.00    1.03058   1.00407   -1.000
 4137.00    1.04308   1.01932   -1.000
 4138.00    1.05816   1.03151   -1.000
 4139.00    1.06590   1.03919   -1.000
 4140.00    1.06103   1.03115   -1.000
 4141.00    1.03035   1.00664   -1.000
 4142.00    0.98392   0.97315  215.124
 4143.00    0.94634   0.95017  233.376
 4144.00    0.95605   0.95271  245.844
 4145.00    0.98889   0.97524  237.070
 4146.00    1.02020   0.99945   -1.000
 4147.00    1.02867   1.00661   -1.000
 4148.00    1.02012   1.00381  212.098
 4149.00    1.01194   1.00161  216.092
 4150.00    1.00927   1.00220  222.172
 4151.00    1.01036   1.00296  224.985
 4152.00    1.00802   0.99854  223.387
 4153.00    0.99753   0.99117  222.089
 4154.00    0.98959   0.98419  224.138
 4155.00    0.98955   0.98354  227.843
 4156.00    0.99678   0.99230  222.228
 4157.00    1.00760   1.00537  220.295
 4158.00    1.01609   1.01976  223.124
 4159.00    1.01325   1.02883   -1.000
 4160.00    1.02510   1.03242  215.427
 4161.00    1.05603   1.03450   -1.000
 4162.00    1.05563   1.03811  207.612
 4163.00    1.04070   1.04404  205.254
 4164.00    1.04601   1.04812  206.440
 4165.00    1.04271   1.04723  209.844
 4166.00    1.03179   1.03610  212.983
 4167.00    1.02111   1.02848  217.787
 4168.00    1.02544   1.02687  221.156
 4169.00    1.03428   1.02677  219.548
 4170.00    1.02824   1.01737  215.727
 4171.00    0.99234   0.98927  217.894
 4172.00    0.94892   0.96353   -1.000
 4173.00    0.93516   0.95525   -1.000
 4174.00    0.94653   0.96631   -1.000
 4175.00    0.96826   0.98716   -1.000
 4176.00    0.97796   0.99585   -1.000
 4177.00    0.97550   0.99641   -1.000
 4178.00    0.97697   0.99948   -1.000
 4179.00    0.99527   1.00821   -1.000
 4180.00    1.00602   1.01944   -1.000
 4181.00    1.01002   1.01704  222.869
 4182.00    1.00388   1.01311  223.014
 4183.00    1.00506   1.02163   -1.000
 4184.00    1.01842   1.02945   -1.000
 4185.00    1.02092   1.02884  212.390
 4186.00    1.00693   1.01608  212.635
 4187.00    0.98738   1.00298   -1.000
 4188.00    0.98420   1.00429   -1.000
 4189.00    1.00753   1.01389  224.262
 4190.00    1.02013   1.02162  219.179
 4191.00    1.02232   1.02486  217.788
 4192.00    1.02914   1.02912  214.914
 4193.00    1.04377   1.03652  210.258
 4194.00    1.03979   1.03783  207.435
 4195.00    1.01147   1.02209  213.358
 4196.00    0.98689   0.99959   -1.000
 4197.00    0.97576   0.97852  232.137
 4198.00    0.96173   0.96542  236.288
 4199.00    0.96533   0.96180  236.860
 4200.00    0.97406   0.96802  234.307
 4201.00    0.97851   0.97322  230.541
 4202.00    0.98368   0.97698  229.865
 4203.00    0.99138   0.98891  228.401
 4204.00    0.99809   1.00605  224.819
 4205.00    1.00869   1.02050   -1.000
 4206.00    1.02202   1.03112  218.869
 4207.00    1.03499   1.03973  213.393
 4208.00    1.04193   1.04198  209.214
 4209.00    1.03871   1.04028  208.123
 4210.00    1.04261   1.04155  208.967
 4211.00    1.04470   1.04817  208.551
 4212.00    1.04423   1.05663   -1.000
 4213.00    1.03230   1.04822   -1.000
 4214.00    1.00568   1.02385   -1.000
 4215.00    0.98033   1.00481   -1.000
 4216.00    0.98352   1.00210   -1.000
 4217.00    1.01101   1.02341   -1.000
 4218.00    1.04942   1.04685  209.422
 4219.00    1.07285   1.06319  200.048
 4220.00    1.08166   1.06965  194.416
 4221.00    1.08492   1.06724  192.254
 4222.00    1.06185   1.05221  193.920
 4223.00    1.02700   1.02037  201.820
 4224.00    0.97524   0.96571  215.933
 4225.00    0.90818   0.91563  237.253
 4226.00    0.85927   0.88625   -1.000
 4227.00    0.86650   0.90541   -1.000
 4228.00    0.93614   0.96196   -1.000
 4229.00    1.01714   1.03136   -1.000
 4230.00    1.06108   1.06479  212.994
 4231.00    1.06245   1.06425  201.636
 4232.00    1.04518   1.04825  199.862
 4233.00    1.03250   1.02896  204.263
 4234.00    1.02036   1.01504  209.654
 4235.00    1.01326   1.01550  211.803
 4236.00    1.00378   1.01926   -1.000
 4237.00    1.00950   1.02430   -1.000
 4238.00    1.01788   1.03432   -1.000
 4239.00    1.02669   1.04519   -1.000
 4240.00    1.03963   1.06030   -1.000
 4241.00    1.05458   1.07653   -1.000
 4242.00    1.06028   1.08644   -1.000
 4243.00    1.06570   1.09135   -1.000
 4244.00    1.07552   1.09009   -1.000
 4245.00    1.06820   1.08098   -1.000
 4246.00    1.04176   1.05839   -1.000
 4247.00    1.01467   1.03516   -1.000
 4248.00    1.00346   1.01851   -1.000
 4249.00    0.98968   1.01125   -1.000
 4250.00    0.99306   1.01164   -1.000
 4251.00    1.01688   1.02652   -1.000
 4252.00    1.03810   1.04026  215.575
 4253.00    1.03950   1.04250  209.468
 4254.00    1.02864   1.03936  210.485
 4255.00    1.02801   1.04375   -1.000
 4256.00    1.04343   1.05953   -1.000
 4257.00    1.05442   1.06592  205.330
 4258.00    1.04154   1.05020  203.472
 4259.00    1.00747   1.02654   -1.000
 4260.00    0.99182   1.01429   -1.000
 4261.00    0.99926   1.02815   -1.000
 4262.00    1.03343   1.05821   -1.000
 4263.00    1.06479   1.08955   -1.000
 4264.00    1.08888   1.10559   -1.000
 4265.00    1.09545   1.10606  192.261
 4266.00    1.09446   1.10066  191.690
 4267.00    1.07759   1.08911  194.750
 4268.00    1.05406   1.06849   -1.000
 4269.00    1.03211   1.04158  207.312
 4270.00    0.99711   1.00651  215.264
 4271.00    0.95427   0.98157   -1.000
 4272.00    0.94156   0.97203   -1.000
 4273.00    0.95221   0.97997   -1.000
 4274.00    0.96976   0.99778   -1.000
 4275.00    0.99463   1.02283   -1.000
 4276.00    1.03109   1.05438   -1.000
 4277.00    1.06557   1.08572   -1.000
 4278.00    1.07420   1.09493   -1.000
 4279.00    1.05295   1.08630   -1.000
 4280.00    1.03445   1.06654   -1.000
 4281.00    1.02158   1.05426   -1.000
 4282.00    1.02039   1.05349   -1.000
 4283.00    1.02935   1.05611   -1.000
 4284.00    1.02656   1.05866   -1.000
 4285.00    1.01088   1.05351   -1.000
 4286.00    0.99406   1.04016   -1.000
 4287.00    0.98598   1.01742   -1.000
 4288.00    0.95954   0.99010   -1.000
 4289.00    0.92849   0.96428   -1.000
 4290.00    0.91289   0.95975   -1.000
 4291.00    0.93704   0.97956   -1.000
 4292.00    0.98460   1.00757   -1.000
 4293.00    1.00832   1.01808  223.620
 4294.00    0.99921   1.01299   -1.000
 4295.00    0.99376   1.00887   -1.000
 4296.00    0.98224   1.00266   -1.000
 4297.00    0.94999   0.98030   -1.000
 4298.00    0.90547   0.94893   -1.000
 4299.00    0.86481   0.91269   -1.000
 4300.00    0.84542   0.89070   -1.000
 4301.00    0.84686   0.88692   -1.000
 4302.00    0.86023   0.89653   -1.000
 4303.00    0.87027   0.91030   -1.000
 4304.00    0.88439   0.92510   -1.000
 4305.00    0.89559   0.92602   -1.000
 4306.00    0.88387   0.91058   -1.000
 4307.00    0.85670   0.89237   -1.000
 4308.00    0.82985   0.88477   -1.000
 4309.00    0.83523   0.89706   -1.000
 4310.00    0.86629   0.91951   -1.000
 4311.00    0.89405   0.94362   -1.000
 4312.00    0.91850   0.95911   -1.000
 4313.00    0.94164   0.97326   -1.000
 4314.00    0.96913   1.00204   -1.000
 4315.00    1.01647   1.04423   -1.000
 4316.00    1.07927   1.09910   -1.000
 4317.00    1.11925   1.13259   -1.000
 4318.00    1.12440   1.14075   -1.000
 4319.00    1.11498   1.13114   -1.000
 4320.00    1.10207   1.11677   -1.000
 4321.00    1.08713   1.09888   -1.000
 4322.00    1.05904   1.07439   -1.000
 4323.00    1.01321   1.03691   -1.000
 4324.00    0.95918   0.99547   -1.000
 4325.00    0.93041   0.97526   -1.000
 4326.00    0.95062   0.99840   -1.000
 4327.00    1.00719   1.04490   -1.000
 4328.00    1.05966   1.09004   -1.000
 4329.00    1.07800   1.10541   -1.000
 4330.00    1.07771   1.10167   -1.000
 4331.00    1.07473   1.09852   -1.000
 4332.00    1.07532   1.10139   -1.000
 4333.00    1.07492   1.10142   -1.000
 4334.00    1.07153   1.08874   -1.000
 4335.00    1.05613   1.05914  183.036
 4336.00    1.00996   1.00604  186.064
 4337.00    0.94068   0.93249  197.766
 4338.00    0.86493   0.84200   -1.000
 4339.00    0.79020   0.77579  237.101
 4340.00    0.75388   0.74998  256.848
 4341.00    0.78488   0.78499  263.718
 4342.00    0.85866   0.86430   -1.000
 4343.00    0.93081   0.95346   -1.000
 4344.00    0.98046   1.00906   -1.000
 4345.00    1.01735   1.04689   -1.000
 4346.00    1.04505   1.07509   -1.000
 4347.00    1.06509   1.09942   -1.000
 4348.00    1.07988   1.11537   -1.000
 4349.00    1.08016   1.10946   -1.000
 4350.00    1.05401   1.07788   -1.000
 4351.00    1.01155   1.04690   -1.000
 4352.00    0.99051   1.03604   -1.000
 4353.00    1.01870   1.05853   -1.000
 4354.00    1.06500   1.09447   -1.000
 4355.00    1.08902   1.12453   -1.000
 4356.00    1.10592   1.13799   -1.000
 4357.00    1.11125   1.13908   -1.000
 4358.00    1.10072   1.13294   -1.000
 4359.00    1.09406   1.12935   -1.000
 4360.00    1.10560   1.13777   -1.000
 4361.00    1.12966   1.15188   -1.000
 4362.00    1.14277   1.16621   -1.000
 4363.00    1.14515   1.17515   -1.000
 4364.00    1.15595   1.17932   -1.000
 4365.00    1.15953   1.17629   -1.000
 4366.00    1.13839   1.16224   -1.000
 4367.00    1.11346   1.14118   -1.000
 4368.00    1.10418   1.12919   -1.000
 4369.00    1.10410   1.12600   -1.000
 4370.00    1.10695   1.12613   -1.000
 4371.00    1.11223   1.12378   -1.000
 4372.00    1.10489   1.11081  190.130
 4373.00    1.08222   1.08864  191.952
 4374.00    1.05361   1.06316  199.593
 4375.00    1.04263   1.05916   -1.000
 4376.00    1.07149   1.08340   -1.000
 4377.00    1.11720   1.12377  199.794
 4378.00    1.13289   1.14802   -1.000
 4379.00    1.13689   1.14986   -1.000
 4380.00    1.12900   1.13319  187.083
 4381.00    1.10647   1.09669  190.359
 4382.00    1.04642   1.04156  199.145
 4383.00    0.97191   0.99724   -1.000
 4384.00    0.94775   0.98597   -1.000
 4385.00    0.99133   1.01217   -1.000
 4386.00    1.05000   1.05731  227.634
 4387.00    1.08637   1.08815  206.028
 4388.00    1.08994   1.10115   -1.000
 4389.00    1.08650   1.10393   -1.000
 4390.00    1.08991   1.10447   -1.000
 4391.00    1.09888   1.10975   -1.000
 4392.00    1.11339   1.11609  197.739
 4393.00    1.11126   1.11270  193.281
 4394.00    1.09906   1.09838  194.332
 4395.00    1.09214   1.09689  198.571
 4396.00    1.11112   1.11743  198.083
 4397.00    1.13506   1.13622  189.318
 4398.00    1.14171   1.13659  183.633
 4399.00    1.11563   1.12039  185.858
 4400.00    1.09027   1.10821   -1.000
 4401.00    1.09645   1.10852   -1.000
 4402.00    1.11070   1.11101  196.487
 4403.00    1.10369   1.10183  192.943
 4404.00    1.06843   1.08487   -1.000
 4405.00    1.05869   1.07929   -1.000
 4406.00    1.07605   1.09026   -1.000
 4407.00    1.08710   1.10447   -1.000
 4408.00    1.08911   1.11643   -1.000
 4409.00    1.10769   1.13444   -1.000
 4410.00    1.13653   1.16249   -1.000
 4411.00    1.16618   1.18405   -1.000
 4412.00    1.18343   1.18376  179.077
 4413.00    1.16756   1.16209  176.777
 4414.00    1.12165   1.12952  181.246
 4415.00    1.08639   1.09934   -1.000
 4416.00    1.08194   1.09471   -1.000
 4417.00    1.09699   1.11457   -1.000
 4418.00    1.12940   1.15178   -1.000
 4419.00    1.15850   1.18064   -1.000
 4420.00    1.16310   1.19194   -1.000
 4421.00    1.14667   1.18253   -1.000
 4422.00    1.13564   1.16975   -1.000
 4423.00    1.13610   1.16633   -1.000
 4424.00    1.13457   1.16768   -1.000
 4425.00    1.12811   1.16607   -1.000
 4426.00    1.11868   1.16294   -1.000
 4427.00    1.12040   1.16529   -1.000
 4428.00    1.12479   1.17404   -1.000
 4429.00    1.12416   1.18066   -1.000
 4430.00    1.12190   1.18296   -1.000
 4431.00    1.12210   1.18361   -1.000
 4432.00    1.12592   1.18158   -1.000
 4433.00    1.11635   1.16704   -1.000
 4434.00    1.09010   1.14522   -1.000
 4435.00    1.07690   1.13403   -1.000
 4436.00    1.10195   1.15200   -1.000
 4437.00    1.14689   1.19332   -1.000
 4438.00    1.18110   1.22562   -1.000
 4439.00    1.19416   1.23447   -1.000
 4440.00    1.18097   1.21062   -1.000
 4441.00    1.14312   1.17469   -1.000
 4442.00    1.10376   1.14259   -1.000
 4443.00    1.09098   1.13798   -1.000
 4444.00    1.11095   1.16092   -1.000
 4445.00    1.14630   1.19459   -1.000
 4446.00    1.17318   1.21822   -1.000
 4447.00    1.18158   1.22425   -1.000
 4448.00    1.18341   1.22493   -1.000
 4449.00    1.18084   1.22287   -1.000
 4450.00    1.17681   1.21894   -1.000
 4451.00    1.17620   1.21671   -1.000
 4452.00    1.17870   1.21204   -1.000
 4453.00    1.16048   1.19582   -1.000
 4454.00    1.12807   1.16725   -1.000
 4455.00    1.10632   1.15166   -1.000
 4456.00    1.11167   1.15611   -1.000
 4457.00    1.12949   1.17195   -1.000
 4458.00    1.14007   1.17890   -1.000
 4459.00    1.13588   1.17656   -1.000
 4460.00    1.12633   1.17249   -1.000
 4461.00    1.12415   1.17308   -1.000
 4462.00    1.13341   1.18380   -1.000
 4463.00    1.15542   1.19948   -1.000
 4464.00    1.18029   1.21130   -1.000
 4465.00    1.18456   1.21424   -1.000
 4466.00    1.17739   1.20809   -1.000
 4467.00    1.17177   1.19415   -1.000
 4468.00    1.15488   1.18141   -1.000
 4469.00    1.14403   1.17841   -1.000
 4470.00    1.15109   1.19227   -1.000
 4471.00    1.18194   1.22005   -1.000
 4472.00    1.21247   1.24492   -1.000
 4473.00    1.23526   1.26286   -1.000
 4474.00    1.24708   1.26809   -1.000
 4475.00    1.25110   1.26934   -1.000
 4476.00    1.25101   1.27194   -1.000
 4477.00    1.25942   1.27497   -1.000
 4478.00    1.25512   1.26878   -1.000
 4479.00    1.23482   1.24293  167.330
 4480.00    1.20190   1.21119  173.248
 4481.00    1.17018   1.19386   -1.000
 4482.00    1.17017   1.20258   -1.000
 4483.00    1.19474   1.23481   -1.000
 4484.00    1.23123   1.26933   -1.000
 4485.00    1.25206   1.29215   -1.000
 4486.00    1.25911   1.29515   -1.000
 4487.00    1.24963   1.28091   -1.000
 4488.00    1.22556   1.25483   -1.000
 4489.00    1.19976   1.23900   -1.000
 4490.00    1.19936   1.24157   -1.000
 4491.00    1.21767   1.25825   -1.000
 4492.00    1.22992   1.26872   -1.000
 4493.00    1.22427   1.25915   -1.000
 4494.00    1.21273   1.24453   -1.000
 4495.00    1.19779   1.23786   -1.000
 4496.00    1.19958   1.24416   -1.000
 4497.00    1.22043   1.25759   -1.000
 4498.00    1.24331   1.26882   -1.000
 4499.00    1.25432   1.26898   -1.000
 4500.00    1.24410   1.25657   -1.000
 4501.00    1.23363   1.25210   -1.000
 4502.00    1.24117   1.26528   -1.000
 4503.00    1.26573   1.29124   -1.000
 4504.00    1.28634   1.31260   -1.000
 4505.00    1.29893   1.31799   -1.000
 4506.00    1.29142   1.31011   -1.000
 4507.00    1.27930   1.29879   -1.000
 4508.00    1.28251   1.29484   -1.000
 4509.00    1.28644   1.29993   -1.000
 4510.00    1.28976   1.30768   -1.000
 4511.00    1.28968   1.30648   -1.000
 4512.00    1.27877   1.29867   -1.000
 4513.00    1.26664   1.29083   -1.000
 4514.00    1.26415   1.28365   -1.000
 4515.00    1.26242   1.27956   -1.000
 4516.00    1.25419   1.27810   -1.000
 4517.00    1.24685   1.27574   -1.000
 4518.00    1.24442   1.27078   -1.000
 4519.00    1.25023   1.27003   -1.000
 4520.00    1.26163   1.27611   -1.000
 4521.00    1.26112   1.27991   -1.000
 4522.00    1.24886   1.27395   -1.000
 4523.00    1.24075   1.26154   -1.000
 4524.00    1.23499   1.25363   -1.000
 4525.00    1.22687   1.24797   -1.000
 4526.00    1.20950   1.23618   -1.000
 4527.00    1.18801   1.21851   -1.000
 4528.00    1.17489   1.20245   -1.000
 4529.00    1.17332   1.19896   -1.000
 4530.00    1.18233   1.20709   -1.000
 4531.00    1.20604   1.21766   -1.000
 4532.00    1.20436   1.21712   -1.000
 4533.00    1.18509   1.20165   -1.000
 4534.00    1.15944   1.18803   -1.000
 4535.00    1.15769   1.19590   -1.000
 4536.00    1.19987   1.22457   -1.000
 4537.00    1.25513   1.26270  181.921
 4538.00    1.28193   1.29260  171.148
 4539.00    1.28591   1.30147   -1.000
 4540.00    1.27433   1.29503   -1.000
 4541.00    1.27000   1.28644   -1.000
 4542.00    1.26825   1.28508   -1.000
 4543.00    1.26421   1.28827   -1.000
 4544.00    1.25245   1.28690   -1.000
 4545.00    1.24147   1.28089   -1.000
 4546.00    1.27098   1.27686   -2.000
 4547.00    1.12104   1.27030   -2.000
 4548.00    0.23368   1.25285   -2.000
 4549.00   -0.02469   1.23242    0.000
 4550.00    0.15730   1.23011   -1.000
 4551.00    0.86551   1.24895   -1.000
 4552.00    0.34480   1.26150   -1.000
 4553.00    0.94231   1.25293   -1.000
 4554.00    1.22147   1.23770   -1.000
 4555.00    1.21335   1.23582   -1.000
 4556.00    1.24125   1.25596   -1.000
 4557.00    1.27275   1.28751   -1.000
 4558.00    1.29302   1.31234   -1.000
 4559.00    1.30331   1.32391   -1.000
 4560.00    1.30776   1.33054   -1.000
 4561.00    1.30437   1.33049   -1.000
 4562.00    1.29616   1.31814   -1.000
 4563.00    1.27459   1.29722   -1.000
 4564.00    1.25800   1.28295   -1.000
 4565.00    1.26066   1.28558   -1.000
 4566.00    1.27915   1.30274   -1.000
 4567.00    1.30027   1.32192   -1.000
 4568.00    1.31183   1.33275   -1.000
 4569.00    1.31103   1.32781   -1.000
 4570.00    1.28742   1.31146   -1.000
 4571.00    1.25871   1.29100   -1.000
 4572.00    1.25861   1.28293   -1.000
 4573.00    1.27709   1.29974   -1.000
 4574.00    1.30018   1.32207   -1.000
 4575.00    1.31085   1.33050   -1.000
 4576.00    1.30718   1.32632   -1.000
 4577.00    1.30150   1.31990   -1.000
 4578.00    1.29050   1.31026   -1.000
 4579.00    1.27291   1.29398   -1.000
 4580.00    1.25521   1.27650   -1.000
 4581.00    1.24925   1.26817   -1.000
 4582.00    1.25147   1.26798   -1.000
 4583.00    1.25724   1.26795  174.378
 4584.00    1.25787   1.27084   -1.000
 4585.00    1.25833   1.27918   -1.000
 4586.00    1.27157   1.28977   -1.000
 4587.00    1.28804   1.30143   -1.000
 4588.00    1.30041   1.31129  167.956
 4589.00    1.30318   1.31548   -1.000
 4590.00    1.29674   1.31534   -1.000
 4591.00    1.28990   1.31135   -1.000
 4592.00    1.27853   1.30344   -1.000
 4593.00    1.27376   1.30103   -1.000
 4594.00    1.28518   1.30503   -1.000
 4595.00    1.29431   1.31154   -1.000
 4596.00    1.30156   1.31817   -1.000
 4597.00    1.30602   1.32334   -1.000
 4598.00    1.30566   1.32420   -1.000
 4599.00    1.29838   1.32087   -1.000
 4600.00    1.28502   1.31351   -1.000
 4601.00    1.27742   1.30657   -1.000
 4602.00    1.28297   1.30503   -1.000
 4603.00    1.28948   1.30910   -1.000
 4604.00    1.29626   1.31573   -1.000
 4605.00    1.30934   1.32053  168.341
 4606.00    1.31639   1.32477  168.140
 4607.00    1.32355   1.33569   -1.000
 4608.00    1.33706   1.34927  163.326
 4609.00    1.34447   1.36144   -1.000
 4610.00    1.34965   1.36231  157.784
 4611.00    1.34629   1.35307  158.213
 4612.00    1.33640   1.34543  160.254
 4613.00    1.32882   1.34337   -1.000
 4614.00    1.32818   1.34555   -1.000
 4615.00    1.33273   1.34809   -1.000
 4616.00    1.33209   1.34821   -1.000
 4617.00    1.33231   1.34670   -1.000
 4618.00    1.32268   1.34411   -1.000
 4619.00    1.32393   1.34248   -1.000
 4620.00    1.33415   1.34755   -1.000
 4621.00    1.34777   1.35898  161.172
 4622.00    1.35736   1.36819  158.706
 4623.00    1.35558   1.36914  158.366
 4624.00    1.34893   1.36231  158.736
 4625.00    1.34538   1.35700  159.062
 4626.00    1.34750   1.35388  160.396
 4627.00    1.34746   1.35380  160.924
 4628.00    1.34095   1.35301  160.884
 4629.00    1.33362   1.35075   -1.000
 4630.00    1.34061   1.35395   -1.000
 4631.00    1.35193   1.36234  161.545
 4632.00    1.35344   1.36565  159.784
 4633.00    1.34071   1.36041   -1.000
 4634.00    1.33732   1.35217   -1.000
 4635.00    1.33629   1.35049   -1.000
 4636.00    1.33144   1.35133   -1.000
 4637.00    1.32504   1.34776   -1.000
 4638.00    1.32070   1.34286   -1.000
 4639.00    1.32659   1.34228   -1.000
 4640.00    1.34144   1.34947  168.318
 4641.00    1.36354   1.36168  165.755
 4642.00    1.37298   1.37043  161.806
 4643.00    1.36696   1.37157  159.370
 4644.00    1.35593   1.36212  159.695
 4645.00    1.34065   1.34945  162.424
 4646.00    1.31893   1.33284   -1.000
 4647.00    1.30868   1.32038  171.500
 4648.00    1.31872   1.32478  172.719
 4649.00    1.33690   1.34215  170.072
 4650.00    1.34904   1.35871  166.167
 4651.00    1.34907   1.36801   -1.000
 4652.00    1.34432   1.36935   -1.000
 4653.00    1.33588   1.36502   -1.000
 4654.00    1.32367   1.35453   -1.000
 4655.00    1.31428   1.34566   -1.000
 4656.00    1.31730   1.34509   -1.000
 4657.00    1.33552   1.35453   -1.000
 4658.00    1.36374   1.37727   -1.000
 4659.00    1.39072   1.40249  158.107
 4660.00    1.40360   1.41563  154.245
 4661.00    1.39203   1.41122   -1.000
 4662.00    1.37295   1.39662   -1.000
 4663.00    1.36359   1.38130   -1.000
 4664.00    1.36228   1.36859  162.254
 4665.00    1.35061   1.35357  162.976
 4666.00    1.31917   1.33204  165.343
 4667.00    1.28507   1.30834   -1.000
 4668.00    1.27100   1.30013   -1.000
 4669.00    1.29146   1.31319   -1.000
 4670.00    1.31897   1.33732   -1.000
 4671.00    1.34799   1.35977  168.209
 4672.00    1.36372   1.37231  163.332
 4673.00    1.36321   1.37379  161.952
 4674.00    1.36502   1.37611  161.972
 4675.00    1.37088   1.38272  161.849
 4676.00    1.38460   1.39039  159.978
 4677.00    1.38517   1.38919  157.585
 4678.00    1.37005   1.37541  157.972
 4679.00    1.35188   1.36089  161.105
 4680.00    1.34230   1.34919  164.364
 4681.00    1.33555   1.34319  167.148
 4682.00    1.33934   1.34694  168.908
 4683.00    1.35968   1.35802  167.268
 4684.00    1.37678   1.36986  163.266
 4685.00    1.38116   1.37473  160.852
 4686.00    1.37448   1.37422  161.078
 4687.00    1.37291   1.37195  161.229
 4688.00    1.37155   1.37094  162.037
 4689.00    1.37068   1.37201  162.173
 4690.00    1.36618   1.37214  162.178
 4691.00    1.36763   1.37001  163.201
 4692.00    1.37640   1.37048  163.662
 4693.00    1.38920   1.37493  162.003
 4694.00    1.40395   1.38014   -1.000
 4695.00    1.41373   1.38564   -1.000
 4696.00    1.41500   1.38887   -1.000
 4697.00    1.39816   1.38178  154.428
 4698.00    1.37424   1.36609  158.423
 4699.00    1.36614   1.35266  163.234
 4700.00    1.36774   1.34611  165.547
 4701.00    1.35780   1.34034  164.614
 4702.00    1.34228   1.33303  165.473
 4703.00    1.34015   1.32912  168.214
 4704.00    1.34856   1.33774  169.391
 4705.00    1.35651   1.35085  166.691
 4706.00    1.35557   1.35439  164.098
 4707.00    1.34287   1.34591  165.756
 4708.00    1.33016   1.33517  169.008
 4709.00    1.33103   1.33522  170.891
 4710.00    1.34944   1.34835  170.320
 4711.00    1.37801   1.36437  165.814
 4712.00    1.39741   1.37296   -1.000
 4713.00    1.39176   1.36967  159.206
 4714.00    1.37781   1.36246  160.335
 4715.00    1.37777   1.36377  163.207
 4716.00    1.39050   1.37672  163.652
 4717.00    1.40719   1.39358  160.804
 4718.00    1.40977   1.40471  157.665
 4719.00    1.41243   1.41094  156.410
 4720.00    1.41165   1.41400  155.820
 4721.00    1.40496   1.41320  155.287
 4722.00    1.40300   1.40979  156.356
 4723.00    1.40547   1.41074  157.520
 4724.00    1.41411   1.41716  156.876
 4725.00    1.41472   1.41823  155.257
 4726.00    1.39493   1.41035   -1.000
 4727.00    1.36880   1.39338   -1.000
 4728.00    1.34926   1.37338   -1.000
 4729.00    1.35247   1.36346  168.375
 4730.00    1.35938   1.36110  168.345
 4731.00    1.36468   1.36386  166.730
 4732.00    1.37259   1.37471  165.354
 4733.00    1.38199   1.38718  163.459
 4734.00    1.39505   1.39344  161.955
 4735.00    1.38662   1.39333  160.972
 4736.00    1.38064   1.38935  160.078
 4737.00    1.38457   1.38791  161.428
 4738.00    1.39424   1.39215  161.884
 4739.00    1.39691   1.39817  160.090
 4740.00    1.39927   1.40052  159.829
 4741.00    1.39754   1.40037  160.663
 4742.00    1.40060   1.40390  160.988
 4743.00    1.40997   1.41168  159.902
 4744.00    1.41563   1.41765  158.203
 4745.00    1.41730   1.42027  158.222
 4746.00    1.42239   1.42227  158.410
 4747.00    1.42578   1.43015  157.413
 4748.00    1.42581   1.43967   -1.000
 4749.00    1.42687   1.44329   -1.000
 4750.00    1.42759   1.44597   -1.000
 4751.00    1.42441   1.44819   -1.000
 4752.00    1.41341   1.44504   -1.000
 4753.00    1.40498   1.43630   -1.000
 4754.00    1.39910   1.42838   -1.000
 4755.00    1.39717   1.42566   -1.000
 4756.00    1.39333   1.42722   -1.000
 4757.00    1.39193   1.43098   -1.000
 4758.00    1.39275   1.43613   -1.000
 4759.00    1.39549   1.43891   -1.000
 4760.00    1.40186   1.43779   -1.000
 4761.00    1.39052   1.42858   -1.000
 4762.00    1.36369   1.41168   -1.000
 4763.00    1.34732   1.39626   -1.000
 4764.00    1.34555   1.38931   -1.000
 4765.00    1.35334   1.39060   -1.000
 4766.00    1.36808   1.39760   -1.000
 4767.00    1.38338   1.40892   -1.000
 4768.00    1.39989   1.42573   -1.000
 4769.00    1.41291   1.44311   -1.000
 4770.00    1.41425   1.45214   -1.000
 4771.00    1.40927   1.44878   -1.000
 4772.00    1.40433   1.44108   -1.000
 4773.00    1.40951   1.44202   -1.000
 4774.00    1.42883   1.45327   -1.000
 4775.00    1.44249   1.46577   -1.000
 4776.00    1.43985   1.47030   -1.000
 4777.00    1.43765   1.46979   -1.000
 4778.00    1.43192   1.46651   -1.000
 4779.00    1.42208   1.45898   -1.000
 4780.00    1.41218   1.45193   -1.000
 4781.00    1.40916   1.45118   -1.000
 4782.00    1.40773   1.45126   -1.000
 4783.00    1.40635   1.44582   -1.000
 4784.00    1.40809   1.44042   -1.000
 4785.00    1.40442   1.43784   -1.000
 4786.00    1.39160   1.43421   -1.000
 4787.00    1.38406   1.43102   -1.000
 4788.00    1.38559   1.43194   -1.000
 4789.00    1.39216   1.43507   -1.000
 4790.00    1.40325   1.43915   -1.000
 4791.00    1.41487   1.44911   -1.000
 4792.00    1.42432   1.46554   -1.000
 4793.00    1.43886   1.48124   -1.000
 4794.00    1.45486   1.49601   -1.000
 4795.00    1.46145   1.50329   -1.000
 4796.00    1.45697   1.50066   -1.000
 4797.00    1.44024   1.48980   -1.000
 4798.00    1.42160   1.47476   -1.000
 4799.00    1.41540   1.46467   -1.000
 4800.00    1.41765   1.46678   -1.000
 4801.00    1.43152   1.47946   -1.000
 4802.00    1.44555   1.49388   -1.000
 4803.00    1.44674   1.49974   -1.000
 4804.00    1.43464   1.48614   -1.000
 4805.00    1.42351   1.46951   -1.000
 4806.00    1.42599   1.46156   -1.000
 4807.00    1.43037   1.46255   -1.000
 4808.00    1.43720   1.46983   -1.000
 4809.00    1.44138   1.47884   -1.000
 4810.00    1.44426   1.48318   -1.000
 4811.00    1.44352   1.48527   -1.000
 4812.00    1.44541   1.48805   -1.000
 4813.00    1.45131   1.49309   -1.000
 4814.00    1.45696   1.50038   -1.000
 4815.00    1.46169   1.50603   -1.000
 4816.00    1.46608   1.51033   -1.000
 4817.00    1.47360   1.51440   -1.000
 4818.00    1.47662   1.51711   -1.000
 4819.00    1.47363   1.51796   -1.000
 4820.00    1.47075   1.51730   -1.000
 4821.00    1.46493   1.51137   -1.000
 4822.00    1.44641   1.49569   -1.000
 4823.00    1.42534   1.47246   -1.000
 4824.00    1.42064   1.45686   -1.000
 4825.00    1.43417   1.46011   -1.000
 4826.00    1.44848   1.47575   -1.000
 4827.00    1.45399   1.48585   -1.000
 4828.00    1.44705   1.48481   -1.000
 4829.00    1.44093   1.47928   -1.000
 4830.00    1.43453   1.47561   -1.000
 4831.00    1.43021   1.47320   -1.000
 4832.00    1.43041   1.46965   -1.000
 4833.00    1.43941   1.47121   -1.000
 4834.00    1.44992   1.47648   -1.000
 4835.00    1.45960   1.48386   -1.000
 4836.00    1.45863   1.48619   -1.000
 4837.00    1.45184   1.48627   -1.000
 4838.00    1.44189   1.48477   -1.000
 4839.00    1.42794   1.47754   -1.000
 4840.00    1.41833   1.46997   -1.000
 4841.00    1.41858   1.46897   -1.000
 4842.00    1.42465   1.46945   -1.000
 4843.00    1.43204   1.46814   -1.000
 4844.00    1.44505   1.46902   -1.000
 4845.00    1.45211   1.47449   -1.000
 4846.00    1.45287   1.48166   -1.000
 4847.00    1.44030   1.47860   -1.000
 4848.00    1.42614   1.46542   -1.000
 4849.00    1.42250   1.45720   -1.000
 4850.00    1.42749   1.45819   -1.000
 4851.00    1.43033   1.46028   -1.000
 4852.00    1.42863   1.45871   -1.000
 4853.00    1.41292   1.44784   -1.000
 4854.00    1.38116   1.42187   -1.000
 4855.00    1.35104   1.38688   -1.000
 4856.00    1.33542   1.36490   -1.000
 4857.00    1.32966   1.35327   -1.000
 4858.00    1.29232   1.32394   -1.000
 4859.00    1.20310   1.24712   -1.000
 4860.00    1.08345   1.11635   -1.000
 4861.00    1.01001   1.01469  205.282
 4862.00    1.04062   1.00559   -1.000
 4863.00    1.14167   1.10247   -1.000
 4864.00    1.24037   1.22390  191.054
 4865.00    1.29939   1.31180   -1.000
 4866.00    1.33415   1.36038   -1.000
 4867.00    1.35952   1.39091   -1.000
 4868.00    1.37338   1.41391   -1.000
 4869.00    1.37227   1.42277   -1.000
 4870.00    1.35679   1.40890   -1.000
 4871.00    1.33520   1.38223   -1.000
 4872.00    1.33354   1.36669   -1.000
 4873.00    1.35930   1.38165   -1.000
 4874.00    1.38279   1.41419   -1.000
 4875.00    1.39764   1.43820   -1.000
 4876.00    1.39585   1.44948   -1.000
 4877.00    1.39527   1.45490   -1.000
 4878.00    1.40595   1.46379   -1.000
 4879.00    1.42158   1.47943   -1.000
 4880.00    1.42992   1.49644   -1.000
 4881.00    1.42220   1.50096   -1.000
 4882.00    1.41637   1.48779   -1.000
 4883.00    1.41315   1.47730   -1.000
 4884.00    1.41390   1.47298   -1.000
 4885.00    1.40519   1.46956   -1.000
 4886.00    1.40547   1.46664   -1.000
 4887.00    1.40365   1.46739   -1.000
 4888.00    1.40205   1.46724   -1.000
 4889.00    1.39465   1.45745   -1.000
 4890.00    1.37812   1.43883   -1.000
 4891.00    1.37411   1.42340   -1.000
 4892.00    1.40540   1.43690   -1.000
 4893.00    1.45032   1.47773   -1.000
 4894.00    1.49444   1.52156   -1.000
 4895.00    1.51533   1.55154   -1.000
 4896.00    1.51662   1.56456   -1.000
 4897.00    1.51228   1.56720   -1.000
 4898.00    1.50121   1.56190   -1.000
 4899.00    1.48421   1.54865   -1.000
 4900.00    1.47258   1.53330   -1.000
 4901.00    1.47262   1.52568   -1.000
 4902.00    1.47132   1.52340   -1.000
 4903.00    1.46902   1.51855   -1.000
 4904.00    1.47194   1.51798   -1.000
 4905.00    1.48678   1.53266   -1.000
 4906.00    1.50071   1.55369   -1.000
 4907.00    1.49919   1.55709   -1.000
 4908.00    1.48651   1.54372   -1.000
 4909.00    1.46489   1.52463   -1.000
 4910.00    1.44715   1.50580   -1.000
 4911.00    1.45037   1.49788   -1.000
 4912.00    1.46771   1.50517   -1.000
 4913.00    1.48530   1.52209   -1.000
 4914.00    1.49913   1.53783   -1.000
 4915.00    1.51173   1.54984   -1.000
 4916.00    1.51302   1.55029   -1.000
 4917.00    1.48507   1.53028   -1.000
 4918.00    1.43152   1.48470   -1.000
 4919.00    1.38421   1.43407   -1.000
 4920.00    1.36798   1.39818   -1.000
 4921.00    1.38125   1.39766   -1.000
 4922.00    1.41248   1.42431  174.495
 4923.00    1.43315   1.44957   -1.000
 4924.00    1.44171   1.45984   -1.000
 4925.00    1.45861   1.47258   -1.000
 4926.00    1.48325   1.50002   -1.000
 4927.00    1.50429   1.52968   -1.000
 4928.00    1.52010   1.55071   -1.000
 4929.00    1.52952   1.56571   -1.000
 4930.00    1.53790   1.57364   -1.000
 4931.00    1.53011   1.56882   -1.000
 4932.00    1.50283   1.54717   -1.000
 4933.00    1.46821   1.51369   -1.000
 4934.00    1.45303   1.48867   -1.000
 4935.00    1.46557   1.49127   -1.000
 4936.00    1.47742   1.50397   -1.000
 4937.00    1.46290   1.50020   -1.000
 4938.00    1.44053   1.47796   -1.000
 4939.00    1.43477   1.46357   -1.000
 4940.00    1.46317   1.47734   -1.000
 4941.00    1.50121   1.51159  163.837
 4942.00    1.52077   1.54872   -1.000
 4943.00    1.52918   1.56893   -1.000
 4944.00    1.53285   1.57490   -1.000
 4945.00    1.53039   1.57094   -1.000
 4946.00    1.52601   1.56602   -1.000
 4947.00    1.53063   1.56664   -1.000
 4948.00    1.53934   1.57450   -1.000
 4949.00    1.54769   1.58450   -1.000
 4950.00    1.54942   1.58863   -1.000
 4951.00    1.54760   1.58825   -1.000
 4952.00    1.54337   1.58419   -1.000
 4953.00    1.53871   1.57867   -1.000
 4954.00    1.53477   1.57124   -1.000
 4955.00    1.51430   1.55032   -1.000
 4956.00    1.46635   1.50579   -1.000
 4957.00    1.42227   1.45073   -1.000
 4958.00    1.42813   1.43246  173.613
 4959.00    1.47647   1.46915  172.441
 4960.00    1.52448   1.52387  163.827
 4961.00    1.54586   1.56283   -1.000
 4962.00    1.54697   1.57488   -1.000
 4963.00    1.54182   1.57444   -1.000
 4964.00    1.52975   1.56536   -1.000
 4965.00    1.51209   1.54824   -1.000
 4966.00    1.49812   1.53030   -1.000
 4967.00    1.49592   1.52389   -1.000
 4968.00    1.49828   1.52575   -1.000
 4969.00    1.50371   1.53190   -1.000
 4970.00    1.51338   1.54208   -1.000
 4971.00    1.52298   1.55518   -1.000
 4972.00    1.53607   1.56701   -1.000
 4973.00    1.54804   1.57651   -1.000
 4974.00    1.55492   1.57943   -1.000
 4975.00    1.55386   1.57607   -1.000
 4976.00    1.54258   1.57051   -1.000
 4977.00    1.52958   1.56181   -1.000
 4978.00    1.52040   1.55108   -1.000
 4979.00    1.50840   1.54342   -1.000
 4980.00    1.48852   1.52991   -1.000
 4981.00    1.45646   1.50323   -1.000
 4982.00    1.42473   1.47047   -1.000
 4983.00    1.41162   1.44597   -1.000
 4984.00    1.42274   1.44734   -1.000
 4985.00    1.45093   1.46868   -1.000
 4986.00    1.48378   1.49902   -1.000
 4987.00    1.50712   1.53017   -1.000
 4988.00    1.52160   1.55322   -1.000
 4989.00    1.51598   1.55311   -1.000
 4990.00    1.49940   1.53835   -1.000
 4991.00    1.49615   1.52605   -1.000
 4992.00    1.50511   1.52621   -1.000
 4993.00    1.50879   1.53417   -1.000
 4994.00    1.51091   1.54169   -1.000
 4995.00    1.52076   1.55066   -1.000
 4996.00    1.53168   1.56060   -1.000
 4997.00    1.52852   1.56238   -1.000
 4998.00    1.51513   1.54814   -1.000
 4999.00    1.49936   1.52154   -1.000
 5000.00    1.48424   1.49419  166.434
 5001.00    1.48128   1.48781  168.843
 5002.00    1.48995   1.49610  169.430
 5003.00    1.49522   1.50708  168.213
 5004.00    1.48776   1.50616   -1.000
 5005.00    1.46413   1.48610   -1.000
 5006.00    1.44665   1.46171   -1.000
 5007.00    1.46253   1.46007  174.234
 5008.00    1.49697   1.48917  171.172
 5009.00    1.51930   1.51795  166.140
 5010.00    1.51558   1.52795  163.568
 5011.00    1.49134   1.51578   -1.000
 5012.00    1.45601   1.48907   -1.000
 5013.00    1.42923   1.46305   -1.000
 5014.00    1.42724   1.45106   -1.000
 5015.00    1.44514   1.46052   -1.000
 5016.00    1.46388   1.47485  176.941
 5017.00    1.46683   1.47795  173.155
 5018.00    1.46523   1.46940  171.725
 5019.00    1.47593   1.47137  171.603
 5020.00    1.49356   1.49159  170.132
 5021.00    1.49730   1.50757  168.590
 5022.00    1.49749   1.51303   -1.000
 5023.00    1.50660   1.51826  169.310
 5024.00    1.51573   1.53269   -1.000
 5025.00    1.52352   1.54882   -1.000
 5026.00    1.52302   1.55284   -1.000
 5027.00    1.51880   1.54466   -1.000
 5028.00    1.52118   1.53988   -1.000
 5029.00    1.53620   1.54493  165.958
 5030.00    1.55011   1.55547  163.194
 5031.00    1.56251   1.56786  160.671
 5032.00    1.57424   1.58292  158.140
 5033.00    1.57558   1.59205   -1.000
 5034.00    1.55734   1.58378   -1.000
 5035.00    1.52098   1.55936   -1.000
 5036.00    1.49464   1.53539   -1.000
 5037.00    1.48827   1.52899   -1.000
 5038.00    1.48172   1.52617   -1.000
 5039.00    1.45553   1.50575   -1.000
 5040.00    1.41473   1.46911   -1.000
 5041.00    1.40676   1.44074   -1.000
 5042.00    1.43864   1.45234   -1.000
 5043.00    1.49149   1.49662  180.268
 5044.00    1.54050   1.54896  169.596
 5045.00    1.57266   1.58885   -1.000
 5046.00    1.58515   1.60989   -1.000
 5047.00    1.57106   1.60798   -1.000
 5048.00    1.55727   1.58501   -1.000
 5049.00    1.41388   1.55159   -1.000
 5050.00    1.20109   1.52656   -1.000
 5051.00    0.63759   1.51465   -1.000
 5052.00    0.56104   1.51918   -1.000
 5053.00    1.37516   1.54419   -1.000
 5054.00    1.61326   1.57835   -1.000
 5055.00    1.60099   1.60006  157.941
 5056.00    1.60698   1.60874  156.108
 5057.00    1.60445   1.61217  155.374
 5058.00    1.60264   1.61479  155.473
 5059.00    1.59759   1.61974   -1.000
 5060.00    1.59629   1.62533   -1.000
 5061.00    1.59999   1.63065   -1.000
 5062.00    1.59882   1.62958   -1.000
 5063.00    1.58176   1.61293   -1.000
 5064.00    1.54568   1.58338   -1.000
 5065.00    1.52605   1.55774   -1.000
 5066.00    1.53330   1.55138   -1.000
 5067.00    1.54855   1.55719  167.662
 5068.00    1.55562   1.56245  165.201
 5069.00    1.56414   1.56685  164.177
 5070.00    1.57294   1.57409  163.482
 5071.00    1.57154   1.57794  162.474
 5072.00    1.56155   1.57254  163.187
 5073.00    1.56153   1.56579  164.515
 5074.00    1.56200   1.56602  163.312
 5075.00    1.56877   1.56990  161.815
 5076.00    1.57741   1.57277  161.344
 5077.00    1.56478   1.56907  161.205
 5078.00    1.53051   1.55142   -1.000
 5079.00    1.49157   1.52088   -1.000
 5080.00    1.47677   1.49839   -1.000
 5081.00    1.49233   1.50293  178.129
 5082.00    1.51918   1.51900  175.745
 5083.00    1.53635   1.53150  171.938
 5084.00    1.55707   1.54567  169.289
 5085.00    1.58039   1.56657  166.332
 5086.00    1.59078   1.58379  163.395
 5087.00    1.59506   1.59189  161.820
 5088.00    1.59750   1.59416  161.380
 5089.00    1.59740   1.59826  160.725
 5090.00    1.60422   1.60403  159.643
 5091.00    1.61223   1.60911  158.689
 5092.00    1.61884   1.61760  157.857
 5093.00    1.62615   1.62895  156.285
 5094.00    1.62446   1.63386  154.766
 5095.00    1.61319   1.62669  155.470
 5096.00    1.60290   1.60716  158.288
 5097.00    1.57976   1.58163  161.706
 5098.00    1.54354   1.55769  165.523
 5099.00    1.53481   1.54434  169.143
 5100.00    1.55770   1.55600  170.444
 5101.00    1.59115   1.58178  167.403
 5102.00    1.60838   1.60386  162.673
 5103.00    1.60683   1.60981  160.402
 5104.00    1.59577   1.60519  160.783
 5105.00    1.58372   1.59623  162.633
 5106.00    1.56349   1.58069   -1.000
 5107.00    1.54193   1.55962   -1.000
 5108.00    1.53666   1.54730  168.846
 5109.00    1.54144   1.54512  169.198
 5110.00    1.54889   1.55210  168.293
 5111.00    1.56483   1.56821  167.107
 5112.00    1.58409   1.59132  165.006
 5113.00    1.60397   1.60993  162.879
 5114.00    1.61565   1.62090  160.895
 5115.00    1.62836   1.62754  159.314
 5116.00    1.63401   1.63516  158.318
 5117.00    1.64045   1.64355  156.860
 5118.00    1.64339   1.64784  155.448
 5119.00    1.63780   1.64474  155.459
 5120.00    1.62204   1.63438  157.111
 5121.00    1.59980   1.61772   -1.000
 5122.00    1.57275   1.59612   -1.000
 5123.00    1.54890   1.57219   -1.000
 5124.00    1.53771   1.55551   -1.000
 5125.00    1.54331   1.55410  172.860
 5126.00    1.55321   1.56081  171.972
 5127.00    1.55386   1.56324  170.920
 5128.00    1.55091   1.56082  169.956
 5129.00    1.55485   1.56075  169.872
 5130.00    1.56862   1.56816  169.840
 5131.00    1.58276   1.58260  168.146
 5132.00    1.59280   1.59535  165.419
 5133.00    1.60186   1.60455  163.683
 5134.00    1.61039   1.61229  162.202
 5135.00    1.61249   1.61728  160.739
 5136.00    1.59989   1.61367  160.066
 5137.00    1.57570   1.59594   -1.000
 5138.00    1.55089   1.57025   -1.000
 5139.00    1.53983   1.55610   -1.000
 5140.00    1.54714   1.55809  169.718
 5141.00    1.55227   1.56715  168.612
 5142.00    1.54469   1.56933   -1.000
 5143.00    1.54334   1.56952   -1.000
 5144.00    1.55588   1.57957   -1.000
 5145.00    1.57311   1.59146   -1.000
 5146.00    1.57592   1.58981  167.873
 5147.00    1.57393   1.58336  168.913
 5148.00    1.58101   1.58308  169.669
 5149.00    1.58413   1.58606  168.213
 5150.00    1.57538   1.58287  166.939
 5151.00    1.56145   1.57079  168.230
 5152.00    1.55193   1.56003  171.095
 5153.00    1.56002   1.56017  172.767
 5154.00    1.58059   1.56772  172.388
 5155.00    1.60262   1.58413  169.690
 5156.00    1.62665   1.60839  165.614
 5157.00    1.64742   1.63167  161.386
 5158.00    1.65664   1.64528  158.085
 5159.00    1.65909   1.65036  156.463
 5160.00    1.65375   1.64926  156.166
 5161.00    1.64817   1.64174  156.560
 5162.00    1.63821   1.62894  157.370
 5163.00    1.62567   1.61351  158.921
 5164.00    1.59531   1.59114  161.224
 5165.00    1.52850   1.54413  166.407
 5166.00    1.43870   1.46250   -1.000
 5167.00    1.36720   1.37378  195.878
 5168.00    1.36305   1.34116   -1.000
 5169.00    1.40867   1.37100   -1.000
 5170.00    1.43894   1.41772   -1.000
 5171.00    1.40924   1.41437  196.031
 5172.00    1.36258   1.36977  204.575
 5173.00    1.37351   1.35881  218.634
 5174.00    1.45967   1.41686   -1.000
 5175.00    1.55639   1.51351   -1.000
 5176.00    1.61536   1.58049   -1.000
 5177.00    1.63930   1.60758   -1.000
 5178.00    1.64346   1.61648   -1.000
 5179.00    1.63963   1.61605   -1.000
 5180.00    1.62030   1.60177  166.754
 5181.00    1.56447   1.55808  171.484
 5182.00    1.46700   1.47394  182.186
 5183.00    1.38065   1.39021  201.247
 5184.00    1.37929   1.35889   -1.000
 5185.00    1.46336   1.41637   -1.000
 5186.00    1.55645   1.50914   -1.000
 5187.00    1.59979   1.57038   -1.000
 5188.00    1.61005   1.59151  168.700
 5189.00    1.60787   1.59499  166.338
 5190.00    1.59585   1.59026  165.497
 5191.00    1.56898   1.56922  166.624
 5192.00    1.54517   1.54084  171.017
 5193.00    1.54293   1.53115  176.011
 5194.00    1.56014   1.54531  176.320
 5195.00    1.57849   1.56104  173.627
 5196.00    1.59667   1.57466   -1.000
 5197.00    1.61898   1.59082   -1.000
 5198.00    1.63130   1.60853   -1.000
 5199.00    1.64719   1.62531  162.317
 5200.00    1.65583   1.63553  160.614
 5201.00    1.64964   1.63578  160.168
 5202.00    1.63448   1.62243  161.089
 5203.00    1.60772   1.59596  163.600
 5204.00    1.57106   1.55683  167.165
 5205.00    1.54649   1.52039   -1.000
 5206.00    1.54594   1.50198   -1.000
 5207.00    1.54761   1.50212   -1.000
 5208.00    1.54510   1.50568   -1.000
 5209.00    1.55277   1.51165   -1.000
 5210.00    1.58128   1.53683   -1.000
 5211.00    1.62483   1.58264   -1.000
 5212.00    1.66663   1.62357   -1.000
 5213.00    1.68583   1.64844   -1.000
 5214.00    1.67111   1.64482   -1.000
 5215.00    1.64200   1.62306  157.435
 5216.00    1.62562   1.60230   -1.000
 5217.00    1.62954   1.60289   -1.000
 5218.00    1.65395   1.62714   -1.000
 5219.00    1.68379   1.65563   -1.000
 5220.00    1.70099   1.67600   -1.000
 5221.00    1.70536   1.68479  155.490
 5222.00    1.69799   1.68300  154.730
 5223.00    1.67358   1.66682  156.024
 5224.00    1.62987   1.63361  160.084
 5225.00    1.57632   1.58121  166.278
 5226.00    1.53467   1.52676  173.862
 5227.00    1.53621   1.50498   -1.000
 5228.00    1.58534   1.53655   -1.000
 5229.00    1.64091   1.59494   -1.000
 5230.00    1.67244   1.64086   -1.000
 5231.00    1.67887   1.64763   -1.000
 5232.00    1.66312   1.62743   -1.000
 5233.00    1.64356   1.60064   -1.000
 5234.00    1.64079   1.59380   -1.000
 5235.00    1.65751   1.61552   -1.000
 5236.00    1.68547   1.64870   -1.000
 5237.00    1.70522   1.67791   -1.000
 5238.00    1.71194   1.69126  153.996
 5239.00    1.71759   1.69262   -1.000
 5240.00    1.71995   1.69105   -1.000
 5241.00    1.72047   1.68923   -1.000
 5242.00    1.72240   1.68740   -1.000
 5243.00    1.71798   1.68930   -1.000
 5244.00    1.71820   1.69441   -1.000
 5245.00    1.70985   1.69378  152.491
 5246.00    1.68582   1.67705  154.636
 5247.00    1.66050   1.65108  159.076
 5248.00    1.64895   1.63518  163.179
 5249.00    1.64833   1.63112  164.504
 5250.00    1.63959   1.62861  164.774
 5251.00    1.64334   1.63002  165.627
 5252.00    1.65985   1.64044  165.367
 5253.00    1.67059   1.64856   -1.000
 5254.00    1.67542   1.64986   -1.000
 5255.00    1.68295   1.65195   -1.000
 5256.00    1.70231   1.66588   -1.000
 5257.00    1.73330   1.69310   -1.000
 5258.00    1.74998   1.71315   -1.000
 5259.00    1.74303   1.71597   -1.000
 5260.00    1.71077   1.69844  151.755
 5261.00    1.65896   1.66262  155.203
 5262.00    1.60911   1.61687  161.189
 5263.00    1.57381   1.57555  168.685
 5264.00    1.55445   1.54216  175.178
 5265.00    1.54622   1.52645   -1.000
 5266.00    1.55838   1.52862   -1.000
 5267.00    1.57894   1.54047   -1.000
 5268.00    1.56723   1.53368   -1.000
 5269.00    1.53218   1.49697   -1.000
 5270.00    1.52862   1.47343   -1.000
 5271.00    1.57735   1.50210   -1.000
 5272.00    1.63363   1.57105   -1.000
 5273.00    1.65810   1.61872   -1.000
 5274.00    1.65683   1.62767   -1.000
 5275.00    1.66248   1.62829   -1.000
 5276.00    1.68721   1.64049   -1.000
 5277.00    1.71843   1.67060   -1.000
 5278.00    1.74602   1.70234   -1.000
 5279.00    1.75025   1.71379   -1.000
 5280.00    1.73094   1.70053   -1.000
 5281.00    1.69960   1.67339   -1.000
 5282.00    1.67547   1.64687   -1.000
 5283.00    1.66929   1.62964   -1.000
 5284.00    1.68701   1.63757   -1.000
 5285.00    1.72276   1.67032   -1.000
 5286.00    1.75708   1.71459   -1.000
 5287.00    1.77319   1.74057   -1.000
 5288.00    1.77010   1.74756  149.120
 5289.00    1.77344   1.74991   -1.000
 5290.00    1.77980   1.75103   -1.000
 5291.00    1.78141   1.74992   -1.000
 5292.00    1.77387   1.74593   -1.000
 5293.00    1.76354   1.74148  149.089
 5294.00    1.75187   1.73573  150.375
 5295.00    1.72770   1.72046  152.221
 5296.00    1.68981   1.68954  155.758
 5297.00    1.65952   1.65524  161.292
 5298.00    1.65761   1.63626   -1.000
 5299.00    1.67947   1.64575   -1.000
 5300.00    1.70050   1.66925   -1.000
 5301.00    1.71095   1.68575   -1.000
 5302.00    1.72304   1.69722   -1.000
 5303.00    1.74345   1.71406   -1.000
 5304.00    1.76812   1.73586   -1.000
 5305.00    1.77762   1.75098   -1.000
 5306.00    1.76959   1.74957  148.760
 5307.00    1.76320   1.74165  149.733
 5308.00    1.76674   1.73926   -1.000
 5309.00    1.78149   1.74709   -1.000
 5310.00    1.79502   1.75896   -1.000
 5311.00    1.79866   1.76217   -1.000
 5312.00    1.79751   1.75831   -1.000
 5313.00    1.78907   1.75211   -1.000
 5314.00    1.78229   1.74201   -1.000
 5315.00    1.76790   1.72742   -1.000
 5316.00    1.74528   1.71218   -1.000
 5317.00    1.74025   1.70531   -1.000
 5318.00    1.75345   1.71455   -1.000
 5319.00    1.76900   1.72921   -1.000
 5320.00    1.77092   1.73801   -1.000
 5321.00    1.76214   1.73633   -1.000
 5322.00    1.74789   1.72319   -1.000
 5323.00    1.73097   1.69851   -1.000
 5324.00    1.71968   1.67471   -1.000
 5325.00    1.70954   1.66084   -1.000
 5326.00    1.68126   1.63903   -1.000
 5327.00    1.62567   1.59190   -1.000
 5328.00    1.58523   1.54718   -1.000
 5329.00    1.60940   1.54825   -1.000
 5330.00    1.67496   1.61092   -1.000
 5331.00    1.72603   1.67611   -1.000
 5332.00    1.74397   1.70822   -1.000
 5333.00    1.75174   1.71818   -1.000
 5334.00    1.76510   1.72498   -1.000
 5335.00    1.76903   1.73162   -1.000
 5336.00    1.76436   1.73309   -1.000
 5337.00    1.76117   1.72743   -1.000
 5338.00    1.74781   1.71588   -1.000
 5339.00    1.72675   1.69427   -1.000
 5340.00    1.70790   1.66913   -1.000
 5341.00    1.71196   1.66111   -1.000
 5342.00    1.73930   1.68397   -1.000
 5343.00    1.76597   1.71292   -1.000
 5344.00    1.77078   1.72663   -1.000
 5345.00    1.76298   1.72363   -1.000
 5346.00    1.75780   1.71368   -1.000
 5347.00    1.74812   1.70450   -1.000
 5348.00    1.73689   1.69787   -1.000
 5349.00    1.73727   1.69346   -1.000
 5350.00    1.75320   1.70254   -1.000
 5351.00    1.77547   1.72427   -1.000
 5352.00    1.78965   1.74495   -1.000
 5353.00    1.79662   1.75825   -1.000
 5354.00    1.80755   1.76567   -1.000
 5355.00    1.82064   1.77613   -1.000
 5356.00    1.83167   1.78723   -1.000
 5357.00    1.83480   1.79200   -1.000
 5358.00    1.83069   1.79225   -1.000
 5359.00    1.82681   1.78965   -1.000
 5360.00    1.81777   1.78192   -1.000
 5361.00    1.79798   1.76931   -1.000
 5362.00    1.77794   1.75482   -1.000
 5363.00    1.76419   1.74097   -1.000
 5364.00    1.75237   1.72883   -1.000
 5365.00    1.74793   1.72106   -1.000
 5366.00    1.75135   1.71963   -1.000
 5367.00    1.75403   1.72297   -1.000
 5368.00    1.74961   1.71853   -1.000
 5369.00    1.72466   1.69408   -1.000
 5370.00    1.69254   1.65738   -1.000
 5371.00    1.68319   1.62992   -1.000
 5372.00    1.71579   1.64013   -1.000
 5373.00    1.76802   1.68707   -1.000
 5374.00    1.80588   1.73560   -1.000
 5375.00    1.82391   1.76483   -1.000
 5376.00    1.82696   1.77055   -1.000
 5377.00    1.82419   1.76993   -1.000
 5378.00    1.82087   1.77165   -1.000
 5379.00    1.81149   1.77149   -1.000
 5380.00    1.79750   1.76487   -1.000
 5381.00    1.78752   1.75264   -1.000
 5382.00    1.78156   1.74162   -1.000
 5383.00    1.78375   1.73757   -1.000
 5384.00    1.79530   1.74233   -1.000
 5385.00    1.80963   1.75506   -1.000
 5386.00    1.81884   1.76941   -1.000
 5387.00    1.81784   1.77509   -1.000
 5388.00    1.81113   1.76912   -1.000
 5389.00    1.79608   1.75540   -1.000
 5390.00    1.78186   1.73841   -1.000
 5391.00    1.77762   1.72616   -1.000
 5392.00    1.77199   1.71875   -1.000
 5393.00    1.76230   1.71543   -1.000
 5394.00    1.75187   1.71282   -1.000
 5395.00    1.73743   1.70359   -1.000
 5396.00    1.72080   1.68104   -1.000
 5397.00    1.71610   1.65967   -1.000
 5398.00    1.73442   1.66697   -1.000
 5399.00    1.76506   1.69779   -1.000
 5400.00    1.78691   1.72844   -1.000
 5401.00    1.79081   1.74218   -1.000
 5402.00    1.77882   1.73961   -1.000
 5403.00    1.74835   1.71735   -1.000
 5404.00    1.70655   1.67646   -1.000
 5405.00    1.68409   1.63651   -1.000
 5406.00    1.69728   1.63034   -1.000
 5407.00    1.72784   1.65905   -1.000
 5408.00    1.74208   1.68633   -1.000
 5409.00    1.73692   1.69264   -1.000
 5410.00    1.73708   1.68674   -1.000
 5411.00    1.76254   1.70002   -1.000
 5412.00    1.79454   1.73078   -1.000
 5413.00    1.80899   1.74915   -1.000
 5414.00    1.80165   1.75195   -1.000
 5415.00    1.79773   1.75096   -1.000
 5416.00    1.80351   1.75831   -1.000
 5417.00    1.81149   1.77216   -1.000
 5418.00    1.81193   1.77789   -1.000
 5419.00    1.80734   1.77475   -1.000
 5420.00    1.80402   1.77107   -1.000
 5421.00    1.80582   1.76770   -1.000
 5422.00    1.80109   1.76269   -1.000
 5423.00    1.78682   1.75310   -1.000
 5424.00    1.77839   1.74214   -1.000
 5425.00    1.78627   1.74718   -1.000
 5426.00    1.80160   1.76769   -1.000
 5427.00    1.80588   1.78140   -1.000
 5428.00    1.78237   1.76454  151.928
 5429.00    1.75200   1.72439   -1.000
 5430.00    1.74753   1.70400   -1.000
 5431.00    1.76399   1.71286   -1.000
 5432.00    1.77136   1.72732   -1.000
 5433.00    1.75736   1.72208   -1.000
 5434.00    1.73713   1.69987   -1.000
 5435.00    1.73970   1.69398   -1.000
 5436.00    1.76777   1.71400   -1.000
 5437.00    1.80334   1.74801   -1.000
 5438.00    1.83600   1.78128   -1.000
 5439.00    1.85298   1.80193   -1.000
 5440.00    1.85909   1.81233   -1.000
 5441.00    1.86232   1.81741   -1.000
 5442.00    1.85802   1.81967   -1.000
 5443.00    1.84243   1.81499   -1.000
 5444.00    1.80843   1.79332  148.852
 5445.00    1.76314   1.75122  152.127
 5446.00    1.72971   1.70236   -1.000
 5447.00    1.73270   1.68251   -1.000
 5448.00    1.77164   1.70280   -1.000
 5449.00    1.81591   1.74602   -1.000
 5450.00    1.84000   1.78070   -1.000
 5451.00    1.84399   1.79133   -1.000
 5452.00    1.83472   1.78631   -1.000
 5453.00    1.81116   1.76748   -1.000
 5454.00    1.77241   1.73384   -1.000
 5455.00    1.74662   1.69796   -1.000
 5456.00    1.76082   1.69135   -1.000
 5457.00    1.80286   1.72406   -1.000
 5458.00    1.83675   1.77388   -1.000
 5459.00    1.84566   1.80012   -1.000
 5460.00    1.83951   1.80060   -1.000
 5461.00    1.82287   1.78574   -1.000
 5462.00    1.80497   1.76530   -1.000
 5463.00    1.79850   1.75097   -1.000
 5464.00    1.80981   1.75337   -1.000
 5465.00    1.82523   1.76831   -1.000
 5466.00    1.83545   1.78164   -1.000
 5467.00    1.84246   1.78982   -1.000
 5468.00    1.84655   1.79416   -1.000
 5469.00    1.84668   1.79584   -1.000
 5470.00    1.84383   1.79423   -1.000
 5471.00    1.83993   1.78731   -1.000
 5472.00    1.83365   1.77926   -1.000
 5473.00    1.82303   1.77215   -1.000
 5474.00    1.80364   1.75977   -1.000
 5475.00    1.77487   1.73654   -1.000
 5476.00    1.75263   1.70986   -1.000
 5477.00    1.75510   1.69895   -1.000
 5478.00    1.78701   1.72318   -1.000
 5479.00    1.81706   1.75669   -1.000
 5480.00    1.81711   1.77003   -1.000
 5481.00    1.80693   1.76362   -1.000
 5482.00    1.80651   1.75602   -1.000
 5483.00    1.81930   1.76560   -1.000
 5484.00    1.83832   1.78735   -1.000
 5485.00    1.84831   1.80317   -1.000
 5486.00    1.84339   1.80370   -1.000
 5487.00    1.82549   1.79149   -1.000
 5488.00    1.81221   1.78055   -1.000
 5489.00    1.81536   1.77688   -1.000
 5490.00    1.82433   1.78338   -1.000
 5491.00    1.83418   1.79188   -1.000
 5492.00    1.84239   1.79727   -1.000
 5493.00    1.84658   1.79804   -1.000
 5494.00    1.84751   1.79617   -1.000
 5495.00    1.84038   1.79215   -1.000
 5496.00    1.82947   1.78250   -1.000
 5497.00    1.82263   1.77009   -1.000
 5498.00    1.82909   1.77003   -1.000
 5499.00    1.84395   1.78109   -1.000
 5500.00    1.84106   1.78263   -1.000
 5501.00    1.82537   1.77032   -1.000
 5502.00    1.82149   1.75727   -1.000
 5503.00    1.83301   1.76017   -1.000
 5504.00    1.83905   1.76999   -1.000
 5505.00    1.82935   1.76452   -1.000
 5506.00    1.81080   1.74999   -1.000
 5507.00    1.80913   1.74545   -1.000
 5508.00    1.82551   1.75937   -1.000
 5509.00    1.83787   1.78242   -1.000
 5510.00    1.83559   1.78823   -1.000
 5511.00    1.82233   1.77623   -1.000
 5512.00    1.80263   1.75966   -1.000
 5513.00    1.79283   1.74817   -1.000
 5514.00    1.80434   1.74851   -1.000
 5515.00    1.83033   1.75820   -1.000
 5516.00    1.85527   1.77421   -1.000
 5517.00    1.87549   1.79246   -1.000
 5518.00    1.89225   1.81050   -1.000
 5519.00    1.89817   1.82258   -1.000
 5520.00    1.89393   1.82561   -1.000
 5521.00    1.88524   1.82230   -1.000
 5522.00    1.87591   1.82201   -1.000
 5523.00    1.87355   1.82364   -1.000
 5524.00    1.86891   1.82141   -1.000
 5525.00    1.85103   1.80877   -1.000
 5526.00    1.82322   1.78003   -1.000
 5527.00    1.79269   1.74679   -1.000
 5528.00    1.78266   1.72536   -1.000
 5529.00    1.80419   1.73618   -1.000
 5530.00    1.83766   1.77056   -1.000
 5531.00    1.85901   1.80284   -1.000
 5532.00    1.86343   1.81263   -1.000
 5533.00    1.85609   1.80456   -1.000
 5534.00    1.84514   1.79322   -1.000
 5535.00    1.84104   1.78828   -1.000
 5536.00    1.84848   1.79465   -1.000
 5537.00    1.86237   1.80499   -1.000
 5538.00    1.87639   1.81462   -1.000
 5539.00    1.88367   1.82284   -1.000
 5540.00    1.88617   1.83046   -1.000
 5541.00    1.88675   1.83466   -1.000
 5542.00    1.88000   1.83157   -1.000
 5543.00    1.86910   1.82251   -1.000
 5544.00    1.86165   1.81659   -1.000
 5545.00    1.86223   1.81678   -1.000
 5546.00    1.87053   1.82013   -1.000
 5547.00    1.88177   1.82534   -1.000
 5548.00    1.89493   1.83585   -1.000
 5549.00    1.90544   1.84770   -1.000
 5550.00    1.91053   1.85302   -1.000
 5551.00    1.90963   1.85128   -1.000
 5552.00    1.89848   1.84463   -1.000
 5553.00    1.88395   1.83702   -1.000
 5554.00    1.87847   1.83087   -1.000
 5555.00    1.88199   1.82967   -1.000
 5556.00    1.89057   1.83103   -1.000
 5557.00    1.89677   1.83361   -1.000
 5558.00    1.89860   1.83486   -1.000
 5559.00    1.90234   1.83651   -1.000
 5560.00    1.90215   1.83832   -1.000
 5561.00    1.89312   1.83506   -1.000
 5562.00    1.87840   1.82657   -1.000
 5563.00    1.86730   1.81979   -1.000
 5564.00    1.86333   1.81763   -1.000
 5565.00    1.86114   1.81715   -1.000
 5566.00    1.86130   1.81322   -1.000
 5567.00    1.86381   1.80809   -1.000
 5568.00    1.86251   1.80472   -1.000
 5569.00    1.85683   1.80249   -1.000
 5570.00    1.85629   1.80415   -1.000
 5571.00    1.85685   1.80300   -1.000
 5572.00    1.85146   1.79621   -1.000
 5573.00    1.85224   1.79480   -1.000
 5574.00    1.86010   1.80096   -1.000
 5575.00    1.86131   1.81337   -1.000
 5576.00    1.83735   1.82287  155.238
 5577.00    1.79076   1.82703   -1.000
 5578.00    1.76706   1.83241   -1.000
 5579.00    1.79381   1.83926   -1.000
 5580.00    1.85260   1.84207  156.226
 5581.00    1.89573   1.83882   -1.000
 5582.00    1.89349   1.83454   -1.000
 5583.00    1.88507   1.83384   -1.000
 5584.00    1.87934   1.83135   -1.000
 5585.00    1.85663   1.81297   -1.000
 5586.00    1.82173   1.77882   -1.000
 5587.00    1.78821   1.74498   -1.000
 5588.00    1.77607   1.72872   -1.000
 5589.00    1.78953   1.73538   -1.000
 5590.00    1.81606   1.75562   -1.000
 5591.00    1.84019   1.78049   -1.000
 5592.00    1.84711   1.79388   -1.000
 5593.00    1.84296   1.79633   -1.000
 5594.00    1.84185   1.79669   -1.000
 5595.00    1.85473   1.80735   -1.000
 5596.00    1.86765   1.82306   -1.000
 5597.00    1.86477   1.82130   -1.000
 5598.00    1.84972   1.80568   -1.000
 5599.00    1.84192   1.79194   -1.000
 5600.00    1.83739   1.78267   -1.000
 5601.00    1.82630   1.77205   -1.000
 5602.00    1.82244   1.76792   -1.000
 5603.00    1.83960   1.78184   -1.000
 5604.00    1.87377   1.81290   -1.000
 5605.00    1.90551   1.84576   -1.000
 5606.00    1.92759   1.86657   -1.000
 5607.00    1.93980   1.87528   -1.000
 5608.00    1.94012   1.87662   -1.000
 5609.00    1.93638   1.87581   -1.000
 5610.00    1.93392   1.87807   -1.000
 5611.00    1.93338   1.88200   -1.000
 5612.00    1.92770   1.87874   -1.000
 5613.00    1.90291   1.85933   -1.000
 5614.00    1.86371   1.82037   -1.000
 5615.00    1.83439   1.78055   -1.000
 5616.00    1.83747   1.77359   -1.000
 5617.00    1.86885   1.79646   -1.000
 5618.00    1.89742   1.82720   -1.000
 5619.00    1.90912   1.84094   -1.000
 5620.00    1.91452   1.84508   -1.000
 5621.00    1.91621   1.85040   -1.000
 5622.00    1.90575   1.85198   -1.000
 5623.00    1.88591   1.84050   -1.000
 5624.00    1.87271   1.82304   -1.000
 5625.00    1.87344   1.81271   -1.000
 5626.00    1.89153   1.82113   -1.000
 5627.00    1.91296   1.83797   -1.000
 5628.00    1.92996   1.85128   -1.000
 5629.00    1.94275   1.86283   -1.000
 5630.00    1.95059   1.87092   -1.000
 5631.00    1.95043   1.87349   -1.000
 5632.00    1.94620   1.87114   -1.000
 5633.00    1.93663   1.86594   -1.000
 5634.00    1.92977   1.86114   -1.000
 5635.00    1.92441   1.85444   -1.000
 5636.00    1.91737   1.84561   -1.000
 5637.00    1.90781   1.83884   -1.000
 5638.00    1.90354   1.83779   -1.000
 5639.00    1.90244   1.83940   -1.000
 5640.00    1.90075   1.83811   -1.000
 5641.00    1.90265   1.83329   -1.000
 5642.00    1.90773   1.83189   -1.000
 5643.00    1.91022   1.83847   -1.000
 5644.00    1.91393   1.84532   -1.000
 5645.00    1.91963   1.84903   -1.000
 5646.00    1.92617   1.85190   -1.000
 5647.00    1.93240   1.85330   -1.000
 5648.00    1.93473   1.85338   -1.000
 5649.00    1.93115   1.85277   -1.000
 5650.00    1.92970   1.85316   -1.000
 5651.00    1.93318   1.85812   -1.000
 5652.00    1.93544   1.86425   -1.000
 5653.00    1.93446   1.86426   -1.000
 5654.00    1.92214   1.85859   -1.000
 5655.00    1.90331   1.85061   -1.000
 5656.00    1.88043   1.83392   -1.000
 5657.00    1.84878   1.80523   -1.000
 5658.00    1.82728   1.78164   -1.000
 5659.00    1.83680   1.78008   -1.000
 5660.00    1.86431   1.80069   -1.000
 5661.00    1.87982   1.81921   -1.000
 5662.00    1.88216   1.82075   -1.000
 5663.00    1.88935   1.82831   -1.000
 5664.00    1.90716   1.84857   -1.000
 5665.00    1.92285   1.86168   -1.000
 5666.00    1.91921   1.85848   -1.000
 5667.00    1.90679   1.84507   -1.000
 5668.00    1.90288   1.83644   -1.000
 5669.00    1.90461   1.83912   -1.000
 5670.00    1.91316   1.84695   -1.000
 5671.00    1.92919   1.85673   -1.000
 5672.00    1.94225   1.86811   -1.000
 5673.00    1.94635   1.87800   -1.000
 5674.00    1.94658   1.88177   -1.000
 5675.00    1.94410   1.88156   -1.000
 5676.00    1.94568   1.88159   -1.000
 5677.00    1.95019   1.88361   -1.000
 5678.00    1.94868   1.88369   -1.000
 5679.00    1.94203   1.87885   -1.000
 5680.00    1.93771   1.87078   -1.000
 5681.00    1.92936   1.85930   -1.000
 5682.00    1.91756   1.84480   -1.000
 5683.00    1.90853   1.83344   -1.000
 5684.00    1.90274   1.83540   -1.000
 5685.00    1.90753   1.84396   -1.000
 5686.00    1.91063   1.84770   -1.000
 5687.00    1.90079   1.84470   -1.000
 5688.00    1.89930   1.84109   -1.000
 5689.00    1.90918   1.84341   -1.000
 5690.00    1.92536   1.85343   -1.000
 5691.00    1.94122   1.86776   -1.000
 5692.00    1.95036   1.87993   -1.000
 5693.00    1.95203   1.88571   -1.000
 5694.00    1.94825   1.88617   -1.000
 5695.00    1.94838   1.88583   -1.000
 5696.00    1.94876   1.88455   -1.000
 5697.00    1.94280   1.88017   -1.000
 5698.00    1.93281   1.87158   -1.000
 5699.00    1.92077   1.86133   -1.000
 5700.00    1.90671   1.85119   -1.000
 5701.00    1.89647   1.84264   -1.000
 5702.00    1.89714   1.84200   -1.000
 5703.00    1.90683   1.85211   -1.000
 5704.00    1.90996   1.86113   -1.000
 5705.00    1.89813   1.86111   -1.000
 5706.00    1.87973   1.85101   -1.000
 5707.00    1.85824   1.83375   -1.000
 5708.00    1.83802   1.81688   -1.000
 5709.00    1.82872   1.80284   -1.000
 5710.00    1.82956   1.79702   -1.000
 5711.00    1.84547   1.80399   -1.000
 5712.00    1.87930   1.82238   -1.000
 5713.00    1.91043   1.84639   -1.000
 5714.00    1.92956   1.86587   -1.000
 5715.00    1.94221   1.87505   -1.000
 5716.00    1.94934   1.88129   -1.000
 5717.00    1.95174   1.88701   -1.000
 5718.00    1.95619   1.89176   -1.000
 5719.00    1.96344   1.89729   -1.000
 5720.00    1.96975   1.90353   -1.000
 5721.00    1.97248   1.90872   -1.000
 5722.00    1.97476   1.91193   -1.000
 5723.00    1.97710   1.91440   -1.000
 5724.00    1.97687   1.91450   -1.000
 5725.00    1.96882   1.90767   -1.000
 5726.00    1.95772   1.89398   -1.000
 5727.00    1.95277   1.88372   -1.000
 5728.00    1.95633   1.88495   -1.000
 5729.00    1.95545   1.89172   -1.000
 5730.00    1.95015   1.89404   -1.000
 5731.00    1.95107   1.89232   -1.000
 5732.00    1.96039   1.89196   -1.000
 5733.00    1.97202   1.89885   -1.000
 5734.00    1.97820   1.91074   -1.000
 5735.00    1.97720   1.91485   -1.000
 5736.00    1.97160   1.91321   -1.000
 5737.00    1.97154   1.91199   -1.000
 5738.00    1.97588   1.91048   -1.000
 5739.00    1.97350   1.91100   -1.000
 5740.00    1.96807   1.91155   -1.000
 5741.00    1.96757   1.91079   -1.000
 5742.00    1.96344   1.90795   -1.000
 5743.00    1.96344   1.90797   -1.000
 5744.00    1.97260   1.91404   -1.000
 5745.00    1.97408   1.92079   -1.000
 5746.00    1.96670   1.92033   -1.000
 5747.00    1.95805   1.91114   -1.000
 5748.00    1.95255   1.90449   -1.000
 5749.00    1.95734   1.90922   -1.000
 5750.00    1.96489   1.91526   -1.000
 5751.00    1.95933   1.91315   -1.000
 5752.00    1.94296   1.89822   -1.000
 5753.00    1.92824   1.88074   -1.000
 5754.00    1.92710   1.87749   -1.000
 5755.00    1.94365   1.89122   -1.000
 5756.00    1.96879   1.91328   -1.000
 5757.00    1.98396   1.92851   -1.000
 5758.00    1.98370   1.93464   -1.000
 5759.00    1.98034   1.92911   -1.000
 5760.00    1.97086   1.91429   -1.000
 5761.00    1.95360   1.89647   -1.000
 5762.00    1.94445   1.88556   -1.000
 5763.00    1.95121   1.89042   -1.000
 5764.00    1.96751   1.91212   -1.000
 5765.00    1.98038   1.93337   -1.000
 5766.00    1.98507   1.94076   -1.000
 5767.00    1.98797   1.94153   -1.000
 5768.00    1.99188   1.93959   -1.000
 5769.00    1.98921   1.93779   -1.000
 5770.00    1.98206   1.93506   -1.000
 5771.00    1.97689   1.93154   -1.000
 5772.00    1.97318   1.92736   -1.000
 5773.00    1.96772   1.92251   -1.000
 5774.00    1.96142   1.91755   -1.000
 5775.00    1.96099   1.91421   -1.000
 5776.00    1.96677   1.91689   -1.000
 5777.00    1.96453   1.91984   -1.000
 5778.00    1.94933   1.91534   -1.000
 5779.00    1.91729   1.90303  152.698
 5780.00    1.87138   1.88484  154.290
 5781.00    1.83809   1.86863   -1.000
 5782.00    1.83589   1.86049   -1.000
 5783.00    1.85811   1.86282  160.627
 5784.00    1.88641   1.86648   -1.000
 5785.00    1.91251   1.86947   -1.000
 5786.00    1.93652   1.87763   -1.000
 5787.00    1.95383   1.89057   -1.000
 5788.00    1.96273   1.90239   -1.000
 5789.00    1.96415   1.91006   -1.000
 5790.00    1.96070   1.90992   -1.000
 5791.00    1.95886   1.90724   -1.000
 5792.00    1.96466   1.91088   -1.000
 5793.00    1.97339   1.92315   -1.000
 5794.00    1.97880   1.93697   -1.000
 5795.00    1.97589   1.94447   -1.000
 5796.00    1.96228   1.94088   -1.000
 5797.00    1.94573   1.92951  151.438
 5798.00    1.94498   1.92411   -1.000
 5799.00    1.96061   1.93231   -1.000
 5800.00    1.98156   1.94783   -1.000
 5801.00    1.99826   1.95818   -1.000
 5802.00    2.00245   1.95918   -1.000
 5803.00    1.99826   1.95181   -1.000
 5804.00    1.99097   1.94118   -1.000
 5805.00    1.98649   1.93595   -1.000
 5806.00    1.98997   1.93682   -1.000
 5807.00    1.99241   1.94284   -1.000
 5808.00    1.99397   1.94777   -1.000
 5809.00    2.00148   1.94985   -1.000
 5810.00    2.00550   1.95254   -1.000
 5811.00    2.00510   1.95584   -1.000
 5812.00    2.00794   1.95698   -1.000
 5813.00    2.01121   1.95416   -1.000
 5814.00    2.00770   1.94639   -1.000
 5815.00    2.00197   1.93662   -1.000
 5816.00    2.00247   1.93193   -1.000
 5817.00    2.01070   1.93913   -1.000
 5818.00    2.02435   1.95199   -1.000
 5819.00    2.03217   1.96198   -1.000
 5820.00    2.03061   1.96480   -1.000
 5821.00    2.03118   1.96433   -1.000
 5822.00    2.03282   1.96374   -1.000
 5823.00    2.03234   1.96261   -1.000
 5824.00    2.03233   1.96238   -1.000
 5825.00    2.03553   1.96239   -1.000
 5826.00    2.03402   1.96444   -1.000
 5827.00    2.03091   1.96753   -1.000
 5828.00    2.03577   1.97140   -1.000
 5829.00    2.03973   1.97545   -1.000
 5830.00    2.04075   1.97548   -1.000
 5831.00    2.04068   1.97302   -1.000
 5832.00    2.04048   1.97008   -1.000
 5833.00    2.03689   1.96572   -1.000
 5834.00    2.03105   1.96099   -1.000
 5835.00    2.02981   1.95846   -1.000
 5836.00    2.03347   1.96093   -1.000
 5837.00    2.03649   1.96357   -1.000
 5838.00    2.03422   1.96576   -1.000
 5839.00    2.03498   1.97008   -1.000
 5840.00    2.04199   1.97544   -1.000
 5841.00    2.04334   1.97948   -1.000
 5842.00    2.03815   1.97962   -1.000
 5843.00    2.03396   1.97459   -1.000
 5844.00    2.03063   1.96770   -1.000
 5845.00    2.02451   1.96161   -1.000
 5846.00    2.02001   1.95613   -1.000
 5847.00    2.01750   1.95188   -1.000
 5848.00    2.01930   1.95084   -1.000
 5849.00    2.02241   1.95187   -1.000
 5850.00    2.01596   1.95109   -1.000
 5851.00    2.00191   1.94333   -1.000
 5852.00    1.99183   1.92887   -1.000
 5853.00    1.98959   1.91703   -1.000
 5854.00    1.98723   1.91561   -1.000
 5855.00    1.98433   1.91605   -1.000
 5856.00    1.97704   1.90456   -1.000
 5857.00    1.96372   1.88650   -1.000
 5858.00    1.96557   1.88066   -1.000
 5859.00    1.98664   1.89433   -1.000
 5860.00    2.00497   1.91649   -1.000
 5861.00    2.01133   1.92946   -1.000
 5862.00    2.01446   1.93492   -1.000
 5863.00    2.01907   1.93709   -1.000
 5864.00    2.01914   1.93804   -1.000
 5865.00    2.01323   1.93488   -1.000
 5866.00    2.00585   1.92726   -1.000
 5867.00    2.01045   1.92467   -1.000
 5868.00    2.02643   1.93445   -1.000
 5869.00    2.03650   1.94809   -1.000
 5870.00    2.03924   1.95755   -1.000
 5871.00    2.03879   1.95903   -1.000
 5872.00    2.03957   1.95474   -1.000
 5873.00    2.04131   1.95011   -1.000
 5874.00    2.04194   1.94718   -1.000
 5875.00    2.03887   1.94487   -1.000
 5876.00    2.03565   1.94233   -1.000
 5877.00    2.03370   1.93824   -1.000
 5878.00    2.02575   1.93059   -1.000
 5879.00    2.02024   1.92142   -1.000
 5880.00    2.02025   1.91585   -1.000
 5881.00    2.01733   1.91504   -1.000
 5882.00    2.01142   1.91591   -1.000
 5883.00    2.00900   1.91191   -1.000
 5884.00    2.00779   1.90446   -1.000
 5885.00    2.00146   1.89834   -1.000
 5886.00    1.97495   1.88622   -1.000
 5887.00    1.90773   1.84778   -1.000
 5888.00    1.78170   1.76718  160.299
 5889.00    1.60818   1.67053   -1.000
 5890.00    1.46321   1.62740   -1.000
 5891.00    1.44694   1.66017   -1.000
 5892.00    1.56727   1.73206   -1.000
 5893.00    1.70779   1.76954   -1.000
 5894.00    1.74095   1.75271  172.914
 5895.00    1.65977   1.70527   -1.000
 5896.00    1.56527   1.68385   -1.000
 5897.00    1.56135   1.72610   -1.000
 5898.00    1.67340   1.78765   -1.000
 5899.00    1.82435   1.83512  169.170
 5900.00    1.92876   1.86604   -1.000
 5901.00    1.97493   1.88836   -1.000
 5902.00    1.99020   1.90285   -1.000
 5903.00    1.99701   1.91120   -1.000
 5904.00    2.00800   1.91492   -1.000
 5905.00    2.01612   1.91614   -1.000
 5906.00    2.01638   1.91791   -1.000
 5907.00    2.02085   1.92111   -1.000
 5908.00    2.02335   1.92526   -1.000
 5909.00    2.01999   1.92955   -1.000
 5910.00    2.01426   1.93323   -1.000
 5911.00    2.00862   1.93352   -1.000
 5912.00    2.00363   1.92712   -1.000
 5913.00    1.99138   1.91355   -1.000
 5914.00    1.98097   1.89830   -1.000
 5915.00    1.97766   1.89097   -1.000
 5916.00    1.98197   1.89461   -1.000
 5917.00    1.99413   1.90304   -1.000
 5918.00    2.00395   1.91374   -1.000
 5919.00    2.00734   1.92212   -1.000
 5920.00    2.00291   1.92658   -1.000
 5921.00    1.99858   1.92750   -1.000
 5922.00    2.00353   1.92680   -1.000
 5923.00    2.00800   1.92675   -1.000
 5924.00    2.00910   1.93239   -1.000
 5925.00    2.01037   1.94105   -1.000
 5926.00    2.01135   1.94624   -1.000
 5927.00    2.01202   1.94502   -1.000
 5928.00    2.00941   1.93578   -1.000
 5929.00    2.00668   1.92520   -1.000
 5930.00    2.00733   1.92230   -1.000
 5931.00    2.01212   1.93011   -1.000
 5932.00    2.01584   1.93807   -1.000
 5933.00    2.01141   1.93914   -1.000
 5934.00    2.00885   1.93312   -1.000
 5935.00    2.01175   1.92883   -1.000
 5936.00    2.01520   1.93431   -1.000
 5937.00    2.02358   1.94316   -1.000
 5938.00    2.02819   1.94613   -1.000
 5939.00    2.02337   1.94147   -1.000
 5940.00    2.01435   1.93188   -1.000
 5941.00    2.00595   1.92420   -1.000
 5942.00    2.00170   1.92171   -1.000
 5943.00    2.00156   1.92647   -1.000
 5944.00    2.00545   1.93574   -1.000
 5945.00    2.00850   1.94285   -1.000
 5946.00    2.00719   1.94361   -1.000
 5947.00    1.99703   1.93751   -1.000
 5948.00    1.98667   1.92923   -1.000
 5949.00    1.98858   1.92964   -1.000
 5950.00    1.99867   1.93760   -1.000
 5951.00    2.00036   1.94050   -1.000
 5952.00    1.99760   1.93850   -1.000
 5953.00    2.00183   1.93565   -1.000
 5954.00    2.00495   1.93549   -1.000
 5955.00    2.00787   1.93507   -1.000
 5956.00    2.00720   1.93076   -1.000
 5957.00    2.00523   1.92756   -1.000
 5958.00    2.00932   1.93273   -1.000
 5959.00    2.01651   1.94435   -1.000
 5960.00    2.02718   1.95585   -1.000
 5961.00    2.03745   1.96347   -1.000
 5962.00    2.04010   1.96549   -1.000
 5963.00    2.03416   1.96328   -1.000
 5964.00    2.03073   1.95760   -1.000
 5965.00    2.03292   1.95064   -1.000
 5966.00    2.03236   1.94754   -1.000
 5967.00    2.03011   1.95150   -1.000
 5968.00    2.02995   1.95737   -1.000
 5969.00    2.03122   1.96227   -1.000
 5970.00    2.03165   1.96675   -1.000
 5971.00    2.03312   1.96954   -1.000
 5972.00    2.03673   1.96907   -1.000
 5973.00    2.03483   1.96670   -1.000
 5974.00    2.02144   1.96265   -1.000
 5975.00    2.00751   1.95322   -1.000
 5976.00    2.00116   1.94259   -1.000
 5977.00    1.99794   1.93819   -1.000
 5978.00    1.99984   1.94045   -1.000
 5979.00    2.01093   1.94981   -1.000
 5980.00    2.02570   1.95924   -1.000
 5981.00    2.02777   1.96251   -1.000
 5982.00    2.01336   1.95433   -1.000
 5983.00    1.99812   1.93996   -1.000
 5984.00    1.99250   1.92962   -1.000
 5985.00    1.99774   1.93190   -1.000
 5986.00    2.00782   1.94284   -1.000
 5987.00    2.01906   1.95184   -1.000
 5988.00    2.02674   1.95891   -1.000
 5989.00    2.02526   1.96334   -1.000
 5990.00    2.02106   1.96256   -1.000
 5991.00    2.01900   1.96085   -1.000
 5992.00    2.02102   1.96584   -1.000
 5993.00    2.02865   1.97727   -1.000
 5994.00    2.03503   1.98636   -1.000
 5995.00    2.03311   1.98506   -1.000
 5996.00    2.02895   1.97515   -1.000
 5997.00    2.02292   1.96559   -1.000
 5998.00    2.01900   1.96245   -1.000
 5999.00    2.02401   1.96699   -1.000
 6000.00    2.02762   1.97053   -1.000
 6001.00    2.02541   1.96940   -1.000
 6002.00    2.01928   1.96517   -1.000
 6003.00    2.01258   1.96148   -1.000
 6004.00    2.01104   1.96340   -1.000
 6005.00    2.00766   1.96241   -1.000
 6006.00    1.99772   1.95242   -1.000
 6007.00    1.99012   1.94040   -1.000
 6008.00    1.98907   1.93640   -1.000
 6009.00    1.99690   1.94823   -1.000
 6010.00    2.00686   1.96498   -1.000
 6011.00    2.00801   1.96924   -1.000
 6012.00    2.00126   1.96402   -1.000
 6013.00    2.00082   1.95862   -1.000
 6014.00    2.00724   1.96023   -1.000
 6015.00    2.01270   1.96405   -1.000
 6016.00    2.01549   1.96211   -1.000
 6017.00    2.01524   1.96010   -1.000
 6018.00    2.01257   1.95953   -1.000
 6019.00    2.00600   1.95473   -1.000
 6020.00    1.99857   1.94904   -1.000
 6021.00    1.99650   1.94842   -1.000
 6022.00    1.99845   1.95073   -1.000
 6023.00    2.00356   1.95513   -1.000
 6024.00    2.01056   1.96259   -1.000
 6025.00    2.01448   1.97177   -1.000
 6026.00    2.02055   1.97880   -1.000
 6027.00    2.02549   1.98311   -1.000
 6028.00    2.02916   1.98793   -1.000
 6029.00    2.03483   1.99235   -1.000
 6030.00    2.04043   1.99436   -1.000
 6031.00    2.04572   1.99671   -1.000
 6032.00    2.04927   1.99960   -1.000
 6033.00    2.05260   2.00394   -1.000
 6034.00    2.05429   2.01108   -1.000
 6035.00    2.05290   2.01654   -1.000
 6036.00    2.05008   2.01584   -1.000
 6037.00    2.04517   2.00930   -1.000
 6038.00    2.03799   2.00055   -1.000
 6039.00    2.03478   1.99238   -1.000
 6040.00    2.03724   1.98773   -1.000
 6041.00    2.04033   1.99011   -1.000
 6042.00    2.04356   1.99262   -1.000
 6043.00    2.04736   1.99489   -1.000
 6044.00    2.05069   2.00387   -1.000
 6045.00    2.05257   2.01224   -1.000
 6046.00    2.05491   2.01633   -1.000
 6047.00    2.05582   2.01751   -1.000
 6048.00    2.05072   2.01802   -1.000
 6049.00    2.04969   2.01648   -1.000
 6050.00    2.05732   2.01448   -1.000
 6051.00    2.05957   2.01091   -1.000
 6052.00    2.05413   2.00536   -1.000
 6053.00    2.05029   2.00068   -1.000
 6054.00    2.04796   1.99523   -1.000
 6055.00    2.04335   1.98939   -1.000
 6056.00    2.04207   1.98632   -1.000
 6057.00    2.04728   1.98832   -1.000
 6058.00    2.05095   1.99218   -1.000
 6059.00    2.05144   1.99709   -1.000
 6060.00    2.04913   2.00097   -1.000
 6061.00    2.04190   1.99979   -1.000
 6062.00    2.03328   1.99134   -1.000
 6063.00    2.02499   1.97513   -1.000
 6064.00    2.02362   1.95912   -1.000
 6065.00    2.01553   1.95377   -1.000
 6066.00    2.00617   1.96485   -1.000
 6067.00    2.08203   1.98630   -1.000
 6068.00    1.89590   2.00449   -1.000
 6069.00    1.02055   2.01278   -1.000
 6070.00    0.74920   2.01717   -1.000
 6071.00    1.59476   2.02022   -1.000
 6072.00    2.05616   2.02248   -1.000
 6073.00    2.05268   2.02377   -1.000
 6074.00    2.07477   2.02233   -1.000
 6075.00    2.06887   2.01750   -1.000
 6076.00    2.04942   2.00910   -1.000
 6077.00    2.04220   1.99991   -1.000
 6078.00    2.03000   1.99321   -1.000
 6079.00    2.02366   1.99080   -1.000
 6080.00    2.02578   1.98964   -1.000
 6081.00    2.02510   1.98662   -1.000
 6082.00    2.02025   1.98298   -1.000
 6083.00    2.02132   1.98288   -1.000
 6084.00    2.02340   1.98472   -1.000
 6085.00    2.02240   1.98741   -1.000
 6086.00    2.02336   1.99205   -1.000
 6087.00    2.02548   1.99726   -1.000
 6088.00    2.02751   1.99952   -1.000
 6089.00    2.02131   1.99548   -1.000
 6090.00    2.01500   1.98762   -1.000
 6091.00    2.01661   1.98316   -1.000
 6092.00    2.02188   1.98528   -1.000
 6093.00    2.02940   1.99252   -1.000
 6094.00    2.03798   2.00162   -1.000
 6095.00    2.04019   2.00863   -1.000
 6096.00    2.03896   2.01172   -1.000
 6097.00    2.04095   2.01428   -1.000
 6098.00    2.04303   2.01720   -1.000
 6099.00    2.03911   2.01467   -1.000
 6100.00    2.01738   2.00027   -1.000
 6101.00    1.98475   1.97277  156.682
 6102.00    1.96463   1.94467   -1.000
 6103.00    1.97176   1.94087   -1.000
 6104.00    1.99764   1.95930   -1.000
 6105.00    2.02132   1.98379   -1.000
 6106.00    2.03043   1.99798   -1.000
 6107.00    2.02650   2.00522   -1.000
 6108.00    2.02549   2.01192  157.088
 6109.00    2.03003   2.01758  157.641
 6110.00    2.03293   2.01785  157.764
 6111.00    2.03165   2.01503  157.524
 6112.00    2.03253   2.01440   -1.000
 6113.00    2.03711   2.01790   -1.000
 6114.00    2.03403   2.02106  156.208
 6115.00    2.02641   2.02026  155.550
 6116.00    2.02511   2.01830  155.731
 6117.00    2.02233   2.01802  156.627
 6118.00    2.01165   2.00958  157.257
 6119.00    1.99992   1.98638  157.698
 6120.00    1.98158   1.96135   -1.000
 6121.00    1.96320   1.93800   -1.000
 6122.00    1.95930   1.92896   -1.000
 6123.00    1.97550   1.94896   -1.000
 6124.00    1.99708   1.97921   -1.000
 6125.00    2.00477   1.99618  160.181
 6126.00    2.00625   2.00094  159.233
 6127.00    2.00632   1.99801  159.829
 6128.00    2.00590   1.99409  160.221
 6129.00    2.01321   1.99973  159.851
 6130.00    2.02221   2.01411  159.003
 6131.00    2.02595   2.02601  157.527
 6132.00    2.02296   2.02966  156.639
 6133.00    2.00918   2.02246  156.723
 6134.00    1.98180   1.99743  157.673
 6135.00    1.94418   1.95404  160.325
 6136.00    1.90957   1.91042  164.690
 6137.00    1.90257   1.90072  169.265
 6138.00    1.92785   1.92612  171.508
 6139.00    1.95965   1.96075  169.230
 6140.00    1.97262   1.97272  164.403
 6141.00    1.96855   1.96861  161.223
 6142.00    1.97256   1.97540  160.706
 6143.00    1.98867   1.99451  161.100
 6144.00    2.00827   2.01196  160.359
 6145.00    2.02134   2.01851  158.448
 6146.00    2.01889   2.01538  157.402
 6147.00    2.01205   2.00711  157.783
 6148.00    2.00469   1.99649  158.709
 6149.00    1.99544   1.98951  159.805
 6150.00    1.99457   1.98964  160.856
 6151.00    2.00219   1.99620  161.298
 6152.00    2.00705   2.00333  160.932
 6153.00    2.00631   2.00634  160.029
 6154.00    2.00177   2.00095  159.350
 6155.00    1.99875   1.99309  160.027
 6156.00    1.99977   1.98896  161.217
 6157.00    1.99788   1.98664  161.622
 6158.00    1.98726   1.98129  161.980
 6159.00    1.96464   1.96353  163.243
 6160.00    1.92616   1.92574  165.759
 6161.00    1.89014   1.87976  169.976
 6162.00    1.87638   1.85551   -1.000
 6163.00    1.88837   1.86750   -1.000
 6164.00    1.91678   1.89856   -1.000
 6165.00    1.94105   1.92725  173.591
 6166.00    1.94644   1.94146  169.769
 6167.00    1.93766   1.94198  168.305
 6168.00    1.92148   1.92925  168.290
 6169.00    1.90855   1.91588  169.700
 6170.00    1.91671   1.91774  171.792
 6171.00    1.93973   1.93768  171.927
 6172.00    1.95645   1.95846  169.372
 6173.00    1.96101   1.96895  166.436
 6174.00    1.96224   1.97455  165.471
 6175.00    1.96618   1.97946  165.791
 6176.00    1.97091   1.98192  165.615
 6177.00    1.97703   1.98457  165.218
 6178.00    1.97887   1.98833  164.848
 6179.00    1.97834   1.98983  164.198
 6180.00    1.98615   1.99120  163.470
 6181.00    1.99557   1.99638  162.937
 6182.00    1.99871   2.00140  162.295
 6183.00    1.99996   2.00209  161.696
 6184.00    1.99868   2.00044  161.693
 6185.00    1.99311   1.99558  162.198
 6186.00    1.98327   1.98615  163.152
 6187.00    1.97454   1.97603  164.763
 6188.00    1.96231   1.96649  166.548
 6189.00    1.94566   1.95014  168.185
 6190.00    1.92682   1.92837  169.580
 6191.00    1.92210   1.91709  171.287
 6192.00    1.94028   1.92904  173.039
 6193.00    1.96683   1.95665  172.477
 6194.00    1.98889   1.98141  169.105
 6195.00    1.99737   1.99392  165.491
 6196.00    1.99321   1.99937  163.791
 6197.00    1.98585   1.99754  163.283
 6198.00    1.97482   1.98681  163.751
 6199.00    1.96666   1.97492  165.351
 6200.00    1.96848   1.97711  167.039
 6201.00    1.97434   1.98873  167.568
 6202.00    1.97797   2.00078   -1.000
 6203.00    1.97910   2.00847   -1.000
 6204.00    1.98022   2.01194   -1.000
 6205.00    1.98344   2.01471   -1.000
 6206.00    1.99011   2.01732   -1.000
 6207.00    1.99741   2.01902   -1.000
 6208.00    1.99691   2.01800   -1.000
 6209.00    1.99429   2.01372   -1.000
 6210.00    1.99012   2.00731  163.866
 6211.00    1.97841   1.99741   -1.000
 6212.00    1.96162   1.98063   -1.000
 6213.00    1.94577   1.96084  167.957
 6214.00    1.93840   1.94833  170.105
 6215.00    1.94497   1.94801  172.333
 6216.00    1.95254   1.95345  173.330
 6217.00    1.95709   1.95581  172.303
 6218.00    1.95932   1.95169  170.557
 6219.00    1.95708   1.94510  170.963
 6220.00    1.95657   1.94621  171.441
 6221.00    1.96505   1.95514  170.293
 6222.00    1.97565   1.96399  170.176
 6223.00    1.98270   1.96737  177.108
 6224.00    1.99862   1.96940   -1.000
 6225.00    1.89146   1.97339   -1.000
 6226.00    1.74562   1.97649   -1.000
 6227.00    1.86946   1.97281   -1.000
 6228.00    1.97579   1.95666   -1.000
 6229.00    1.93891   1.93018  171.156
 6230.00    1.92557   1.90803  173.853
 6231.00    1.92461   1.90440   -1.000
 6232.00    1.94234   1.92159   -1.000
 6233.00    1.96526   1.94912  175.236
 6234.00    1.98210   1.97395  172.205
 6235.00    1.99012   1.98636  169.128
 6236.00    1.98811   1.98280  167.403
 6237.00    1.97727   1.97138  167.722
 6238.00    1.96528   1.95811  169.266
 6239.00    1.96023   1.94938  171.011
 6240.00    1.95685   1.94617  172.788
 6241.00    1.94845   1.94604  174.084
 6242.00    1.93939   1.94210  174.321
 6243.00    1.93608   1.93375  174.871
 6244.00    1.93427   1.92611  176.211
 6245.00    1.93083   1.92268  176.713
 6246.00    1.93577   1.92878  176.000
 6247.00    1.95166   1.94585  174.503
 6248.00    1.96928   1.96501  172.486
 6249.00    1.97653   1.97472  170.452
 6250.00    1.96846   1.97031  169.499
 6251.00    1.94649   1.95166  170.301
 6252.00    1.92157   1.93100  172.777
 6253.00    1.90990   1.92033  175.572
 6254.00    1.90809   1.91993  177.159
 6255.00    1.90350   1.92239   -1.000
 6256.00    1.90246   1.91984  178.130
 6257.00    1.91264   1.91492  178.842
 6258.00    1.92642   1.91808  180.599
 6259.00    1.93630   1.93252  181.024
 6260.00    1.95035   1.95235  179.112
 6261.00    1.96334   1.96867  176.293
 6262.00    1.97085   1.98090  173.791
 6263.00    1.97590   1.98563  171.285
 6264.00    1.97327   1.98340  169.472
 6265.00    1.96812   1.97992  169.828
 6266.00    1.96783   1.98274  171.224
 6267.00    1.97153   1.98839  171.402
 6268.00    1.97430   1.98798  170.260
 6269.00    1.96881   1.98378  169.887
 6270.00    1.96275   1.98137   -1.000
 6271.00    1.96459   1.98288   -1.000
 6272.00    1.96841   1.98405  170.617
 6273.00    1.97522   1.97859  170.101
 6274.00    1.98029   1.96448  170.124
 6275.00    1.97944   1.94534   -1.000
 6276.00    1.96721   1.92833   -1.000
 6277.00    1.94074   1.91598   -1.000
 6278.00    1.89856   1.91089  178.107
 6279.00    1.85443   1.90957   -1.000
 6280.00    1.82907   1.91315   -1.000
 6281.00    1.82560   1.92576   -1.000
 6282.00    1.83195   1.94638   -1.000
 6283.00    1.83541   1.96753   -1.000
 6284.00    1.84139   1.98395   -1.000
 6285.00    1.85066   1.99241   -1.000
 6286.00    1.86988   1.99776   -1.000
 6287.00    1.90424   2.00196   -1.000
 6288.00    1.93184   2.00157   -1.000
 6289.00    1.94746   1.99471   -1.000
 6290.00    1.95273   1.98583   -1.000
 6291.00    1.95269   1.97946   -1.000
 6292.00    1.95492   1.97774   -1.000
 6293.00    1.95371   1.97687   -1.000
 6294.00    1.95143   1.97466   -1.000
 6295.00    1.95160   1.96708  172.873
 6296.00    1.94386   1.95599  173.676
 6297.00    1.93590   1.94841  175.008
 6298.00    1.93437   1.94866  175.718
 6299.00    1.93770   1.95355  175.673
 6300.00    1.94004   1.95194  175.155
 6301.00    1.95003   1.94694  174.365
 6302.00    1.96668   1.95070   -1.000
 6303.00    1.97379   1.96245  176.538
 6304.00    1.97814   1.97578  176.939
 6305.00    1.98119   1.98574  174.579
 6306.00    1.98443   1.99362  172.039
 6307.00    1.98555   2.00140  170.283
 6308.00    1.98268   2.00611   -1.000
 6309.00    1.97580   2.00671   -1.000
 6310.00    1.96785   2.00499   -1.000
 6311.00    1.96176   2.00111   -1.000
 6312.00    1.95770   1.99642   -1.000
 6313.00    1.95290   1.99059   -1.000
 6314.00    1.94609   1.98261   -1.000
 6315.00    1.94193   1.97616   -1.000
 6316.00    1.93837   1.97169   -1.000
 6317.00    1.92985   1.96487   -1.000
 6318.00    1.93022   1.96254   -1.000
 6319.00    1.93827   1.97400   -1.000
 6320.00    1.95054   1.98981   -1.000
 6321.00    1.96354   1.99987   -1.000
 6322.00    1.97067   2.00602   -1.000
 6323.00    1.97927   2.01377   -1.000
 6324.00    1.98923   2.02322   -1.000
 6325.00    1.99455   2.02877   -1.000
 6326.00    1.99782   2.02911   -1.000
 6327.00    2.00156   2.02808   -1.000
 6328.00    2.00499   2.02735   -1.000
 6329.00    2.00330   2.02665   -1.000
 6330.00    1.99835   2.02773   -1.000
 6331.00    1.99557   2.03237   -1.000
 6332.00    1.99454   2.03491   -1.000
 6333.00    1.98561   2.02779   -1.000
 6334.00    1.97256   2.00973   -1.000
 6335.00    1.95575   1.98939   -1.000
 6336.00    1.95356   1.98383   -1.000
 6337.00    1.99395   1.99275  170.139
 6338.00    2.02812   2.00681   -1.000
 6339.00    2.00377   2.02018  167.763
 6340.00    1.99773   2.02943   -1.000
 6341.00    2.00345   2.03084   -1.000
 6342.00    2.00051   2.02530   -1.000
 6343.00    1.99361   2.01580   -1.000
 6344.00    1.99030   2.01050  164.277
 6345.00    1.99134   2.01337   -1.000
 6346.00    1.99495   2.02046   -1.000
 6347.00    1.99841   2.02981   -1.000
 6348.00    2.00198   2.03962   -1.000
 6349.00    2.00360   2.04878   -1.000
 6350.00    2.00612   2.05374   -1.000
 6351.00    2.00470   2.05307   -1.000
 6352.00    2.00144   2.04727   -1.000
 6353.00    1.99161   2.03749   -1.000
 6354.00    1.97886   2.02787   -1.000
 6355.00    1.97002   2.02340   -1.000
 6356.00    1.96701   2.02124   -1.000
 6357.00    1.96634   2.01529   -1.000
 6358.00    1.96143   2.00517   -1.000
 6359.00    1.95479   1.99831   -1.000
 6360.00    1.95502   1.99582   -1.000
 6361.00    1.96195   1.99267   -1.000
 6362.00    1.96709   1.99088   -1.000
 6363.00    1.96775   1.99534   -1.000
 6364.00    1.97926   2.00610   -1.000
 6365.00    1.99387   2.01763   -1.000
 6366.00    1.99716   2.02762   -1.000
 6367.00    2.00295   2.03656   -1.000
 6368.00    2.00072   2.04169   -1.000
 6369.00    1.99226   2.03965   -1.000
 6370.00    1.99238   2.03539   -1.000
 6371.00    2.00001   2.03523   -1.000
 6372.00    2.00322   2.04153   -1.000
 6373.00    2.00420   2.04976   -1.000
 6374.00    2.00591   2.05391   -1.000
 6375.00    1.99772   2.05398   -1.000
 6376.00    1.98543   2.05207   -1.000
 6377.00    1.98107   2.04780   -1.000
 6378.00    1.97947   2.04258   -1.000
 6379.00    1.96984   2.03778   -1.000
 6380.00    1.95985   2.03477   -1.000
 6381.00    1.95948   2.03432   -1.000
 6382.00    1.96179   2.03612   -1.000
 6383.00    1.96380   2.03822   -1.000
 6384.00    1.96684   2.04027   -1.000
 6385.00    1.96782   2.04345   -1.000
 6386.00    1.96618   2.04817   -1.000
 6387.00    1.96110   2.05106   -1.000
 6388.00    1.95300   2.05150   -1.000
 6389.00    1.94338   2.05077   -1.000
 6390.00    1.93264   2.04526   -1.000
 6391.00    1.91743   2.03052   -1.000
 6392.00    1.89610   2.01057   -1.000
 6393.00    1.88131   1.99921   -1.000
 6394.00    1.88024   2.00835   -1.000
 6395.00    1.88836   2.02844   -1.000
 6396.00    1.89389   2.04400   -1.000
 6397.00    1.88240   2.04332   -1.000
 6398.00    1.85682   2.02487   -1.000
 6399.00    1.82953   2.00212   -1.000
 6400.00    1.81831   1.99571   -1.000
 6401.00    1.82893   2.01417   -1.000
 6402.00    1.84458   2.03996   -1.000
 6403.00    1.85217   2.05836   -1.000
 6404.00    1.85073   2.06456   -1.000
 6405.00    1.84050   2.05847   -1.000
 6406.00    1.82361   2.04438   -1.000
 6407.00    1.80719   2.03244   -1.000
 6408.00    1.79670   2.02841   -1.000
 6409.00    1.78565   2.03352   -1.000
 6410.00    1.77122   2.03740   -1.000
 6411.00    1.75710   2.03368   -1.000
 6412.00    1.75011   2.03193   -1.000
 6413.00    1.74736   2.03606   -1.000
 6414.00    1.74211   2.04099   -1.000
 6415.00    1.73763   2.04482   -1.000
 6416.00    1.73088   2.04834   -1.000
 6417.00    1.72039   2.04712   -1.000
 6418.00    1.69926   2.03838   -1.000
 6419.00    1.67380   2.02340   -1.000
 6420.00    1.65336   2.01154   -1.000
 6421.00    1.64137   2.01548   -1.000
 6422.00    1.64199   2.03327   -1.000
 6423.00    1.64579   2.05284   -1.000
 6424.00    1.64234   2.06635   -1.000
 6425.00    1.63182   2.07333   -1.000
 6426.00    1.61527   2.07726   -1.000
 6427.00    1.59614   2.07607   -1.000
 6428.00    1.57734   2.06312   -1.000
