###################################################################
## OUTPUT of StarlightChains_v04.for    [Cid@UFSC - 01/Apr/2007] ##
###################################################################

## Some input info
NGC6528_a_2.cxt                          [arq_obs]
Base.BC03.S                              [arq_base]
NGC6528_a_2.msk                          [arq_masks]
StCv04.C99.config                        [arq_config]
  150                                    [N_base]
    0                                    [N_YAV_components = # of components with extra extinction!]
    0                                    [i_FitPowerLaw (1/0 = Yes/No)]
-9.99                                    [alpha_PowerLaw]
CCM                                      [red_law_option]
 1.458241                                [q_norm = A(l_norm)/A(V)]

## (Re)Sampling Parameters
 3359.00                                 [l_ini (A)]
 6428.00                                 [l_fin (A)]
    1.00                                 [dl    (A)]     (OBS: dl_cushion =    50.00 A)

## Normalization info
 4020.00                                 [l_norm (A) - for base]
 4010.00                                 [llow_norm (A) - window for f_obs]
 4060.00                                 [lupp_norm (A) - window for f_obs]
4.643135E-15                             [fobs_norm (in input units)]

## S/N
 4730.00                                 [llow_SN (A) - window for S/N]
 4780.00                                 [lupp_SN (A) - window for S/N]
  27.089                                 [S/N in S/N window]
  13.711                                 [S/N in norm. window]
 346.459                                 [S/N_err in S/N window]
 175.352                                 [S/N_err in norm. window]
  1.0000                                 [fscale_chi2]

## etc...
  2147483605                             [idum_orig]
  3065                                   [NOl_eff]
  1232                                   [Nl_eff]
  1833    NSIGMA                         [Ntot_cliped & clip_method]
  4202170                                [Nglobal_steps]
   7                                     [N_chains]
  20                                     [NEX0s_base = N_base in EX0s-fits]
 0   0   1      164   2.0   3.957E+02    [Clip-Bug, RC-Crash & Burn-In warning-flags, n_censored_weights, wei_nsig_threshold & wei_limit]
   178    178.069    178.069      0.000  [idt_all, wdt_TotTime, wdt_UsrTime & wdt_SysTime (sec)]

## Synthesis Results - Best model ##

 2.18481E+00                             [chi2/Nl_eff]
     1.84784                             [adev (%)]

    99.00138                             [sum-of-x (%)]
 4.41023E-14                             [Flux_tot (units of input spectrum!)]
 3.92340E-09                             [Mini_tot (???)]
 1.96108E-09                             [Mcor_tot (???)]

   6.42                                  [v0_min  (km/s)]
  16.97                                  [vd_min  (km/s)]
 1.6836                                  [AV_min  (mag)]
 0.0000                                  [YAV_min (mag)]

# j     x_j(%)      Mini_j(%)     Mcor_j(%)     age_j(yr)     Z_j      (L/M)_j    YAV?  Mstars   component_j        a/Fe...       SSP_chi2r SSP_adev(%)   SSP_AV   SSP_x(%)
  1      5.1964     7.2306E-03    1.4466E-02    1.000000E+06  0.00010  8.160E-03    0   1.0000   age020_m22            0.0000     3.4516E+03    45.0686   4.0000    93.9922
  2      7.6118     1.8161E-03    3.6333E-03    3.160000E+06  0.00010  4.759E-02    0   1.0000   age045_m22            0.0000     4.0537E+02    10.5631   4.0000   100.8647
  3      8.7057     5.1163E-03    9.8079E-03    5.010000E+06  0.00010  1.932E-02    0   0.9582   age055_m22            0.0000     7.3289E+02    14.3364   4.0000    93.2593
  4      0.0000     0.0000E+00    0.0000E+00    6.610000E+06  0.00010  9.973E-03    0   0.9297   age061_m22            0.0000     3.4022E+03    44.4763   4.0000    96.7681
  5      0.0000     0.0000E+00    0.0000E+00    8.710000E+06  0.00010  7.690E-03    0   0.9030   age067_m22            0.0000     3.3309E+03    44.1532   4.0000    97.2823
  6      0.0000     0.0000E+00    0.0000E+00    1.000000E+07  0.00010  6.375E-03    0   0.8902   age070_m22            0.0000     3.3055E+03    44.1932   4.0000    97.4501
  7      0.0000     0.0000E+00    0.0000E+00    1.445000E+07  0.00010  4.874E-03    0   0.8589   age078_m22            0.0000     2.7315E+03    40.2609   4.0000   100.8855
  8      0.0000     0.0000E+00    0.0000E+00    2.512000E+07  0.00010  4.103E-03    0   0.8174   age090_m22            0.0000     1.7217E+03    31.2529   4.0000   107.1049
  9      0.0000     0.0000E+00    0.0000E+00    4.000000E+07  0.00010  3.654E-03    0   0.7830   age104_m22            0.0000     1.2418E+03    24.4325   4.0000   110.2368
 10      0.0000     0.0000E+00    0.0000E+00    5.500000E+07  0.00010  3.093E-03    0   0.7597   age110_m22            0.0000     1.1092E+03    22.2095   4.0000   110.7418
 11      0.0000     0.0000E+00    0.0000E+00    1.015200E+08  0.00010  2.431E-03    0   0.7138   age116_m22            0.0000     8.8441E+02    16.3060   4.0000   110.0627
 12      0.0000     0.0000E+00    0.0000E+00    1.609000E+08  0.00010  1.319E-03    0   0.6775   age120_m22            0.0000     6.9381E+02    10.5298   4.0000   106.0069
 13      0.0000     0.0000E+00    0.0000E+00    2.861200E+08  0.00010  1.075E-03    0   0.6412   age125_m22            0.0000     1.0466E+03    13.7135   4.0000   108.7464
 14      0.0000     0.0000E+00    0.0000E+00    5.088000E+08  0.00010  7.183E-04    0   0.6083   age130_m22            0.0000     1.1432E+03    13.3991   3.9114   107.6518
 15      0.0000     0.0000E+00    0.0000E+00    9.047900E+08  0.00010  4.524E-04    0   0.5785   age135_m22            0.0000     1.1358E+03    13.4618   3.7026   108.9217
 16      0.0000     0.0000E+00    0.0000E+00    1.278050E+09  0.00010  3.018E-04    0   0.5588   age138_m22            0.0000     7.5258E+02    11.0505   3.1935   107.4453
 17      0.0000     0.0000E+00    0.0000E+00    1.434000E+09  0.00010  2.691E-04    0   0.5532   age139_m22            0.0000     6.7910E+02    10.5987   3.0444   106.8509
 18      0.0000     0.0000E+00    0.0000E+00    2.500000E+09  0.00010  1.582E-04    0   0.5296   age150_m22            0.0000     6.4434E+02    10.5495   2.9535   107.8815
 19      0.0000     0.0000E+00    0.0000E+00    4.250000E+09  0.00010  1.007E-04    0   0.5110   age158_m22            0.0000     5.0498E+02     9.9025   2.8256   106.3578
 20      0.0000     0.0000E+00    0.0000E+00    6.250000E+09  0.00010  6.869E-05    0   0.4985   age166_m22            0.0000     3.9621E+02     9.5155   2.7945   103.6746
 21      0.0000     0.0000E+00    0.0000E+00    7.500000E+09  0.00010  5.873E-05    0   0.4931   age171_m22            0.0000     3.8703E+02     9.6766   2.7931   103.2108
 22      0.0000     0.0000E+00    0.0000E+00    1.000000E+10  0.00010  4.481E-05    0   0.4854   age181_m22            0.0000     3.7832E+02     9.5667   2.7530   102.8096
 23      0.0000     0.0000E+00    0.0000E+00    1.300000E+10  0.00010  3.489E-05    0   0.4791   age193_m22            0.0000     3.5866E+02     9.3348   2.6918   102.2619
 24      0.0000     0.0000E+00    0.0000E+00    1.500000E+10  0.00010  3.035E-05    0   0.4766   age201_m22            0.0000     3.4602E+02     9.2217   2.6511   102.1278
 25      0.0000     0.0000E+00    0.0000E+00    1.800000E+10  0.00010  2.510E-05    0   0.4735   age213_m22            0.0000     3.2035E+02     9.0228   2.5831   101.5788
 26      2.8799     3.8661E-03    7.7346E-03    1.000000E+06  0.00040  8.458E-03    0   1.0000   age020_m32            0.0000     3.4740E+03    45.2574   4.0000    94.5815
 27      0.0039     1.1007E-06    2.2021E-06    3.160000E+06  0.00040  3.973E-02    0   1.0000   age045_m32            0.0000     1.6019E+03    29.4405   4.0000   106.8210
 28      0.0000     0.0000E+00    0.0000E+00    5.010000E+06  0.00040  1.935E-02    0   0.9532   age055_m32            0.0000     2.3258E+03    35.6950   4.0000   100.8873
 29      0.0000     0.0000E+00    0.0000E+00    6.610000E+06  0.00040  1.204E-02    0   0.9243   age061_m32            0.0000     2.9746E+03    41.5437   4.0000    99.2297
 30      0.0000     0.0000E+00    0.0000E+00    8.710000E+06  0.00040  9.433E-03    0   0.9001   age067_m32            0.0000     2.8380E+03    40.7278   4.0000   100.2999
 31      0.0000     0.0000E+00    0.0000E+00    1.000000E+07  0.00040  8.053E-03    0   0.8877   age070_m32            0.0000     2.7374E+03    39.9703   4.0000   100.8083
 32      0.0000     0.0000E+00    0.0000E+00    1.445000E+07  0.00040  7.027E-03    0   0.8578   age078_m32            0.0000     1.6434E+03    29.2174   4.0000   105.0638
 33      0.0000     0.0000E+00    0.0000E+00    2.512000E+07  0.00040  4.707E-03    0   0.8166   age090_m32            0.0000     1.1447E+03    22.5622   4.0000   107.0600
 34      0.0000     0.0000E+00    0.0000E+00    4.000000E+07  0.00040  3.714E-03    0   0.7827   age104_m32            0.0000     9.0938E+02    17.9272   4.0000   108.4718
 35      0.0000     0.0000E+00    0.0000E+00    5.500000E+07  0.00040  2.982E-03    0   0.7593   age110_m32            0.0000     8.6829E+02    16.7064   4.0000   108.8148
 36      0.0000     0.0000E+00    0.0000E+00    1.015200E+08  0.00040  2.188E-03    0   0.7143   age116_m32            0.0000     8.4855E+02    13.7615   4.0000   109.1287
 37      0.0000     0.0000E+00    0.0000E+00    1.609000E+08  0.00040  1.690E-03    0   0.6856   age120_m32            0.0000     9.3053E+02    12.7090   4.0000   108.3861
 38      0.0000     0.0000E+00    0.0000E+00    2.861200E+08  0.00040  1.152E-03    0   0.6509   age125_m32            0.0000     1.0527E+03    12.7566   3.9173   107.1870
 39      0.0000     0.0000E+00    0.0000E+00    5.088000E+08  0.00040  7.331E-04    0   0.6182   age130_m32            0.0000     1.0849E+03    13.1491   3.7287   107.8561
 40      0.0000     0.0000E+00    0.0000E+00    9.047900E+08  0.00040  3.960E-04    0   0.5890   age135_m32            0.0000     7.6591E+02    11.2449   3.2705   106.6265
 41      0.0000     0.0000E+00    0.0000E+00    1.278050E+09  0.00040  2.854E-04    0   0.5687   age138_m32            0.0000     6.7838E+02    10.6907   3.0074   108.9721
 42      0.0000     0.0000E+00    0.0000E+00    1.434000E+09  0.00040  2.531E-04    0   0.5632   age139_m32            0.0000     6.6559E+02    10.6185   2.9467   108.9399
 43      0.0000     0.0000E+00    0.0000E+00    2.500000E+09  0.00040  1.488E-04    0   0.5386   age150_m32            0.0000     5.4652E+02     9.8975   2.6991   107.0214
 44      0.0000     0.0000E+00    0.0000E+00    4.250000E+09  0.00040  9.082E-05    0   0.5199   age158_m32            0.0000     3.6564E+02     8.9025   2.6342   103.8331
 45      0.0000     0.0000E+00    0.0000E+00    6.250000E+09  0.00040  6.362E-05    0   0.5076   age166_m32            0.0000     2.7233E+02     8.7805   2.6319   100.7378
 46      0.0000     0.0000E+00    0.0000E+00    7.500000E+09  0.00040  5.289E-05    0   0.5027   age171_m32            0.0000     2.5141E+02     8.5800   2.5958    99.4385
 47      0.0000     0.0000E+00    0.0000E+00    1.000000E+10  0.00040  3.972E-05    0   0.4948   age181_m32            0.0000     2.3219E+02     8.2543   2.5278    97.9543
 48      0.0000     0.0000E+00    0.0000E+00    1.300000E+10  0.00040  3.283E-05    0   0.4870   age193_m32            0.0000     2.6546E+02     8.0842   2.4597   100.7092
 49      0.0001     3.9583E-05    3.8440E-05    1.500000E+10  0.00040  2.925E-05    0   0.4854   age201_m32            0.0000     2.9228E+02     8.1412   2.4273   102.3413
 50      0.0000     0.0000E+00    0.0000E+00    1.800000E+10  0.00040  2.469E-05    0   0.4819   age213_m32            0.0000     2.9849E+02     8.0662   2.3770   102.8951
 51      1.7020     1.7347E-03    3.4706E-03    1.000000E+06  0.00400  1.114E-02    0   1.0000   age020_m42            0.0000     3.2866E+03    43.8794   4.0000    95.1765
 52      0.0000     0.0000E+00    0.0000E+00    3.160000E+06  0.00400  4.073E-02    0   0.9999   age045_m42            0.0000     1.0712E+03    22.8359   4.0000   107.2922
 53      0.0000     0.0000E+00    0.0000E+00    5.010000E+06  0.00400  2.534E-02    0   0.9488   age055_m42            0.0000     1.8769E+03    32.2114   4.0000   103.1774
 54      0.0000     0.0000E+00    0.0000E+00    6.610000E+06  0.00400  2.583E-02    0   0.9220   age061_m42            0.0000     8.9546E+02    18.9926   4.0000   106.5247
 55      0.0000     0.0000E+00    0.0000E+00    8.710000E+06  0.00400  1.706E-02    0   0.8983   age067_m42            0.0000     7.9577E+02    16.1173   4.0000   103.4707
 56      0.0000     0.0000E+00    0.0000E+00    1.000000E+07  0.00400  1.271E-02    0   0.8862   age070_m42            0.0000     8.5528E+02    16.4361   4.0000   102.1113
 57      0.0000     0.0000E+00    0.0000E+00    1.445000E+07  0.00400  7.666E-03    0   0.8571   age078_m42            0.0000     1.3903E+03    25.2200   4.0000   101.7482
 58      0.0000     0.0000E+00    0.0000E+00    2.512000E+07  0.00400  5.070E-03    0   0.8174   age090_m42            0.0000     6.9648E+02    13.5084   4.0000   102.4297
 59      0.0000     0.0000E+00    0.0000E+00    4.000000E+07  0.00400  3.505E-03    0   0.7851   age104_m42            0.0000     4.4501E+02    10.3294   4.0000   101.1890
 60      0.0000     0.0000E+00    0.0000E+00    5.500000E+07  0.00400  3.059E-03    0   0.7629   age110_m42            0.0000     5.4284E+02     9.3984   4.0000   105.0724
 61      0.0000     0.0000E+00    0.0000E+00    1.015200E+08  0.00400  2.268E-03    0   0.7207   age116_m42            0.0000     8.0524E+02    11.2914   4.0000   107.7499
 62      0.0000     0.0000E+00    0.0000E+00    1.609000E+08  0.00400  1.720E-03    0   0.6930   age120_m42            0.0000     8.3258E+02    11.3735   3.9054   108.4217
 63      0.0000     0.0000E+00    0.0000E+00    2.861200E+08  0.00400  1.079E-03    0   0.6613   age125_m42            0.0000     8.1873E+02    11.2081   3.5254   108.8661
 64      0.0000     0.0000E+00    0.0000E+00    5.088000E+08  0.00400  6.261E-04    0   0.6313   age130_m42            0.0000     8.6656E+02    11.5952   3.3244   112.1116
 65      0.0000     0.0000E+00    0.0000E+00    9.047900E+08  0.00400  3.535E-04    0   0.6024   age135_m42            0.0000     6.0652E+02     9.8807   2.9252   112.6341
 66      0.0000     0.0000E+00    0.0000E+00    1.278050E+09  0.00400  2.677E-04    0   0.5837   age138_m42            0.0000     2.5447E+02     7.8232   2.1915   109.4050
 67      0.0000     0.0000E+00    0.0000E+00    1.434000E+09  0.00400  1.910E-04    0   0.5716   age139_m42            0.0000     3.3762E+02     8.2468   2.3702   110.4443
 68      1.1097     1.2834E-01    1.4027E-01    2.500000E+09  0.00400  9.818E-05    0   0.5463   age150_m42            0.0000     1.5000E+02     6.1080   2.1212   105.1021
 69      0.0000     0.0000E+00    0.0000E+00    4.250000E+09  0.00400  5.491E-05    0   0.5269   age158_m42            0.0000     8.8715E+01     4.9252   2.0171   102.0762
 70      0.0000     0.0000E+00    0.0000E+00    6.250000E+09  0.00400  3.857E-05    0   0.5151   age166_m42            0.0000     6.3866E+01     4.7834   1.8759   100.6300
 71      0.8370     2.9305E-01    2.9960E-01    7.500000E+09  0.00400  3.243E-05    0   0.5110   age171_m42            0.0000     5.5949E+01     4.9430   1.7850    99.9805
 72      0.0000     0.0000E+00    0.0000E+00    1.000000E+10  0.00400  2.424E-05    0   0.5028   age181_m42            0.0000     4.9316E+01     5.1291   1.6941    99.2086
 73      0.0000     0.0000E+00    0.0000E+00    1.300000E+10  0.00400  1.883E-05    0   0.4927   age193_m42            0.0000     4.5517E+01     5.2422   1.6503    98.7858
 74      0.1056     7.1180E-02    7.0049E-02    1.500000E+10  0.00400  1.685E-05    0   0.4919   age201_m42            0.0000     4.5141E+01     5.1463   1.6580    98.8137
 75      0.0435     3.3978E-02    3.3133E-02    1.800000E+10  0.00400  1.452E-05    0   0.4874   age213_m42            0.0000     4.4819E+01     5.0041   1.6786    99.1025
 76      0.0000     0.0000E+00    0.0000E+00    1.000000E+06  0.00800  1.286E-02    0   1.0000   age020_m52            0.0000     3.1254E+03    43.0885   4.0000    97.2102
 77      0.0000     0.0000E+00    0.0000E+00    3.160000E+06  0.00800  3.147E-02    0   0.9966   age045_m52            0.0000     2.9577E+03    41.5579   4.0000    98.9679
 78      0.0000     0.0000E+00    0.0000E+00    5.010000E+06  0.00800  2.664E-02    0   0.9443   age055_m52            0.0000     2.1487E+03    34.7505   4.0000   102.6397
 79      0.0000     0.0000E+00    0.0000E+00    6.610000E+06  0.00800  2.151E-02    0   0.9177   age061_m52            0.0000     4.4019E+02    11.0040   4.0000    99.4726
 80      0.0000     0.0000E+00    0.0000E+00    8.710000E+06  0.00800  1.628E-02    0   0.8948   age067_m52            0.0000     7.6968E+02    15.3933   4.0000   103.7414
 81      0.0000     0.0000E+00    0.0000E+00    1.000000E+07  0.00800  1.215E-02    0   0.8827   age070_m52            0.0000     1.1899E+03    22.9594   4.0000   104.7294
 82      0.0000     0.0000E+00    0.0000E+00    1.445000E+07  0.00800  8.739E-03    0   0.8552   age078_m52            0.0000     1.2049E+03    23.3887   4.0000   106.4336
 83      0.0000     0.0000E+00    0.0000E+00    2.512000E+07  0.00800  5.676E-03    0   0.8162   age090_m52            0.0000     7.9427E+02    14.9164   4.0000   107.3896
 84      0.0000     0.0000E+00    0.0000E+00    4.000000E+07  0.00800  3.939E-03    0   0.7841   age104_m52            0.0000     6.9967E+02    11.8384   4.0000   107.3959
 85      0.0000     0.0000E+00    0.0000E+00    5.500000E+07  0.00800  3.155E-03    0   0.7627   age110_m52            0.0000     7.1377E+02    11.6353   4.0000   108.3388
 86      0.0000     0.0000E+00    0.0000E+00    1.015200E+08  0.00800  2.206E-03    0   0.7226   age116_m52            0.0000     7.3682E+02    10.8127   4.0000   109.0288
 87      0.0000     0.0000E+00    0.0000E+00    1.609000E+08  0.00800  1.596E-03    0   0.6963   age120_m52            0.0000     7.6802E+02    10.8914   3.8995   108.6928
 88      0.0000     0.0000E+00    0.0000E+00    2.861200E+08  0.00800  1.002E-03    0   0.6665   age125_m52            0.0000     9.0063E+02    12.1992   3.5300   111.3086
 89      0.0000     0.0000E+00    0.0000E+00    5.088000E+08  0.00800  5.759E-04    0   0.6377   age130_m52            0.0000     8.7918E+02    12.8383   3.1332   115.5258
 90      0.0000     0.0000E+00    0.0000E+00    9.047900E+08  0.00800  2.972E-04    0   0.6086   age135_m52            0.0000     5.4920E+02    11.1027   2.5817   113.6322
 91      0.0000     0.0000E+00    0.0000E+00    1.278050E+09  0.00800  2.242E-04    0   0.5907   age138_m52            0.0000     2.2672E+02     8.3378   1.9919   111.6511
 92      0.0000     0.0000E+00    0.0000E+00    1.434000E+09  0.00800  1.645E-04    0   0.5787   age139_m52            0.0000     2.2846E+02     7.7222   2.1633   111.1231
 93      0.0000     0.0000E+00    0.0000E+00    2.500000E+09  0.00800  7.723E-05    0   0.5519   age150_m52            0.0000     1.0285E+02     6.1243   1.8412   107.0484
 94      0.0000     0.0000E+00    0.0000E+00    4.250000E+09  0.00800  4.151E-05    0   0.5320   age158_m52            0.0000     7.4515E+01     5.4824   1.7791   104.4999
 95      0.0000     0.0000E+00    0.0000E+00    6.250000E+09  0.00800  3.010E-05    0   0.5197   age166_m52            0.0000     5.5278E+01     5.6001   1.5690   102.8598
 96      2.0328     9.3557E-01    9.6188E-01    7.500000E+09  0.00800  2.467E-05    0   0.5139   age171_m52            0.0000     5.4228E+01     5.7891   1.5210   102.3955
 97      6.2634     3.8193E+00    3.8618E+00    1.000000E+10  0.00800  1.862E-05    0   0.5054   age181_m52            0.0000     5.8168E+01     6.5753   1.3697   101.8390
 98      0.0000     0.0000E+00    0.0000E+00    1.300000E+10  0.00800  1.433E-05    0   0.4988   age193_m52            0.0000     6.5277E+01     7.3366   1.2570   102.3583
 99      0.0000     0.0000E+00    0.0000E+00    1.500000E+10  0.00800  1.244E-05    0   0.4936   age201_m52            0.0000     6.9527E+01     7.6686   1.2218   102.7620
100      0.0000     0.0000E+00    0.0000E+00    1.800000E+10  0.00800  1.070E-05    0   0.4888   age213_m52            0.0000     7.4107E+01     8.0087   1.1789   102.5877
101      0.0000     0.0000E+00    0.0000E+00    1.000000E+06  0.02000  1.989E-02    0   1.0000   age020_m62            0.0000     3.2216E+03    43.0600   4.0000    95.9576
102      0.0000     0.0000E+00    0.0000E+00    3.160000E+06  0.02000  3.772E-02    0   0.9858   age045_m62            0.0000     2.8865E+03    40.5173   4.0000    98.6538
103      0.0000     0.0000E+00    0.0000E+00    5.010000E+06  0.02000  3.227E-02    0   0.9342   age055_m62            0.0000     1.5540E+03    28.7098   4.0000   105.9055
104      0.0000     0.0000E+00    0.0000E+00    6.610000E+06  0.02000  2.387E-02    0   0.9090   age061_m62            0.0000     1.3709E+03    24.7866   4.0000   103.9271
105      0.0000     0.0000E+00    0.0000E+00    8.710000E+06  0.02000  1.102E-02    0   0.8861   age067_m62            0.0000     1.3712E+03    19.9450   4.0000    97.3040
106      0.0000     0.0000E+00    0.0000E+00    1.000000E+07  0.02000  1.011E-02    0   0.8751   age070_m62            0.0000     1.1581E+03    18.7291   4.0000    99.5444
107      0.0000     0.0000E+00    0.0000E+00    1.445000E+07  0.02000  7.331E-03    0   0.8472   age078_m62            0.0000     1.0169E+03    18.1565   4.0000   100.8400
108      0.0000     0.0000E+00    0.0000E+00    2.512000E+07  0.02000  4.206E-03    0   0.8099   age090_m62            0.0000     9.2688E+02    16.2294   4.0000    99.6282
109      0.0000     0.0000E+00    0.0000E+00    4.000000E+07  0.02000  3.373E-03    0   0.7799   age104_m62            0.0000     6.2090E+02    11.0345   4.0000   105.3198
110      0.0000     0.0000E+00    0.0000E+00    5.500000E+07  0.02000  2.747E-03    0   0.7595   age110_m62            0.0000     6.4243E+02    10.0981   4.0000   107.2751
111      0.0000     0.0000E+00    0.0000E+00    1.015200E+08  0.02000  1.878E-03    0   0.7221   age116_m62            0.0000     7.9618E+02    10.6847   4.0000   109.2008
112      0.0000     0.0000E+00    0.0000E+00    1.609000E+08  0.02000  1.378E-03    0   0.6978   age120_m62            0.0000     9.2760E+02    11.5215   3.9306   109.7974
113      0.0000     0.0000E+00    0.0000E+00    2.861200E+08  0.02000  8.869E-04    0   0.6700   age125_m62            0.0000     1.1221E+03    13.1333   3.4952   114.1870
114      0.0000     0.0000E+00    0.0000E+00    5.088000E+08  0.02000  4.834E-04    0   0.6430   age130_m62            0.0000     9.4269E+02    13.3424   2.9882   116.8616
115      0.0000     0.0000E+00    0.0000E+00    9.047900E+08  0.02000  2.312E-04    0   0.6152   age135_m62            0.0000     4.8832E+02    10.5501   2.3925   115.6030
116      0.0000     0.0000E+00    0.0000E+00    1.278050E+09  0.02000  1.387E-04    0   0.5927   age138_m62            0.0000     2.3789E+02     7.8833   2.0481   110.4930
117      0.0000     0.0000E+00    0.0000E+00    1.434000E+09  0.02000  1.168E-04    0   0.5865   age139_m62            0.0000     1.9826E+02     7.3183   2.0317   108.7344
118      0.0000     0.0000E+00    0.0000E+00    2.500000E+09  0.02000  5.505E-05    0   0.5610   age150_m62            0.0000     9.0342E+01     6.5198   1.6489   105.4328
119      0.0000     0.0000E+00    0.0000E+00    4.250000E+09  0.02000  3.070E-05    0   0.5407   age158_m62            0.0000     8.3452E+01     7.9459   1.3113   104.9220
120      0.0000     0.0000E+00    0.0000E+00    6.250000E+09  0.02000  2.104E-05    0   0.5277   age166_m62            0.0000     9.2930E+01     8.8578   1.1619   105.1594
121      0.0000     0.0000E+00    0.0000E+00    7.500000E+09  0.02000  1.770E-05    0   0.5223   age171_m62            0.0000     1.0279E+02     9.4872   1.0578   105.4832
122      0.5153     4.5114E-01    4.6220E-01    1.000000E+10  0.02000  1.297E-05    0   0.5121   age181_m62            0.0000     1.2741E+02    10.7733   0.8683   105.8639
123      2.3917     2.8022E+00    2.8294E+00    1.300000E+10  0.02000  9.691E-06    0   0.5047   age193_m62            0.0000     1.4760E+02    11.6860   0.7633   106.1425
124     26.1503     3.5516E+01    3.5520E+01    1.500000E+10  0.02000  8.360E-06    0   0.4999   age201_m62            0.0000     1.6740E+02    12.4862   0.6706   106.3852
125     22.1059     3.6318E+01    3.5937E+01    1.800000E+10  0.02000  6.911E-06    0   0.4946   age213_m62            0.0000     1.9419E+02    13.5244   0.5637   106.7464
126      0.0000     0.0000E+00    0.0000E+00    1.000000E+06  0.05000  2.651E-02    0   0.9998   age020_m72            0.0000     3.1695E+03    42.7045   4.0000    97.2381
127      0.0000     0.0000E+00    0.0000E+00    3.160000E+06  0.05000  4.817E-02    0   0.9577   age045_m72            0.0000     2.4114E+03    36.7686   4.0000   102.7876
128      0.0000     0.0000E+00    0.0000E+00    5.010000E+06  0.05000  3.101E-02    0   0.9147   age055_m72            0.0000     1.7764E+03    29.9674   4.0000   104.5333
129      0.0000     0.0000E+00    0.0000E+00    6.610000E+06  0.05000  1.472E-02    0   0.8877   age061_m72            0.0000     1.5036E+03    22.8334   4.0000   100.3353
130      0.0000     0.0000E+00    0.0000E+00    8.710000E+06  0.05000  1.050E-02    0   0.8638   age067_m72            0.0000     1.8725E+03    29.8899   4.0000   102.6252
131      0.0000     0.0000E+00    0.0000E+00    1.000000E+07  0.05000  8.954E-03    0   0.8524   age070_m72            0.0000     2.1364E+03    34.2130   4.0000   103.8327
132      0.0000     0.0000E+00    0.0000E+00    1.445000E+07  0.05000  6.392E-03    0   0.8262   age078_m72            0.0000     1.9477E+03    32.7718   4.0000   104.8499
133      0.0000     0.0000E+00    0.0000E+00    2.512000E+07  0.05000  4.207E-03    0   0.7902   age090_m72            0.0000     1.2223E+03    24.4643   4.0000   107.6358
134      0.0000     0.0000E+00    0.0000E+00    4.000000E+07  0.05000  3.198E-03    0   0.7618   age104_m72            0.0000     7.7174E+02    14.0229   4.0000   110.2874
135      0.0000     0.0000E+00    0.0000E+00    5.500000E+07  0.05000  2.593E-03    0   0.7432   age110_m72            0.0000     8.0285E+02    13.3158   4.0000   110.8312
136      0.0000     0.0000E+00    0.0000E+00    1.015200E+08  0.05000  1.716E-03    0   0.7092   age116_m72            0.0000     8.9321E+02    12.0557   4.0000   110.3879
137      0.0000     0.0000E+00    0.0000E+00    1.609000E+08  0.05000  1.218E-03    0   0.6876   age120_m72            0.0000     1.0019E+03    11.8816   3.8776   110.3019
138      0.0000     0.0000E+00    0.0000E+00    2.861200E+08  0.05000  7.047E-04    0   0.6618   age125_m72            0.0000     1.0458E+03    13.4753   3.2509   114.5147
139      0.0000     0.0000E+00    0.0000E+00    5.088000E+08  0.05000  3.590E-04    0   0.6356   age130_m72            0.0000     7.6914E+02    13.1458   2.6082   117.3190
140      0.0000     0.0000E+00    0.0000E+00    9.047900E+08  0.05000  1.484E-04    0   0.6088   age135_m72            0.0000     2.5836E+02     9.4367   1.9010   109.7056
141      0.0000     0.0000E+00    0.0000E+00    1.278050E+09  0.05000  9.435E-05    0   0.5924   age138_m72            0.0000     1.4419E+02     9.0058   1.4716   106.4106
142      0.0000     0.0000E+00    0.0000E+00    1.434000E+09  0.05000  7.827E-05    0   0.5847   age139_m72            0.0000     1.2403E+02     8.3988   1.5027   105.7178
143      0.0000     0.0000E+00    0.0000E+00    2.500000E+09  0.05000  3.759E-05    0   0.5583   age150_m72            0.0000     1.0095E+02     8.9431   1.1656   104.6236
144      0.0000     0.0000E+00    0.0000E+00    4.250000E+09  0.05000  1.842E-05    0   0.5374   age158_m72            0.0000     1.2845E+02    10.9942   0.8116   103.6852
145      0.0813     7.6524E-02    8.0253E-02    6.250000E+09  0.05000  1.207E-05    0   0.5242   age166_m72            0.0000     1.7185E+02    13.1342   0.5042   103.4514
146      0.0000     0.0000E+00    0.0000E+00    7.500000E+09  0.05000  9.993E-06    0   0.5183   age171_m72            0.0000     1.7985E+02    13.5149   0.4459   103.4404
147      7.8233     1.2183E+01    1.2384E+01    1.000000E+10  0.05000  7.291E-06    0   0.5081   age181_m72            0.0000     2.2243E+02    15.2369   0.2554   103.6305
148      3.4418     7.3511E+00    7.3799E+00    1.300000E+10  0.05000  5.316E-06    0   0.5018   age193_m72            0.0000     2.9619E+02    17.7431  -0.0357   104.1857
149      0.0000     0.0000E+00    0.0000E+00    1.500000E+10  0.05000  4.497E-06    0   0.4972   age201_m72            0.0000     3.3789E+02    18.9874  -0.1653   104.8534
150      0.0000     0.0000E+00    0.0000E+00    1.800000E+10  0.05000  3.739E-06    0   0.4924   age213_m72            0.0000     3.9151E+02    20.4646  -0.3461   105.6773


## Synthesis Results - Average & Chains ##

# j      x_j: min, <> & last-chain-values for 1 ...  7 chains
  1      5.1964      4.3145      4.5128      4.7978      4.4870      4.4485      4.3841      4.4624      4.5859
  2      7.6118      6.3189      6.6361      6.2955      7.0434      6.5337      6.6471      6.3378      6.7473
  3      8.7057      7.9217      7.9748      8.0720      8.1099      8.3151      8.1276      8.1647      7.7600
  4      0.0000      0.0185      0.0000      0.0000      0.0000      0.1097      0.0000      0.0000      0.0373
  5      0.0000      0.0286      0.0000      0.0528      0.0000      0.0000      0.0000      0.0000      0.0000
  6      0.0000      0.0304      0.0000      0.0258      0.0000      0.0000      0.0000      0.0000      0.0000
  7      0.0000      0.0345      0.0000      0.0000      0.0000      0.0000      0.0000      0.0841      0.0000
  8      0.0000      0.0261      0.0000      0.0077      0.0000      0.0000      0.0000      0.0000      0.0000
  9      0.0000      0.0171      0.0000      0.0367      0.0000      0.0000      0.0287      0.0000      0.0000
 10      0.0000      0.0187      0.0000      0.0400      0.0862      0.0000      0.1601      0.0000      0.0000
 11      0.0000      0.0216      0.0000      0.0000      0.0645      0.0000      0.0000      0.0002      0.0000
 12      0.0000      0.0102      0.0000      0.0000      0.0033      0.0000      0.0000      0.0000      0.0000
 13      0.0000      0.0068      0.0000      0.0000      0.0000      0.0000      0.0047      0.0000      0.0026
 14      0.0000      0.0060      0.0667      0.0000      0.0652      0.0000      0.0000      0.0000      0.0000
 15      0.0000      0.0107      0.0000      0.0000      0.0000      0.0000      0.0000      0.0000      0.0000
 16      0.0000      0.0137      0.0000      0.0000      0.1293      0.0209      0.0000      0.0000      0.0000
 17      0.0000      0.0097      0.0000      0.0000      0.0000      0.0000      0.0041      0.0000      0.0000
 18      0.0000      0.0198      0.0000      0.0000      0.0000      0.0000      0.0000      0.0780      0.0000
 19      0.0000      0.0204      0.1086      0.0744      0.0000      0.0000      0.0000      0.0000      0.0000
 20      0.0000      0.0259      0.0000      0.0000      0.0000      0.0000      0.0000      0.0000      0.0000
 21      0.0000      0.0377      0.0000      0.3838      0.0772      0.0000      0.0150      0.0000      0.0000
 22      0.0000      0.0313      0.0000      0.0000      0.0000      0.0000      0.0000      0.0093      0.0000
 23      0.0000      0.0356      0.0000      0.0000      0.0000      0.0381      0.0000      0.0000      0.0976
 24      0.0000      0.0317      0.0000      0.0000      0.0000      0.0239      0.0342      0.0000      0.0000
 25      0.0000      0.0395      0.0000      0.0000      0.0188      0.0000      0.0000      0.0000      0.0000
 26      2.8799      3.2342      3.2892      3.2789      3.3152      3.1811      3.2474      3.1286      3.2751
 27      0.0039      0.0284      0.1648      0.0000      0.2096      0.0000      0.1758      0.0475      0.0000
 28      0.0000      0.1007      0.0000      0.0000      0.0719      0.0000      0.0000      0.0908      0.0000
 29      0.0000      0.2809      0.2617      0.3149      0.1557      0.2258      0.2539      0.2752      0.2374
 30      0.0000      0.0345      0.1096      0.0000      0.0000      0.0000      0.0762      0.0000      0.1921
 31      0.0000      0.0252      0.0000      0.0000      0.0000      0.0000      0.0000      0.0000      0.0000
 32      0.0000      0.0288      0.0221      0.0000      0.0000      0.1263      0.0338      0.2175      0.0000
 33      0.0000      0.0159      0.0000      0.1252      0.0130      0.0000      0.0000      0.0000      0.0000
 34      0.0000      0.0203      0.0000      0.0000      0.1551      0.0022      0.0011      0.0000      0.1597
 35      0.0000      0.0209      0.0000      0.0000      0.0000      0.0119      0.0000      0.0000      0.0000
 36      0.0000      0.0088      0.0000      0.0000      0.0000      0.0000      0.0000      0.0000      0.0000
 37      0.0000      0.0082      0.0000      0.0000      0.0000      0.0000      0.0000      0.0000      0.0000
 38      0.0000      0.0068      0.0000      0.0000      0.0227      0.0000      0.0000      0.0000      0.0000
 39      0.0000      0.0092      0.0000      0.0597      0.0052      0.0000      0.0000      0.0000      0.0000
 40      0.0000      0.0083      0.0000      0.0411      0.0000      0.0044      0.0000      0.0567      0.0000
 41      0.0000      0.0137      0.0000      0.0000      0.0000      0.0139      0.0000      0.0000      0.0000
 42      0.0000      0.0167      0.0000      0.0000      0.0000      0.0140      0.0000      0.0000      0.0000
 43      0.0000      0.0309      0.0000      0.3398      0.0000      0.0000      0.0000      0.4541      0.1540
 44      0.0000      0.0361      0.0262      0.0000      0.0000      0.0201      0.0000      0.0000      0.3858
 45      0.0000      0.0460      0.0086      0.0000      0.0236      0.0000      0.0000      0.0000      0.0147
 46      0.0000      0.0391      0.0543      0.1974      0.0000      0.0000      0.0000      0.0000      0.0000
 47      0.0000      0.0524      0.1327      0.0000      0.0383      0.0000      0.0000      0.0062      0.0125
 48      0.0000      0.0367      0.1187      0.0110      0.0000      0.0000      0.0000      0.0000      0.0000
 49      0.0001      0.0407      0.0000      0.0000      0.2366      0.8163      0.0000      0.0423      0.0000
 50      0.0000      0.0353      0.0000      0.0000      0.0000      0.0032      0.0000      0.0000      0.0254
 51      1.7020      2.0308      2.1216      1.8326      2.0425      2.0498      2.2147      1.9584      1.9852
 52      0.0000      0.0284      0.0000      0.0412      0.0206      0.0000      0.0718      0.2561      0.0000
 53      0.0000      0.0340      0.0016      0.0000      0.0000      0.0000      0.0000      0.0000      0.0000
 54      0.0000      0.0203      0.1688      0.1310      0.0000      0.0000      0.0000      0.0000      0.0527
 55      0.0000      0.0280      0.0000      0.1309      0.0000      0.0000      0.0586      0.0000      0.0204
 56      0.0000      0.0318      0.0208      0.0000      0.0000      0.0000      0.0014      0.0694      0.0000
 57      0.0000      0.0193      0.0000      0.0000      0.0000      0.0000      0.0000      0.0000      0.0000
 58      0.0000      0.0329      0.0000      0.0000      0.0000      0.0000      0.0000      0.0219      0.0000
 59      0.0000      0.0169      0.0490      0.0000      0.0000      0.0000      0.0000      0.0000      0.0000
 60      0.0000      0.0116      0.0000      0.0000      0.0000      0.0000      0.0277      0.0000      0.0000
 61      0.0000      0.0096      0.0000      0.0000      0.0000      0.0000      0.0000      0.0000      0.0000
 62      0.0000      0.0077      0.0000      0.0000      0.0000      0.0000      0.0000      0.0000      0.0000
 63      0.0000      0.0091      0.0000      0.0000      0.0000      0.0000      0.0000      0.0020      0.0000
 64      0.0000      0.0115      0.0000      0.0000      0.0000      0.0000      0.0000      0.0072      0.0000
 65      0.0000      0.0172      0.0000      0.0430      0.0000      0.0000      0.1637      0.0000      0.0000
 66      0.0000      0.0403      0.0000      0.0000      0.0000      0.0000      0.0000      0.0000      0.0000
 67      0.0000      0.0296      0.0000      0.0000      0.0000      0.0000      0.0968      0.0592      0.0000
 68      1.1097      0.0683      0.1178      0.0000      0.2294      0.4597      0.0494      0.0799      0.1388
 69      0.0000      0.0836      0.0000      0.0000      0.0000      0.0000      0.0000      0.1030      0.0000
 70      0.0000      0.1411      0.0101      0.0000      0.0311      0.3577      0.7181      0.0000      0.9670
 71      0.8370      0.1769      0.3470      0.0000      0.1819      0.0713      0.0762      0.0000      0.1748
 72      0.0000      0.2081      0.5550      0.0000      0.0000      0.0022      0.6316      0.0165      0.1732
 73      0.0000      0.2364      0.2964      0.3226      0.0334      0.5421      0.0000      0.0729      0.1549
 74      0.1056      0.2411      0.2834      0.4246      0.7837      0.0000      0.3176      0.6170      0.1709
 75      0.0435      0.1951      0.3579      0.4572      0.2165      0.1734      0.1180      0.4661      0.0000
 76      0.0000      0.0287      0.0000      0.0000      0.0000      0.1649      0.0000      0.0163      0.0000
 77      0.0000      0.0125      0.0000      0.0000      0.0000      0.0000      0.0000      0.0000      0.0000
 78      0.0000      0.0194      0.0000      0.0000      0.0000      0.0000      0.0000      0.0000      0.0000
 79      0.0000      0.0265      0.0612      0.0000      0.0000      0.0000      0.0000      0.0000      0.0000
 80      0.0000      0.0148      0.0000      0.0000      0.0000      0.0000      0.0000      0.0000      0.0000
 81      0.0000      0.0147      0.0000      0.0000      0.0000      0.0000      0.0000      0.0000      0.0000
 82      0.0000      0.0120      0.0019      0.0000      0.0000      0.0000      0.0000      0.0000      0.0000
 83      0.0000      0.0144      0.0000      0.0541      0.0000      0.0000      0.0000      0.0407      0.0000
 84      0.0000      0.0103      0.0000      0.0000      0.0000      0.0065      0.0000      0.0000      0.0000
 85      0.0000      0.0100      0.0000      0.0898      0.0000      0.0000      0.0893      0.0000      0.0091
 86      0.0000      0.0077      0.0346      0.0000      0.0000      0.0000      0.0000      0.0230      0.0000
 87      0.0000      0.0081      0.0000      0.0000      0.0000      0.0000      0.0089      0.0000      0.0000
 88      0.0000      0.0080      0.0000      0.0000      0.0000      0.0000      0.0000      0.0000      0.0000
 89      0.0000      0.0151      0.0000      0.0000      0.0000      0.0000      0.0000      0.0000      0.0000
 90      0.0000      0.0211      0.1792      0.0000      0.0000      0.0000      0.0000      0.0000      0.0723
 91      0.0000      0.0287      0.0243      0.0000      0.0000      0.0000      0.0000      0.1181      0.0000
 92      0.0000      0.0234      0.0000      0.0000      0.0000      0.1472      0.0000      0.0000      0.0000
 93      0.0000      0.0562      0.0000      0.0000      0.0000      0.0000      0.0000      0.0000      0.0000
 94      0.0000      0.1171      0.0000      0.1218      0.1088      0.2681      0.0000      0.2099      0.0000
 95      0.0000      0.2733      0.3524      0.0861      0.0924      0.4550      0.3420      0.0863      0.4581
 96      2.0328      0.2516      0.0000      1.0269      0.5756      0.1809      0.0952      0.5120      0.1451
 97      6.2634      7.2797      7.5307      7.0588      7.4998      6.7269      7.6395      6.5150      7.4033
 98      0.0000      0.1627      0.0000      0.0000      0.0000      0.0000      0.0000      0.0040      0.0585
 99      0.0000      0.1282      0.0000      0.0000      0.0000      0.0000      0.0000      0.0000      0.1757
100      0.0000      0.1300      0.0000      0.0000      0.0000      0.0000      0.0811      0.0019      0.2793
101      0.0000      0.0184      0.0000      0.0000      0.0000      0.0000      0.0000      0.0000      0.0000
102      0.0000      0.0195      0.0000      0.0000      0.0000      0.0000      0.0000      0.0000      0.0000
103      0.0000      0.0428      0.0000      0.0000      0.0147      0.1052      0.0000      0.0000      0.0000
104      0.0000      0.0266      0.0000      0.0000      0.0000      0.0000      0.0000      0.0000      0.2054
105      0.0000      0.0254      0.0000      0.0000      0.0045      0.0000      0.0000      0.0325      0.0000
106      0.0000      0.0191      0.0000      0.0000      0.0000      0.0000      0.0000      0.0000      0.0000
107      0.0000      0.0181      0.0000      0.0000      0.0000      0.0000      0.0000      0.1229      0.0000
108      0.0000      0.0130      0.0000      0.0000      0.0000      0.0000      0.0000      0.0000      0.0122
109      0.0000      0.0120      0.0000      0.0000      0.0000      0.0000      0.0000      0.0000      0.0000
110      0.0000      0.0093      0.0000      0.0000      0.0000      0.0000      0.0000      0.0000      0.0000
111      0.0000      0.0094      0.0000      0.0000      0.0000      0.0000      0.0000      0.0000      0.0333
112      0.0000      0.0075      0.0000      0.0000      0.0000      0.0000      0.0000      0.0000      0.0000
113      0.0000      0.0094      0.0000      0.0000      0.0000      0.0021      0.0000      0.0000      0.0000
114      0.0000      0.0112      0.0000      0.0000      0.0000      0.0000      0.0515      0.0000      0.0010
115      0.0000      0.0198      0.0000      0.0000      0.0000      0.0000      0.0000      0.0000      0.0000
116      0.0000      0.0401      0.1301      0.0350      0.0161      0.0000      0.0000      0.0000      0.0000
117      0.0000      0.0433      0.3757      0.0000      0.0266      0.0000      0.0000      0.0595      0.0000
118      0.0000      0.0865      0.0000      0.0000      0.1515      0.0000      0.0000      0.0961      0.1880
119      0.0000      0.1539      0.0111      0.6119      0.0000      0.0000      0.0000      0.2848      0.0515
120      0.0000      0.2175      0.0104      0.0885      0.0000      0.0036      0.1411      0.8591      0.3711
121      0.0000      0.2409      0.0000      0.0298      0.0000      0.4758      0.1951      0.0047      0.0451
122      0.5153      0.2117      0.0887      0.0919      0.1686      0.1485      0.1557      1.0445      0.1443
123      2.3917      3.1799      3.3739      3.3914      3.5687      3.3642      3.3499      2.9763      3.5775
124     26.1503     25.3290     25.6118     25.2393     25.5173     25.5464     25.6784     25.1109     25.0850
125     22.1059     21.3247     21.5493     21.4487     21.9216     21.4927     20.8445     21.6167     21.4800
126      0.0000      0.0186      0.0000      0.0000      0.0000      0.0000      0.0000      0.0000      0.0020
127      0.0000      0.0281      0.0000      0.0000      0.0000      0.0000      0.0000      0.0610      0.0768
128      0.0000      0.0310      0.0000      0.0000      0.0000      0.0000      0.0000      0.0000      0.0000
129      0.0000      0.0161      0.0000      0.0000      0.0000      0.0000      0.0000      0.0000      0.0000
130      0.0000      0.0088      0.0000      0.0000      0.0000      0.0000      0.0000      0.1603      0.0000
131      0.0000      0.0150      0.0000      0.0000      0.0000      0.0000      0.0000      0.0000      0.0000
132      0.0000      0.0110      0.0000      0.0000      0.0000      0.0000      0.0000      0.0000      0.0000
133      0.0000      0.0114      0.0000      0.0000      0.0000      0.0000      0.0000      0.0000      0.0103
134      0.0000      0.0073      0.0000      0.0000      0.0000      0.1729      0.0000      0.0000      0.0000
135      0.0000      0.0072      0.0000      0.0000      0.0000      0.0000      0.0000      0.0000      0.0000
136      0.0000      0.0068      0.0506      0.0000      0.0000      0.0000      0.0000      0.0000      0.0000
137      0.0000      0.0064      0.0000      0.0000      0.0000      0.0000      0.0724      0.0000      0.0000
138      0.0000      0.0067      0.0000      0.0000      0.0000      0.0000      0.0000      0.0000      0.0000
139      0.0000      0.0139      0.0000      0.0000      0.0000      0.0000      0.0000      0.0000      0.0000
140      0.0000      0.0354      0.0000      0.0000      0.0814      0.0000      0.0000      0.0000      0.0000
141      0.0000      0.0734      0.0000      0.0809      0.0000      0.0861      0.4483      0.0000      0.0000
142      0.0000      0.0817      0.0000      0.0000      0.0000      0.0000      0.2543      0.0000      0.0000
143      0.0000      0.0909      0.1823      0.1255      0.0000      0.0000      0.0000      0.2104      0.0000
144      0.0000      0.1015      0.0055      0.0000      0.1016      0.4830      0.0000      0.0000      0.0000
145      0.0813      0.1210      0.0480      0.0286      0.1766      0.0000      0.0000      0.1127      0.0000
146      0.0000      0.9993      0.9596      0.6061      0.0827      1.0887      0.7114      0.7672      0.9688
147      7.8233      7.5406      7.4696      7.6151      7.8040      7.2466      7.7419      7.8988      7.6971
148      3.4418      2.6934      2.8649      2.7983      3.1140      2.7156      2.6973      2.7846      2.5960
149      0.0000      0.2955      0.2761      0.6903      0.1669      0.3467      0.6290      0.1176      0.3387
150      0.0000      0.1086      0.0000      0.1489      0.0000      0.2191      0.0407      0.0000      0.0000

# j      m_j: min, <> & last-chain-values for 1 ...  7 chains
  1  1.4466E-02  1.2056E-02  1.2583E-02  1.3286E-02  1.2434E-02  1.2380E-02  1.2246E-02  1.2482E-02  1.2827E-02
  2  3.6333E-03  3.0276E-03  3.1726E-03  2.9893E-03  3.3467E-03  3.1176E-03  3.1836E-03  3.0396E-03  3.2360E-03
  3  9.8079E-03  8.9587E-03  8.9987E-03  9.0465E-03  9.0953E-03  9.3648E-03  9.1878E-03  9.2424E-03  8.7841E-03
  4  0.0000E+00  3.9369E-05  0.0000E+00  0.0000E+00  0.0000E+00  2.3230E-04  0.0000E+00  0.0000E+00  7.9376E-05
  5  0.0000E+00  7.6521E-05  0.0000E+00  1.4014E-04  0.0000E+00  0.0000E+00  0.0000E+00  0.0000E+00  0.0000E+00
  6  0.0000E+00  9.6769E-05  0.0000E+00  8.1407E-05  0.0000E+00  0.0000E+00  0.0000E+00  0.0000E+00  0.0000E+00
  7  0.0000E+00  1.3855E-04  0.0000E+00  0.0000E+00  0.0000E+00  0.0000E+00  0.0000E+00  3.3809E-04  0.0000E+00
  8  0.0000E+00  1.1860E-04  0.0000E+00  3.4540E-05  0.0000E+00  0.0000E+00  0.0000E+00  0.0000E+00  0.0000E+00
  9  0.0000E+00  8.3522E-05  0.0000E+00  1.7771E-04  0.0000E+00  0.0000E+00  1.4003E-04  0.0000E+00  0.0000E+00
 10  0.0000E+00  1.0472E-04  0.0000E+00  2.2199E-04  4.7889E-04  0.0000E+00  8.9618E-04  0.0000E+00  0.0000E+00
 11  0.0000E+00  1.4458E-04  0.0000E+00  0.0000E+00  4.2827E-04  0.0000E+00  0.0000E+00  1.4141E-06  0.0000E+00
 12  0.0000E+00  1.1888E-04  0.0000E+00  0.0000E+00  3.8568E-05  0.0000E+00  0.0000E+00  0.0000E+00  0.0000E+00
 13  0.0000E+00  9.2314E-05  0.0000E+00  0.0000E+00  0.0000E+00  0.0000E+00  6.3606E-05  0.0000E+00  3.5455E-05
 14  0.0000E+00  1.1493E-04  1.2858E-03  0.0000E+00  1.2478E-03  0.0000E+00  0.0000E+00  0.0000E+00  0.0000E+00
 15  0.0000E+00  3.1291E-04  0.0000E+00  0.0000E+00  0.0000E+00  0.0000E+00  0.0000E+00  0.0000E+00  0.0000E+00
 16  0.0000E+00  5.7821E-04  0.0000E+00  0.0000E+00  5.4121E-03  8.7786E-04  0.0000E+00  0.0000E+00  0.0000E+00
 17  0.0000E+00  4.5523E-04  0.0000E+00  0.0000E+00  0.0000E+00  0.0000E+00  1.8993E-04  0.0000E+00  0.0000E+00
 18  0.0000E+00  1.5092E-03  0.0000E+00  0.0000E+00  0.0000E+00  0.0000E+00  0.0000E+00  5.9582E-03  0.0000E+00
 19  0.0000E+00  2.3583E-03  1.2540E-02  8.5323E-03  0.0000E+00  0.0000E+00  0.0000E+00  0.0000E+00  0.0000E+00
 20  0.0000E+00  4.2788E-03  0.0000E+00  0.0000E+00  0.0000E+00  0.0000E+00  0.0000E+00  0.0000E+00  0.0000E+00
 21  0.0000E+00  7.2243E-03  0.0000E+00  7.2818E-02  1.4658E-02  0.0000E+00  2.8641E-03  0.0000E+00  0.0000E+00
 22  0.0000E+00  7.7320E-03  0.0000E+00  0.0000E+00  0.0000E+00  0.0000E+00  0.0000E+00  2.3114E-03  0.0000E+00
 23  0.0000E+00  1.1154E-02  0.0000E+00  0.0000E+00  0.0000E+00  1.1881E-02  0.0000E+00  0.0000E+00  3.0580E-02
 24  0.0000E+00  1.1348E-02  0.0000E+00  0.0000E+00  0.0000E+00  8.5291E-03  1.2239E-02  0.0000E+00  0.0000E+00
 25  0.0000E+00  1.6993E-02  0.0000E+00  0.0000E+00  8.0334E-03  0.0000E+00  0.0000E+00  0.0000E+00  0.0000E+00
 26  7.7346E-03  8.7191E-03  8.8479E-03  8.7601E-03  8.8634E-03  8.5405E-03  8.7513E-03  8.4428E-03  8.8377E-03
 27  2.2021E-06  1.6322E-05  9.4363E-05  0.0000E+00  1.1930E-04  0.0000E+00  1.0083E-04  2.7312E-05  0.0000E+00
 28  0.0000E+00  1.1315E-04  0.0000E+00  0.0000E+00  8.0100E-05  0.0000E+00  0.0000E+00  1.0204E-04  0.0000E+00
 29  0.0000E+00  4.9176E-04  4.5704E-04  5.4619E-04  2.7035E-04  3.9369E-04  4.4422E-04  4.8227E-04  4.1601E-04
 30  0.0000E+00  7.5099E-05  2.3793E-04  0.0000E+00  0.0000E+00  0.0000E+00  1.6567E-04  0.0000E+00  4.1834E-04
 31  0.0000E+00  6.3269E-05  0.0000E+00  0.0000E+00  0.0000E+00  0.0000E+00  0.0000E+00  0.0000E+00  0.0000E+00
 32  0.0000E+00  8.0254E-05  6.1429E-05  0.0000E+00  0.0000E+00  3.5001E-04  9.3951E-05  6.0614E-04  0.0000E+00
 33  0.0000E+00  6.3082E-05  0.0000E+00  4.9067E-04  5.0882E-05  0.0000E+00  0.0000E+00  0.0000E+00  0.0000E+00
 34  0.0000E+00  9.7699E-05  0.0000E+00  0.0000E+00  7.3916E-04  1.0763E-05  5.1086E-06  0.0000E+00  7.6801E-04
 35  0.0000E+00  1.2155E-04  0.0000E+00  0.0000E+00  0.0000E+00  6.8768E-05  0.0000E+00  0.0000E+00  0.0000E+00
 36  0.0000E+00  6.5799E-05  0.0000E+00  0.0000E+00  0.0000E+00  0.0000E+00  0.0000E+00  0.0000E+00  0.0000E+00
 37  0.0000E+00  7.5645E-05  0.0000E+00  0.0000E+00  0.0000E+00  0.0000E+00  0.0000E+00  0.0000E+00  0.0000E+00
 38  0.0000E+00  8.7958E-05  0.0000E+00  0.0000E+00  2.8982E-04  0.0000E+00  0.0000E+00  0.0000E+00  0.0000E+00
 39  0.0000E+00  1.7753E-04  0.0000E+00  1.1374E-03  9.8330E-05  0.0000E+00  0.0000E+00  0.0000E+00  0.0000E+00
 40  0.0000E+00  2.8001E-04  0.0000E+00  1.3829E-03  0.0000E+00  1.4756E-04  0.0000E+00  1.9252E-03  0.0000E+00
 41  0.0000E+00  6.2224E-04  0.0000E+00  0.0000E+00  0.0000E+00  6.2787E-04  0.0000E+00  0.0000E+00  0.0000E+00
 42  0.0000E+00  8.4541E-04  0.0000E+00  0.0000E+00  0.0000E+00  7.0767E-04  0.0000E+00  0.0000E+00  0.0000E+00
 43  0.0000E+00  2.5511E-03  0.0000E+00  2.7795E-02  0.0000E+00  0.0000E+00  0.0000E+00  3.7519E-02  1.2726E-02
 44  0.0000E+00  4.7112E-03  3.4115E-03  0.0000E+00  0.0000E+00  2.6153E-03  0.0000E+00  0.0000E+00  5.0410E-02
 45  0.0000E+00  8.3615E-03  1.5560E-03  0.0000E+00  4.2579E-03  0.0000E+00  0.0000E+00  0.0000E+00  2.6806E-03
 46  0.0000E+00  8.4640E-03  1.1744E-02  4.2398E-02  0.0000E+00  0.0000E+00  0.0000E+00  0.0000E+00  0.0000E+00
 47  0.0000E+00  1.4894E-02  3.7609E-02  0.0000E+00  1.0778E-02  0.0000E+00  0.0000E+00  1.7727E-03  3.5536E-03
 48  0.0000E+00  1.2423E-02  4.0062E-02  3.6752E-03  0.0000E+00  0.0000E+00  0.0000E+00  0.0000E+00  0.0000E+00
 49  3.8440E-05  1.5384E-02  0.0000E+00  0.0000E+00  8.8776E-02  3.0762E-01  0.0000E+00  1.6014E-02  0.0000E+00
 50  0.0000E+00  1.5715E-02  0.0000E+00  0.0000E+00  0.0000E+00  1.4279E-03  0.0000E+00  0.0000E+00  1.1332E-02
 51  3.4706E-03  4.1567E-03  4.3330E-03  3.7172E-03  4.1461E-03  4.1784E-03  4.5314E-03  4.0125E-03  4.0673E-03
 52  0.0000E+00  1.5877E-05  0.0000E+00  2.2865E-05  1.1415E-05  0.0000E+00  4.0162E-05  1.4349E-04  0.0000E+00
 53  0.0000E+00  2.8991E-05  1.3346E-06  0.0000E+00  0.0000E+00  0.0000E+00  0.0000E+00  0.0000E+00  0.0000E+00
 54  0.0000E+00  1.6491E-05  1.3708E-04  1.0566E-04  0.0000E+00  0.0000E+00  0.0000E+00  0.0000E+00  4.2974E-05
 55  0.0000E+00  3.3647E-05  0.0000E+00  1.5578E-04  0.0000E+00  0.0000E+00  7.0289E-05  0.0000E+00  2.4517E-05
 56  0.0000E+00  5.0551E-05  3.3001E-05  0.0000E+00  0.0000E+00  0.0000E+00  2.2705E-06  1.1042E-04  0.0000E+00
 57  0.0000E+00  4.9226E-05  0.0000E+00  0.0000E+00  0.0000E+00  0.0000E+00  0.0000E+00  0.0000E+00  0.0000E+00
 58  0.0000E+00  1.2097E-04  0.0000E+00  0.0000E+00  0.0000E+00  0.0000E+00  0.0000E+00  8.0554E-05  0.0000E+00
 59  0.0000E+00  8.6493E-05  2.4989E-04  0.0000E+00  0.0000E+00  0.0000E+00  0.0000E+00  0.0000E+00  0.0000E+00
 60  0.0000E+00  6.6191E-05  0.0000E+00  0.0000E+00  0.0000E+00  0.0000E+00  1.5734E-04  0.0000E+00  0.0000E+00
 61  0.0000E+00  6.9218E-05  0.0000E+00  0.0000E+00  0.0000E+00  0.0000E+00  0.0000E+00  0.0000E+00  0.0000E+00
 62  0.0000E+00  7.0674E-05  0.0000E+00  0.0000E+00  0.0000E+00  0.0000E+00  0.0000E+00  0.0000E+00  0.0000E+00
 63  0.0000E+00  1.2654E-04  0.0000E+00  0.0000E+00  0.0000E+00  0.0000E+00  0.0000E+00  2.8483E-05  0.0000E+00
 64  0.0000E+00  2.6464E-04  0.0000E+00  0.0000E+00  0.0000E+00  0.0000E+00  0.0000E+00  1.6597E-04  0.0000E+00
 65  0.0000E+00  6.7023E-04  0.0000E+00  1.6546E-03  0.0000E+00  0.0000E+00  6.3584E-03  0.0000E+00  0.0000E+00
 66  0.0000E+00  2.0016E-03  0.0000E+00  0.0000E+00  0.0000E+00  0.0000E+00  0.0000E+00  0.0000E+00  0.0000E+00
 67  0.0000E+00  2.0175E-03  0.0000E+00  0.0000E+00  0.0000E+00  0.0000E+00  6.6061E-03  4.0414E-03  0.0000E+00
 68  1.4027E-01  8.6639E-03  1.4912E-02  0.0000E+00  2.8862E-02  5.8079E-02  6.2684E-03  1.0145E-02  1.7628E-02
 69  0.0000E+00  1.8296E-02  0.0000E+00  0.0000E+00  0.0000E+00  0.0000E+00  0.0000E+00  2.2561E-02  0.0000E+00
 70  0.0000E+00  4.2975E-02  3.0832E-03  0.0000E+00  9.3938E-03  1.0848E-01  2.1860E-01  0.0000E+00  2.9475E-01
 71  2.9960E-01  6.3546E-02  1.2441E-01  0.0000E+00  6.4805E-02  2.5509E-02  2.7367E-02  0.0000E+00  6.2879E-02
 72  0.0000E+00  9.8430E-02  2.6190E-01  0.0000E+00  0.0000E+00  1.0274E-03  2.9862E-01  7.8201E-03  8.2021E-02
 73  0.0000E+00  1.4105E-01  1.7647E-01  1.9076E-01  1.9777E-02  3.2208E-01  0.0000E+00  4.3561E-02  9.2515E-02
 74  7.0049E-02  1.6051E-01  1.8826E-01  2.8010E-01  5.1737E-01  0.0000E+00  2.1135E-01  4.1109E-01  1.1386E-01
 75  3.3133E-02  1.4931E-01  2.7329E-01  3.4683E-01  1.6431E-01  1.3215E-01  9.0294E-02  3.5710E-01  0.0000E+00
 76  0.0000E+00  5.0892E-05  0.0000E+00  0.0000E+00  0.0000E+00  2.9120E-04  0.0000E+00  2.8919E-05  0.0000E+00
 77  0.0000E+00  9.0323E-06  0.0000E+00  0.0000E+00  0.0000E+00  0.0000E+00  0.0000E+00  0.0000E+00  0.0000E+00
 78  0.0000E+00  1.5689E-05  0.0000E+00  0.0000E+00  0.0000E+00  0.0000E+00  0.0000E+00  0.0000E+00  0.0000E+00
 79  0.0000E+00  2.5784E-05  5.9433E-05  0.0000E+00  0.0000E+00  0.0000E+00  0.0000E+00  0.0000E+00  0.0000E+00
 80  0.0000E+00  1.8516E-05  0.0000E+00  0.0000E+00  0.0000E+00  0.0000E+00  0.0000E+00  0.0000E+00  0.0000E+00
 81  0.0000E+00  2.4425E-05  0.0000E+00  0.0000E+00  0.0000E+00  0.0000E+00  0.0000E+00  0.0000E+00  0.0000E+00
 82  0.0000E+00  2.6719E-05  4.1914E-06  0.0000E+00  0.0000E+00  0.0000E+00  0.0000E+00  0.0000E+00  0.0000E+00
 83  0.0000E+00  4.7325E-05  0.0000E+00  1.7570E-04  0.0000E+00  0.0000E+00  0.0000E+00  1.3373E-04  0.0000E+00
 84  0.0000E+00  4.6709E-05  0.0000E+00  0.0000E+00  0.0000E+00  2.9245E-05  0.0000E+00  0.0000E+00  0.0000E+00
 85  0.0000E+00  5.4990E-05  0.0000E+00  4.9036E-04  0.0000E+00  0.0000E+00  4.9188E-04  0.0000E+00  5.0010E-05
 86  0.0000E+00  5.7251E-05  2.5753E-04  0.0000E+00  0.0000E+00  0.0000E+00  0.0000E+00  1.7228E-04  0.0000E+00
 87  0.0000E+00  8.0598E-05  0.0000E+00  0.0000E+00  0.0000E+00  0.0000E+00  8.8366E-05  0.0000E+00  0.0000E+00
 88  0.0000E+00  1.2157E-04  0.0000E+00  0.0000E+00  0.0000E+00  0.0000E+00  0.0000E+00  0.0000E+00  0.0000E+00
 89  0.0000E+00  3.8224E-04  0.0000E+00  0.0000E+00  0.0000E+00  0.0000E+00  0.0000E+00  0.0000E+00  0.0000E+00
 90  0.0000E+00  9.8515E-04  8.3500E-03  0.0000E+00  0.0000E+00  0.0000E+00  0.0000E+00  0.0000E+00  3.3805E-03
 91  0.0000E+00  1.7252E-03  1.4551E-03  0.0000E+00  0.0000E+00  0.0000E+00  0.0000E+00  7.1045E-03  0.0000E+00
 92  0.0000E+00  1.8742E-03  0.0000E+00  0.0000E+00  0.0000E+00  1.1762E-02  0.0000E+00  0.0000E+00  0.0000E+00
 93  0.0000E+00  9.1597E-03  0.0000E+00  0.0000E+00  0.0000E+00  0.0000E+00  0.0000E+00  0.0000E+00  0.0000E+00
 94  0.0000E+00  3.4235E-02  0.0000E+00  3.5283E-02  3.1520E-02  7.8019E-02  0.0000E+00  6.1393E-02  0.0000E+00
 95  0.0000E+00  1.0761E-01  1.3843E-01  3.3574E-02  3.6066E-02  1.7841E-01  1.3459E-01  3.4015E-02  1.8052E-01
 96  9.6188E-01  1.1949E-01  0.0000E+00  4.8335E-01  2.7115E-01  8.5575E-02  4.5204E-02  2.4343E-01  6.8976E-02
 97  3.8618E+00  4.5055E+00  4.6505E+00  4.3295E+00  4.6032E+00  4.1462E+00  4.7263E+00  4.0362E+00  4.5864E+00
 98  0.0000E+00  1.2911E-01  0.0000E+00  0.0000E+00  0.0000E+00  0.0000E+00  0.0000E+00  3.1912E-03  4.6499E-02
 99  0.0000E+00  1.1596E-01  0.0000E+00  0.0000E+00  0.0000E+00  0.0000E+00  0.0000E+00  0.0000E+00  1.5915E-01
100  0.0000E+00  1.3545E-01  0.0000E+00  0.0000E+00  0.0000E+00  0.0000E+00  8.4412E-02  1.9366E-03  2.9116E-01
101  0.0000E+00  2.1078E-05  0.0000E+00  0.0000E+00  0.0000E+00  0.0000E+00  0.0000E+00  0.0000E+00  0.0000E+00
102  0.0000E+00  1.1636E-05  0.0000E+00  0.0000E+00  0.0000E+00  0.0000E+00  0.0000E+00  0.0000E+00  0.0000E+00
103  0.0000E+00  2.8283E-05  0.0000E+00  0.0000E+00  9.6513E-06  6.9171E-05  0.0000E+00  0.0000E+00  0.0000E+00
104  0.0000E+00  2.3108E-05  0.0000E+00  0.0000E+00  0.0000E+00  0.0000E+00  0.0000E+00  0.0000E+00  1.7853E-04
105  0.0000E+00  4.6644E-05  0.0000E+00  0.0000E+00  8.1817E-06  0.0000E+00  0.0000E+00  5.9570E-05  0.0000E+00
106  0.0000E+00  3.7734E-05  0.0000E+00  0.0000E+00  0.0000E+00  0.0000E+00  0.0000E+00  0.0000E+00  0.0000E+00
107  0.0000E+00  4.7589E-05  0.0000E+00  0.0000E+00  0.0000E+00  0.0000E+00  0.0000E+00  3.2411E-04  0.0000E+00
108  0.0000E+00  5.6953E-05  0.0000E+00  0.0000E+00  0.0000E+00  0.0000E+00  0.0000E+00  0.0000E+00  5.3426E-05
109  0.0000E+00  6.3083E-05  0.0000E+00  0.0000E+00  0.0000E+00  0.0000E+00  0.0000E+00  0.0000E+00  0.0000E+00
110  0.0000E+00  5.8607E-05  0.0000E+00  0.0000E+00  0.0000E+00  0.0000E+00  0.0000E+00  0.0000E+00  0.0000E+00
111  0.0000E+00  8.2088E-05  0.0000E+00  0.0000E+00  0.0000E+00  0.0000E+00  0.0000E+00  0.0000E+00  2.9267E-04
112  0.0000E+00  8.6622E-05  0.0000E+00  0.0000E+00  0.0000E+00  0.0000E+00  0.0000E+00  0.0000E+00  0.0000E+00
113  0.0000E+00  1.6162E-04  0.0000E+00  0.0000E+00  0.0000E+00  3.5731E-05  0.0000E+00  0.0000E+00  0.0000E+00
114  0.0000E+00  3.4072E-04  0.0000E+00  0.0000E+00  0.0000E+00  0.0000E+00  1.5606E-03  0.0000E+00  2.9632E-05
115  0.0000E+00  1.2003E-03  0.0000E+00  0.0000E+00  0.0000E+00  0.0000E+00  0.0000E+00  0.0000E+00  0.0000E+00
116  0.0000E+00  3.9085E-03  1.2652E-02  3.3780E-03  1.5572E-03  0.0000E+00  0.0000E+00  0.0000E+00  0.0000E+00
117  0.0000E+00  4.9605E-03  4.2919E-02  0.0000E+00  3.0159E-03  0.0000E+00  0.0000E+00  6.8151E-03  0.0000E+00
118  0.0000E+00  2.0095E-02  0.0000E+00  0.0000E+00  3.4904E-02  0.0000E+00  0.0000E+00  2.2343E-02  4.3721E-02
119  0.0000E+00  6.1823E-02  4.4406E-03  2.4354E-01  0.0000E+00  0.0000E+00  0.0000E+00  1.1449E-01  2.0683E-02
120  0.0000E+00  1.2437E-01  5.9063E-03  5.0151E-02  0.0000E+00  2.0497E-03  8.0669E-02  4.9178E-01  2.1246E-01
121  0.0000E+00  1.6206E-01  0.0000E+00  1.9848E-02  0.0000E+00  3.1885E-01  1.3119E-01  3.1704E-03  3.0373E-02
122  4.6220E-01  1.9057E-01  7.9661E-02  8.1963E-02  1.5056E-01  1.3311E-01  1.4009E-01  9.4131E-01  1.3005E-01
123  2.8294E+00  3.7762E+00  3.9976E+00  3.9911E+00  4.2027E+00  3.9785E+00  3.9765E+00  3.5379E+00  4.2524E+00
124  3.5520E+01  3.4536E+01  3.4844E+01  3.4104E+01  3.4504E+01  3.4688E+01  3.4998E+01  3.4272E+01  3.4236E+01
125  3.5937E+01  3.4800E+01  3.5088E+01  3.4687E+01  3.5476E+01  3.4929E+01  3.4002E+01  3.5310E+01  3.5086E+01
126  0.0000E+00  1.5998E-05  0.0000E+00  0.0000E+00  0.0000E+00  0.0000E+00  0.0000E+00  0.0000E+00  1.7191E-06
127  0.0000E+00  1.2731E-05  0.0000E+00  0.0000E+00  0.0000E+00  0.0000E+00  0.0000E+00  2.7689E-05  3.4858E-05
128  0.0000E+00  2.0836E-05  0.0000E+00  0.0000E+00  0.0000E+00  0.0000E+00  0.0000E+00  0.0000E+00  0.0000E+00
129  0.0000E+00  2.2163E-05  0.0000E+00  0.0000E+00  0.0000E+00  0.0000E+00  0.0000E+00  0.0000E+00  0.0000E+00
130  0.0000E+00  1.6486E-05  0.0000E+00  0.0000E+00  0.0000E+00  0.0000E+00  0.0000E+00  3.0093E-04  0.0000E+00
131  0.0000E+00  3.2565E-05  0.0000E+00  0.0000E+00  0.0000E+00  0.0000E+00  0.0000E+00  0.0000E+00  0.0000E+00
132  0.0000E+00  3.2470E-05  0.0000E+00  0.0000E+00  0.0000E+00  0.0000E+00  0.0000E+00  0.0000E+00  0.0000E+00
133  0.0000E+00  4.8658E-05  0.0000E+00  0.0000E+00  0.0000E+00  0.0000E+00  0.0000E+00  0.0000E+00  4.4204E-05
134  0.0000E+00  3.9557E-05  0.0000E+00  0.0000E+00  0.0000E+00  9.3508E-04  0.0000E+00  0.0000E+00  0.0000E+00
135  0.0000E+00  4.7204E-05  0.0000E+00  0.0000E+00  0.0000E+00  0.0000E+00  0.0000E+00  0.0000E+00  0.0000E+00
136  0.0000E+00  6.4119E-05  4.7618E-04  0.0000E+00  0.0000E+00  0.0000E+00  0.0000E+00  0.0000E+00  0.0000E+00
137  0.0000E+00  8.2259E-05  0.0000E+00  0.0000E+00  0.0000E+00  0.0000E+00  9.3193E-04  0.0000E+00  0.0000E+00
138  0.0000E+00  1.4276E-04  0.0000E+00  0.0000E+00  0.0000E+00  0.0000E+00  0.0000E+00  0.0000E+00  0.0000E+00
139  0.0000E+00  5.5939E-04  0.0000E+00  0.0000E+00  0.0000E+00  0.0000E+00  0.0000E+00  0.0000E+00  0.0000E+00
140  0.0000E+00  3.3158E-03  0.0000E+00  0.0000E+00  7.5527E-03  0.0000E+00  0.0000E+00  0.0000E+00  0.0000E+00
141  0.0000E+00  1.0514E-02  0.0000E+00  1.1479E-02  5.8678E-06  1.2273E-02  6.4160E-02  0.0000E+00  0.0000E+00
142  0.0000E+00  1.3916E-02  0.0000E+00  0.0000E+00  0.0000E+00  0.0000E+00  4.3298E-02  0.0000E+00  0.0000E+00
143  0.0000E+00  3.0768E-02  6.1600E-02  4.2136E-02  0.0000E+00  0.0000E+00  0.0000E+00  7.1316E-02  0.0000E+00
144  0.0000E+00  6.7502E-02  3.6389E-03  0.0000E+00  6.7049E-02  3.1998E-01  0.0000E+00  0.0000E+00  0.0000E+00
145  8.0253E-02  1.1980E-01  4.7428E-02  2.8072E-02  1.7342E-01  0.0000E+00  0.0000E+00  1.1175E-01  0.0000E+00
146  0.0000E+00  1.1818E+00  1.1323E+00  7.1039E-01  9.6981E-02  1.2822E+00  8.4106E-01  9.0822E-01  1.1469E+00
147  1.2384E+01  1.1982E+01  1.1843E+01  1.1992E+01  1.2298E+01  1.1468E+01  1.2297E+01  1.2564E+01  1.2243E+01
148  7.3799E+00  5.7973E+00  6.1527E+00  5.9688E+00  6.6469E+00  5.8208E+00  5.8034E+00  5.9993E+00  5.5929E+00
149  0.0000E+00  7.4502E-01  6.9459E-01  1.7245E+00  4.1727E-01  8.7037E-01  1.5852E+00  2.9665E-01  8.5462E-01
150  0.0000E+00  3.2611E-01  0.0000E+00  4.4309E-01  0.0000E+00  6.5519E-01  1.2227E-01  0.0000E+00  0.0000E+00

# AV, chi2 & Mass for <> & i_chain = 1 ...  7 solutions
AV       1.6836      1.6805      1.6826      1.6783      1.6796      1.6788      1.6807      1.6816      1.6823
chi2 2.1848E+00  2.2055E+00  2.1959E+00  2.1975E+00  2.1951E+00  2.2007E+00  2.1969E+00  2.2007E+00  2.1966E+00
Mass 1.9611E-09  1.9456E-09  1.9556E-09  1.9574E-09  1.9596E-09  1.9493E-09  1.9468E-09  1.9466E-09  1.9484E-09
   6.43                                  [v0_min (km/s) before EX0s...]
  17.00                                  [vd_min (km/s) before EX0s...]


## Synthetic spectrum (Best Model) ##l_obs f_obs f_syn wei
 3070    [Nl_obs]
 3359.00    0.29773   0.41804   -1.000
 3360.00    0.30265   0.39562   -1.000
 3361.00    0.28717   0.39628   -1.000
 3362.00    0.31851   0.42336   -1.000
 3363.00    0.27417   0.45943   -1.000
 3364.00    0.30526   0.48594   -1.000
 3365.00    0.34605   0.48879   -1.000
 3366.00    0.37178   0.46792   -1.000
 3367.00    0.32110   0.44553   -1.000
 3368.00    0.31028   0.42317   -1.000
 3369.00    0.30949   0.41212   -1.000
 3370.00    0.30519   0.40707   -1.000
 3371.00    0.27007   0.40495   -1.000
 3372.00    0.30110   0.40972   -1.000
 3373.00    0.33111   0.42789   -1.000
 3374.00    0.34404   0.45478   -1.000
 3375.00    0.34606   0.48332   -1.000
 3376.00    0.34576   0.50310   -1.000
 3377.00    0.34424   0.50103   -1.000
 3378.00    0.33607   0.47900   -1.000
 3379.00    0.32482   0.45654   -1.000
 3380.00    0.34129   0.44285   -1.000
 3381.00    0.34326   0.45136   -1.000
 3382.00    0.38265   0.46545   -1.000
 3383.00    0.40810   0.48111   -1.000
 3384.00    0.39560   0.48978   -1.000
 3385.00    0.38193   0.49981   -1.000
 3386.00    0.37620   0.50390   -1.000
 3387.00    0.36068   0.50430   -1.000
 3388.00    0.35719   0.50246   -1.000
 3389.00    0.36556   0.50057   -1.000
 3390.00    0.38436   0.49591   -1.000
 3391.00    0.39057   0.48028   -1.000
 3392.00    0.38334   0.46532   -1.000
 3393.00    0.36767   0.46288   -1.000
 3394.00    0.36587   0.47452   -1.000
 3395.00    0.39685   0.49744   -1.000
 3396.00    0.41043   0.51299   -1.000
 3397.00    0.41913   0.52840   -1.000
 3398.00    0.43695   0.54237   -1.000
 3399.00    0.45780   0.54726   -1.000
 3400.00    0.45183   0.54436   -1.000
 3401.00    0.47286   0.53568   -1.000
 3402.00    0.47707   0.51985   52.713
 3403.00    0.45347   0.50776   53.664
 3404.00    0.45751   0.49976   54.458
 3405.00    0.44892   0.49302   54.774
 3406.00    0.41023   0.48523   -1.000
 3407.00    0.42164   0.47707   -1.000
 3408.00    0.42900   0.47690   55.268
 3409.00    0.43778   0.48216   53.723
 3410.00    0.43945   0.49354   53.669
 3411.00    0.45464   0.49288   55.890
 3412.00    0.47506   0.47760   56.740
 3413.00    0.43882   0.45914   56.418
 3414.00    0.42383   0.44460   54.849
 3415.00    0.43586   0.45197   52.437
 3416.00    0.43148   0.46912   49.925
 3417.00    0.42955   0.49605   -1.000
 3418.00    0.44652   0.51733   -1.000
 3419.00    0.45496   0.53839   -1.000
 3420.00    0.48564   0.54565   47.729
 3421.00    0.49323   0.53906   49.112
 3422.00    0.48897   0.51502   49.866
 3423.00    0.48503   0.50277   48.410
 3424.00    0.47453   0.50031   47.275
 3425.00    0.49186   0.50332   53.577
 3426.00    0.48716   0.50747   -1.000
 3427.00    0.49728   0.51304   -1.000
 3428.00    0.50829   0.52811   -1.000
 3429.00    0.54138   0.55329   -1.000
 3430.00    0.53502   0.55446   -1.000
 3431.00    0.50628   0.53889   47.223
 3432.00    0.47392   0.51286   53.666
 3433.00    0.45700   0.49918   -1.000
 3434.00    0.47175   0.50760   -1.000
 3435.00    0.48798   0.51673   47.230
 3436.00    0.49699   0.51740   49.556
 3437.00    0.48648   0.50378   52.686
 3438.00    0.48155   0.48032   56.614
 3439.00    0.45198   0.44638   58.553
 3440.00    0.41513   0.41832   58.576
 3441.00    0.39543   0.39629   58.005
 3442.00    0.39337   0.39593   55.542
 3443.00    0.40784   0.40751   52.483
 3444.00    0.40116   0.42447   49.741
 3445.00    0.40394   0.43804   55.635
 3446.00    0.42897   0.45509   -1.000
 3447.00    0.46629   0.47166  395.681
 3448.00    0.49078   0.49431  395.681
 3449.00    0.50560   0.51717   -1.000
 3450.00    0.48830   0.52283   -1.000
 3451.00    0.49643   0.50741   -1.000
 3452.00    0.47915   0.49472   -1.000
 3453.00    0.47862   0.49046   -1.000
 3454.00    0.51711   0.50276   -1.000
 3455.00    0.51048   0.51294  395.681
 3456.00    0.52436   0.50743   -1.000
 3457.00    0.51893   0.49175   47.166
 3458.00    0.51398   0.46649   47.659
 3459.00    0.48014   0.45230   55.127
 3460.00    0.49709   0.44296   -1.000
 3461.00    0.49422   0.44639   -1.000
 3462.00    0.48235   0.46265   -1.000
 3463.00    0.52805   0.49321   -1.000
 3464.00    0.53818   0.49728   -1.000
 3465.00    0.49874   0.49114  395.681
 3466.00    0.51121   0.48756   -1.000
 3467.00    0.51393   0.49319   -1.000
 3468.00    0.52012   0.51221   -1.000
 3469.00    0.54840   0.52705   -1.000
 3470.00    0.55012   0.53467   -1.000
 3471.00    0.52681   0.52255  395.681
 3472.00    0.50533   0.50169  187.917
 3473.00    0.51618   0.47422   47.748
 3474.00    0.49606   0.45017   49.075
 3475.00    0.44990   0.42935   56.547
 3476.00    0.44548   0.43104   -1.000
 3477.00    0.45784   0.44657   -1.000
 3478.00    0.47368   0.47045  395.681
 3479.00    0.51648   0.48974   -1.000
 3480.00    0.52921   0.50172   -1.000
 3481.00    0.52417   0.50211   -1.000
 3482.00    0.52745   0.49179   -1.000
 3483.00    0.51227   0.47927   -1.000
 3484.00    0.51320   0.47710   -1.000
 3485.00    0.50976   0.49473   -1.000
 3486.00    0.53199   0.51319   -1.000
 3487.00    0.55592   0.52450   -1.000
 3488.00    0.52670   0.51079   -1.000
 3489.00    0.48719   0.48335  395.681
 3490.00    0.48686   0.45740   -1.000
 3491.00    0.48369   0.44942   -1.000
 3492.00    0.49150   0.46026   -1.000
 3493.00    0.52160   0.47507   -1.000
 3494.00    0.50385   0.48724   -1.000
 3495.00    0.46825   0.48104   -1.000
 3496.00    0.47459   0.46922  395.681
 3497.00    0.49127   0.46860   -1.000
 3498.00    0.49185   0.49222  375.328
 3499.00    0.50118   0.52839   -1.000
 3500.00    0.53895   0.54156  366.690
 3501.00    0.55475   0.54503   -1.000
 3502.00    0.55240   0.55357  376.014
 3503.00    0.57473   0.55978   -1.000
 3504.00    0.57484   0.55730   -1.000
 3505.00    0.54697   0.54388  381.597
 3506.00    0.53420   0.53174  379.021
 3507.00    0.54908   0.53053   -1.000
 3508.00    0.54697   0.52851   -1.000
 3509.00    0.54617   0.51569   -1.000
 3510.00    0.53735   0.50332   -1.000
 3511.00    0.53839   0.48997   -1.000
 3512.00    0.52059   0.47733   -1.000
 3513.00    0.48456   0.46476   -1.000
 3514.00    0.49095   0.45817   -1.000
 3515.00    0.45997   0.47499   -1.000
 3516.00    0.48764   0.51305   -1.000
 3517.00    0.53606   0.54390   -1.000
 3518.00    0.56439   0.55870  395.681
 3519.00    0.56837   0.54440   -1.000
 3520.00    0.56247   0.52047   -1.000
 3521.00    0.52293   0.48913   -1.000
 3522.00    0.50277   0.46957   47.372
 3523.00    0.49376   0.45042   48.689
 3524.00    0.46281   0.43264   58.770
 3525.00    0.43893   0.42403   -1.000
 3526.00    0.45750   0.43763   -1.000
 3527.00    0.46225   0.46637  395.527
 3528.00    0.49888   0.50498  392.351
 3529.00    0.52509   0.52927  395.681
 3530.00    0.55215   0.53608   -1.000
 3531.00    0.54030   0.52479   -1.000
 3532.00    0.51313   0.52154   -1.000
 3533.00    0.51445   0.52809   -1.000
 3534.00    0.54317   0.54013  376.703
 3535.00    0.55917   0.54993   -1.000
 3536.00    0.56169   0.54916   -1.000
 3537.00    0.51495   0.55022   -1.000
 3538.00    0.51898   0.56058   -1.000
 3539.00    0.57464   0.56560   -1.000
 3540.00    0.55737   0.56328  382.671
 3541.00    0.54041   0.55083   -1.000
 3542.00    0.52716   0.54602   -1.000
 3543.00    0.52485   0.55589   -1.000
 3544.00    0.55279   0.56588   -1.000
 3545.00    0.55215   0.57132   -1.000
 3546.00    0.56567   0.56299  390.879
 3547.00    0.54222   0.55548   -1.000
 3548.00    0.50191   0.55491   -1.000
 3549.00    0.50799   0.55724   -1.000
 3550.00    0.52750   0.55616   -1.000
 3551.00    0.51247   0.54647   -1.000
 3552.00    0.51457   0.53164   -1.000
 3553.00    0.51301   0.51554  395.681
 3554.00    0.50093   0.51094   -1.000
 3555.00    0.48462   0.51778   -1.000
 3556.00    0.47865   0.52226   -1.000
 3557.00    0.50037   0.52387   -1.000
 3558.00    0.48214   0.51768   -1.000
 3559.00    0.47241   0.51562   -1.000
 3560.00    0.49562   0.52492   -1.000
 3561.00    0.51112   0.53839   -1.000
 3562.00    0.51892   0.54937   -1.000
 3563.00    0.51628   0.53419   47.948
 3564.00    0.50323   0.50130   49.351
 3565.00    0.46939   0.45965   48.825
 3566.00    0.44927   0.44552   48.985
 3567.00    0.43896   0.44860   50.510
 3568.00    0.43581   0.44626   50.847
 3569.00    0.43731   0.43558   49.067
 3570.00    0.42759   0.42405   59.357
 3571.00    0.42647   0.42522  395.681
 3572.00    0.44977   0.44709  395.681
 3573.00    0.47144   0.46323   -1.000
 3574.00    0.46466   0.47509   -1.000
 3575.00    0.45649   0.48178   -1.000
 3576.00    0.46706   0.48181  157.875
 3577.00    0.47604   0.46941   49.976
 3578.00    0.46068   0.45002   53.706
 3579.00    0.42591   0.41939   56.037
 3580.00    0.39030   0.39662   56.345
 3581.00    0.37489   0.38396   56.852
 3582.00    0.37641   0.38852   58.408
 3583.00    0.38959   0.39561   60.086
 3584.00    0.40260   0.39776   59.964
 3585.00    0.38727   0.39108   56.851
 3586.00    0.38251   0.38599   53.886
 3587.00    0.37908   0.39361   50.711
 3588.00    0.39869   0.40964   59.863
 3589.00    0.42032   0.43874   -1.000
 3590.00    0.42986   0.46938   -1.000
 3591.00    0.44970   0.49836   -1.000
 3592.00    0.47612   0.50493   -1.000
 3593.00    0.47487   0.50508   -1.000
 3594.00    0.46755   0.51070   -1.000
 3595.00    0.49115   0.52810   -1.000
 3596.00    0.51485   0.55403   -1.000
 3597.00    0.54405   0.56711   -1.000
 3598.00    0.57985   0.57787  361.358
 3599.00    0.58262   0.59108   -1.000
 3600.00    0.58162   0.59298   -1.000
 3601.00    0.58618   0.57349   -1.000
 3602.00    0.54673   0.54389  395.681
 3603.00    0.51251   0.51049  395.681
 3604.00    0.49514   0.49087  395.681
 3605.00    0.50328   0.48501   -1.000
 3606.00    0.48360   0.48430  395.681
 3607.00    0.47047   0.47467  395.681
 3608.00    0.46176   0.45785  395.681
 3609.00    0.45818   0.45127   -1.000
 3610.00    0.45387   0.45996  395.681
 3611.00    0.48848   0.48696  395.681
 3612.00    0.50699   0.50438  394.106
 3613.00    0.51363   0.51786  383.511
 3614.00    0.52659   0.53277  392.404
 3615.00    0.54309   0.54538  395.681
 3616.00    0.53690   0.53812  141.688
 3617.00    0.50475   0.50762   60.617
 3618.00    0.46050   0.45621  395.681
 3619.00    0.43585   0.44479   -1.000
 3620.00    0.46397   0.46186  375.706
 3621.00    0.50908   0.50478  367.990
 3622.00    0.52172   0.54147   -1.000
 3623.00    0.54162   0.56336   -1.000
 3624.00    0.57146   0.58018   -1.000
 3625.00    0.58248   0.60800   -1.000
 3626.00    0.59837   0.63812   -1.000
 3627.00    0.64388   0.65554   -1.000
 3628.00    0.64052   0.64350  395.681
 3629.00    0.60235   0.60207  395.681
 3630.00    0.54595   0.53272   -1.000
 3631.00    0.49553   0.49164  395.681
 3632.00    0.47841   0.47451  395.681
 3633.00    0.48831   0.49136  395.681
 3634.00    0.50104   0.51538   -1.000
 3635.00    0.50846   0.53942   -1.000
 3636.00    0.54627   0.55065  348.530
 3637.00    0.56951   0.56715  339.949
 3638.00    0.58271   0.59323   -1.000
 3639.00    0.61182   0.61485  351.653
 3640.00    0.62639   0.62700  365.533
 3641.00    0.62510   0.61954  383.109
 3642.00    0.58075   0.59648   -1.000
 3643.00    0.55113   0.57143   -1.000
 3644.00    0.54184   0.54743  395.681
 3645.00    0.52602   0.52761  395.681
 3646.00    0.50546   0.51034  395.681
 3647.00    0.52185   0.49032   -1.000
 3648.00    0.51000   0.48788   -1.000
 3649.00    0.49950   0.50098  360.775
 3650.00    0.51682   0.53434   -1.000
 3651.00    0.54779   0.56888   -1.000
 3652.00    0.58357   0.60736   -1.000
 3653.00    0.60502   0.62301   -1.000
 3654.00    0.62139   0.63193   -1.000
 3655.00    0.63105   0.64007   -1.000
 3656.00    0.62710   0.65233   -1.000
 3657.00    0.63862   0.67175   -1.000
 3658.00    0.65623   0.68262   -1.000
 3659.00    0.66757   0.68786   -1.000
 3660.00    0.66398   0.68388   -1.000
 3661.00    0.66716   0.67311  336.574
 3662.00    0.64678   0.65373  337.149
 3663.00    0.62657   0.64160   -1.000
 3664.00    0.62263   0.63594   -1.000
 3665.00    0.62975   0.63858   -1.000
 3666.00    0.62603   0.63951   -1.000
 3667.00    0.62305   0.62999  353.317
 3668.00    0.61850   0.61425  347.551
 3669.00    0.61201   0.59924   -1.000
 3670.00    0.60506   0.60754  331.070
 3671.00    0.60744   0.63047   -1.000
 3672.00    0.60386   0.64911   -1.000
 3673.00    0.64020   0.65823   -1.000
 3674.00    0.65884   0.65725  344.593
 3675.00    0.63533   0.64783   -1.000
 3676.00    0.62242   0.62727  365.533
 3677.00    0.61606   0.59890   -1.000
 3678.00    0.59998   0.56902   -1.000
 3679.00    0.56573   0.54813   -1.000
 3680.00    0.55154   0.54806  349.551
 3681.00    0.56672   0.56684  349.900
 3682.00    0.59274   0.58812  360.368
 3683.00    0.59717   0.60232  375.332
 3684.00    0.59834   0.59383  388.193
 3685.00    0.57879   0.57018   -1.000
 3686.00    0.53591   0.53337  373.515
 3687.00    0.51908   0.52032  348.515
 3688.00    0.52339   0.53200  329.307
 3689.00    0.54914   0.57387   -1.000
 3690.00    0.60101   0.62082   -1.000
 3691.00    0.63573   0.65729   -1.000
 3692.00    0.64230   0.65726   -1.000
 3693.00    0.63634   0.63544  336.357
 3694.00    0.63075   0.61955   -1.000
 3695.00    0.61631   0.61271  326.695
 3696.00    0.61303   0.61992  316.610
 3697.00    0.62352   0.63526   -1.000
 3698.00    0.64510   0.66295   -1.000
 3699.00    0.67720   0.68237  317.445
 3700.00    0.70044   0.69260  336.856
 3701.00    0.68827   0.68060  369.391
 3702.00    0.64708   0.64759  395.681
 3703.00    0.60160   0.58694   -1.000
 3704.00    0.55155   0.53466   -1.000
 3705.00    0.51924   0.49083   -1.000
 3706.00    0.49972   0.48250   -1.000
 3707.00    0.49756   0.48751   -1.000
 3708.00    0.52372   0.49688   -1.000
 3709.00    0.52967   0.51507   -1.000
 3710.00    0.55635   0.55219  323.342
 3711.00    0.60061   0.59189  310.314
 3712.00    0.63391   0.63425  304.902
 3713.00    0.67653   0.66721  306.899
 3714.00    0.68212   0.67975  316.993
 3715.00    0.66640   0.66882  336.300
 3716.00    0.66814   0.64435   -1.000
 3717.00    0.62407   0.60104   -1.000
 3718.00    0.54227   0.54408  122.994
 3719.00    0.49458   0.48425   66.746
 3720.00    0.45763   0.42780   -1.000
 3721.00    0.42174   0.41418   -1.000
 3722.00    0.44928   0.43695   -1.000
 3723.00    0.51491   0.48407   -1.000
 3724.00    0.57387   0.53823   -1.000
 3725.00    0.59953   0.57593   -1.000
 3726.00    0.60020   0.57699   -1.000
 3727.00    0.57759   0.55866   -1.000
 3728.00    0.55011   0.55789  359.530
 3729.00    0.57731   0.56408   -1.000
 3730.00    0.57642   0.56168  116.569
 3731.00    0.54429   0.53677   48.607
 3732.00    0.51501   0.48029   53.210
 3733.00    0.47473   0.43013   53.585
 3734.00    0.42053   0.38501   50.032
 3735.00    0.38289   0.36770   66.114
 3736.00    0.38826   0.37676   -1.000
 3737.00    0.41634   0.41661  364.986
 3738.00    0.47211   0.46573  350.387
 3739.00    0.53066   0.52771  353.826
 3740.00    0.57690   0.56538   -1.000
 3741.00    0.58567   0.57520   -1.000
 3742.00    0.56871   0.54824   -1.000
 3743.00    0.51939   0.51376  395.681
 3744.00    0.48829   0.47332  117.749
 3745.00    0.46706   0.45423   48.550
 3746.00    0.44100   0.43801   50.832
 3747.00    0.43548   0.41635   72.979
 3748.00    0.42711   0.39822   -1.000
 3749.00    0.41065   0.39283   -1.000
 3750.00    0.43779   0.41818   -1.000
 3751.00    0.48452   0.47347   -1.000
 3752.00    0.52549   0.52793  316.009
 3753.00    0.57695   0.57561  318.012
 3754.00    0.62615   0.61876  344.218
 3755.00    0.64747   0.62712   -1.000
 3756.00    0.61891   0.59709   -1.000
 3757.00    0.55576   0.54224   -1.000
 3758.00    0.50818   0.49273   -1.000
 3759.00    0.49482   0.48645   -1.000
 3760.00    0.51183   0.50139   -1.000
 3761.00    0.53007   0.52269  358.536
 3762.00    0.53897   0.52765   -1.000
 3763.00    0.54285   0.52421   -1.000
 3764.00    0.53687   0.52347   -1.000
 3765.00    0.54903   0.52037   -1.000
 3766.00    0.54654   0.51252   -1.000
 3767.00    0.52179   0.51275   -1.000
 3768.00    0.52717   0.52379  367.171
 3769.00    0.57293   0.53680   -1.000
 3770.00    0.57306   0.54971   -1.000
 3771.00    0.58027   0.56894   -1.000
 3772.00    0.59935   0.58990   -1.000
 3773.00    0.62997   0.61118   -1.000
 3774.00    0.63797   0.61740   -1.000
 3775.00    0.63224   0.61675   -1.000
 3776.00    0.64405   0.61862   -1.000
 3777.00    0.63021   0.62490  304.986
 3778.00    0.63353   0.63804  299.761
 3779.00    0.65682   0.65216  297.883
 3780.00    0.67449   0.66682  296.795
 3781.00    0.69088   0.67582   -1.000
 3782.00    0.68173   0.68113  309.695
 3783.00    0.68459   0.68298  328.847
 3784.00    0.68171   0.66911   -1.000
 3785.00    0.64262   0.63427   -1.000
 3786.00    0.58512   0.59171  368.265
 3787.00    0.54058   0.55262   -1.000
 3788.00    0.51807   0.52793   -1.000
 3789.00    0.51600   0.52746   -1.000
 3790.00    0.54321   0.54319  368.329
 3791.00    0.55717   0.55711  381.977
 3792.00    0.56266   0.56101  394.546
 3793.00    0.55022   0.54111   -1.000
 3794.00    0.52008   0.51836  395.681
 3795.00    0.50752   0.49881   -1.000
 3796.00    0.49147   0.48064   -1.000
 3797.00    0.48226   0.45852   -1.000
 3798.00    0.47554   0.44309   -1.000
 3799.00    0.46810   0.45266   -1.000
 3800.00    0.48422   0.49812   -1.000
 3801.00    0.51971   0.54597   -1.000
 3802.00    0.55040   0.59196   -1.000
 3803.00    0.57616   0.61720   -1.000
 3804.00    0.58515   0.62599   -1.000
 3805.00    0.57637   0.61170   -1.000
 3806.00    0.55133   0.59069   -1.000
 3807.00    0.52949   0.57650   -1.000
 3808.00    0.54206   0.58743   -1.000
 3809.00    0.57501   0.60979   -1.000
 3810.00    0.59329   0.62466   -1.000
 3811.00    0.58685   0.61816   -1.000
 3812.00    0.57081   0.58403   -1.000
 3813.00    0.53204   0.54606   -1.000
 3814.00    0.49113   0.50687   -1.000
 3815.00    0.46610   0.48826   -1.000
 3816.00    0.45738   0.48765   -1.000
 3817.00    0.47092   0.49849   -1.000
 3818.00    0.47769   0.49394   -1.000
 3819.00    0.45304   0.46841   -1.000
 3820.00    0.42554   0.44952   -1.000
 3821.00    0.42340   0.44769   -1.000
 3822.00    0.43742   0.46731   -1.000
 3823.00    0.45137   0.47196   49.560
 3824.00    0.43782   0.44825   50.028
 3825.00    0.41328   0.42626   49.424
 3826.00    0.41061   0.41327   48.613
 3827.00    0.41140   0.41719   48.364
 3828.00    0.41287   0.42921   49.613
 3829.00    0.42637   0.44164   52.570
 3830.00    0.42485   0.44421   55.817
 3831.00    0.40780   0.43303   56.353
 3832.00    0.38287   0.41068   54.718
 3833.00    0.37450   0.38904   52.892
 3834.00    0.38088   0.38244   52.653
 3835.00    0.39813   0.38581   53.878
 3836.00    0.41648   0.39803   54.269
 3837.00    0.41243   0.40351   52.375
 3838.00    0.39887   0.40188   77.636
 3839.00    0.38035   0.40382   -1.000
 3840.00    0.38810   0.41741   -1.000
 3841.00    0.42088   0.45236   -1.000
 3842.00    0.45470   0.49001   -1.000
 3843.00    0.48054   0.52962   -1.000
 3844.00    0.51153   0.54965   -1.000
 3845.00    0.51345   0.55713   -1.000
 3846.00    0.49949   0.55847   -1.000
 3847.00    0.50273   0.55724   -1.000
 3848.00    0.50126   0.54787   -1.000
 3849.00    0.49582   0.53419   -1.000
 3850.00    0.49160   0.52508   -1.000
 3851.00    0.47826   0.53448   -1.000
 3852.00    0.48873   0.54540   -1.000
 3853.00    0.49850   0.54770   -1.000
 3854.00    0.48136   0.53582   -1.000
 3855.00    0.46530   0.51903   -1.000
 3856.00    0.46039   0.50536   47.714
 3857.00    0.44786   0.48869   49.043
 3858.00    0.43232   0.46619   75.527
 3859.00    0.41765   0.45708   -1.000
 3860.00    0.41637   0.46346   -1.000
 3861.00    0.43551   0.49811   -1.000
 3862.00    0.47948   0.53417   -1.000
 3863.00    0.52011   0.55606   -1.000
 3864.00    0.53533   0.55395   -1.000
 3865.00    0.52948   0.54196   -1.000
 3866.00    0.50694   0.53661   -1.000
 3867.00    0.49418   0.53606   -1.000
 3868.00    0.48864   0.53348   -1.000
 3869.00    0.47146   0.52475   -1.000
 3870.00    0.44410   0.50164   -1.000
 3871.00    0.43399   0.48740   -1.000
 3872.00    0.46020   0.48604   -1.000
 3873.00    0.48956   0.51093   -1.000
 3874.00    0.51314   0.54378   -1.000
 3875.00    0.54414   0.57301   -1.000
 3876.00    0.55361   0.56342   -1.000
 3877.00    0.52156   0.53053  395.681
 3878.00    0.48504   0.51080   -1.000
 3879.00    0.47371   0.50553   -1.000
 3880.00    0.47303   0.51270   -1.000
 3881.00    0.46410   0.51872   -1.000
 3882.00    0.47311   0.52312   -1.000
 3883.00    0.51029   0.53747   -1.000
 3884.00    0.54028   0.54608  395.681
 3885.00    0.53829   0.52185   -1.000
 3886.00    0.51810   0.48754   -1.000
 3887.00    0.51525   0.45876   -1.000
 3888.00    0.52261   0.45856   -1.000
 3889.00    0.54557   0.48679   -1.000
 3890.00    0.59006   0.53740   -1.000
 3891.00    0.63110   0.59091   -1.000
 3892.00    0.65503   0.63368   -1.000
 3893.00    0.66900   0.64315   -1.000
 3894.00    0.65889   0.63089   -1.000
 3895.00    0.63848   0.62436   -1.000
 3896.00    0.63602   0.62541   -1.000
 3897.00    0.64852   0.63182   -1.000
 3898.00    0.65661   0.63073   -1.000
 3899.00    0.65234   0.62107   -1.000
 3900.00    0.65263   0.62309   -1.000
 3901.00    0.65349   0.63109   -1.000
 3902.00    0.65045   0.63195   -1.000
 3903.00    0.64067   0.62318   -1.000
 3904.00    0.61801   0.60493   -1.000
 3905.00    0.60945   0.59724   -1.000
 3906.00    0.62965   0.60182   -1.000
 3907.00    0.64827   0.63097   -1.000
 3908.00    0.68032   0.66826   -1.000
 3909.00    0.70748   0.70017  284.779
 3910.00    0.72799   0.71402   -1.000
 3911.00    0.74648   0.72324   -1.000
 3912.00    0.75926   0.72697   -1.000
 3913.00    0.74891   0.72453   -1.000
 3914.00    0.73667   0.71455   -1.000
 3915.00    0.73190   0.70418   -1.000
 3916.00    0.70726   0.69133   -1.000
 3917.00    0.69253   0.67600   -1.000
 3918.00    0.67729   0.65382   -1.000
 3919.00    0.64588   0.62082   -1.000
 3920.00    0.61072   0.59354   -1.000
 3921.00    0.58918   0.57325   -1.000
 3922.00    0.58348   0.57519  355.084
 3923.00    0.60443   0.58758   -1.000
 3924.00    0.61419   0.59416   -1.000
 3925.00    0.60861   0.58889  101.916
 3926.00    0.57511   0.55962   55.725
 3927.00    0.51256   0.52251   65.288
 3928.00    0.46089   0.47761   76.755
 3929.00    0.40438   0.44145   -1.000
 3930.00    0.34298   0.41045   -1.000
 3931.00    0.30447   0.37650   -1.000
 3932.00    0.29931   0.34036   -1.000
 3933.00    0.29561   0.30650   81.628
 3934.00    0.28778   0.30595   67.221
 3935.00    0.31283   0.33652   55.844
 3936.00    0.34603   0.37990   -1.000
 3937.00    0.38532   0.42307   -1.000
 3938.00    0.45314   0.47554   -1.000
 3939.00    0.51121   0.51438  395.681
 3940.00    0.54997   0.54530  395.681
 3941.00    0.56111   0.55894  389.405
 3942.00    0.54467   0.55684   -1.000
 3943.00    0.53315   0.55032   -1.000
 3944.00    0.54450   0.56262   -1.000
 3945.00    0.57861   0.59076   -1.000
 3946.00    0.63395   0.62111   -1.000
 3947.00    0.67324   0.64300   -1.000
 3948.00    0.68124   0.65484   -1.000
 3949.00    0.69411   0.67108   -1.000
 3950.00    0.72740   0.69535   -1.000
 3951.00    0.73895   0.69954   -1.000
 3952.00    0.73709   0.69756   -1.000
 3953.00    0.74300   0.70526   -1.000
 3954.00    0.74968   0.71303   -1.000
 3955.00    0.73797   0.71184   -1.000
 3956.00    0.71314   0.69746   -1.000
 3957.00    0.70196   0.68260   -1.000
 3958.00    0.70465   0.68085   -1.000
 3959.00    0.70164   0.66950   -1.000
 3960.00    0.65314   0.61976   -1.000
 3961.00    0.58488   0.56830   92.946
 3962.00    0.52463   0.51917   52.647
 3963.00    0.47724   0.49642   63.187
 3964.00    0.45089   0.48122   77.742
 3965.00    0.41598   0.44757   90.919
 3966.00    0.36057   0.40159   -1.000
 3967.00    0.31487   0.34147   80.570
 3968.00    0.30569   0.30141   66.233
 3969.00    0.30538   0.29460   54.925
 3970.00    0.32602   0.32400   86.580
 3971.00    0.38374   0.37028   -1.000
 3972.00    0.43801   0.43123  363.768
 3973.00    0.48460   0.48744  331.551
 3974.00    0.55266   0.54684  308.847
 3975.00    0.61873   0.59809   -1.000
 3976.00    0.65532   0.64365   -1.000
 3977.00    0.69871   0.68874   -1.000
 3978.00    0.76044   0.72699   -1.000
 3979.00    0.80320   0.76718   -1.000
 3980.00    0.82101   0.78334   -1.000
 3981.00    0.82614   0.78490   -1.000
 3982.00    0.80797   0.77341   -1.000
 3983.00    0.79079   0.76766   -1.000
 3984.00    0.81196   0.77831   -1.000
 3985.00    0.83310   0.79635   -1.000
 3986.00    0.83810   0.81479   -1.000
 3987.00    0.86647   0.83352   -1.000
 3988.00    0.88922   0.84813   -1.000
 3989.00    0.88216   0.84889   -1.000
 3990.00    0.88740   0.84892   -1.000
 3991.00    0.91145   0.85698   -1.000
 3992.00    0.92329   0.87321   -1.000
 3993.00    0.91557   0.88451   -1.000
 3994.00    0.89401   0.87856   -1.000
 3995.00    0.87377   0.85937   -1.000
 3996.00    0.86280   0.83411   -1.000
 3997.00    0.85553   0.82872   -1.000
 3998.00    0.87101   0.84302   -1.000
 3999.00    0.91846   0.87621   -1.000
 4000.00    0.96751   0.90479   -1.000
 4001.00    0.99181   0.92788   -1.000
 4002.00    0.99361   0.93444   -1.000
 4003.00    0.98457   0.91890   -1.000
 4004.00    0.93638   0.86829   -1.000
 4005.00    0.85907   0.82266   -1.000
 4006.00    0.84218   0.81382   -1.000
 4007.00    0.88728   0.84589   -1.000
 4008.00    0.94818   0.89880   -1.000
 4009.00    0.96837   0.92568   -1.000
 4010.00    0.97469   0.93774   -1.000
 4011.00    0.99977   0.94406   -1.000
 4012.00    0.99796   0.94703   -1.000
 4013.00    0.99532   0.95279   -1.000
 4014.00    0.99935   0.96252   -1.000
 4015.00    1.00244   0.96748   -1.000
 4016.00    1.00844   0.96350   -1.000
 4017.00    1.00721   0.96085   -1.000
 4018.00    1.01150   0.96882   -1.000
 4019.00    1.02812   0.97990   -1.000
 4020.00    1.03582   0.98824   -1.000
 4021.00    1.02988   0.98112   -1.000
 4022.00    1.01935   0.96937   -1.000
 4023.00    1.01319   0.95599   -1.000
 4024.00    1.00257   0.94471   -1.000
 4025.00    1.00402   0.94313   -1.000
 4026.00    1.02695   0.96590   -1.000
 4027.00    1.05816   0.99746   -1.000
 4028.00    1.06444   1.00570   -1.000
 4029.00    1.01739   0.96873   -1.000
 4030.00    0.95049   0.89167   -1.000
 4031.00    0.89135   0.83074   -1.000
 4032.00    0.85082   0.79397   -1.000
 4033.00    0.83804   0.79131   -1.000
 4034.00    0.85360   0.81741   -1.000
 4035.00    0.91060   0.87820   -1.000
 4036.00    0.98894   0.94497   -1.000
 4037.00    1.05598   1.01079   -1.000
 4038.00    1.08795   1.03577   -1.000
 4039.00    1.07949   1.02758   -1.000
 4040.00    1.04153   1.00225   -1.000
 4041.00    1.02601   0.99129   -1.000
 4042.00    1.02937   0.97334   -1.000
 4043.00    0.97492   0.91674   -1.000
 4044.00    0.86228   0.82748   -1.000
 4045.00    0.76602   0.74577   -1.000
 4046.00    0.76136   0.74324   -1.000
 4047.00    0.84943   0.82465   -1.000
 4048.00    0.95948   0.90951   -1.000
 4049.00    1.02955   0.98178   -1.000
 4050.00    1.05739   1.01172   -1.000
 4051.00    1.06276   1.01710   -1.000
 4052.00    1.03330   1.00169   -1.000
 4053.00    0.99340   0.97709   -1.000
 4054.00    0.96863   0.95091   -1.000
 4055.00    0.95204   0.93167   -1.000
 4056.00    0.93693   0.91445   -1.000
 4057.00    0.91999   0.89665   -1.000
 4058.00    0.91947   0.90263   -1.000
 4059.00    0.95719   0.93076   -1.000
 4060.00    1.00000   0.95028   -1.000
 4061.00    0.97614   0.93127   -1.000
 4062.00    0.88620   0.86047   -1.000
 4063.00    0.81440   0.80758  239.737
 4064.00    0.81468   0.79337   -1.000
 4065.00    0.87198   0.81337   -1.000
 4066.00    0.92662   0.85890   -1.000
 4067.00    0.95449   0.90213   -1.000
 4068.00    0.98731   0.93197   -1.000
 4069.00    1.01553   0.94258   -1.000
 4070.00    0.98836   0.91285   -1.000
 4071.00    0.92532   0.86187   -1.000
 4072.00    0.90963   0.85680   -1.000
 4073.00    0.94895   0.88702   -1.000
 4074.00    0.97786   0.92204   -1.000
 4075.00    0.96223   0.90745   -1.000
 4076.00    0.90347   0.85062   -1.000
 4077.00    0.85047   0.82203   -1.000
 4078.00    0.85436   0.83614   -1.000
 4079.00    0.91514   0.90496  219.503
 4080.00    0.99842   0.97488   -1.000
 4081.00    1.04951   1.02282   -1.000
 4082.00    1.04222   1.02032   -1.000
 4083.00    1.01043   0.99073   -1.000
 4084.00    0.98337   0.96672   -1.000
 4085.00    0.98901   0.96981   -1.000
 4086.00    1.02517   1.00951  206.203
 4087.00    1.08268   1.05363   -1.000
 4088.00    1.12702   1.09228   -1.000
 4089.00    1.12823   1.09933   -1.000
 4090.00    1.11410   1.08215   -1.000
 4091.00    1.08757   1.05490   -1.000
 4092.00    1.06910   1.04312   -1.000
 4093.00    1.06448   1.03223   -1.000
 4094.00    1.05336   1.01108   -1.000
 4095.00    1.00523   0.97457   -1.000
 4096.00    0.96188   0.93220   -1.000
 4097.00    0.93774   0.90858   -1.000
 4098.00    0.92696   0.89413   -1.000
 4099.00    0.90968   0.86184   -1.000
 4100.00    0.85887   0.80942   -1.000
 4101.00    0.80427   0.76938   -1.000
 4102.00    0.78994   0.76525   -1.000
 4103.00    0.83311   0.81654   -1.000
 4104.00    0.90520   0.88253   -1.000
 4105.00    0.95455   0.94752  229.820
 4106.00    0.99157   0.98538  233.410
 4107.00    1.02183   1.00238   -1.000
 4108.00    1.01725   0.99826   -1.000
 4109.00    0.97541   0.98151  232.633
 4110.00    0.95145   0.96335  228.062
 4111.00    0.96011   0.96204  224.403
 4112.00    0.97854   0.97515  221.691
 4113.00    0.99407   1.00034  221.447
 4114.00    1.02041   1.02705  224.711
 4115.00    1.04756   1.04652  231.233
 4116.00    1.05793   1.04336   -1.000
 4117.00    1.04244   1.02039   -1.000
 4118.00    0.99349   0.99051  232.709
 4119.00    0.96611   0.97118  231.866
 4120.00    0.98223   0.97500  230.529
 4121.00    0.99183   0.98609  227.031
 4122.00    0.98619   0.99278  224.896
 4123.00    0.99233   1.00098  226.424
 4124.00    1.01086   1.01674  230.645
 4125.00    1.02635   1.03018  233.856
 4126.00    1.03340   1.02671  235.296
 4127.00    1.00609   1.00642  237.527
 4128.00    0.98062   0.98805  243.225
 4129.00    0.97728   0.97493  251.023
 4130.00    0.95377   0.95160  254.647
 4131.00    0.91429   0.91957  249.727
 4132.00    0.87885   0.88246  238.645
 4133.00    0.87610   0.87986  229.093
 4134.00    0.90636   0.91641  223.950
 4135.00    0.95840   0.96860  220.452
 4136.00    1.01085   1.01677  218.550
 4137.00    1.02927   1.04827   -1.000
 4138.00    1.03605   1.06135   -1.000
 4139.00    1.03744   1.06913   -1.000
 4140.00    1.02704   1.05406   -1.000
 4141.00    0.99066   1.00209   -1.000
 4142.00    0.91124   0.91757  248.447
 4143.00    0.83233   0.85961   -1.000
 4144.00    0.82880   0.85656   -1.000
 4145.00    0.89065   0.90515   -1.000
 4146.00    0.96022   0.97095  239.607
 4147.00    0.98360   0.99836   -1.000
 4148.00    0.96537   0.99480   -1.000
 4149.00    0.94603   0.97712   -1.000
 4150.00    0.92908   0.96740   -1.000
 4151.00    0.92019   0.96628   -1.000
 4152.00    0.92186   0.96416   -1.000
 4153.00    0.93298   0.95645   -1.000
 4154.00    1.07378   0.94587   -1.000
 4155.00    1.14666   0.94160   -1.000
 4156.00    0.85556   0.95368   -1.000
 4157.00    0.73254   0.97649   -1.000
 4158.00    0.91413   1.00886   -1.000
 4159.00    1.02385   1.04164   -1.000
 4160.00    1.03144   1.06069   -1.000
 4161.00    1.03202   1.07695   -1.000
 4162.00    1.04239   1.08930   -1.000
 4163.00    1.04712   1.09437   -1.000
 4164.00    1.03366   1.08123   -1.000
 4165.00    1.01171   1.05568   -1.000
 4166.00    0.98189   1.02203   -1.000
 4167.00    0.95989   1.01026   -1.000
 4168.00    0.96270   1.01491   -1.000
 4169.00    0.98016   1.02862   -1.000
 4170.00    0.99086   1.02321   -1.000
 4171.00    0.94776   0.97886   -1.000
 4172.00    0.89216   0.93255   -1.000
 4173.00    0.87493   0.90556   -1.000
 4174.00    0.88934   0.91722   -1.000
 4175.00    0.90896   0.94554   -1.000
 4176.00    0.92089   0.96126   -1.000
 4177.00    0.91890   0.96802   -1.000
 4178.00    0.93131   0.98117   -1.000
 4179.00    0.94918   0.99433   -1.000
 4180.00    0.94241   1.00200   -1.000
 4181.00    0.93548   0.99607   -1.000
 4182.00    0.95298   0.99326   -1.000
 4183.00    0.98220   1.01784   -1.000
 4184.00    1.01258   1.04232   -1.000
 4185.00    1.03135   1.04830   -1.000
 4186.00    1.01199   1.02086  240.742
 4187.00    0.96394   0.98742   -1.000
 4188.00    0.95206   0.98661   -1.000
 4189.00    0.97753   1.00697   -1.000
 4190.00    0.98693   1.02822   -1.000
 4191.00    0.99618   1.04084   -1.000
 4192.00    1.02609   1.05568   -1.000
 4193.00    1.06416   1.06940  250.347
 4194.00    1.04472   1.05990   -1.000
 4195.00    0.97431   1.00931   -1.000
 4196.00    0.90851   0.96034   -1.000
 4197.00    0.89454   0.92296   -1.000
 4198.00    0.90467   0.91025  250.673
 4199.00    0.93178   0.90741   -1.000
 4200.00    0.94987   0.91416   -1.000
 4201.00    0.94044   0.92207   -1.000
 4202.00    0.93991   0.93528  240.067
 4203.00    0.97087   0.96359  234.448
 4204.00    0.99822   1.00767  229.400
 4205.00    1.02773   1.05007   -1.000
 4206.00    1.05446   1.08129   -1.000
 4207.00    1.07505   1.10647   -1.000
 4208.00    1.08614   1.11168   -1.000
 4209.00    1.06623   1.10173   -1.000
 4210.00    1.05063   1.09225   -1.000
 4211.00    1.06250   1.09417   -1.000
 4212.00    1.05906   1.10024   -1.000
 4213.00    1.03530   1.07717   -1.000
 4214.00    0.99601   1.02394   -1.000
 4215.00    0.96274   0.99088   -1.000
 4216.00    0.98542   1.00128   -1.000
 4217.00    1.06621   1.07246  210.163
 4218.00    1.13709   1.13570  210.692
 4219.00    1.19689   1.17933   -1.000
 4220.00    1.22356   1.18509   -1.000
 4221.00    1.20678   1.16422   -1.000
 4222.00    1.14329   1.10722   -1.000
 4223.00    1.05479   1.02410   -1.000
 4224.00    0.96020   0.90167   -1.000
 4225.00    0.83571   0.79639   -1.000
 4226.00    0.72591   0.72349  239.368
 4227.00    0.73512   0.74930   -1.000
 4228.00    0.85336   0.84919  218.186
 4229.00    1.01240   0.99422   -1.000
 4230.00    1.10918   1.07803   -1.000
 4231.00    1.13258   1.10990   -1.000
 4232.00    1.12318   1.09530   -1.000
 4233.00    1.10491   1.06460   -1.000
 4234.00    1.08168   1.03235   -1.000
 4235.00    1.05538   1.01850   -1.000
 4236.00    1.03619   1.01419   -1.000
 4237.00    1.02554   1.02511  226.833
 4238.00    1.05984   1.05070  223.326
 4239.00    1.09850   1.08216   -1.000
 4240.00    1.10976   1.11057  218.836
 4241.00    1.14989   1.14256  214.425
 4242.00    1.17794   1.16957  214.450
 4243.00    1.19487   1.20307  221.989
 4244.00    1.21612   1.23583   -1.000
 4245.00    1.22708   1.24186   -1.000
 4246.00    1.21374   1.20295  241.432
 4247.00    1.15968   1.14047   -1.000
 4248.00    1.09641   1.06964   -1.000
 4249.00    1.04681   1.02977   -1.000
 4250.00    1.02899   1.01645  228.910
 4251.00    1.04204   1.03703  233.752
 4252.00    1.06689   1.05598  233.778
 4253.00    1.06647   1.05067   -1.000
 4254.00    1.05576   1.03279   -1.000
 4255.00    1.06857   1.04373   -1.000
 4256.00    1.12182   1.09883   -1.000
 4257.00    1.15141   1.13251   -1.000
 4258.00    1.12518   1.10032   -1.000
 4259.00    1.05021   1.03651   -1.000
 4260.00    0.98861   0.99172  217.410
 4261.00    1.01899   1.02288  210.778
 4262.00    1.11190   1.10450  208.979
 4263.00    1.18464   1.20178   -1.000
 4264.00    1.24390   1.25535  217.264
 4265.00    1.29140   1.26830   -1.000
 4266.00    1.27753   1.25318   -1.000
 4267.00    1.21974   1.21543  245.612
 4268.00    1.15780   1.15074  261.308
 4269.00    1.08340   1.07665  268.168
 4270.00    0.99048   0.98278  264.556
 4271.00    0.90539   0.91581  257.974
 4272.00    0.87773   0.88366  247.864
 4273.00    0.90468   0.89862  233.056
 4274.00    0.92813   0.93869  220.868
 4275.00    0.97051   1.00162   -1.000
 4276.00    1.06372   1.07985   -1.000
 4277.00    1.15925   1.16770  233.375
 4278.00    1.20196   1.19989  236.197
 4279.00    1.19304   1.18396  233.882
 4280.00    1.14315   1.14303  231.339
 4281.00    1.11102   1.12744   -1.000
 4282.00    1.13044   1.13881  238.675
 4283.00    1.14476   1.14470  245.088
 4284.00    1.14401   1.13835  249.354
 4285.00    1.12292   1.12124  257.114
 4286.00    1.09535   1.10592  269.280
 4287.00    1.06982   1.08363   -1.000
 4288.00    1.02839   1.03972   -1.000
 4289.00    0.97651   0.97974  247.611
 4290.00    0.94647   0.95200  239.660
 4291.00    0.98164   0.98109  240.089
 4292.00    1.05566   1.04717  243.674
 4293.00    1.09895   1.08522   -1.000
 4294.00    1.09151   1.08776  259.461
 4295.00    1.07336   1.07197  279.406
 4296.00    1.05597   1.04962  301.537
 4297.00    1.01583   1.00105   -1.000
 4298.00    0.94180   0.93470  304.757
 4299.00    0.85981   0.86364  298.679
 4300.00    0.82476   0.83368  294.210
 4301.00    0.84284   0.84079  290.391
 4302.00    0.86723   0.86495  290.310
 4303.00    0.87817   0.88111  297.979
 4304.00    0.88502   0.89198  312.661
 4305.00    0.87732   0.88570  323.191
 4306.00    0.84633   0.84904  320.569
 4307.00    0.80084   0.79989  305.922
 4308.00    0.76080   0.77207  286.630
 4309.00    0.76440   0.79058   -1.000
 4310.00    0.82859   0.84436   -1.000
 4311.00    0.90615   0.92010   -1.000
 4312.00    0.97833   0.98920  225.836
 4313.00    1.04006   1.05956   -1.000
 4314.00    1.10315   1.15111   -1.000
 4315.00    1.21624   1.24830   -1.000
 4316.00    1.34908   1.35846  199.058
 4317.00    1.41094   1.42139  203.261
 4318.00    1.41786   1.42943  209.574
 4319.00    1.41973   1.40053   -1.000
 4320.00    1.37569   1.36612  233.912
 4321.00    1.32155   1.31346  254.112
 4322.00    1.26379   1.24033   -1.000
 4323.00    1.14364   1.12438   -1.000
 4324.00    1.01716   1.00791  232.407
 4325.00    0.92951   0.95031   -1.000
 4326.00    0.96839   1.00174   -1.000
 4327.00    1.13083   1.12834  206.442
 4328.00    1.26935   1.27976  205.895
 4329.00    1.35158   1.35339  202.861
 4330.00    1.36665   1.37060  200.363
 4331.00    1.36580   1.36538  199.541
 4332.00    1.36503   1.37885  202.003
 4333.00    1.38904   1.40596   -1.000
 4334.00    1.41558   1.42090  231.662
 4335.00    1.41697   1.40145   -1.000
 4336.00    1.34450   1.32610   -1.000
 4337.00    1.22217   1.20745   -1.000
 4338.00    1.10850   1.07026   -1.000
 4339.00    1.03180   0.99794   -1.000
 4340.00    1.00027   0.98904  228.400
 4341.00    1.04820   1.04740  219.648
 4342.00    1.14391   1.14114  213.532
 4343.00    1.23518   1.23277  209.387
 4344.00    1.28147   1.28560  206.888
 4345.00    1.32060   1.32469  203.788
 4346.00    1.34903   1.35612  203.370
 4347.00    1.36395   1.39023   -1.000
 4348.00    1.41556   1.42332  227.213
 4349.00    1.42595   1.41651  233.925
 4350.00    1.33246   1.34039  227.121
 4351.00    1.21269   1.24339   -1.000
 4352.00    1.15458   1.17993   -1.000
 4353.00    1.18703   1.20107  204.590
 4354.00    1.26988   1.26430  203.672
 4355.00    1.32873   1.32952  207.163
 4356.00    1.35991   1.36391  210.271
 4357.00    1.37894   1.37544  207.725
 4358.00    1.36580   1.36175  201.783
 4359.00    1.35110   1.34946  198.595
 4360.00    1.35469   1.36904  197.530
 4361.00    1.40582   1.40700  195.642
 4362.00    1.43117   1.44421  194.973
 4363.00    1.46827   1.46626  199.599
 4364.00    1.48837   1.48402  206.796
 4365.00    1.49273   1.48910  210.341
 4366.00    1.45720   1.45732  209.177
 4367.00    1.37642   1.39499   -1.000
 4368.00    1.34565   1.35720  207.221
 4369.00    1.34775   1.34864  208.799
 4370.00    1.34625   1.35443  215.915
 4371.00    1.35210   1.34859  224.711
 4372.00    1.33978   1.31854   -1.000
 4373.00    1.28812   1.26852   -1.000
 4374.00    1.23374   1.21045   -1.000
 4375.00    1.20948   1.19427  203.381
 4376.00    1.25295   1.23465   -1.000
 4377.00    1.34194   1.30961   -1.000
 4378.00    1.39938   1.35363   -1.000
 4379.00    1.39615   1.35143   -1.000
 4380.00    1.37120   1.29937   -1.000
 4381.00    1.28646   1.19663   -1.000
 4382.00    1.14165   1.05184   -1.000
 4383.00    0.97780   0.93937   -1.000
 4384.00    0.91752   0.91162  217.593
 4385.00    1.02236   0.99240   -1.000
 4386.00    1.17262   1.12620   -1.000
 4387.00    1.26281   1.21007   -1.000
 4388.00    1.27598   1.23321   -1.000
 4389.00    1.25483   1.22642   -1.000
 4390.00    1.24503   1.22632   -1.000
 4391.00    1.24760   1.24324  215.624
 4392.00    1.29775   1.26837   -1.000
 4393.00    1.31947   1.28393   -1.000
 4394.00    1.29668   1.28536  200.969
 4395.00    1.31356   1.30352  202.026
 4396.00    1.38809   1.35844   -1.000
 4397.00    1.45967   1.40791   -1.000
 4398.00    1.47230   1.41092   -1.000
 4399.00    1.40169   1.36247   -1.000
 4400.00    1.34197   1.32199   -1.000
 4401.00    1.33409   1.30234   -1.000
 4402.00    1.32985   1.28185   -1.000
 4403.00    1.26296   1.21987   -1.000
 4404.00    1.15280   1.13243   -1.000
 4405.00    1.10276   1.09105  219.535
 4406.00    1.14464   1.12667   -1.000
 4407.00    1.19993   1.18442   -1.000
 4408.00    1.24020   1.24531  196.065
 4409.00    1.31080   1.31055  192.924
 4410.00    1.40324   1.39797  196.711
 4411.00    1.47206   1.47346  207.021
 4412.00    1.48944   1.47890  215.525
 4413.00    1.43908   1.41551   -1.000
 4414.00    1.34492   1.32914   -1.000
 4415.00    1.26825   1.25642  200.917
 4416.00    1.25918   1.26352  194.714
 4417.00    1.32337   1.33807   -1.000
 4418.00    1.40102   1.43635   -1.000
 4419.00    1.45800   1.49333   -1.000
 4420.00    1.45682   1.49932   -1.000
 4421.00    1.39474   1.45520   -1.000
 4422.00    1.34650   1.40039   -1.000
 4423.00    1.32996   1.37541   -1.000
 4424.00    1.33825   1.38654   -1.000
 4425.00    1.35885   1.40288   -1.000
 4426.00    1.37272   1.40861   -1.000
 4427.00    1.37758   1.41728   -1.000
 4428.00    1.38351   1.42532   -1.000
 4429.00    1.37715   1.42372   -1.000
 4430.00    1.36884   1.41274   -1.000
 4431.00    1.37915   1.40846   -1.000
 4432.00    1.40002   1.41400  218.773
 4433.00    1.36597   1.38628   -1.000
 4434.00    1.29972   1.32738   -1.000
 4435.00    1.27534   1.29661   -1.000
 4436.00    1.32573   1.33265  188.447
 4437.00    1.41993   1.43835   -1.000
 4438.00    1.52401   1.52409  202.225
 4439.00    1.56887   1.55512   -1.000
 4440.00    1.53230   1.51202   -1.000
 4441.00    1.43764   1.43870  206.599
 4442.00    1.36464   1.37824  197.850
 4443.00    1.37004   1.37852  193.266
 4444.00    1.43710   1.44503  192.756
 4445.00    1.51337   1.52285  193.122
 4446.00    1.57579   1.57366  194.972
 4447.00    1.58696   1.58062  196.972
 4448.00    1.57576   1.57393  196.055
 4449.00    1.55308   1.57212   -1.000
 4450.00    1.54554   1.56398   -1.000
 4451.00    1.54985   1.54716  212.351
 4452.00    1.53463   1.51571   -1.000
 4453.00    1.47726   1.46041   -1.000
 4454.00    1.40489   1.37394   -1.000
 4455.00    1.34977   1.32298   -1.000
 4456.00    1.34953   1.31509   -1.000
 4457.00    1.35452   1.33453   -1.000
 4458.00    1.37999   1.34562   -1.000
 4459.00    1.36224   1.33484   -1.000
 4460.00    1.33217   1.32176  204.814
 4461.00    1.32591   1.32495  199.412
 4462.00    1.36169   1.36143  198.449
 4463.00    1.41320   1.42361  198.571
 4464.00    1.47669   1.47856  200.501
 4465.00    1.50600   1.50340  204.167
 4466.00    1.51298   1.49948  205.861
 4467.00    1.51081   1.48549   -1.000
 4468.00    1.47712   1.47319  197.665
 4469.00    1.45255   1.46409  190.865
 4470.00    1.47922   1.47591  185.454
 4471.00    1.52984   1.52576  183.353
 4472.00    1.58677   1.57932  183.443
 4473.00    1.62404   1.62568  182.153
 4474.00    1.63990   1.64745  180.979
 4475.00    1.67207   1.66111  182.206
 4476.00    1.70911   1.68530   -1.000
 4477.00    1.73667   1.70557   -1.000
 4478.00    1.71878   1.68778   -1.000
 4479.00    1.65010   1.61718   -1.000
 4480.00    1.55642   1.52209   -1.000
 4481.00    1.48952   1.47177   -1.000
 4482.00    1.50082   1.48941  181.955
 4483.00    1.57807   1.57164  181.637
 4484.00    1.66966   1.65488  185.257
 4485.00    1.71585   1.72032  192.025
 4486.00    1.73478   1.72956  196.945
 4487.00    1.71375   1.68875   -1.000
 4488.00    1.62676   1.60705   -1.000
 4489.00    1.54053   1.55373  187.470
 4490.00    1.51926   1.54946   -1.000
 4491.00    1.56162   1.58627   -1.000
 4492.00    1.61480   1.61873  199.450
 4493.00    1.60505   1.59523  198.176
 4494.00    1.52242   1.54718   -1.000
 4495.00    1.47722   1.51356   -1.000
 4496.00    1.50055   1.53533   -1.000
 4497.00    1.55518   1.59570   -1.000
 4498.00    1.62909   1.65119   -1.000
 4499.00    1.67685   1.67913  182.729
 4500.00    1.66611   1.67352  176.565
 4501.00    1.64146   1.66955   -1.000
 4502.00    1.68886   1.69166  173.648
 4503.00    1.78671   1.74197   -1.000
 4504.00    1.84131   1.79894   -1.000
 4505.00    1.84531   1.83137  179.311
 4506.00    1.82644   1.82005  178.118
 4507.00    1.79065   1.78936  176.840
 4508.00    1.76315   1.77222  177.982
 4509.00    1.78120   1.77402  181.284
 4510.00    1.81886   1.78498   -1.000
 4511.00    1.80273   1.78342   -1.000
 4512.00    1.75060   1.75407  185.356
 4513.00    1.70046   1.71190  185.098
 4514.00    1.67235   1.68134  187.064
 4515.00    1.67959   1.67313  188.341
 4516.00    1.68910   1.68021  185.667
 4517.00    1.69516   1.68235  182.013
 4518.00    1.68676   1.67992  182.030
 4519.00    1.71535   1.69413   -1.000
 4520.00    1.77259   1.72738   -1.000
 4521.00    1.78631   1.75381   -1.000
 4522.00    1.75443   1.74812  194.732
 4523.00    1.70294   1.71088  200.397
 4524.00    1.67843   1.66586  206.162
 4525.00    1.62217   1.62123  209.051
 4526.00    1.54786   1.56147  207.987
 4527.00    1.48554   1.49163  204.539
 4528.00    1.43474   1.43807  200.796
 4529.00    1.43121   1.42140  199.483
 4530.00    1.46470   1.44646   -1.000
 4531.00    1.50750   1.49027   -1.000
 4532.00    1.53863   1.52595  209.636
 4533.00    1.54338   1.53098  198.613
 4534.00    1.48714   1.50967   -1.000
 4535.00    1.47677   1.50111   -1.000
 4536.00    1.56280   1.54259   -1.000
 4537.00    1.67805   1.63018   -1.000
 4538.00    1.75042   1.70941   -1.000
 4539.00    1.73863   1.73181  185.403
 4540.00    1.69048   1.70412  184.624
 4541.00    1.68296   1.67190   -1.000
 4542.00    1.66643   1.67111   -2.000
 4543.00    0.54013   1.68595   -2.000
 4544.00    0.00233   1.69240   -2.000
 4545.00    0.04571   1.67699   -1.000
 4546.00    1.13731   1.65896   -1.000
 4547.00    0.57801   1.65326   -1.000
 4548.00    1.09083   1.64486   -1.000
 4549.00    1.61688   1.62914  193.362
 4550.00    1.62613   1.62560  196.191
 4551.00    1.63560   1.64813  198.163
 4552.00    1.65715   1.66503  195.683
 4553.00    1.65169   1.65041  188.922
 4554.00    1.64088   1.62175   -1.000
 4555.00    1.65074   1.61498   -1.000
 4556.00    1.69547   1.65349   -1.000
 4557.00    1.78473   1.72666   -1.000
 4558.00    1.83798   1.79744   -1.000
 4559.00    1.84162   1.83069  182.096
 4560.00    1.84677   1.84302  186.660
 4561.00    1.84579   1.83812  190.014
 4562.00    1.83687   1.82014   -1.000
 4563.00    1.78184   1.77509  183.892
 4564.00    1.71480   1.72285  179.019
 4565.00    1.69099   1.69301  176.922
 4566.00    1.72811   1.71321  178.517
 4567.00    1.81171   1.76722   -1.000
 4568.00    1.85906   1.82483   -1.000
 4569.00    1.86037   1.83845   -1.000
 4570.00    1.79977   1.81120  181.625
 4571.00    1.71655   1.76514   -1.000
 4572.00    1.73357   1.74085  178.584
 4573.00    1.80526   1.76758   -1.000
 4574.00    1.84274   1.81361   -1.000
 4575.00    1.85049   1.84041  183.287
 4576.00    1.83002   1.83791  188.595
 4577.00    1.79283   1.82308   -1.000
 4578.00    1.78394   1.78981  192.563
 4579.00    1.74175   1.73592  190.005
 4580.00    1.66511   1.67871  188.468
 4581.00    1.66927   1.65762  188.860
 4582.00    1.70863   1.67107   -1.000
 4583.00    1.75067   1.69683   -1.000
 4584.00    1.73774   1.70857   -1.000
 4585.00    1.69138   1.69845  178.974
 4586.00    1.70486   1.69647  178.397
 4587.00    1.75816   1.72866   -1.000
 4588.00    1.83434   1.78346   -1.000
 4589.00    1.86530   1.82631   -1.000
 4590.00    1.82985   1.83276  187.832
 4591.00    1.78587   1.80375  186.360
 4592.00    1.73177   1.75853   -1.000
 4593.00    1.70676   1.72712   -1.000
 4594.00    1.70403   1.71190  183.908
 4595.00    1.71083   1.70716  183.496
 4596.00    1.71298   1.70775  184.948
 4597.00    1.71176   1.71882  186.625
 4598.00    1.74652   1.73464  187.244
 4599.00    1.75902   1.74556   -1.000
 4600.00    1.75229   1.74577  183.354
 4601.00    1.73275   1.74068  183.470
 4602.00    1.74667   1.74182  183.226
 4603.00    1.76585   1.74642   -1.000
 4604.00    1.78824   1.74543   -1.000
 4605.00    1.76084   1.74500   -1.000
 4606.00    1.76880   1.76267  171.886
 4607.00    1.85892   1.80911   -1.000
 4608.00    1.95008   1.87070   -1.000
 4609.00    1.98067   1.92978   -1.000
 4610.00    1.96437   1.94257   -1.000
 4611.00    1.92106   1.91856  177.189
 4612.00    1.89313   1.88222  175.643
 4613.00    1.87210   1.85900  174.873
 4614.00    1.88875   1.86220   -1.000
 4615.00    1.92868   1.88473   -1.000
 4616.00    1.94717   1.90622   -1.000
 4617.00    1.94118   1.91672   -1.000
 4618.00    1.92583   1.91854  172.829
 4619.00    1.90363   1.91410  172.591
 4620.00    1.92134   1.91200  173.011
 4621.00    1.94679   1.92146   -1.000
 4622.00    1.95110   1.93303   -1.000
 4623.00    1.93851   1.93314  175.390
 4624.00    1.93123   1.92257  175.324
 4625.00    1.92086   1.91185  176.383
 4626.00    1.91338   1.89978  176.815
 4627.00    1.91549   1.89172   -1.000
 4628.00    1.91803   1.89332   -1.000
 4629.00    1.90580   1.89936  174.626
 4630.00    1.91459   1.90686  177.101
 4631.00    1.95035   1.91877   -1.000
 4632.00    1.94589   1.92157   -1.000
 4633.00    1.89488   1.90246  180.415
 4634.00    1.86010   1.87184  182.775
 4635.00    1.86166   1.85316  183.624
 4636.00    1.85997   1.83995   -1.000
 4637.00    1.82019   1.81726  180.439
 4638.00    1.78197   1.78713  176.061
 4639.00    1.77455   1.76537  173.538
 4640.00    1.78040   1.76527   -1.000
 4641.00    1.83192   1.79314   -1.000
 4642.00    1.87909   1.82780   -1.000
 4643.00    1.86993   1.84422   -1.000
 4644.00    1.85068   1.81815   -1.000
 4645.00    1.77943   1.76641   -1.000
 4646.00    1.69671   1.70073  180.788
 4647.00    1.65948   1.65511  178.223
 4648.00    1.69970   1.66017   -1.000
 4649.00    1.76730   1.70945   -1.000
 4650.00    1.80670   1.77829   -1.000
 4651.00    1.85943   1.83551   -1.000
 4652.00    1.89425   1.86649   -1.000
 4653.00    1.88979   1.86752   -1.000
 4654.00    1.85598   1.84135   -1.000
 4655.00    1.78832   1.80742  171.789
 4656.00    1.80484   1.80118  167.812
 4657.00    1.86282   1.83391   -1.000
 4658.00    1.95078   1.90743   -1.000
 4659.00    2.03493   1.98264   -1.000
 4660.00    2.03997   2.02356   -1.000
 4661.00    1.98089   2.00754   -1.000
 4662.00    1.92672   1.95703   -1.000
 4663.00    1.87066   1.89744   -1.000
 4664.00    1.82720   1.84644  195.962
 4665.00    1.79759   1.79370  196.450
 4666.00    1.71952   1.72408  190.588
 4667.00    1.62086   1.65143   -1.000
 4668.00    1.59018   1.62173   -1.000
 4669.00    1.67332   1.65727   -1.000
 4670.00    1.79257   1.74312   -1.000
 4671.00    1.86791   1.82074   -1.000
 4672.00    1.90380   1.86390   -1.000
 4673.00    1.87252   1.86406  171.492
 4674.00    1.86695   1.86065  172.259
 4675.00    1.88754   1.87317   -1.000
 4676.00    1.91143   1.89780   -1.000
 4677.00    1.92707   1.90814   -1.000
 4678.00    1.88903   1.88352  184.239
 4679.00    1.83099   1.84068  182.037
 4680.00    1.79567   1.79880  177.467
 4681.00    1.77503   1.77623  175.080
 4682.00    1.80314   1.78048   -1.000
 4683.00    1.85424   1.80972   -1.000
 4684.00    1.89361   1.84536   -1.000
 4685.00    1.90332   1.86305   -1.000
 4686.00    1.89527   1.86404   -1.000
 4687.00    1.87988   1.85142   -1.000
 4688.00    1.87608   1.84187   -1.000
 4689.00    1.88339   1.84020   -1.000
 4690.00    1.88541   1.84175   -1.000
 4691.00    1.87016   1.83865   -1.000
 4692.00    1.87323   1.83897   -1.000
 4693.00    1.89892   1.85366   -1.000
 4694.00    1.94703   1.88122   -1.000
 4695.00    2.00495   1.90919   -1.000
 4696.00    2.00662   1.92533   -1.000
 4697.00    1.94155   1.90737   -1.000
 4698.00    1.86968   1.85935  180.509
 4699.00    1.82598   1.80617   -1.000
 4700.00    1.82420   1.77859   -1.000
 4701.00    1.84405   1.76494   -1.000
 4702.00    1.81465   1.75601   -1.000
 4703.00    1.80533   1.75567   -1.000
 4704.00    1.84279   1.77901   -1.000
 4705.00    1.88034   1.81167   -1.000
 4706.00    1.89170   1.82400   -1.000
 4707.00    1.84999   1.80733   -1.000
 4708.00    1.79844   1.78111   -1.000
 4709.00    1.79731   1.77921   -1.000
 4710.00    1.86180   1.80693   -1.000
 4711.00    1.91745   1.84767   -1.000
 4712.00    1.93241   1.87334   -1.000
 4713.00    1.90242   1.86796   -1.000
 4714.00    1.85730   1.84511  171.397
 4715.00    1.84800   1.84198  170.336
 4716.00    1.91873   1.87823   -1.000
 4717.00    1.98828   1.93575   -1.000
 4718.00    2.03313   1.98860   -1.000
 4719.00    2.04110   2.02110   -1.000
 4720.00    2.05395   2.04159  170.808
 4721.00    2.03829   2.04272  168.943
 4722.00    1.99514   2.02603   -1.000
 4723.00    1.99987   2.01505  173.361
 4724.00    2.01216   2.02667  180.005
 4725.00    2.05491   2.03245   -1.000
 4726.00    2.00329   2.00152  183.324
 4727.00    1.88676   1.92749   -1.000
 4728.00    1.80677   1.83584   -1.000
 4729.00    1.78737   1.78389  177.822
 4730.00    1.81370   1.78008   -1.000
 4731.00    1.84219   1.81598   -1.000
 4732.00    1.89826   1.86347   -1.000
 4733.00    1.93331   1.90527   -1.000
 4734.00    1.95894   1.92765   -1.000
 4735.00    1.96304   1.92924   -1.000
 4736.00    1.93883   1.92516   -1.000
 4737.00    1.94580   1.92567   -1.000
 4738.00    1.99302   1.94277   -1.000
 4739.00    2.02274   1.97090   -1.000
 4740.00    2.01000   1.98484   -1.000
 4741.00    1.98358   1.97820  172.504
 4742.00    2.00116   1.97627   -1.000
 4743.00    2.03043   1.98417   -1.000
 4744.00    2.05027   1.99185   -1.000
 4745.00    2.04498   2.00627   -1.000
 4746.00    2.03831   2.02581  169.528
 4747.00    2.05212   2.05133  169.637
 4748.00    2.06115   2.06825  170.901
 4749.00    2.05700   2.07677  172.863
 4750.00    2.05684   2.08175   -1.000
 4751.00    2.04666   2.07652   -1.000
 4752.00    2.00152   2.05428   -1.000
 4753.00    1.97027   2.02119   -1.000
 4754.00    1.96943   1.98685  177.183
 4755.00    1.98262   1.96772   -1.000
 4756.00    1.98424   1.96924   -1.000
 4757.00    1.95017   1.98109   -1.000
 4758.00    1.96131   2.00032   -1.000
 4759.00    1.97547   2.01998   -1.000
 4760.00    1.96518   2.03076   -1.000
 4761.00    1.96183   2.01461   -1.000
 4762.00    1.90102   1.97251   -1.000
 4763.00    1.87357   1.91835   -1.000
 4764.00    1.85356   1.87958   -1.000
 4765.00    1.81469   1.85632   -1.000
 4766.00    1.81059   1.83662   -1.000
 4767.00    1.84918   1.84020  174.900
 4768.00    1.90079   1.89150  176.427
 4769.00    1.95399   1.96586  177.995
 4770.00    1.99077   2.01784   -1.000
 4771.00    1.99255   2.02149   -1.000
 4772.00    1.94975   1.99824   -1.000
 4773.00    2.01340   2.00170  171.070
 4774.00    2.07186   2.03921   -1.000
 4775.00    2.06640   2.08744   -1.000
 4776.00    2.07424   2.11308   -1.000
 4777.00    2.05610   2.11859   -1.000
 4778.00    2.05781   2.11927   -1.000
 4779.00    2.03940   2.10974   -1.000
 4780.00    2.03145   2.08875   -1.000
 4781.00    2.03773   2.06374   -1.000
 4782.00    1.99974   2.03410   -1.000
 4783.00    1.95317   1.99608   -1.000
 4784.00    1.95531   1.97185  181.814
 4785.00    1.92844   1.97193   -1.000
 4786.00    1.94946   1.97707   -1.000
 4787.00    1.95270   1.97320   -1.000
 4788.00    1.96177   1.97268  177.618
 4789.00    1.97769   1.97716  174.650
 4790.00    1.95872   1.98439   -1.000
 4791.00    1.97404   2.00056   -1.000
 4792.00    2.01568   2.04085   -1.000
 4793.00    2.08878   2.10302  169.098
 4794.00    2.14766   2.17078   -1.000
 4795.00    2.18678   2.22050   -1.000
 4796.00    2.17562   2.23037   -1.000
 4797.00    2.12204   2.19335   -1.000
 4798.00    2.05451   2.13248   -1.000
 4799.00    2.00809   2.07749   -1.000
 4800.00    2.01482   2.05569   -1.000
 4801.00    2.06800   2.07925  172.812
 4802.00    2.13696   2.13252  175.018
 4803.00    2.14978   2.18433   -1.000
 4804.00    2.11361   2.18593   -1.000
 4805.00    2.05706   2.14640   -1.000
 4806.00    2.01704   2.09794   -1.000
 4807.00    2.00588   2.06653   -1.000
 4808.00    1.98332   2.05224   -1.000
 4809.00    2.00023   2.06215   -1.000
 4810.00    2.03832   2.08946   -1.000
 4811.00    2.08476   2.11875   -1.000
 4812.00    2.08599   2.13160   -1.000
 4813.00    2.07042   2.13194   -1.000
 4814.00    2.04436   2.13450   -1.000
 4815.00    2.09031   2.14732   -1.000
 4816.00    2.13169   2.16955   -1.000
 4817.00    2.17769   2.19466  167.435
 4818.00    2.20252   2.22094  169.015
 4819.00    2.20711   2.24192   -1.000
 4820.00    2.19031   2.25003   -1.000
 4821.00    2.17408   2.23084   -1.000
 4822.00    2.10781   2.18260   -1.000
 4823.00    2.03983   2.11321   -1.000
 4824.00    2.02205   2.06015   -1.000
 4825.00    2.05533   2.05959  173.436
 4826.00    2.11527   2.10922  174.446
 4827.00    2.11799   2.14841   -1.000
 4828.00    2.08018   2.14485   -1.000
 4829.00    2.07779   2.12428   -1.000
 4830.00    2.07227   2.10951   -1.000
 4831.00    2.03428   2.09252   -1.000
 4832.00    2.01928   2.06650   -1.000
 4833.00    2.02790   2.06284   -1.000
 4834.00    2.10572   2.08982   -1.000
 4835.00    2.11613   2.13558  174.130
 4836.00    2.10219   2.16300   -1.000
 4837.00    2.12050   2.16565   -1.000
 4838.00    2.11022   2.14869   -1.000
 4839.00    2.04441   2.11409   -1.000
 4840.00    2.01478   2.08099   -1.000
 4841.00    2.03392   2.06731   -1.000
 4842.00    2.03978   2.06941   -1.000
 4843.00    2.02953   2.07238   -1.000
 4844.00    2.06903   2.08420  172.954
 4845.00    2.13134   2.12367  175.425
 4846.00    2.17027   2.16891  175.212
 4847.00    2.13814   2.18188   -1.000
 4848.00    2.08816   2.15264   -1.000
 4849.00    2.06156   2.12022   -1.000
 4850.00    2.08018   2.12507   -1.000
 4851.00    2.12310   2.14864   -1.000
 4852.00    2.11883   2.16483   -1.000
 4853.00    2.08955   2.14723   -1.000
 4854.00    2.02243   2.09391   -1.000
 4855.00    1.93643   2.02113   -1.000
 4856.00    1.92867   1.97403   -1.000
 4857.00    1.96710   1.97701  230.086
 4858.00    1.95532   1.98499   -1.000
 4859.00    1.85418   1.93350   -1.000
 4860.00    1.68802   1.78233   -1.000
 4861.00    1.57219   1.63028   -1.000
 4862.00    1.61067   1.57954   -1.000
 4863.00    1.73058   1.66708   -1.000
 4864.00    1.85748   1.80745   -1.000
 4865.00    1.90356   1.91879  179.561
 4866.00    1.95718   1.99319   -1.000
 4867.00    1.97986   2.04219   -1.000
 4868.00    2.00585   2.06425   -1.000
 4869.00    1.98224   2.05735   -1.000
 4870.00    1.92037   2.00749   -1.000
 4871.00    1.81453   1.91875   -1.000
 4872.00    1.80488   1.84308   -1.000
 4873.00    1.85921   1.85986  178.138
 4874.00    1.92512   1.95119   -1.000
 4875.00    1.96508   2.02994   -1.000
 4876.00    1.96937   2.07239   -1.000
 4877.00    2.00912   2.09826   -1.000
 4878.00    2.06249   2.13338   -1.000
 4879.00    2.09849   2.17185   -1.000
 4880.00    2.08898   2.19773   -1.000
 4881.00    2.05365   2.18555   -1.000
 4882.00    2.01055   2.14464   -1.000
 4883.00    2.04426   2.11954   -1.000
 4884.00    2.04330   2.11197   -1.000
 4885.00    1.97571   2.07951   -1.000
 4886.00    1.93119   2.02687   -1.000
 4887.00    1.95691   2.00170   -1.000
 4888.00    1.96896   2.00833   -1.000
 4889.00    1.93913   2.00184   -1.000
 4890.00    1.89001   1.95687   -1.000
 4891.00    1.87449   1.89378  165.774
 4892.00    1.93667   1.90287   -1.000
 4893.00    2.10211   2.01022   -1.000
 4894.00    2.22729   2.17745   16.278
 4895.00    2.27922   2.31303   16.648
 4896.00    2.31470   2.37381   17.033
 4897.00    2.32507   2.38414   17.198
 4898.00    2.29672   2.36645   17.109
 4899.00    2.23747   2.32723   17.148
 4900.00    2.19661   2.27946   17.346
 4901.00    2.18695   2.25085   17.130
 4902.00    2.17576   2.23516   16.768
 4903.00    2.14592   2.21596   16.663
 4904.00    2.16054   2.20481   16.844
 4905.00    2.23039   2.23368   17.267
 4906.00    2.28343   2.29959   17.756
 4907.00    2.28952   2.33316   17.942
 4908.00    2.20001   2.29452   17.683
 4909.00    2.12907   2.21575   17.363
 4910.00    2.09267   2.13595   17.129
 4911.00    2.09387   2.10280   16.910
 4912.00    2.16655   2.12877   16.778
 4913.00    2.18317   2.19251   16.899
 4914.00    2.23365   2.25222   17.533
 4915.00    2.29269   2.29974   18.506
 4916.00    2.28169   2.31794   19.342
 4917.00    2.20528   2.27653   19.481
 4918.00    2.06517   2.13613   18.812
 4919.00    1.91059   1.95811   18.153
 4920.00    1.82321   1.81617   17.914
 4921.00    1.88194   1.79343   17.891
 4922.00    2.01174   1.88361   17.637
 4923.00    2.08567   2.00649   17.176
 4924.00    2.11897   2.08251   16.885
 4925.00    2.11990   2.11473   16.734
 4926.00    2.17889   2.16261   16.622
 4927.00    2.25983   2.23665   16.541
 4928.00    2.30393   2.30603   16.735
 4929.00    2.34782   2.36524   17.215
 4930.00    2.36854   2.40527   17.806
 4931.00    2.35583   2.40653   17.802
 4932.00    2.29032   2.35790   17.492
 4933.00    2.19436   2.27906   17.531
 4934.00    2.15335   2.20901   18.067
 4935.00    2.18367   2.19754   18.514
 4936.00    2.20646   2.21449   18.293
 4937.00    2.13177   2.18543   17.655
 4938.00    2.04031   2.09796   17.108
 4939.00    2.02756   2.02638   16.812
 4940.00    2.12570   2.05706   16.677
 4941.00    2.24578   2.16437   16.704
 4942.00    2.31022   2.28292   16.820
 4943.00    2.34611   2.35340   16.838
 4944.00    2.35912   2.37825   16.675
 4945.00    2.35696   2.37474   16.488
 4946.00    2.35952   2.35829   16.441
 4947.00    2.36478   2.35593   16.384
 4948.00    2.39218   2.38244   16.478
 4949.00    2.41270   2.41932   16.599
 4950.00    2.41184   2.43972   16.796
 4951.00    2.41774   2.44848   17.027
 4952.00    2.39983   2.44151   17.529
 4953.00    2.34501   2.41971   18.437
 4954.00    2.29065   2.38653   19.072
 4955.00    2.24038   2.31756   18.585
 4956.00    2.11383   2.19174   17.535
 4957.00    1.96835   2.01727   16.987
 4958.00    1.94390   1.91209   16.889
 4959.00    2.06129   1.98264   16.980
 4960.00    2.22104   2.14227   17.124
 4961.00    2.28374   2.28519   17.344
 4962.00    2.28608   2.33795   17.706
 4963.00    2.27130   2.33250   17.910
 4964.00    2.24415   2.29911   17.902
 4965.00    2.17895   2.23851   17.840
 4966.00    2.12346   2.17344   17.699
 4967.00    2.10488   2.14331   17.508
 4968.00    2.13344   2.14446   17.317
 4969.00    2.15375   2.16342   17.114
 4970.00    2.18731   2.19858   16.963
 4971.00    2.22399   2.24196   16.915
 4972.00    2.26058   2.29365   17.045
 4973.00    2.30601   2.33929   17.233
 4974.00    2.33198   2.36118   17.474
 4975.00    2.34079   2.36378   17.754
 4976.00    2.28865   2.34770   17.974
 4977.00    2.24018   2.30922   18.265
 4978.00    2.18817   2.25812   18.879
 4979.00    2.16151   2.21290   19.428
 4980.00    2.13628   2.17698   19.371
 4981.00    2.06632   2.12448   18.975
 4982.00    1.98326   2.03593   18.428
 4983.00    1.93995   1.94231   17.855
 4984.00    1.96120   1.91524   17.465
 4985.00    2.02017   1.96401   17.520
 4986.00    2.12087   2.06338   17.778
 4987.00    2.21301   2.16636   17.939
 4988.00    2.24629   2.24704   17.923
 4989.00    2.24130   2.26699   17.767
 4990.00    2.22114   2.24005   17.702
 4991.00    2.21693   2.21666   17.686
 4992.00    2.21013   2.21801   17.593
 4993.00    2.21386   2.23638   17.528
 4994.00    2.23195   2.24807   17.655
 4995.00    2.25833   2.25235   17.910
 4996.00    2.27413   2.27067   18.261
 4997.00    2.25515   2.29030   18.460
 4998.00    2.22691   2.26723   18.445
 4999.00    2.16339   2.20623   18.270
 5000.00    2.10688   2.12104   18.197
 5001.00    2.08160   2.06948   18.494
 5002.00    2.09835   2.06428   18.929
 5003.00    2.10429   2.07941   18.954
 5004.00    2.08689   2.07769   18.459
 5005.00    2.04352   2.03273   17.937
 5006.00    2.01217   1.97560   17.808
 5007.00    2.03301   1.96318   18.091
 5008.00    2.12201   2.03586   18.662
 5009.00    2.18723   2.13512   19.336
 5010.00    2.19800   2.18807   19.710
 5011.00    2.12896   2.16898   19.556
 5012.00    2.04722   2.09169   19.115
 5013.00    1.97289   1.99969   18.757
 5014.00    1.95475   1.93667   18.697
 5015.00    1.98188   1.94146   18.675
 5016.00    2.03184   1.98561   18.464
 5017.00    2.05587   2.02678   18.345
 5018.00    2.05301   2.04534   18.427
 5019.00    2.07624   2.06038   18.447
 5020.00    2.10145   2.09111   18.325
 5021.00    2.10845   2.10390   18.138
 5022.00    2.09843   2.08969   18.046
 5023.00    2.11119   2.08769   18.139
 5024.00    2.14808   2.12498   18.191
 5025.00    2.17749   2.18067   17.993
 5026.00    2.18002   2.20827   17.659
 5027.00    2.16276   2.18449   17.404
 5028.00    2.15029   2.15590   17.131
 5029.00    2.20161   2.16636   16.968
 5030.00    2.25628   2.22142   17.073
 5031.00    2.29877   2.29106   17.656
 5032.00    2.35372   2.35387   18.308
 5033.00    2.36338   2.39985   18.565
 5034.00    2.32393   2.39433   18.647
 5035.00    2.24704   2.32527   18.954
 5036.00    2.17085   2.22840   19.722
 5037.00    2.13877   2.17406   20.413
 5038.00    2.12156   2.15441   20.248
 5039.00    2.04989   2.10595   19.197
 5040.00    1.93390   2.00168   18.060
 5041.00    1.89633   1.89675   17.388
 5042.00    1.99466   1.90138   16.986
 5043.00    2.14847   2.02599   16.495
 5044.00    1.33623   2.20840   -1.000
 5045.00    0.06923   2.35832   -1.000
 5046.00    0.08196   2.43205   -1.000
 5047.00    0.66275   2.42678   -1.000
 5048.00    1.92156   2.35060   -1.000
 5049.00    2.16943   2.23910   17.826
 5050.00    2.12171   2.15348   17.393
 5051.00    2.15098   2.13179   17.103
 5052.00    2.20288   2.15139   16.962
 5053.00    2.26568   2.20531   16.924
 5054.00    2.32367   2.28230   16.958
 5055.00    2.38308   2.34738   16.983
 5056.00    2.41278   2.37879   16.958
 5057.00    2.40218   2.39641   16.858
 5058.00    2.44216   2.40982   16.906
 5059.00    2.45323   2.43300   17.184
 5060.00    2.46881   2.46464   17.713
 5061.00    2.48723   2.49520   18.282
 5062.00    2.46186   2.50506   18.408
 5063.00    2.38950   2.45479   18.161
 5064.00    2.27591   2.35191   17.919
 5065.00    2.19782   2.24273   17.865
 5066.00    2.20528   2.19536   17.773
 5067.00    2.23175   2.20127   17.697
 5068.00    2.24023   2.22288   17.850
 5069.00    2.27224   2.24377   17.930
 5070.00    2.30612   2.27376   17.710
 5071.00    2.29750   2.29242   17.594
 5072.00    2.27805   2.27971   17.576
 5073.00    2.29819   2.25772   17.593
 5074.00    2.32519   2.26704   17.845
 5075.00    2.34831   2.28989   18.524
 5076.00    2.34810   2.30239   19.305
 5077.00    2.32204   2.29985   19.394
 5078.00    2.25927   2.26169   18.963
 5079.00    2.14389   2.17172   18.584
 5080.00    2.05702   2.06534   18.321
 5081.00    2.07146   2.03393   17.976
 5082.00    2.12723   2.07159   17.700
 5083.00    2.18224   2.12426   17.598
 5084.00    2.23915   2.17300   17.566
 5085.00    2.28172   2.22473   17.468
 5086.00    2.32841   2.27695   17.345
 5087.00    2.33917   2.31752   17.252
 5088.00    2.33479   2.33779   17.142
 5089.00    2.36681   2.35151   16.948
 5090.00    2.38046   2.36289   16.852
 5091.00    2.42007   2.37993   17.053
 5092.00    2.45933   2.41474   17.420
 5093.00    2.48689   2.45722   17.806
 5094.00    2.48682   2.47921   18.230
 5095.00    2.42367   2.44748   18.551
 5096.00    2.34837   2.37079   18.501
 5097.00    2.28218   2.27932   18.012
 5098.00    2.18896   2.20015   17.554
 5099.00    2.15289   2.14538   17.461
 5100.00    2.21095   2.16061   17.597
 5101.00    2.30583   2.23429   17.833
 5102.00    2.36853   2.32153   18.057
 5103.00    2.36291   2.35599   18.279
 5104.00    2.33202   2.33881   18.460
 5105.00    2.30293   2.30729   18.405
 5106.00    2.25561   2.27424   18.281
 5107.00    2.22347   2.23958   18.123
 5108.00    2.22702   2.20638   17.865
 5109.00    2.22013   2.18362   17.647
 5110.00    2.23999   2.18942   17.443
 5111.00    2.27894   2.22232   17.300
 5112.00    2.31980   2.27850   17.192
 5113.00    2.37007   2.32786   17.014
 5114.00    2.41017   2.36171   16.911
 5115.00    2.43554   2.39562   17.002
 5116.00    2.46674   2.43334   17.239
 5117.00    2.50306   2.46869   17.505
 5118.00    2.51426   2.49138   17.827
 5119.00    2.50079   2.48439   18.310
 5120.00    2.43899   2.44659   18.782
 5121.00    2.37827   2.38838   18.835
 5122.00    2.30568   2.31840   18.671
 5123.00    2.21532   2.23802   18.579
 5124.00    2.17744   2.17022   18.495
 5125.00    2.18562   2.14120   18.519
 5126.00    2.21695   2.15572   18.453
 5127.00    2.23638   2.17911   18.188
 5128.00    2.23728   2.18694   17.908
 5129.00    2.23884   2.18935   17.764
 5130.00    2.25678   2.20519   17.596
 5131.00    2.31940   2.24811   17.464
 5132.00    2.37754   2.30007   17.497
 5133.00    2.41554   2.33717   17.851
 5134.00    2.43687   2.36155   18.261
 5135.00    2.44744   2.38403   18.490
 5136.00    2.42951   2.39673   18.463
 5137.00    2.36650   2.36037   18.354
 5138.00    2.27695   2.27364   18.538
 5139.00    2.23847   2.21700   18.759
 5140.00    2.26411   2.21464   18.588
 5141.00    2.27926   2.23753   18.320
 5142.00    2.26627   2.24180   18.317
 5143.00    2.24682   2.22855   18.471
 5144.00    2.25007   2.23887   18.451
 5145.00    2.27666   2.26440   18.240
 5146.00    2.25519   2.24485   18.214
 5147.00    2.23462   2.20743   18.478
 5148.00    2.22771   2.20082   18.773
 5149.00    2.25820   2.22798   18.839
 5150.00    2.26766   2.25103   18.675
 5151.00    2.24450   2.23545   18.280
 5152.00    2.22706   2.20321   17.810
 5153.00    2.23957   2.18408   17.384
 5154.00    2.26016   2.18476   17.108
 5155.00    2.32932   2.22383   17.017
 5156.00    2.41178   2.30087   17.033
 5157.00    2.48454   2.38891   17.101
 5158.00    2.52581   2.44757   17.223
 5159.00    2.51687   2.47213   17.439
 5160.00    2.49660   2.47424   17.801
 5161.00    2.44945   2.45984   18.672
 5162.00    2.41243   2.42157   20.346
 5163.00    2.36740   2.35352   22.334
 5164.00    2.26638   2.26484   23.343
 5165.00    2.09409   2.14858   22.578
 5166.00    1.86404   1.96346   21.475
 5167.00    1.67744   1.72964   21.602
 5168.00    1.64559   1.61706   23.093
 5169.00    1.76003   1.66588   24.062
 5170.00    1.86561   1.78546   22.549
 5171.00    1.79477   1.79808   20.189
 5172.00    1.62630   1.66015   18.764
 5173.00    1.61531   1.57741   18.211
 5174.00    1.81949   1.65725   -1.000
 5175.00    2.08120   1.89421   -1.000
 5176.00    2.24254   2.11105   18.379
 5177.00    2.30053   2.21725   19.202
 5178.00    2.31823   2.25614   20.819
 5179.00    2.28548   2.25937   23.112
 5180.00    2.21180   2.22061   24.160
 5181.00    2.05756   2.11160   22.496
 5182.00    1.82599   1.88862   20.066
 5183.00    1.62675   1.66455   18.631
 5184.00    1.62592   1.55229   18.191
 5185.00    1.85403   1.67423   -1.000
 5186.00    2.14763   1.93804   -1.000
 5187.00    2.33105   2.16735   -1.000
 5188.00    2.39815   2.29424   18.947
 5189.00    2.42540   2.34468   19.300
 5190.00    2.41909   2.34857   19.076
 5191.00    2.32678   2.28689   18.752
 5192.00    2.21505   2.17468   18.477
 5193.00    2.19888   2.09967   18.181
 5194.00    2.26936   2.13205   17.825
 5195.00    2.32096   2.18409   17.564
 5196.00    2.36708   2.23163   17.459
 5197.00    2.43309   2.29185   17.488
 5198.00    2.45946   2.36291   17.681
 5199.00    2.50144   2.42616   18.032
 5200.00    2.52433   2.46103   18.489
 5201.00    2.51540   2.46266   19.077
 5202.00    2.46979   2.42730   19.531
 5203.00    2.40358   2.36159   19.586
 5204.00    2.29957   2.25004   19.696
 5205.00    2.17943   2.11482   19.709
 5206.00    2.12722   2.00909   19.307
 5207.00    2.12011   1.96437   -1.000
 5208.00    2.10848   1.96068   17.870
 5209.00    2.14780   1.97699   -1.000
 5210.00    2.25992   2.04517   -1.000
 5211.00    2.39169   2.18492   -1.000
 5212.00    2.50978   2.33936   -1.000
 5213.00    2.59165   2.46046   17.809
 5214.00    2.58792   2.49138   17.579
 5215.00    2.52574   2.44381   17.219
 5216.00    2.48658   2.37219   16.998
 5217.00    2.49796   2.35455   16.890
 5218.00    2.56550   2.41542   16.901
 5219.00    2.63008   2.50323   17.214
 5220.00    2.66110   2.57630   17.805
 5221.00    2.67693   2.60820   18.578
 5222.00    2.64940   2.59889   19.360
 5223.00    2.55269   2.53545   19.616
 5224.00    2.44992   2.42428   18.962
 5225.00    2.32162   2.27334   17.954
 5226.00    2.21068   2.12838   17.348
 5227.00    2.22679   2.06053   17.136
 5228.00    2.36358   2.13047   -1.000
 5229.00    2.54031   2.29950   -1.000
 5230.00    2.63985   2.47373   -1.000
 5231.00    2.64903   2.53219   17.633
 5232.00    2.59178   2.48791   17.206
 5233.00    2.51226   2.39969   16.855
 5234.00    2.48665   2.35267   16.725
 5235.00    2.57104   2.40277   16.737
 5236.00    2.66191   2.49895   16.770
 5237.00    2.73338   2.60375   16.716
 5238.00    2.74807   2.66376   16.649
 5239.00    2.72930   2.67367   16.664
 5240.00    2.71159   2.65938   16.629
 5241.00    2.71811   2.64199   16.705
 5242.00    2.72855   2.63159   17.113
 5243.00    2.73329   2.63925   17.622
 5244.00    2.75847   2.66406   17.919
 5245.00    2.74000   2.66777   17.943
 5246.00    2.65042   2.60950   18.001
 5247.00    2.54777   2.50806   18.062
 5248.00    2.52209   2.43573   17.917
 5249.00    2.53309   2.41622   17.681
 5250.00    2.52284   2.41278   17.562
 5251.00    2.52135   2.41435   17.536
 5252.00    2.55590   2.44681   17.317
 5253.00    2.59546   2.48419   16.879
 5254.00    2.59417   2.49396   16.511
 5255.00    2.58669   2.48639   16.469
 5256.00    2.65096   2.51703   16.725
 5257.00    2.76472   2.62466   17.273
 5258.00    2.82494   2.72481   18.047
 5259.00    2.81309   2.76286   18.844
 5260.00    2.74831   2.72271   19.406
 5261.00    2.62913   2.61592   19.690
 5262.00    2.48449   2.46331   19.606
 5263.00    2.33456   2.30493   19.242
 5264.00    2.24500   2.16674   19.126
 5265.00    2.20403   2.08394   19.689
 5266.00    2.21214   2.06482   -1.000
 5267.00    2.28196   2.10027   -1.000
 5268.00    2.27631   2.11773   -1.000
 5269.00    2.16595   2.03778   17.799
 5270.00    2.13677   1.95057   -1.000
 5271.00    2.28106   1.98398   -1.000
 5272.00    2.48525   2.17937   -1.000
 5273.00    2.57197   2.37868   -1.000
 5274.00    2.58255   2.42939   16.616
 5275.00    2.58402   2.43377   16.447
 5276.00    2.65689   2.46847   -1.000
 5277.00    2.77713   2.56846   -1.000
 5278.00    2.85992   2.69058   -1.000
 5279.00    2.86826   2.74101   17.731
 5280.00    2.79758   2.70866   17.665
 5281.00    2.70849   2.61803   17.227
 5282.00    2.62097   2.52066   16.686
 5283.00    2.56045   2.44505   16.286
 5284.00    2.64655   2.45344   -1.000
 5285.00    2.78948   2.55585   -1.000
 5286.00    2.91000   2.71989   -1.000
 5287.00    2.97498   2.82635   16.199
 5288.00    2.97353   2.84953   16.209
 5289.00    2.96935   2.84249   16.330
 5290.00    2.98629   2.84670   16.507
 5291.00    2.99911   2.86649   16.803
 5292.00    2.99067   2.86512   17.332
 5293.00    2.95073   2.83760   17.946
 5294.00    2.88433   2.81138   18.224
 5295.00    2.80709   2.76828   17.966
 5296.00    2.69989   2.66066   17.533
 5297.00    2.57663   2.51341   17.283
 5298.00    2.54163   2.40568   17.150
 5299.00    2.62408   2.41624   -1.000
 5300.00    2.73096   2.50838   -1.000
 5301.00    2.77693   2.58158   -1.000
 5302.00    2.80463   2.62779   -1.000
 5303.00    2.89701   2.68976   -1.000
 5304.00    2.99287   2.78856   -1.000
 5305.00    3.03065   2.88619   16.335
 5306.00    3.02947   2.90876   16.183
 5307.00    3.01865   2.87890   16.123
 5308.00    3.03122   2.85738   -1.000
 5309.00    3.04931   2.87317   -1.000
 5310.00    3.06517   2.91359   16.343
 5311.00    3.06760   2.92773   16.479
 5312.00    3.04202   2.90862   16.639
 5313.00    3.03140   2.88081   16.738
 5314.00    3.00584   2.85233   16.692
 5315.00    2.98224   2.82620   16.579
 5316.00    2.94006   2.79781   16.556
 5317.00    2.91012   2.77394   16.643
 5318.00    2.92067   2.77865   16.790
 5319.00    2.93486   2.79249   17.025
 5320.00    2.93906   2.79661   17.281
 5321.00    2.94561   2.79097   17.376
 5322.00    2.90311   2.76512   17.525
 5323.00    2.83278   2.70502   18.250
 5324.00    2.76235   2.62427   19.267
 5325.00    2.73745   2.55345   -1.000
 5326.00    2.68512   2.48326   -1.000
 5327.00    2.52160   2.33558   -1.000
 5328.00    2.37413   2.19036   -1.000
 5329.00    2.40152   2.13994   -1.000
 5330.00    2.60022   2.29229   -1.000
 5331.00    2.78851   2.51969   -1.000
 5332.00    2.86591   2.66492   -1.000
 5333.00    2.89963   2.72279   -1.000
 5334.00    2.95437   2.76051   -1.000
 5335.00    3.00896   2.82006   -1.000
 5336.00    3.02056   2.86730   17.495
 5337.00    2.98655   2.86372   17.634
 5338.00    2.92994   2.81976   17.345
 5339.00    2.85256   2.72806   16.917
 5340.00    2.75839   2.61315   16.730
 5341.00    2.72756   2.53562   -1.000
 5342.00    2.80997   2.58510   -1.000
 5343.00    2.90946   2.68693   -1.000
 5344.00    2.94242   2.75504   -1.000
 5345.00    2.93229   2.76158   -1.000
 5346.00    2.91759   2.73505   -1.000
 5347.00    2.90850   2.70661   -1.000
 5348.00    2.88930   2.67818   -1.000
 5349.00    2.87193   2.64950   -1.000
 5350.00    2.91997   2.66634   -1.000
 5351.00    2.99408   2.74365   -1.000
 5352.00    3.05004   2.83253   -1.000
 5353.00    3.07779   2.90495   15.862
 5354.00    3.11151   2.94449   15.887
 5355.00    3.16071   2.98709   15.924
 5356.00    3.19512   3.03216   16.031
 5357.00    3.21625   3.04991   16.257
 5358.00    3.20118   3.04772   16.521
 5359.00    3.17602   3.03560   16.715
 5360.00    3.13047   3.00621   16.819
 5361.00    3.07302   2.95442   16.917
 5362.00    3.03012   2.90253   16.962
 5363.00    3.01362   2.86169   16.920
 5364.00    3.00076   2.82917   -1.000
 5365.00    2.96804   2.79725   -1.000
 5366.00    2.94033   2.76799   -1.000
 5367.00    2.94495   2.76076   -1.000
 5368.00    2.92682   2.75552   -1.000
 5369.00    2.82761   2.68911   17.103
 5370.00    2.71614   2.56272   16.448
 5371.00    2.66306   2.44899   -1.000
 5372.00    2.75739   2.44468   -1.000
 5373.00    2.94241   2.58811   -1.000
 5374.00    3.08829   2.76569   -1.000
 5375.00    3.15156   2.90039   -1.000
 5376.00    3.14285   2.93569   -1.000
 5377.00    3.11580   2.92091   -1.000
 5378.00    3.11772   2.91564   -1.000
 5379.00    3.11946   2.93023   -1.000
 5380.00    3.09713   2.93760   16.658
 5381.00    3.05668   2.91019   16.537
 5382.00    3.02055   2.86476   16.410
 5383.00    3.02310   2.83266   -1.000
 5384.00    3.04994   2.83168   -1.000
 5385.00    3.07571   2.86054   -1.000
 5386.00    3.09430   2.89927   -1.000
 5387.00    3.08272   2.91702   -1.000
 5388.00    3.03644   2.88804   17.162
 5389.00    2.97091   2.83045   17.184
 5390.00    2.91405   2.76291   17.269
 5391.00    2.89779   2.71576   -1.000
 5392.00    2.90469   2.69737   -1.000
 5393.00    2.91121   2.69870   -1.000
 5394.00    2.89566   2.70142   -1.000
 5395.00    2.83827   2.67988   17.179
 5396.00    2.76440   2.62094   16.843
 5397.00    2.73944   2.54773   -1.000
 5398.00    2.80611   2.54139   -1.000
 5399.00    2.90813   2.62421   -1.000
 5400.00    2.96413   2.73042   -1.000
 5401.00    2.97371   2.79398   -1.000
 5402.00    2.96827   2.80788   -1.000
 5403.00    2.90006   2.76312   17.967
 5404.00    2.75475   2.64899   17.668
 5405.00    2.64673   2.49138   17.653
 5406.00    2.64760   2.40266   -1.000
 5407.00    2.72867   2.46199   -1.000
 5408.00    2.80520   2.55530   -1.000
 5409.00    2.81052   2.60566   -1.000
 5410.00    2.81837   2.59459   -1.000
 5411.00    2.90106   2.61849   -1.000
 5412.00    3.01415   2.72813   -1.000
 5413.00    3.07965   2.82465   -1.000
 5414.00    3.07960   2.86642   -1.000
 5415.00    3.07345   2.87713   -1.000
 5416.00    3.09759   2.90547   -1.000
 5417.00    3.13437   2.96297   -1.000
 5418.00    3.14942   2.98936   16.643
 5419.00    3.12346   2.96287   16.701
 5420.00    3.08536   2.92132   -1.000
 5421.00    3.07033   2.89235   -1.000
 5422.00    3.08505   2.89003   -1.000
 5423.00    3.07957   2.88134   -1.000
 5424.00    3.04783   2.84163   -1.000
 5425.00    3.06686   2.84574   -1.000
 5426.00    3.14211   2.91565   -1.000
 5427.00    3.16606   2.98285   -1.000
 5428.00    3.06627   2.96064   17.283
 5429.00    2.91706   2.81253   17.402
 5430.00    2.85964   2.68737   -1.000
 5431.00    2.90976   2.67364   -1.000
 5432.00    2.95057   2.72525   -1.000
 5433.00    2.92107   2.74375   -1.000
 5434.00    2.87045   2.68185   -1.000
 5435.00    2.87307   2.63151   -1.000
 5436.00    2.93055   2.65790   -1.000
 5437.00    3.00946   2.75573   -1.000
 5438.00    3.10292   2.88917   -1.000
 5439.00    3.20818   2.99848   -1.000
 5440.00    3.28625   3.07189   -1.000
 5441.00    3.29122   3.10037   -1.000
 5442.00    3.25852   3.11301   17.689
 5443.00    3.21827   3.10836   17.953
 5444.00    3.12436   3.05400   17.584
 5445.00    2.98427   2.92958   17.027
 5446.00    2.82834   2.75052   16.694
 5447.00    2.77640   2.63099   16.623
 5448.00    2.85613   2.64073   -1.000
 5449.00    2.97354   2.75682   -1.000
 5450.00    3.06383   2.89135   -1.000
 5451.00    3.08184   2.93775   17.857
 5452.00    3.04948   2.92540   17.950
 5453.00    2.98147   2.87343   17.490
 5454.00    2.89303   2.77902   16.923
 5455.00    2.83067   2.65734   -1.000
 5456.00    2.85508   2.60441   -1.000
 5457.00    2.96770   2.66938   -1.000
 5458.00    3.09389   2.83967   -1.000
 5459.00    3.12971   2.95297   -1.000
 5460.00    3.08396   2.96340   17.350
 5461.00    3.03916   2.90420   17.123
 5462.00    2.99992   2.82205   -1.000
 5463.00    2.96323   2.76884   -1.000
 5464.00    2.98064   2.77236   -1.000
 5465.00    3.04287   2.82551   -1.000
 5466.00    3.08799   2.87746   -1.000
 5467.00    3.10857   2.91309   -1.000
 5468.00    3.11575   2.93119   -1.000
 5469.00    3.10532   2.92875   -1.000
 5470.00    3.07212   2.90491   -1.000
 5471.00    3.03583   2.87401   -1.000
 5472.00    3.02745   2.84969   -1.000
 5473.00    3.00153   2.83502   -1.000
 5474.00    2.95949   2.80761   -1.000
 5475.00    2.91253   2.74368   -1.000
 5476.00    2.83546   2.66521   -1.000
 5477.00    2.82859   2.60635   -1.000
 5478.00    2.91133   2.66080   -1.000
 5479.00    2.99907   2.77704   -1.000
 5480.00    2.99692   2.82636   -1.000
 5481.00    2.92374   2.79422   16.762
 5482.00    2.89052   2.73444   16.770
 5483.00    2.94746   2.76148   -1.000
 5484.00    3.04313   2.87024   -1.000
 5485.00    3.10590   2.95882   17.214
 5486.00    3.11945   2.98047   17.154
 5487.00    3.07103   2.92118   17.024
 5488.00    3.02789   2.86037   -1.000
 5489.00    3.04467   2.83786   -1.000
 5490.00    3.08276   2.87468   -1.000
 5491.00    3.11168   2.92193   -1.000
 5492.00    3.12051   2.94213   -1.000
 5493.00    3.12685   2.93774   -1.000
 5494.00    3.13860   2.92451   -1.000
 5495.00    3.13993   2.92375   -1.000
 5496.00    3.11571   2.91885   -1.000
 5497.00    3.08521   2.89462   -1.000
 5498.00    3.09793   2.89137   -1.000
 5499.00    3.14140   2.93025   -1.000
 5500.00    3.14675   2.95255   -1.000
 5501.00    3.07328   2.92418   17.273
 5502.00    3.03541   2.86112   -1.000
 5503.00    3.04552   2.82762   -1.000
 5504.00    3.04527   2.84608   -1.000
 5505.00    3.03439   2.84407   -1.000
 5506.00    3.01702   2.80658   -1.000
 5507.00    3.04217   2.78478   -1.000
 5508.00    3.10048   2.81883   -1.000
 5509.00    3.11822   2.89705   -1.000
 5510.00    3.09409   2.92853   -1.000
 5511.00    3.05026   2.87887   -1.000
 5512.00    2.98583   2.79739   -1.000
 5513.00    2.94287   2.72847   -1.000
 5514.00    2.96588   2.72026   -1.000
 5515.00    3.02011   2.75091   -1.000
 5516.00    3.07360   2.80490   -1.000
 5517.00    3.15050   2.86817   -1.000
 5518.00    3.22673   2.94473   -1.000
 5519.00    3.25369   3.01686   -1.000
 5520.00    3.25960   3.05857   -1.000
 5521.00    3.25320   3.05152   -1.000
 5522.00    3.23809   3.03923   -1.000
 5523.00    3.23327   3.03847   -1.000
 5524.00    3.20809   3.03995   -1.000
 5525.00    3.17067   3.02284   17.750
 5526.00    3.11642   2.95622   -1.000
 5527.00    3.03521   2.86176   -1.000
 5528.00    2.98253   2.76281   -1.000
 5529.00    3.01690   2.75487   -1.000
 5530.00    3.10131   2.84018   -1.000
 5531.00    3.16385   2.94386   -1.000
 5532.00    3.17272   2.99598   -1.000
 5533.00    3.15512   2.98499   -1.000
 5534.00    3.14588   2.96096   -1.000
 5535.00    3.16147   2.94299   -1.000
 5536.00    3.16344   2.93625   -1.000
 5537.00    3.16579   2.94383   -1.000
 5538.00    3.20262   2.96626   -1.000
 5539.00    3.25792   2.99546   -1.000
 5540.00    3.30132   3.04097   -1.000
 5541.00    3.33012   3.07652   -1.000
 5542.00    3.29912   3.07709   -1.000
 5543.00    3.24439   3.04151   -1.000
 5544.00    3.23626   3.00915   -1.000
 5545.00    3.25950   3.00002   -1.000
 5546.00    3.27130   3.00665   -1.000
 5547.00    3.28146   3.02281   -1.000
 5548.00    3.33062   3.06298   -1.000
 5549.00    3.38716   3.11668   -1.000
 5550.00    3.39078   3.14979   -1.000
 5551.00    3.37585   3.15275   -1.000
 5552.00    3.35366   3.13043   -1.000
 5553.00    3.31530   3.08836   -1.000
 5554.00    3.28641   3.04618   -1.000
 5555.00    3.27698   3.02809   -1.000
 5556.00    3.27604   3.03326   -1.000
 5557.00    3.28152   3.04515   -1.000
 5558.00    3.29099   3.04372   -1.000
 5559.00    3.30298   3.04332   -1.000
 5560.00    3.30771   3.04960   -1.000
 5561.00    3.29039   3.04297   -1.000
 5562.00    3.25389   3.01010   -1.000
 5563.00    3.22035   2.98101   -1.000
 5564.00    3.21008   2.96814   -1.000
 5565.00    3.20364   2.96612   -1.000
 5566.00    3.18943   2.95378   -1.000
 5567.00    3.17262   2.93637   -1.000
 5568.00    3.16498   2.92980   -1.000
 5569.00    3.19555   2.93410   -1.000
 5570.00    3.20132   2.94763   -1.000
 5571.00    3.08988   2.96349   16.934
 5572.00    2.89953   2.96338   16.738
 5573.00    3.03676   2.94845   16.469
 5574.00    3.93463   2.94205   -1.000
 5575.00    4.73670   2.98416   -1.000
 5576.00    4.54633   3.03375   -1.000
 5577.00    3.91144   3.04378   -1.000
 5578.00    3.47214   3.05060   -1.000
 5579.00    3.33770   3.07593   -1.000
 5580.00    3.32825   3.08944   -1.000
 5581.00    3.32046   3.08859   -1.000
 5582.00    3.31011   3.06939   -1.000
 5583.00    3.29417   3.04248   -1.000
 5584.00    3.26142   3.02695   -1.000
 5585.00    3.19799   2.97693   -1.000
 5586.00    3.09759   2.87730   -1.000
 5587.00    3.00633   2.76195   -1.000
 5588.00    2.95899   2.67785   -1.000
 5589.00    2.96835   2.68267   -1.000
 5590.00    3.03358   2.73721   -1.000
 5591.00    3.11559   2.82109   -1.000
 5592.00    3.15228   2.87432   -1.000
 5593.00    3.13477   2.89362   -1.000
 5594.00    3.14199   2.90593   -1.000
 5595.00    3.21006   2.94680   -1.000
 5596.00    3.27841   3.01620   -1.000
 5597.00    3.27107   3.04347   -1.000
 5598.00    3.18477   2.99766   -1.000
 5599.00    3.10782   2.91793   -1.000
 5600.00    3.08653   2.85465   -1.000
 5601.00    3.08265   2.82095   -1.000
 5602.00    3.07440   2.80419   -1.000
 5603.00    3.09749   2.82048   -1.000
 5604.00    3.18962   2.90894   -1.000
 5605.00    3.30957   3.03776   -1.000
 5606.00    3.38945   3.13310   -1.000
 5607.00    3.41970   3.18240   -1.000
 5608.00    3.43110   3.18946   -1.000
 5609.00    3.43019   3.18093   -1.000
 5610.00    3.42717   3.17504   -1.000
 5611.00    3.43842   3.19350   -1.000
 5612.00    3.42716   3.21319   -1.000
 5613.00    3.35909   3.18230   -1.000
 5614.00    3.23388   3.06622   -1.000
 5615.00    3.10711   2.88900   -1.000
 5616.00    3.07604   2.79325   -1.000
 5617.00    3.14546   2.81409   -1.000
 5618.00    3.20503   2.92198   -1.000
 5619.00    3.22164   2.98842   -1.000
 5620.00    3.25116   3.00563   -1.000
 5621.00    3.29429   3.03739   -1.000
 5622.00    3.29888   3.07519   -1.000
 5623.00    3.22820   3.04098   -1.000
 5624.00    3.15012   2.95694   -1.000
 5625.00    3.12683   2.87101   -1.000
 5626.00    3.16257   2.87665   -1.000
 5627.00    3.23941   2.95956   -1.000
 5628.00    3.31125   3.03332   -1.000
 5629.00    3.36324   3.08964   -1.000
 5630.00    3.39662   3.13620   -1.000
 5631.00    3.40433   3.15809   -1.000
 5632.00    3.39111   3.15718   -1.000
 5633.00    3.36960   3.13900   -1.000
 5634.00    3.33575   3.11114   -1.000
 5635.00    3.29688   3.07257   -1.000
 5636.00    3.27072   3.03097   -1.000
 5637.00    3.25142   3.00053   -1.000
 5638.00    3.25120   2.99607   -1.000
 5639.00    3.24986   3.00954   -1.000
 5640.00    3.23282   3.01744   -1.000
 5641.00    3.22472   3.00253   -1.000
 5642.00    3.22955   2.97693   -1.000
 5643.00    3.25149   2.98579   -1.000
 5644.00    3.28208   3.01661   -1.000
 5645.00    3.30948   3.04179   -1.000
 5646.00    3.32761   3.06412   -1.000
 5647.00    3.35171   3.08056   -1.000
 5648.00    3.36514   3.08121   -1.000
 5649.00    3.34925   3.06894   -1.000
 5650.00    3.35976   3.06206   -1.000
 5651.00    3.39233   3.08234   -1.000
 5652.00    3.41059   3.12502   -1.000
 5653.00    3.40510   3.13790   -1.000
 5654.00    3.35033   3.10420   -1.000
 5655.00    3.29770   3.07267   -1.000
 5656.00    3.27323   3.04616   -1.000
 5657.00    3.21283   2.99715   -1.000
 5658.00    3.12740   2.91371   -1.000
 5659.00    3.10400   2.84143   -1.000
 5660.00    3.16320   2.86697   -1.000
 5661.00    3.21644   2.94989   -1.000
 5662.00    3.21652   2.96718   -1.000
 5663.00    3.22817   2.96360   -1.000
 5664.00    3.28558   3.01370   -1.000
 5665.00    3.34397   3.07424   -1.000
 5666.00    3.35072   3.10444   -1.000
 5667.00    3.30345   3.08611   -1.000
 5668.00    3.27409   3.05022   -1.000
 5669.00    3.28415   3.04395   -1.000
 5670.00    3.31004   3.05565   -1.000
 5671.00    3.35407   3.07939   -1.000
 5672.00    3.42248   3.12521   -1.000
 5673.00    3.49103   3.18503   -1.000
 5674.00    3.51299   3.21606   -1.000
 5675.00    3.49938   3.22180   -1.000
 5676.00    3.50187   3.21397   -1.000
 5677.00    3.51059   3.21963   -1.000
 5678.00    3.49593   3.22585   -1.000
 5679.00    3.46845   3.20565   -1.000
 5680.00    3.43734   3.17050   -1.000
 5681.00    3.39525   3.13683   -1.000
 5682.00    3.34160   3.09110   -1.000
 5683.00    3.31083   3.04424   -1.000
 5684.00    3.32506   3.05149   -1.000
 5685.00    3.36643   3.09249   -1.000
 5686.00    3.36623   3.09685   -1.000
 5687.00    3.32346   3.06698   -1.000
 5688.00    3.30966   3.03771   -1.000
 5689.00    3.34947   3.04810   -1.000
 5690.00    3.41999   3.10443   -1.000
 5691.00    3.48292   3.16553   -1.000
 5692.00    3.51319   3.21674   -1.000
 5693.00    3.51806   3.24206   -1.000
 5694.00    3.51123   3.23956   -1.000
 5695.00    3.48573   3.22322   -1.000
 5696.00    3.45698   3.21118   -1.000
 5697.00    3.42470   3.19088   -1.000
 5698.00    3.37057   3.14989   -1.000
 5699.00    3.31089   3.10456   -1.000
 5700.00    3.25852   3.07069   -1.000
 5701.00    3.23800   3.03735   -1.000
 5702.00    3.25456   3.01306   -1.000
 5703.00    3.29461   3.04320   -1.000
 5704.00    3.34178   3.08688   -1.000
 5705.00    3.32711   3.10065   -1.000
 5706.00    3.26299   3.06540   -1.000
 5707.00    3.20366   2.99012   -1.000
 5708.00    3.16266   2.93386   -1.000
 5709.00    3.13935   2.89800   -1.000
 5710.00    3.14614   2.88265   -1.000
 5711.00    3.18280   2.89962   -1.000
 5712.00    3.23993   2.94522   -1.000
 5713.00    3.33247   3.02459   -1.000
 5714.00    3.42840   3.12246   -1.000
 5715.00    3.47482   3.17670   -1.000
 5716.00    3.49950   3.20717   -1.000
 5717.00    3.51120   3.22781   -1.000
 5718.00    3.51565   3.23955   -1.000
 5719.00    3.53634   3.25211   -1.000
 5720.00    3.56701   3.27748   -1.000
 5721.00    3.60684   3.31035   -1.000
 5722.00    3.62545   3.34133   -1.000
 5723.00    3.62582   3.36149   -1.000
 5724.00    3.62843   3.36724   -1.000
 5725.00    3.60296   3.34157   -1.000
 5726.00    3.54440   3.28403   -1.000
 5727.00    3.50565   3.22833   -1.000
 5728.00    3.51280   3.21762   -1.000
 5729.00    3.54504   3.25817   -1.000
 5730.00    3.53458   3.27821   -1.000
 5731.00    3.49500   3.25892   -1.000
 5732.00    3.50121   3.23391   -1.000
 5733.00    3.55127   3.25245   -1.000
 5734.00    3.58890   3.31724   -1.000
 5735.00    3.59722   3.35145   -1.000
 5736.00    3.59756   3.34284   -1.000
 5737.00    3.57366   3.31535   -1.000
 5738.00    3.54041   3.29320   -1.000
 5739.00    3.53217   3.29855   -1.000
 5740.00    3.52988   3.30394   -1.000
 5741.00    3.53566   3.30340   -1.000
 5742.00    3.54368   3.29291   -1.000
 5743.00    3.54916   3.28764   -1.000
 5744.00    3.57663   3.31746   -1.000
 5745.00    3.61588   3.35718   -1.000
 5746.00    3.62951   3.37261   -1.000
 5747.00    3.59266   3.33705   -1.000
 5748.00    3.55164   3.27981   -1.000
 5749.00    3.56539   3.28286   -1.000
 5750.00    3.61282   3.32100   -1.000
 5751.00    3.60638   3.34271   -1.000
 5752.00    3.51210   3.29222   -1.000
 5753.00    3.43232   3.19212   -1.000
 5754.00    3.43219   3.14631   -1.000
 5755.00    3.50752   3.17971   -1.000
 5756.00    3.61224   3.28756   -1.000
 5757.00    3.66096   3.37591   -1.000
 5758.00    3.64487   3.40667   -1.000
 5759.00    3.59371   3.37857   -1.000
 5760.00    3.53416   3.30495   -1.000
 5761.00    3.45192   3.21822   -1.000
 5762.00    3.40584   3.15529   -1.000
 5763.00    3.45198   3.15247   -1.000
 5764.00    3.56004   3.22929   -1.000
 5765.00    3.63557   3.34561   -1.000
 5766.00    3.66454   3.40587   -1.000
 5767.00    3.65658   3.42470   -1.000
 5768.00    3.63901   3.42625   -1.000
 5769.00    3.60986   3.41693   -1.000
 5770.00    3.58099   3.39711   -1.000
 5771.00    3.56089   3.37948   -1.000
 5772.00    3.52708   3.35991   -1.000
 5773.00    3.47099   3.34024   16.610
 5774.00    3.41647   3.32676   16.644
 5775.00    3.34809   3.32002   16.830
 5776.00    3.29570   3.33657   17.178
 5777.00    3.30957   3.36191   17.460
 5778.00    3.36565   3.35838   17.501
 5779.00    3.40708   3.31092   17.434
 5780.00    3.36262   3.21092   -1.000
 5781.00    3.28607   3.10680   -1.000
 5782.00    3.27683   3.03642   -1.000
 5783.00    3.29724   3.03588   -1.000
 5784.00    3.29249   3.05229   -1.000
 5785.00    3.30101   3.04506   -1.000
 5786.00    3.37182   3.07102   -1.000
 5787.00    3.46676   3.15476   -1.000
 5788.00    3.54240   3.23539   -1.000
 5789.00    3.56293   3.28378   -1.000
 5790.00    3.52205   3.28260   -1.000
 5791.00    3.49246   3.26446   -1.000
 5792.00    3.50228   3.26834   -1.000
 5793.00    3.53840   3.31991   -1.000
 5794.00    3.60880   3.39546   -1.000
 5795.00    3.67965   3.43937   -1.000
 5796.00    3.67911   3.43175   -1.000
 5797.00    3.62953   3.37350   -1.000
 5798.00    3.63267   3.33531   -1.000
 5799.00    3.69331   3.35807   -1.000
 5800.00    3.75971   3.43700   -1.000
 5801.00    3.80014   3.51400   -1.000
 5802.00    3.78637   3.53286   -1.000
 5803.00    3.72295   3.50022   -1.000
 5804.00    3.65011   3.43080   -1.000
 5805.00    3.62170   3.38158   -1.000
 5806.00    3.63788   3.36962   -1.000
 5807.00    3.66151   3.38554   -1.000
 5808.00    3.68144   3.40776   -1.000
 5809.00    3.70213   3.42705   -1.000
 5810.00    3.71860   3.44582   -1.000
 5811.00    3.73362   3.46141   -1.000
 5812.00    3.73806   3.46159   -1.000
 5813.00    3.72013   3.44688   -1.000
 5814.00    3.69316   3.40994   -1.000
 5815.00    3.64919   3.35835   -1.000
 5816.00    3.62989   3.31430   -1.000
 5817.00    3.66022   3.33108   -1.000
 5818.00    3.71792   3.39809   -1.000
 5819.00    3.77537   3.47169   -1.000
 5820.00    3.80615   3.50637   -1.000
 5821.00    3.80982   3.50223   -1.000
 5822.00    3.79103   3.48154   -1.000
 5823.00    3.77487   3.45807   -1.000
 5824.00    3.76908   3.45847   -1.000
 5825.00    3.78978   3.46891   -1.000
 5826.00    3.81379   3.48208   -1.000
 5827.00    3.82061   3.49012   -1.000
 5828.00    3.80808   3.49544   -1.000
 5829.00    3.80300   3.50702   -1.000
 5830.00    3.81451   3.51682   -1.000
 5831.00    3.80115   3.51671   -1.000
 5832.00    3.80080   3.50884   -1.000
 5833.00    3.78424   3.49068   -1.000
 5834.00    3.77535   3.46708   -1.000
 5835.00    3.77092   3.44673   -1.000
 5836.00    3.77170   3.45193   -1.000
 5837.00    3.76601   3.46134   -1.000
 5838.00    3.73713   3.45498   -1.000
 5839.00    3.73285   3.45861   -1.000
 5840.00    3.76696   3.48555   -1.000
 5841.00    3.79792   3.52356   -1.000
 5842.00    3.81052   3.55347   -1.000
 5843.00    3.80456   3.55507   -1.000
 5844.00    3.76887   3.53373   -1.000
 5845.00    3.72193   3.49581   -1.000
 5846.00    3.69033   3.45162   -1.000
 5847.00    3.66649   3.41324   -1.000
 5848.00    3.65611   3.39398   -1.000
 5849.00    3.67398   3.39788   -1.000
 5850.00    3.68312   3.40903   -1.000
 5851.00    3.64895   3.39199   -1.000
 5852.00    3.59816   3.34530   -1.000
 5853.00    3.57086   3.30303   -1.000
 5854.00    3.56823   3.29228   -1.000
 5855.00    3.55605   3.30308   -1.000
 5856.00    3.51212   3.27417   -1.000
 5857.00    3.47223   3.20077   -1.000
 5858.00    3.48301   3.15155   -1.000
 5859.00    3.53298   3.17138   -1.000
 5860.00    3.59072   3.26033   -1.000
 5861.00    3.62493   3.32505   -1.000
 5862.00    3.62557   3.34619   -1.000
 5863.00    3.62416   3.34296   -1.000
 5864.00    3.63723   3.34229   -1.000
 5865.00    3.61390   3.34602   -1.000
 5866.00    3.59090   3.32695   -1.000
 5867.00    3.59090   3.29768   -1.000
 5868.00    3.64094   3.32071   -1.000
 5869.00    3.68969   3.38060   -1.000
 5870.00    3.71421   3.42602   -1.000
 5871.00    3.71296   3.44241   -1.000
 5872.00    3.67439   3.42866   -1.000
 5873.00    3.67331   3.41081   -1.000
 5874.00    3.69104   3.40363   -1.000
 5875.00    3.68362   3.41126   -1.000
 5876.00    3.65837   3.41124   -1.000
 5877.00    3.63218   3.38420   -1.000
 5878.00    3.60511   3.34467   -1.000
 5879.00    3.55698   3.30067   -1.000
 5880.00    3.52059   3.26981   -1.000
 5881.00    3.44682   3.26286   -1.000
 5882.00    3.29559   3.28607   17.053
 5883.00    3.01843   3.29323   -1.000
 5884.00    2.62331   3.26910   -1.000
 5885.00    2.36849   3.26246   -1.000
 5886.00    2.43196   3.24800   -1.000
 5887.00    2.64458   3.14085   -1.000
 5888.00    2.65512   2.88996   -1.000
 5889.00    2.36325   2.51147   18.796
 5890.00    2.04569   2.24624   -1.000
 5891.00    1.98128   2.22253   -1.000
 5892.00    2.22366   2.45054   -1.000
 5893.00    2.56494   2.67349   18.994
 5894.00    2.75165   2.71213   18.324
 5895.00    2.74316   2.58785   -1.000
 5896.00    2.73425   2.43186   -1.000
 5897.00    2.89476   2.51119   -1.000
 5898.00    3.14053   2.74430   -1.000
 5899.00    3.32817   2.95028   -1.000
 5900.00    3.45224   3.08757   -1.000
 5901.00    3.52893   3.18733   -1.000
 5902.00    3.55788   3.24681   -1.000
 5903.00    3.56535   3.27888   -1.000
 5904.00    3.54905   3.28996   -1.000
 5905.00    3.53450   3.28662   -1.000
 5906.00    3.53352   3.27872   -1.000
 5907.00    3.54725   3.29114   -1.000
 5908.00    3.58975   3.32072   -1.000
 5909.00    3.62057   3.34083   -1.000
 5910.00    3.62745   3.35955   -1.000
 5911.00    3.61477   3.37343   -1.000
 5912.00    3.58384   3.36357   -1.000
 5913.00    3.51107   3.31704   -1.000
 5914.00    3.44851   3.24617   -1.000
 5915.00    3.43524   3.19754   -1.000
 5916.00    3.45663   3.20635   -1.000
 5917.00    3.51929   3.24204   -1.000
 5918.00    3.57366   3.29750   -1.000
 5919.00    3.60014   3.34057   -1.000
 5920.00    3.58990   3.36298   -1.000
 5921.00    3.57793   3.36128   -1.000
 5922.00    3.58887   3.34446   -1.000
 5923.00    3.60230   3.33361   -1.000
 5924.00    3.62693   3.34883   -1.000
 5925.00    3.65557   3.38072   -1.000
 5926.00    3.66625   3.40499   -1.000
 5927.00    3.64044   3.40843   -1.000
 5928.00    3.59848   3.37235   -1.000
 5929.00    3.57173   3.32665   -1.000
 5930.00    3.57976   3.29708   -1.000
 5931.00    3.59298   3.32221   -1.000
 5932.00    3.63651   3.37059   -1.000
 5933.00    3.64146   3.37956   -1.000
 5934.00    3.60605   3.35250   -1.000
 5935.00    3.60416   3.32310   -1.000
 5936.00    3.62986   3.34662   -1.000
 5937.00    3.65100   3.40056   -1.000
 5938.00    3.64980   3.42689   -1.000
 5939.00    3.64200   3.42902   -1.000
 5940.00    3.60963   3.40157   -1.000
 5941.00    3.57736   3.35584   -1.000
 5942.00    3.57763   3.32013   -1.000
 5943.00    3.60749   3.33406   -1.000
 5944.00    3.65974   3.37999   -1.000
 5945.00    3.69266   3.42290   -1.000
 5946.00    3.69224   3.44090   -1.000
 5947.00    3.67104   3.41970   -1.000
 5948.00    3.61592   3.37294   -1.000
 5949.00    3.58539   3.33388   -1.000
 5950.00    3.61921   3.34942   -1.000
 5951.00    3.64409   3.36901   -1.000
 5952.00    3.59964   3.36162   -1.000
 5953.00    3.57566   3.34272   -1.000
 5954.00    3.58390   3.34376   -1.000
 5955.00    3.60475   3.36610   -1.000
 5956.00    3.59963   3.36113   -1.000
 5957.00    3.57640   3.32825   -1.000
 5958.00    3.60264   3.32451   -1.000
 5959.00    3.66484   3.36460   -1.000
 5960.00    3.71165   3.41964   -1.000
 5961.00    3.73459   3.46887   -1.000
 5962.00    3.73066   3.48869   -1.000
 5963.00    3.69444   3.48542   -1.000
 5964.00    3.66858   3.46403   -1.000
 5965.00    3.65258   3.43523   -1.000
 5966.00    3.65668   3.41446   -1.000
 5967.00    3.69506   3.43242   -1.000
 5968.00    3.73660   3.46738   -1.000
 5969.00    3.77963   3.49237   -1.000
 5970.00    3.79201   3.51005   -1.000
 5971.00    3.77972   3.52565   -1.000
 5972.00    3.76519   3.52938   -1.000
 5973.00    3.74545   3.51987   -1.000
 5974.00    3.71337   3.49488   -1.000
 5975.00    3.66879   3.44863   -1.000
 5976.00    3.63946   3.38829   -1.000
 5977.00    3.62110   3.35475   -1.000
 5978.00    3.61982   3.35012   -1.000
 5979.00    3.64809   3.38386   -1.000
 5980.00    3.69115   3.43121   -1.000
 5981.00    3.70463   3.46541   -1.000
 5982.00    3.67373   3.44366   -1.000
 5983.00    3.60009   3.37555   -1.000
 5984.00    3.56086   3.30925   -1.000
 5985.00    3.59061   3.29525   -1.000
 5986.00    3.63210   3.35340   -1.000
 5987.00    3.67454   3.40852   -1.000
 5988.00    3.69383   3.44060   -1.000
 5989.00    3.73334   3.46405   -1.000
 5990.00    3.73077   3.47477   -1.000
 5991.00    3.71266   3.47083   -1.000
 5992.00    3.73009   3.47746   -1.000
 5993.00    3.74644   3.51670   -1.000
 5994.00    3.77823   3.55906   -1.000
 5995.00    3.77378   3.56612   -1.000
 5996.00    3.73481   3.51874   -1.000
 5997.00    3.69523   3.45855   -1.000
 5998.00    3.66599   3.41904   -1.000
 5999.00    3.66978   3.42795   -1.000
 6000.00    3.67612   3.45660   -1.000
 6001.00    3.66960   3.47074   -1.000
 6002.00    3.65865   3.46312   -1.000
 6003.00    3.64575   3.44005   -1.000
 6004.00    3.63869   3.44659   -1.000
 6005.00    3.62220   3.46657   -1.000
 6006.00    3.59078   3.43745   -1.000
 6007.00    3.54491   3.37374   -1.000
 6008.00    3.55209   3.32652   -1.000
 6009.00    3.62408   3.35468   -1.000
 6010.00    3.69363   3.44571   -1.000
 6011.00    3.71439   3.48686   -1.000
 6012.00    3.67381   3.46323   -1.000
 6013.00    3.65042   3.41552   -1.000
 6014.00    3.64563   3.39744   -1.000
 6015.00    3.66652   3.41940   -1.000
 6016.00    3.67380   3.42337   -1.000
 6017.00    3.65389   3.40713   -1.000
 6018.00    3.65125   3.41347   -1.000
 6019.00    3.64992   3.41334   -1.000
 6020.00    3.64881   3.38430   -1.000
 6021.00    3.63598   3.37594   -1.000
 6022.00    3.65867   3.39333   -1.000
 6023.00    3.69870   3.42231   -1.000
 6024.00    3.70669   3.45440   -1.000
 6025.00    3.72871   3.48712   -1.000
 6026.00    3.75684   3.51655   -1.000
 6027.00    3.78925   3.53719   -1.000
 6028.00    3.81208   3.56238   -1.000
 6029.00    3.82595   3.59381   -1.000
 6030.00    3.82911   3.60691   -1.000
 6031.00    3.82660   3.60946   -1.000
 6032.00    3.83754   3.61880   -1.000
 6033.00    3.85383   3.63631   -1.000
 6034.00    3.86002   3.67018   -1.000
 6035.00    3.85792   3.69996   -1.000
 6036.00    3.85898   3.69931   -1.000
 6037.00    3.86382   3.68147   -1.000
 6038.00    3.85207   3.65379   -1.000
 6039.00    3.82958   3.62917   -1.000
 6040.00    3.81583   3.60995   -1.000
 6041.00    3.79165   3.60818   -1.000
 6042.00    3.81333   3.61883   -1.000
 6043.00    3.84956   3.63856   -1.000
 6044.00    3.86703   3.67489   -1.000
 6045.00    3.90346   3.69419   -1.000
 6046.00    3.92448   3.70700   -1.000
 6047.00    3.91143   3.71149   -1.000
 6048.00    3.91184   3.71275   -1.000
 6049.00    3.92259   3.71095   -1.000
 6050.00    3.92953   3.71336   -1.000
 6051.00    3.91300   3.71382   -1.000
 6052.00    3.88970   3.69282   -1.000
 6053.00    3.86760   3.65445   -1.000
 6054.00    3.85102   3.61928   -1.000
 6055.00    3.81222   3.58938   -1.000
 6056.00    3.78711   3.56218   -1.000
 6057.00    3.81766   3.56440   -1.000
 6058.00    3.75882   3.59119   -1.000
 6059.00    3.60333   3.62736   17.408
 6060.00    3.86573   3.65471   -1.000
 6061.00    3.74798   3.65275   -1.000
 6062.00    2.60311   3.62342   -1.000
 6063.00    1.95763   3.56642   -1.000
 6064.00    3.28016   3.50887   -1.000
 6065.00    3.75710   3.47479   -1.000
 6066.00    3.87735   3.50814   -1.000
 6067.00    3.53422   3.59379   16.203
 6068.00    1.42058   3.68104   -1.000
 6069.00    3.00934   3.72224   -1.000
 6070.00    3.95733   3.73804   -1.000
 6071.00    3.98331   3.75127   -1.000
 6072.00    3.99202   3.76060   -1.000
 6073.00    3.98342   3.75646   -1.000
 6074.00    3.95976   3.74934   -1.000
 6075.00    3.94848   3.73650   -1.000
 6076.00    3.91595   3.70557   -1.000
 6077.00    3.87435   3.66192   -1.000
 6078.00    3.81727   3.61122   -1.000
 6079.00    3.79317   3.58343   -1.000
 6080.00    3.81045   3.57343   -1.000
 6081.00    3.77815   3.55821   -1.000
 6082.00    3.75768   3.53673   -1.000
 6083.00    3.79005   3.54045   -1.000
 6084.00    3.80802   3.55897   -1.000
 6085.00    3.80518   3.57189   -1.000
 6086.00    3.81033   3.59088   -1.000
 6087.00    3.81791   3.61151   -1.000
 6088.00    3.82522   3.61684   -1.000
 6089.00    3.80727   3.59489   -1.000
 6090.00    3.77930   3.54990   -1.000
 6091.00    3.74199   3.52552   -1.000
 6092.00    3.73442   3.53317   -1.000
 6093.00    3.77907   3.56453   -1.000
 6094.00    3.84510   3.60838   -1.000
 6095.00    3.88896   3.64642   -1.000
 6096.00    3.87103   3.65986   -1.000
 6097.00    3.85974   3.65552   -1.000
 6098.00    3.85784   3.66918   -1.000
 6099.00    3.86700   3.68976   -1.000
 6100.00    3.85081   3.66040   -1.000
 6101.00    3.75848   3.56882   -1.000
 6102.00    3.64666   3.42683   -1.000
 6103.00    3.62067   3.37210   -1.000
 6104.00    3.68199   3.43471   -1.000
 6105.00    3.76829   3.54379   -1.000
 6106.00    3.81458   3.61523   -1.000
 6107.00    3.84044   3.63632   -1.000
 6108.00    3.82938   3.65177   -1.000
 6109.00    3.82201   3.67791   16.986
 6110.00    3.82229   3.68394   16.941
 6111.00    3.83126   3.66871   -1.000
 6112.00    3.86834   3.67267   -1.000
 6113.00    3.88420   3.70133   -1.000
 6114.00    3.87616   3.73293   17.219
 6115.00    3.84900   3.72910   17.460
 6116.00    3.83786   3.69836   17.690
 6117.00    3.83021   3.68324   -1.000
 6118.00    3.81504   3.67276   -1.000
 6119.00    3.77769   3.62802   -1.000
 6120.00    3.70643   3.54167   -1.000
 6121.00    3.62400   3.43526   -1.000
 6122.00    3.60805   3.38067   -1.000
 6123.00    3.68660   3.42510   -1.000
 6124.00    3.77579   3.53712   -1.000
 6125.00    3.82235   3.60761   -1.000
 6126.00    3.81779   3.61747   -1.000
 6127.00    3.78434   3.59994   -1.000
 6128.00    3.76894   3.58331   -1.000
 6129.00    3.78477   3.60844   -1.000
 6130.00    3.81069   3.66828   -1.000
 6131.00    3.87042   3.72819   -1.000
 6132.00    3.88152   3.75530   18.612
 6133.00    3.84844   3.73250   18.689
 6134.00    3.74047   3.63703   18.244
 6135.00    3.58271   3.47700   17.726
 6136.00    3.45395   3.29705   -1.000
 6137.00    3.43855   3.23470   -1.000
 6138.00    3.54243   3.32342   -1.000
 6139.00    3.69471   3.48561   -1.000
 6140.00    3.78132   3.59571   -1.000
 6141.00    3.80035   3.60145   -1.000
 6142.00    3.77416   3.60298   -1.000
 6143.00    3.81335   3.65222   -1.000
 6144.00    3.86603   3.71170   -1.000
 6145.00    3.87172   3.74184   17.567
 6146.00    3.84532   3.73325   17.573
 6147.00    3.78748   3.69984   17.510
 6148.00    3.75641   3.64695   17.390
 6149.00    3.70001   3.60225   17.364
 6150.00    3.69491   3.57856   17.506
 6151.00    3.69886   3.59458   17.599
 6152.00    3.70851   3.62901   17.614
 6153.00    3.70798   3.64238   17.685
 6154.00    3.66334   3.61656   17.870
 6155.00    3.62089   3.57700   18.207
 6156.00    3.62095   3.56383   18.756
 6157.00    3.59531   3.55905   19.303
 6158.00    3.54960   3.53824   19.502
 6159.00    3.47491   3.46762   19.226
 6160.00    3.32680   3.32344   18.698
 6161.00    3.16568   3.14550   18.404
 6162.00    3.11312   3.01663   18.320
 6163.00    3.15461   3.03288   18.365
 6164.00    3.26229   3.13783   18.602
 6165.00    3.34974   3.27288   18.792
 6166.00    3.38863   3.36035   18.662
 6167.00    3.40317   3.39129   18.302
 6168.00    3.37587   3.34312   18.044
 6169.00    3.33090   3.26797   18.056
 6170.00    3.30436   3.24411   18.071
 6171.00    3.37349   3.31034   18.027
 6172.00    3.47102   3.41201   17.993
 6173.00    3.48872   3.46249   17.944
 6174.00    3.46436   3.47719   17.856
 6175.00    3.47030   3.48171   17.790
 6176.00    3.48309   3.47966   17.734
 6177.00    3.52026   3.48627   17.651
 6178.00    3.55744   3.51247   17.606
 6179.00    3.54755   3.54057   17.641
 6180.00    3.53575   3.55401   17.703
 6181.00    3.55367   3.57487   17.844
 6182.00    3.55063   3.60133   18.040
 6183.00    3.57082   3.60368   18.227
 6184.00    3.57778   3.58228   18.400
 6185.00    3.52698   3.54166   18.533
 6186.00    3.47393   3.49002   18.778
 6187.00    3.44863   3.44088   18.898
 6188.00    3.39963   3.40953   18.687
 6189.00    3.35635   3.37667   18.221
 6190.00    3.29661   3.31465   17.924
 6191.00    3.24617   3.25764   17.814
 6192.00    3.29480   3.27791   17.787
 6193.00    3.39866   3.36339   17.904
 6194.00    3.47250   3.46477   18.114
 6195.00    3.50882   3.52607   18.261
 6196.00    3.48985   3.55915   18.243
 6197.00    3.45767   3.55737   18.056
 6198.00    3.41177   3.51839   17.829
 6199.00    3.36329   3.45651   17.781
 6200.00    3.38704   3.44608   17.783
 6201.00    3.43299   3.49350   17.752
 6202.00    3.52268   3.55128   17.752
 6203.00    3.58776   3.59563   17.822
 6204.00    3.58777   3.61195   17.819
 6205.00    3.59219   3.61943   17.899
 6206.00    3.59641   3.62702   18.066
 6207.00    3.60398   3.63506   18.206
 6208.00    3.58014   3.63832   18.386
 6209.00    3.54716   3.62318   18.669
 6210.00    3.52686   3.59313   18.855
 6211.00    3.49120   3.54902   18.902
 6212.00    3.42812   3.48027   18.648
 6213.00    3.34876   3.38874   18.563
 6214.00    3.30239   3.30976   18.709
 6215.00    3.27525   3.28005   18.634
 6216.00    3.29257   3.30337   18.495
 6217.00    3.35856   3.34561   18.617
 6218.00    3.37848   3.36915   20.043
 6219.00    3.37092   3.34806   19.331
 6220.00    3.37229   3.33012   18.431
 6221.00    3.38201   3.34644   18.404
 6222.00    3.40136   3.37866   18.413
 6223.00    3.41162   3.39897   18.520
 6224.00    3.41549   3.40759   18.777
 6225.00    3.39356   3.41884   19.091
 6226.00    3.41212   3.43430   19.333
 6227.00    3.41240   3.43530   19.242
 6228.00    3.37579   3.39976   18.961
 6229.00    3.31737   3.31780   18.600
 6230.00    3.23169   3.22011   18.299
 6231.00    3.21479   3.17870   18.220
 6232.00    3.27389   3.21681   18.348
 6233.00    3.34868   3.31425   18.535
 6234.00    3.45128   3.42438   18.723
 6235.00    3.51605   3.50841   18.924
 6236.00    3.48799   3.52279   18.998
 6237.00    3.44353   3.48693   18.989
 6238.00    3.41965   3.42481   19.134
 6239.00    3.34374   3.36836   19.259
 6240.00    3.32056   3.33241   19.242
 6241.00    3.30018   3.31844   19.117
 6242.00    3.27879   3.30344   18.925
 6243.00    3.29165   3.27562   18.682
 6244.00    3.29570   3.26217   18.489
 6245.00    3.30420   3.27602   18.475
 6246.00    3.33802   3.31469   18.653
 6247.00    3.39791   3.38323   19.005
 6248.00    3.45655   3.45643   19.234
 6249.00    3.46106   3.49337   19.363
 6250.00    3.42511   3.48263   19.415
 6251.00    3.35890   3.42392   19.405
 6252.00    3.28921   3.34165   19.589
 6253.00    3.25231   3.29013   19.762
 6254.00    3.24782   3.28015   19.669
 6255.00    3.25460   3.28083   19.366
 6256.00    3.24990   3.25634   19.076
 6257.00    3.21768   3.20847   18.818
 6258.00    3.19398   3.19576   18.524
 6259.00    3.24346   3.23502   18.439
 6260.00    3.31907   3.31771   18.594
 6261.00    3.41957   3.40906   18.716
 6262.00    3.45206   3.49041   18.624
 6263.00    3.45077   3.53173   18.487
 6264.00    3.41854   3.52697   18.561
 6265.00    3.37987   3.49920   18.655
 6266.00    3.35844   3.48876   18.626
 6267.00    3.41331   3.50772   18.561
 6268.00    3.43800   3.51443   18.518
 6269.00    3.39585   3.50396   18.570
 6270.00    3.38498   3.50291   18.709
 6271.00    3.38359   3.52352   18.860
 6272.00    3.33329   3.55110   -1.000
 6273.00    3.27127   3.56435   -1.000
 6274.00    3.18161   3.55036   -1.000
 6275.00    3.15577   3.51582   -1.000
 6276.00    3.13631   3.47905   -1.000
 6277.00    3.09914   3.43981   -1.000
 6278.00    3.05571   3.40550   -1.000
 6279.00    2.99442   3.37235   -1.000
 6280.00    2.97717   3.35279   -1.000
 6281.00    3.06404   3.36370   -1.000
 6282.00    3.21106   3.41544   -1.000
 6283.00    3.31431   3.48181   18.402
 6284.00    3.39954   3.53828   18.370
 6285.00    3.46026   3.57279   18.474
 6286.00    3.49552   3.60334   18.634
 6287.00    3.53200   3.63880   18.771
 6288.00    3.56958   3.66914   18.803
 6289.00    3.57782   3.66606   18.823
 6290.00    3.54192   3.62975   18.858
 6291.00    3.53943   3.57842   19.010
 6292.00    3.50586   3.54758   19.134
 6293.00    3.55023   3.53811   19.158
 6294.00    3.56730   3.54227   19.127
 6295.00    3.58337   3.52665   19.044
 6296.00    3.58977   3.47566   18.959
 6297.00    3.56251   3.43517   19.134
 6298.00    3.52017   3.44213   19.354
 6299.00    3.48444   3.46695   19.172
 6300.00    3.44926   3.47083   18.862
 6301.00    3.41584   3.44233   18.635
 6302.00    3.37867   3.43103   18.479
 6303.00    3.41368   3.45466   18.309
 6304.00    3.44521   3.49855   18.288
 6305.00    3.48211   3.53916   18.374
 6306.00    3.51127   3.58377   18.501
 6307.00    3.57425   3.63557   18.569
 6308.00    3.62796   3.68058   18.646
 6309.00    3.62457   3.68323   18.660
 6310.00    3.58001   3.65054   18.843
 6311.00    3.52387   3.61309   18.903
 6312.00    3.48537   3.58901   18.886
 6313.00    3.48637   3.57816   18.868
 6314.00    3.47325   3.55149   18.898
 6315.00    3.42356   3.51495   18.822
 6316.00    3.40549   3.49084   18.585
 6317.00    3.43118   3.46799   18.406
 6318.00    3.44450   3.44518   18.342
 6319.00    3.45106   3.46963   18.280
 6320.00    3.50884   3.53750   18.179
 6321.00    3.57996   3.59070   18.124
 6322.00    3.59371   3.62303   18.117
 6323.00    3.63638   3.65439   18.020
 6324.00    3.66552   3.69048   18.045
 6325.00    3.67430   3.71377   18.057
 6326.00    3.67322   3.71595   18.070
 6327.00    3.68458   3.71666   17.998
 6328.00    3.68576   3.72367   17.972
 6329.00    3.68117   3.72870   18.026
 6330.00    3.68672   3.72346   18.070
 6331.00    3.43663   3.73457   -1.000
 6332.00    3.56385   3.76395   -1.000
 6333.00    3.73157   3.76007   18.368
 6334.00    3.65449   3.70283   18.179
 6335.00    3.56635   3.60881   17.978
 6336.00    3.53488   3.55202   17.898
 6337.00    3.54938   3.56467   17.809
 6338.00    3.60734   3.61183   17.830
 6339.00    3.64380   3.66838   18.002
 6340.00    3.68166   3.72102   18.017
 6341.00    3.67158   3.73856   17.963
 6342.00    3.65372   3.70847   17.863
 6343.00    3.62221   3.65534   17.735
 6344.00    3.59381   3.61437   17.672
 6345.00    3.63219   3.63460   17.681
 6346.00    3.68582   3.68835   17.638
 6347.00    3.70191   3.74366   17.659
 6348.00    3.73945   3.78662   17.740
 6349.00    3.76189   3.81420   17.821
 6350.00    3.72352   3.82771   18.037
 6351.00    3.72322   3.82826   18.188
 6352.00    3.72721   3.81142   18.185
 6353.00    3.69403   3.76977   18.243
 6354.00    3.62723   3.71204   18.464
 6355.00    3.59415   3.67793   18.531
 6356.00    3.58112   3.66730   18.446
 6357.00    3.56438   3.64036   18.389
 6358.00    3.52959   3.58754   18.375
 6359.00    3.51163   3.53346   18.307
 6360.00    3.53702   3.49927   18.182
 6361.00    3.51774   3.47677   18.066
 6362.00    3.46845   3.46950   17.971
 6363.00    3.48540   3.49131   17.855
 6364.00    3.53853   3.54435   17.735
 6365.00    3.60638   3.60689   17.695
 6366.00    3.65724   3.66959   17.712
 6367.00    3.70911   3.72901   17.646
 6368.00    3.74102   3.77933   17.576
 6369.00    3.74748   3.79857   17.632
 6370.00    3.76832   3.80374   17.642
 6371.00    3.75368   3.81660   17.683
 6372.00    3.74382   3.84622   17.751
 6373.00    3.75459   3.87286   17.843
 6374.00    3.74954   3.87683   17.968
 6375.00    3.73626   3.87311   18.031
 6376.00    3.74875   3.86965   18.039
 6377.00    3.72525   3.84936   18.076
 6378.00    3.65989   3.80847   18.068
 6379.00    3.64505   3.77816   18.016
 6380.00    3.64625   3.76610   18.112
 6381.00    3.68309   3.77513   18.149
 6382.00    3.69732   3.79358   18.129
 6383.00    3.69202   3.80837   18.191
 6384.00    3.67677   3.81083   18.249
 6385.00    3.66806   3.81693   18.409
 6386.00    3.67188   3.83772   18.552
 6387.00    3.66238   3.85497   -1.000
 6388.00    3.65680   3.86129   -1.000
 6389.00    3.64855   3.86431   -1.000
 6390.00    3.63719   3.85728   -1.000
 6391.00    3.55931   3.81124   -1.000
 6392.00    3.47128   3.73168   -1.000
 6393.00    3.41428   3.65665   -1.000
 6394.00    3.41463   3.65999   -1.000
 6395.00    3.48860   3.74079   -1.000
 6396.00    3.53844   3.82651   -1.000
 6397.00    3.52728   3.85954   -1.000
 6398.00    3.46483   3.80782   -1.000
 6399.00    3.37051   3.70759   -1.000
 6400.00    3.31295   3.63911   -1.000
 6401.00    3.35283   3.68621   -1.000
 6402.00    3.41630   3.79957   -1.000
 6403.00    3.44333   3.89065   -1.000
 6404.00    3.46227   3.93061   -1.000
 6405.00    3.41479   3.91598   -1.000
 6406.00    3.35158   3.86235   -1.000
 6407.00    3.27976   3.80293   -1.000
 6408.00    3.23412   3.78370   -1.000
 6409.00    3.26639   3.79988   -1.000
 6410.00    3.25338   3.81009   -1.000
 6411.00    3.19040   3.78927   -1.000
 6412.00    3.15247   3.76570   -1.000
 6413.00    3.14806   3.77560   -1.000
 6414.00    3.13521   3.80143   -1.000
 6415.00    3.13305   3.83320   -1.000
 6416.00    3.12027   3.86141   -1.000
 6417.00    3.09739   3.86399   -1.000
 6418.00    3.07856   3.82848   -1.000
 6419.00    3.00165   3.76266   -1.000
 6420.00    2.92265   3.70273   -1.000
 6421.00    2.89294   3.69836   -1.000
 6422.00    2.91199   3.76869   -1.000
 6423.00    2.94296   3.84844   -1.000
 6424.00    2.94341   3.90137   -1.000
 6425.00    2.90293   3.92758   -1.000
 6426.00    2.87652   3.94814   -1.000
 6427.00    0.00000   3.96286   -2.000
 6428.00    0.00000   3.93634   -2.000
