###################################################################
## OUTPUT of StarlightChains_v04.for    [Cid@UFSC - 01/Apr/2007] ##
###################################################################

## Some input info
NGC6342_a_2.cxt                          [arq_obs]
Base.BC03.S                              [arq_base]
NGC6342_a_2.msk                          [arq_masks]
StCv04.C99.config                        [arq_config]
  150                                    [N_base]
    0                                    [N_YAV_components = # of components with extra extinction!]
    0                                    [i_FitPowerLaw (1/0 = Yes/No)]
-9.99                                    [alpha_PowerLaw]
CCM                                      [red_law_option]
 1.458241                                [q_norm = A(l_norm)/A(V)]

## (Re)Sampling Parameters
 3359.00                                 [l_ini (A)]
 6428.00                                 [l_fin (A)]
    1.00                                 [dl    (A)]     (OBS: dl_cushion =    50.00 A)

## Normalization info
 4020.00                                 [l_norm (A) - for base]
 4010.00                                 [llow_norm (A) - window for f_obs]
 4060.00                                 [lupp_norm (A) - window for f_obs]
3.704827E-15                             [fobs_norm (in input units)]

## S/N
 4730.00                                 [llow_SN (A) - window for S/N]
 4780.00                                 [lupp_SN (A) - window for S/N]
  43.866                                 [S/N in S/N window]
  28.421                                 [S/N in norm. window]
 215.944                                 [S/N_err in S/N window]
 139.911                                 [S/N_err in norm. window]
  1.0000                                 [fscale_chi2]

## etc...
  2147483614                             [idum_orig]
  3064                                   [NOl_eff]
   735                                   [Nl_eff]
  2329    NSIGMA                         [Ntot_cliped & clip_method]
  3283700                                [Nglobal_steps]
   7                                     [N_chains]
  16                                     [NEX0s_base = N_base in EX0s-fits]
 0   0   1      176   2.0   3.169E+02    [Clip-Bug, RC-Crash & Burn-In warning-flags, n_censored_weights, wei_nsig_threshold & wei_limit]
   148    148.098    148.094      0.004  [idt_all, wdt_TotTime, wdt_UsrTime & wdt_SysTime (sec)]

## Synthesis Results - Best model ##

 2.75306E+00                             [chi2/Nl_eff]
     1.45406                             [adev (%)]

    97.05508                             [sum-of-x (%)]
 1.75427E-14                             [Flux_tot (units of input spectrum!)]
 8.35528E-10                             [Mini_tot (???)]
 4.16868E-10                             [Mcor_tot (???)]

 -19.85                                  [v0_min  (km/s)]
  41.54                                  [vd_min  (km/s)]
 1.1800                                  [AV_min  (mag)]
 0.0000                                  [YAV_min (mag)]

# j     x_j(%)      Mini_j(%)     Mcor_j(%)     age_j(yr)     Z_j      (L/M)_j    YAV?  Mstars   component_j        a/Fe...       SSP_chi2r SSP_adev(%)   SSP_AV   SSP_x(%)
  1      0.0000     0.0000E+00    0.0000E+00    1.000000E+06  0.00010  8.160E-03    0   1.0000   age020_m22            0.0000     3.3634E+03    39.0192   4.0000    99.8965
  2      0.0000     0.0000E+00    0.0000E+00    3.160000E+06  0.00010  4.759E-02    0   1.0000   age045_m22            0.0000     1.5850E+02     8.5383   3.1072    96.1199
  3      1.8780     2.1028E-03    4.0386E-03    5.010000E+06  0.00010  1.932E-02    0   0.9582   age055_m22            0.0000     5.3414E+02    16.6742   3.3422    83.8005
  4      0.0000     0.0000E+00    0.0000E+00    6.610000E+06  0.00010  9.973E-03    0   0.9297   age061_m22            0.0000     3.1732E+03    38.0278   4.0000   102.7706
  5      0.0000     0.0000E+00    0.0000E+00    8.710000E+06  0.00010  7.690E-03    0   0.9030   age067_m22            0.0000     3.1018E+03    37.6056   4.0000   103.2297
  6      0.0000     0.0000E+00    0.0000E+00    1.000000E+07  0.00010  6.375E-03    0   0.8902   age070_m22            0.0000     3.1460E+03    37.6674   4.0000   103.7002
  7      0.0000     0.0000E+00    0.0000E+00    1.445000E+07  0.00010  4.874E-03    0   0.8589   age078_m22            0.0000     2.1757E+03    32.2550   4.0000   104.2027
  8      0.0000     0.0000E+00    0.0000E+00    2.512000E+07  0.00010  4.103E-03    0   0.8174   age090_m22            0.0000     7.5000E+02    20.4923   4.0000   102.7770
  9      0.0000     0.0000E+00    0.0000E+00    4.000000E+07  0.00010  3.654E-03    0   0.7830   age104_m22            0.0000     3.2281E+02    12.6848   4.0000   100.1124
 10      0.0000     0.0000E+00    0.0000E+00    5.500000E+07  0.00010  3.093E-03    0   0.7597   age110_m22            0.0000     2.7549E+02    10.8485   4.0000    98.8137
 11      0.0000     0.0000E+00    0.0000E+00    1.015200E+08  0.00010  2.431E-03    0   0.7138   age116_m22            0.0000     2.9850E+02    10.1886   3.7538    98.7656
 12      0.0000     0.0000E+00    0.0000E+00    1.609000E+08  0.00010  1.319E-03    0   0.6775   age120_m22            0.0000     2.8396E+02     9.5795   3.2801   100.7886
 13      0.0000     0.0000E+00    0.0000E+00    2.861200E+08  0.00010  1.075E-03    0   0.6412   age125_m22            0.0000     5.5122E+02    13.1759   3.3984   103.0962
 14      0.0000     0.0000E+00    0.0000E+00    5.088000E+08  0.00010  7.183E-04    0   0.6083   age130_m22            0.0000     6.5185E+02    14.2667   3.1888   104.2047
 15      0.0000     0.0000E+00    0.0000E+00    9.047900E+08  0.00010  4.524E-04    0   0.5785   age135_m22            0.0000     6.5990E+02    14.3462   2.9905   105.3122
 16      0.0000     0.0000E+00    0.0000E+00    1.278050E+09  0.00010  3.018E-04    0   0.5588   age138_m22            0.0000     3.6417E+02    10.4512   2.4264   104.4372
 17      0.0000     0.0000E+00    0.0000E+00    1.434000E+09  0.00010  2.691E-04    0   0.5532   age139_m22            0.0000     3.1260E+02     9.6802   2.2646   104.0247
 18      0.0000     0.0000E+00    0.0000E+00    2.500000E+09  0.00010  1.582E-04    0   0.5296   age150_m22            0.0000     2.8717E+02     9.3371   2.1354   105.1126
 19      0.0000     0.0000E+00    0.0000E+00    4.250000E+09  0.00010  1.007E-04    0   0.5110   age158_m22            0.0000     1.9586E+02     7.5429   1.9755   103.4644
 20      0.0000     0.0000E+00    0.0000E+00    6.250000E+09  0.00010  6.869E-05    0   0.4985   age166_m22            0.0000     1.3213E+02     6.1156   1.9098   100.7150
 21      0.0000     0.0000E+00    0.0000E+00    7.500000E+09  0.00010  5.873E-05    0   0.4931   age171_m22            0.0000     1.2926E+02     6.0957   1.8906   100.3375
 22      0.0000     0.0000E+00    0.0000E+00    1.000000E+10  0.00010  4.481E-05    0   0.4854   age181_m22            0.0000     1.2517E+02     6.0058   1.8536    99.9490
 23      0.0000     0.0000E+00    0.0000E+00    1.300000E+10  0.00010  3.489E-05    0   0.4791   age193_m22            0.0000     1.1605E+02     5.7821   1.7991    99.3388
 24      0.0000     0.0000E+00    0.0000E+00    1.500000E+10  0.00010  3.035E-05    0   0.4766   age201_m22            0.0000     1.1082E+02     5.6640   1.7599    99.1556
 25      0.0000     0.0000E+00    0.0000E+00    1.800000E+10  0.00010  2.510E-05    0   0.4735   age213_m22            0.0000     9.9941E+01     5.4183   1.6910    98.5432
 26      0.0000     0.0000E+00    0.0000E+00    1.000000E+06  0.00040  8.458E-03    0   1.0000   age020_m32            0.0000     3.4373E+03    39.2348   4.0000   100.9433
 27      0.0000     0.0000E+00    0.0000E+00    3.160000E+06  0.00040  3.973E-02    0   1.0000   age045_m32            0.0000     5.6188E+02    18.2051   4.0000    99.9266
 28      0.0000     0.0000E+00    0.0000E+00    5.010000E+06  0.00040  1.935E-02    0   0.9532   age055_m32            0.0000     1.2320E+03    26.0361   4.0000    98.5205
 29      0.0000     0.0000E+00    0.0000E+00    6.610000E+06  0.00040  1.204E-02    0   0.9243   age061_m32            0.0000     2.4043E+03    33.9633   4.0000   102.9033
 30      0.0000     0.0000E+00    0.0000E+00    8.710000E+06  0.00040  9.433E-03    0   0.9001   age067_m32            0.0000     2.2347E+03    32.8612   4.0000   103.5510
 31      0.0000     0.0000E+00    0.0000E+00    1.000000E+07  0.00040  8.053E-03    0   0.8877   age070_m32            0.0000     2.0697E+03    31.8381   4.0000   103.4209
 32      0.0000     0.0000E+00    0.0000E+00    1.445000E+07  0.00040  7.027E-03    0   0.8578   age078_m32            0.0000     5.3662E+02    18.2335   4.0000    97.0953
 33      0.0000     0.0000E+00    0.0000E+00    2.512000E+07  0.00040  4.707E-03    0   0.8166   age090_m32            0.0000     2.6934E+02    12.0929   4.0000    93.0012
 34      0.0000     0.0000E+00    0.0000E+00    4.000000E+07  0.00040  3.714E-03    0   0.7827   age104_m32            0.0000     2.4412E+02    10.4003   3.8278    95.8878
 35      0.0000     0.0000E+00    0.0000E+00    5.500000E+07  0.00040  2.982E-03    0   0.7593   age110_m32            0.0000     2.5081E+02    10.0446   3.7753    96.9523
 36      0.0000     0.0000E+00    0.0000E+00    1.015200E+08  0.00040  2.188E-03    0   0.7143   age116_m32            0.0000     3.6005E+02    10.7959   3.5469   100.6186
 37      0.0000     0.0000E+00    0.0000E+00    1.609000E+08  0.00040  1.690E-03    0   0.6856   age120_m32            0.0000     4.6607E+02    12.2287   3.3518   103.0869
 38      0.0000     0.0000E+00    0.0000E+00    2.861200E+08  0.00040  1.152E-03    0   0.6509   age125_m32            0.0000     5.7446E+02    13.3985   3.1610   103.9190
 39      0.0000     0.0000E+00    0.0000E+00    5.088000E+08  0.00040  7.331E-04    0   0.6182   age130_m32            0.0000     6.1654E+02    13.8154   3.0108   104.2776
 40      0.0000     0.0000E+00    0.0000E+00    9.047900E+08  0.00040  3.960E-04    0   0.5890   age135_m32            0.0000     3.7864E+02    10.7203   2.5351   103.2666
 41      0.0000     0.0000E+00    0.0000E+00    1.278050E+09  0.00040  2.854E-04    0   0.5687   age138_m32            0.0000     3.2023E+02     9.8584   2.2144   105.7355
 42      0.0000     0.0000E+00    0.0000E+00    1.434000E+09  0.00040  2.531E-04    0   0.5632   age139_m32            0.0000     3.1175E+02     9.7488   2.1500   105.8012
 43      0.0000     0.0000E+00    0.0000E+00    2.500000E+09  0.00040  1.488E-04    0   0.5386   age150_m32            0.0000     2.3677E+02     8.4782   1.8942   103.9417
 44      0.0000     0.0000E+00    0.0000E+00    4.250000E+09  0.00040  9.082E-05    0   0.5199   age158_m32            0.0000     1.1858E+02     5.7154   1.7813   100.7869
 45     13.3820     4.5504E+00    4.6295E+00    6.250000E+09  0.00040  6.362E-05    0   0.5076   age166_m32            0.0000     7.9224E+01     4.8286   1.7220    97.6402
 46     21.7111     8.8803E+00    8.9474E+00    7.500000E+09  0.00040  5.289E-05    0   0.5027   age171_m32            0.0000     7.1460E+01     4.6673   1.6873    96.3228
 47     16.1813     8.8130E+00    8.7400E+00    1.000000E+10  0.00040  3.972E-05    0   0.4948   age181_m32            0.0000     6.3132E+01     4.4762   1.6297    94.8729
 48      0.0000     0.0000E+00    0.0000E+00    1.300000E+10  0.00040  3.283E-05    0   0.4870   age193_m32            0.0000     6.9180E+01     4.5078   1.5913    97.5962
 49      0.0000     0.0000E+00    0.0000E+00    1.500000E+10  0.00040  2.925E-05    0   0.4854   age201_m32            0.0000     8.0644E+01     4.7844   1.5763    99.1763
 50      0.0000     0.0000E+00    0.0000E+00    1.800000E+10  0.00040  2.469E-05    0   0.4819   age213_m32            0.0000     8.4253E+01     4.8807   1.5380    99.6985
 51      0.0000     0.0000E+00    0.0000E+00    1.000000E+06  0.00400  1.114E-02    0   1.0000   age020_m42            0.0000     3.0511E+03    37.3351   4.0000   100.4086
 52      0.0000     0.0000E+00    0.0000E+00    3.160000E+06  0.00400  4.073E-02    0   0.9999   age045_m42            0.0000     2.1711E+02    11.2949   4.0000    94.4983
 53      0.0000     0.0000E+00    0.0000E+00    5.010000E+06  0.00400  2.534E-02    0   0.9488   age055_m42            0.0000     8.1610E+02    21.6665   4.0000    98.4298
 54      0.0000     0.0000E+00    0.0000E+00    6.610000E+06  0.00400  2.583E-02    0   0.9220   age061_m42            0.0000     2.0300E+02    10.1591   3.8958    93.1347
 55      0.0000     0.0000E+00    0.0000E+00    8.710000E+06  0.00400  1.706E-02    0   0.8983   age067_m42            0.0000     2.5740E+02    12.2994   3.6843    91.9600
 56      0.0000     0.0000E+00    0.0000E+00    1.000000E+07  0.00400  1.271E-02    0   0.8862   age070_m42            0.0000     3.4430E+02    14.3738   3.6499    90.8222
 57      0.0000     0.0000E+00    0.0000E+00    1.445000E+07  0.00400  7.666E-03    0   0.8571   age078_m42            0.0000     4.0817E+02    15.9863   4.0000    88.7350
 58      0.0000     0.0000E+00    0.0000E+00    2.512000E+07  0.00400  5.070E-03    0   0.8174   age090_m42            0.0000     3.0802E+02    13.7299   3.5240    92.4004
 59      0.0000     0.0000E+00    0.0000E+00    4.000000E+07  0.00400  3.505E-03    0   0.7851   age104_m42            0.0000     2.1213E+02    11.5248   3.2262    95.1223
 60      0.0000     0.0000E+00    0.0000E+00    5.500000E+07  0.00400  3.059E-03    0   0.7629   age110_m42            0.0000     1.8481E+02     8.8119   3.3171    99.3733
 61      0.0000     0.0000E+00    0.0000E+00    1.015200E+08  0.00400  2.268E-03    0   0.7207   age116_m42            0.0000     3.9128E+02    11.0540   3.2742   103.6986
 62      0.0000     0.0000E+00    0.0000E+00    1.609000E+08  0.00400  1.720E-03    0   0.6930   age120_m42            0.0000     4.3006E+02    11.5378   3.1533   104.6444
 63      0.0000     0.0000E+00    0.0000E+00    2.861200E+08  0.00400  1.079E-03    0   0.6613   age125_m42            0.0000     4.2416E+02    11.2348   2.7991   104.9943
 64      0.0000     0.0000E+00    0.0000E+00    5.088000E+08  0.00400  6.261E-04    0   0.6313   age130_m42            0.0000     4.8627E+02    12.0976   2.6031   107.9350
 65      0.0000     0.0000E+00    0.0000E+00    9.047900E+08  0.00400  3.535E-04    0   0.6024   age135_m42            0.0000     3.0799E+02     9.4319   2.1952   108.3205
 66      0.0000     0.0000E+00    0.0000E+00    1.278050E+09  0.00400  2.677E-04    0   0.5837   age138_m42            0.0000     1.0132E+02     5.7270   1.5324   105.1613
 67      0.0000     0.0000E+00    0.0000E+00    1.434000E+09  0.00400  1.910E-04    0   0.5716   age139_m42            0.0000     1.4230E+02     6.3396   1.7014   105.9985
 68      0.0000     0.0000E+00    0.0000E+00    2.500000E+09  0.00400  9.818E-05    0   0.5463   age150_m42            0.0000     3.5731E+01     3.3425   1.4411   100.6880
 69      0.0000     0.0000E+00    0.0000E+00    4.250000E+09  0.00400  5.491E-05    0   0.5269   age158_m42            0.0000     1.2782E+01     2.3472   1.3118    97.9861
 70      0.0000     0.0000E+00    0.0000E+00    6.250000E+09  0.00400  3.857E-05    0   0.5151   age166_m42            0.0000     1.4177E+01     2.5724   1.1967    96.3869
 71      0.0067     4.4870E-03    4.5955E-03    7.500000E+09  0.00400  3.243E-05    0   0.5110   age171_m42            0.0000     1.9343E+01     2.9166   1.1258    95.6766
 72      5.2652     4.6989E+00    4.7354E+00    1.000000E+10  0.00400  2.424E-05    0   0.5028   age181_m42            0.0000     2.9049E+01     3.4594   1.0546    94.8675
 73      7.8909     9.0655E+00    8.9524E+00    1.300000E+10  0.00400  1.883E-05    0   0.4927   age193_m42            0.0000     3.9090E+01     3.9764   1.0177    94.4957
 74      1.9675     2.5260E+00    2.4904E+00    1.500000E+10  0.00400  1.685E-05    0   0.4919   age201_m42            0.0000     3.7136E+01     3.8523   1.0194    94.5951
 75      0.0000     0.0000E+00    0.0000E+00    1.800000E+10  0.00400  1.452E-05    0   0.4874   age213_m42            0.0000     3.3853E+01     3.6471   1.0295    94.9978
 76      0.0000     0.0000E+00    0.0000E+00    1.000000E+06  0.00800  1.286E-02    0   1.0000   age020_m52            0.0000     2.8811E+03    36.2929   4.0000   102.3027
 77      0.0000     0.0000E+00    0.0000E+00    3.160000E+06  0.00800  3.147E-02    0   0.9966   age045_m52            0.0000     2.4538E+03    34.1756   4.0000   102.7203
 78      0.0000     0.0000E+00    0.0000E+00    5.010000E+06  0.00800  2.664E-02    0   0.9443   age055_m52            0.0000     1.1562E+03    25.1538   4.0000   100.0573
 79      0.0000     0.0000E+00    0.0000E+00    6.610000E+06  0.00800  2.151E-02    0   0.9177   age061_m52            0.0000     2.6364E+02    12.6605   3.2668    91.8519
 80      0.0000     0.0000E+00    0.0000E+00    8.710000E+06  0.00800  1.628E-02    0   0.8948   age067_m52            0.0000     2.9016E+02    13.2422   3.6316    92.4902
 81      0.0000     0.0000E+00    0.0000E+00    1.000000E+07  0.00800  1.215E-02    0   0.8827   age070_m52            0.0000     3.3742E+02    14.3015   3.9675    90.5785
 82      0.0000     0.0000E+00    0.0000E+00    1.445000E+07  0.00800  8.739E-03    0   0.8552   age078_m52            0.0000     3.0017E+02    13.4667   4.0000    92.3102
 83      0.0000     0.0000E+00    0.0000E+00    2.512000E+07  0.00800  5.676E-03    0   0.8162   age090_m52            0.0000     2.5777E+02    11.4885   3.6186    97.0826
 84      0.0000     0.0000E+00    0.0000E+00    4.000000E+07  0.00800  3.939E-03    0   0.7841   age104_m52            0.0000     2.3534E+02    10.0441   3.4811    99.1631
 85      0.0000     0.0000E+00    0.0000E+00    5.500000E+07  0.00800  3.155E-03    0   0.7627   age110_m52            0.0000     2.5246E+02     9.4829   3.4701   100.5213
 86      0.0000     0.0000E+00    0.0000E+00    1.015200E+08  0.00800  2.206E-03    0   0.7226   age116_m52            0.0000     3.2797E+02     9.9121   3.3171   103.7820
 87      0.0000     0.0000E+00    0.0000E+00    1.609000E+08  0.00800  1.596E-03    0   0.6963   age120_m52            0.0000     3.7155E+02    10.5341   3.1160   105.0982
 88      0.0000     0.0000E+00    0.0000E+00    2.861200E+08  0.00800  1.002E-03    0   0.6665   age125_m52            0.0000     5.0047E+02    12.3939   2.8617   106.8778
 89      0.0000     0.0000E+00    0.0000E+00    5.088000E+08  0.00800  5.759E-04    0   0.6377   age130_m52            0.0000     5.2192E+02    12.6058   2.5419   110.0114
 90      0.0000     0.0000E+00    0.0000E+00    9.047900E+08  0.00800  2.972E-04    0   0.6086   age135_m52            0.0000     3.0282E+02     9.3370   2.0258   107.9759
 91      0.0000     0.0000E+00    0.0000E+00    1.278050E+09  0.00800  2.242E-04    0   0.5907   age138_m52            0.0000     9.6923E+01     5.5882   1.3963   106.9730
 92      0.0000     0.0000E+00    0.0000E+00    1.434000E+09  0.00800  1.645E-04    0   0.5787   age139_m52            0.0000     8.4353E+01     5.1251   1.5360   106.5464
 93      0.0000     0.0000E+00    0.0000E+00    2.500000E+09  0.00800  7.723E-05    0   0.5519   age150_m52            0.0000     3.7780E+01     3.8676   1.2099   102.2923
 94      0.0000     0.0000E+00    0.0000E+00    4.250000E+09  0.00800  4.151E-05    0   0.5320   age158_m52            0.0000     3.0398E+01     3.7212   1.1410    99.6556
 95      0.0000     0.0000E+00    0.0000E+00    6.250000E+09  0.00800  3.010E-05    0   0.5197   age166_m52            0.0000     4.3634E+01     4.4134   0.9637    97.9057
 96      0.0000     0.0000E+00    0.0000E+00    7.500000E+09  0.00800  2.467E-05    0   0.5139   age171_m52            0.0000     4.9128E+01     4.6588   0.9268    97.4248
 97      3.3544     3.8973E+00    3.9478E+00    1.000000E+10  0.00800  1.862E-05    0   0.5054   age181_m52            0.0000     7.2528E+01     5.5628   0.8125    96.7257
 98      2.4484     3.6961E+00    3.6952E+00    1.300000E+10  0.00800  1.433E-05    0   0.4988   age193_m52            0.0000     9.9945E+01     6.5047   0.7298    97.0695
 99      4.6250     8.0428E+00    7.9569E+00    1.500000E+10  0.00800  1.244E-05    0   0.4936   age201_m52            0.0000     1.1124E+02     6.8421   0.7043    97.4508
100      1.4263     2.8836E+00    2.8250E+00    1.800000E+10  0.00800  1.070E-05    0   0.4888   age213_m52            0.0000     1.2078E+02     7.1009   0.6732    97.2502
101      0.0000     0.0000E+00    0.0000E+00    1.000000E+06  0.02000  1.989E-02    0   1.0000   age020_m62            0.0000     2.8638E+03    36.1783   4.0000   100.7225
102      0.0000     0.0000E+00    0.0000E+00    3.160000E+06  0.02000  3.772E-02    0   0.9858   age045_m62            0.0000     2.1862E+03    32.7671   4.0000   101.0485
103      0.0000     0.0000E+00    0.0000E+00    5.010000E+06  0.02000  3.227E-02    0   0.9342   age055_m62            0.0000     5.0230E+02    17.6426   4.0000    98.1943
104      0.0000     0.0000E+00    0.0000E+00    6.610000E+06  0.02000  2.387E-02    0   0.9090   age061_m62            0.0000     4.0076E+02    15.5858   4.0000    90.1083
105      0.0000     0.0000E+00    0.0000E+00    8.710000E+06  0.02000  1.102E-02    0   0.8861   age067_m62            0.0000     1.0478E+03    23.0022   3.5980    85.1772
106      0.0000     0.0000E+00    0.0000E+00    1.000000E+07  0.02000  1.011E-02    0   0.8751   age070_m62            0.0000     7.2202E+02    19.7219   3.6404    87.4703
107      0.0000     0.0000E+00    0.0000E+00    1.445000E+07  0.02000  7.331E-03    0   0.8472   age078_m62            0.0000     5.0348E+02    17.0035   3.6795    88.6350
108      0.0000     0.0000E+00    0.0000E+00    2.512000E+07  0.02000  4.206E-03    0   0.8099   age090_m62            0.0000     5.1908E+02    17.3441   3.5875    88.1136
109      0.0000     0.0000E+00    0.0000E+00    4.000000E+07  0.02000  3.373E-03    0   0.7799   age104_m62            0.0000     2.3083E+02    11.3423   3.4295    96.8692
110      0.0000     0.0000E+00    0.0000E+00    5.500000E+07  0.02000  2.747E-03    0   0.7595   age110_m62            0.0000     2.2515E+02     9.7144   3.3829   100.2780
111      0.0000     0.0000E+00    0.0000E+00    1.015200E+08  0.02000  1.878E-03    0   0.7221   age116_m62            0.0000     3.4636E+02    10.3079   3.2778   104.7389
112      0.0000     0.0000E+00    0.0000E+00    1.609000E+08  0.02000  1.378E-03    0   0.6978   age120_m62            0.0000     4.6094E+02    11.8062   3.1474   106.7961
113      0.0000     0.0000E+00    0.0000E+00    2.861200E+08  0.02000  8.869E-04    0   0.6700   age125_m62            0.0000     6.4820E+02    13.9605   2.8123   110.2837
114      0.0000     0.0000E+00    0.0000E+00    5.088000E+08  0.02000  4.834E-04    0   0.6430   age130_m62            0.0000     5.6587E+02    12.9214   2.4140   111.3782
115      0.0000     0.0000E+00    0.0000E+00    9.047900E+08  0.02000  2.312E-04    0   0.6152   age135_m62            0.0000     2.6136E+02     8.4648   1.8129   110.3776
116      0.0000     0.0000E+00    0.0000E+00    1.278050E+09  0.02000  1.387E-04    0   0.5927   age138_m62            0.0000     9.6273E+01     5.1857   1.4296   105.9126
117      0.0000     0.0000E+00    0.0000E+00    1.434000E+09  0.02000  1.168E-04    0   0.5865   age139_m62            0.0000     7.5451E+01     4.6896   1.4064   104.1733
118      0.0000     0.0000E+00    0.0000E+00    2.500000E+09  0.02000  5.505E-05    0   0.5610   age150_m62            0.0000     5.6053E+01     4.6584   1.0541   100.7262
119      0.0000     0.0000E+00    0.0000E+00    4.250000E+09  0.02000  3.070E-05    0   0.5407   age158_m62            0.0000     1.0482E+02     6.4378   0.7929    99.9100
120      0.0000     0.0000E+00    0.0000E+00    6.250000E+09  0.02000  2.104E-05    0   0.5277   age166_m62            0.0000     1.3798E+02     7.3969   0.6741   100.0474
121      0.0000     0.0000E+00    0.0000E+00    7.500000E+09  0.02000  1.770E-05    0   0.5223   age171_m62            0.0000     1.6212E+02     7.9520   0.5945   100.2381
122      0.1286     2.1454E-01    2.2020E-01    1.000000E+10  0.02000  1.297E-05    0   0.5121   age181_m62            0.0000     2.1598E+02     9.0658   0.4513   100.4132
123      4.4625     9.9615E+00    1.0077E+01    1.300000E+10  0.02000  9.691E-06    0   0.5047   age193_m62            0.0000     2.5537E+02     9.7578   0.3761   100.6189
124     10.7332     2.7774E+01    2.7828E+01    1.500000E+10  0.02000  8.360E-06    0   0.4999   age201_m62            0.0000     2.9266E+02    10.3923   0.3147   100.6635
125      1.5939     4.9893E+00    4.9460E+00    1.800000E+10  0.02000  6.911E-06    0   0.4946   age213_m62            0.0000     3.4194E+02    11.1977   0.2534   100.6541
126      0.0000     0.0000E+00    0.0000E+00    1.000000E+06  0.05000  2.651E-02    0   0.9998   age020_m72            0.0000     2.8398E+03    35.8454   4.0000   101.8921
127      0.0000     0.0000E+00    0.0000E+00    3.160000E+06  0.05000  4.817E-02    0   0.9577   age045_m72            0.0000     1.5148E+03    27.8521   4.0000   102.1685
128      0.0000     0.0000E+00    0.0000E+00    5.010000E+06  0.05000  3.101E-02    0   0.9147   age055_m72            0.0000     6.2283E+02    19.6231   4.0000    96.3805
129      0.0000     0.0000E+00    0.0000E+00    6.610000E+06  0.05000  1.472E-02    0   0.8877   age061_m72            0.0000     7.9203E+02    19.9793   3.8301    86.1521
130      0.0000     0.0000E+00    0.0000E+00    8.710000E+06  0.05000  1.050E-02    0   0.8638   age067_m72            0.0000     6.8572E+02    20.2073   4.0000    93.2570
131      0.0000     0.0000E+00    0.0000E+00    1.000000E+07  0.05000  8.954E-03    0   0.8524   age070_m72            0.0000     1.1445E+03    24.7237   4.0000   100.8049
132      0.0000     0.0000E+00    0.0000E+00    1.445000E+07  0.05000  6.392E-03    0   0.8262   age078_m72            0.0000     9.6593E+02    22.9534   4.0000   100.8177
133      0.0000     0.0000E+00    0.0000E+00    2.512000E+07  0.05000  4.207E-03    0   0.7902   age090_m72            0.0000     2.9643E+02    13.4886   4.0000    95.7091
134      0.0000     0.0000E+00    0.0000E+00    4.000000E+07  0.05000  3.198E-03    0   0.7618   age104_m72            0.0000     2.5661E+02     9.2263   3.6529   100.0897
135      0.0000     0.0000E+00    0.0000E+00    5.500000E+07  0.05000  2.593E-03    0   0.7432   age110_m72            0.0000     3.0368E+02     9.7183   3.5610   102.1796
136      0.0000     0.0000E+00    0.0000E+00    1.015200E+08  0.05000  1.716E-03    0   0.7092   age116_m72            0.0000     4.0653E+02    11.0576   3.3747   104.7310
137      0.0000     0.0000E+00    0.0000E+00    1.609000E+08  0.05000  1.218E-03    0   0.6876   age120_m72            0.0000     5.2501E+02    12.5752   3.1314   107.0223
138      0.0000     0.0000E+00    0.0000E+00    2.861200E+08  0.05000  7.047E-04    0   0.6618   age125_m72            0.0000     6.2039E+02    13.6642   2.6297   110.0934
139      0.0000     0.0000E+00    0.0000E+00    5.088000E+08  0.05000  3.590E-04    0   0.6356   age130_m72            0.0000     4.7492E+02    11.7503   2.0865   111.6454
140      0.0000     0.0000E+00    0.0000E+00    9.047900E+08  0.05000  1.484E-04    0   0.6088   age135_m72            0.0000     1.4376E+02     6.4826   1.3671   104.4582
141      0.0000     0.0000E+00    0.0000E+00    1.278050E+09  0.05000  9.435E-05    0   0.5924   age138_m72            0.0000     1.2550E+02     6.6071   0.9925   100.8267
142      0.0000     0.0000E+00    0.0000E+00    1.434000E+09  0.05000  7.827E-05    0   0.5847   age139_m72            0.0000     1.1032E+02     6.3381   1.0007   100.2804
143      0.0000     0.0000E+00    0.0000E+00    2.500000E+09  0.05000  3.759E-05    0   0.5583   age150_m72            0.0000     1.4677E+02     7.5045   0.6919    99.1310
144      0.0000     0.0000E+00    0.0000E+00    4.250000E+09  0.05000  1.842E-05    0   0.5374   age158_m72            0.0000     2.3194E+02     8.9526   0.3885    98.5212
145      0.0000     0.0000E+00    0.0000E+00    6.250000E+09  0.05000  1.207E-05    0   0.5242   age166_m72            0.0000     3.2698E+02    10.4400   0.1725    97.8589
146      0.0000     0.0000E+00    0.0000E+00    7.500000E+09  0.05000  9.993E-06    0   0.5183   age171_m72            0.0000     3.4573E+02    10.6469   0.1315    97.7822
147      0.0000     0.0000E+00    0.0000E+00    1.000000E+10  0.05000  7.291E-06    0   0.5081   age181_m72            0.0000     4.2403E+02    11.7428   0.0274    97.3620
148      0.0000     0.0000E+00    0.0000E+00    1.300000E+10  0.05000  5.316E-06    0   0.5018   age193_m72            0.0000     5.6284E+02    13.4911  -0.1291    96.7372
149      0.0000     0.0000E+00    0.0000E+00    1.500000E+10  0.05000  4.497E-06    0   0.4972   age201_m72            0.0000     6.3734E+02    14.3930  -0.1880    96.6913
150      0.0000     0.0000E+00    0.0000E+00    1.800000E+10  0.05000  3.739E-06    0   0.4924   age213_m72            0.0000     7.3858E+02    15.5784  -0.2724    96.3616


## Synthesis Results - Average & Chains ##

# j      x_j: min, <> & last-chain-values for 1 ...  7 chains
  1      0.0000      0.0250      0.0703      0.0000      0.0268      0.0000      0.0000      0.0000      0.0000
  2      0.0000      0.0157      0.0000      0.0000      0.0000      0.0000      0.0000      0.0000      0.0000
  3      1.8780      1.3630      1.3522      1.2947      1.3776      1.6255      1.6172      1.4955      1.4067
  4      0.0000      0.0150      0.0000      0.0000      0.0000      0.1547      0.0000      0.0000      0.0000
  5      0.0000      0.0115      0.0000      0.0258      0.0597      0.0000      0.0000      0.0630      0.0521
  6      0.0000      0.0230      0.0000      0.0079      0.0000      0.0000      0.0000      0.0000      0.0347
  7      0.0000      0.0148      0.0000      0.0000      0.0000      0.0094      0.0770      0.0000      0.0000
  8      0.0000      0.0125      0.0004      0.0000      0.0000      0.0000      0.0000      0.0000      0.0000
  9      0.0000      0.0157      0.0000      0.0000      0.0000      0.0000      0.0000      0.0000      0.0000
 10      0.0000      0.0098      0.0000      0.0000      0.0000      0.0000      0.0000      0.0000      0.0300
 11      0.0000      0.0087      0.1544      0.0000      0.0000      0.0000      0.0000      0.0830      0.0000
 12      0.0000      0.0065      0.0000      0.0000      0.0000      0.0000      0.0000      0.0000      0.0000
 13      0.0000      0.0048      0.0000      0.0000      0.0000      0.0000      0.0000      0.0000      0.0076
 14      0.0000      0.0046      0.0000      0.0000      0.0000      0.0000      0.0000      0.0000      0.0000
 15      0.0000      0.0046      0.0000      0.0000      0.0000      0.0000      0.0000      0.0000      0.0000
 16      0.0000      0.0086      0.0000      0.0000      0.0000      0.0000      0.0000      0.0000      0.0000
 17      0.0000      0.0104      0.0000      0.0622      0.0816      0.0000      0.0000      0.0000      0.0000
 18      0.0000      0.0132      0.0000      0.0000      0.0000      0.0000      0.0000      0.0740      0.0000
 19      0.0000      0.0254      0.0000      0.0000      0.0000      0.0000      0.0000      0.0000      0.0440
 20      0.0000      0.0475      0.0000      0.0000      0.1506      0.1161      0.0000      0.0372      0.0000
 21      0.0000      0.0521      0.0000      0.0028      0.0000      0.0000      0.1018      0.0000      0.0724
 22      0.0000      0.0648      0.0882      0.0000      0.0000      0.0000      0.0952      0.0000      0.0000
 23      0.0000      0.0790      0.0614      0.0805      0.0997      0.1806      0.0000      0.0353      0.0000
 24      0.0000      0.0772      0.0000      0.1052      0.3564      0.0000      0.0699      0.0099      0.0000
 25      0.0000      0.1973      0.0000      0.0000      0.0692      0.3623      0.0000      0.1714      0.0000
 26      0.0000      0.0222      0.0000      0.0000      0.0000      0.0000      0.0000      0.0000      0.0000
 27      0.0000      0.0112      0.0000      0.0000      0.0479      0.0000      0.0375      0.0000      0.0000
 28      0.0000      0.0192      0.0000      0.0505      0.0192      0.0000      0.0000      0.1226      0.0037
 29      0.0000      0.0124      0.0000      0.0000      0.0000      0.0000      0.1398      0.0477      0.0000
 30      0.0000      0.0236      0.1005      0.0807      0.0000      0.0145      0.0000      0.0000      0.0186
 31      0.0000      0.0116      0.0000      0.0000      0.0000      0.0000      0.0000      0.0000      0.0000
 32      0.0000      0.0118      0.0000      0.0000      0.0000      0.0000      0.0000      0.0899      0.0000
 33      0.0000      0.0139      0.0000      0.0495      0.0000      0.0000      0.0000      0.0000      0.0000
 34      0.0000      0.0130      0.0000      0.0000      0.0000      0.0082      0.0368      0.0000      0.0129
 35      0.0000      0.0097      0.0000      0.0000      0.0000      0.0000      0.0000      0.0000      0.0000
 36      0.0000      0.0097      0.0000      0.0000      0.0000      0.0000      0.0000      0.0000      0.0000
 37      0.0000      0.0072      0.0000      0.0000      0.0000      0.0000      0.0000      0.0000      0.0000
 38      0.0000      0.0055      0.0000      0.0000      0.0000      0.0000      0.0564      0.0000      0.0000
 39      0.0000      0.0047      0.0000      0.0197      0.0000      0.0000      0.0000      0.0000      0.0000
 40      0.0000      0.0087      0.0000      0.0578      0.0431      0.0200      0.0000      0.0000      0.0176
 41      0.0000      0.0164      0.0000      0.0000      0.0000      0.0000      0.0000      0.0000      0.0000
 42      0.0000      0.0125      0.0000      0.0000      0.0000      0.0064      0.0000      0.0000      0.0054
 43      0.0000      0.0346      0.0000      0.0000      0.0000      0.0091      0.0000      0.0000      0.0000
 44      0.0000      0.0666      0.0961      0.0000      0.1544      0.0000      0.0000      0.0000      0.1807
 45     13.3820     12.4779     13.1532     12.8826     12.8788     13.0711     12.8545     12.5653     13.2209
 46     21.7111     19.8317     20.4139     20.2005     20.4475     20.1147     20.7144     20.3002     20.9695
 47     16.1813     16.0242     15.9487     16.8693     16.3132     16.2605     16.2988     16.6678     15.7975
 48      0.0000      0.1848      0.3578      0.1023      0.0000      0.0000      0.0462      0.3766      0.1823
 49      0.0000      0.1176      0.0000      0.0000      0.0042      0.0182      0.0000      0.0000      0.0000
 50      0.0000      0.1430      0.0349      0.0122      0.0000      0.0000      0.0000      0.1321      0.1114
 51      0.0000      0.0265      0.1532      0.0000      0.0673      0.0000      0.0015      0.0000      0.0000
 52      0.0000      0.0101      0.0000      0.0000      0.0000      0.0000      0.0000      0.0000      0.0000
 53      0.0000      0.0099      0.0000      0.0275      0.0000      0.0000      0.0000      0.0000      0.0000
 54      0.0000      0.0091      0.0000      0.0000      0.0000      0.0000      0.0000      0.0000      0.0000
 55      0.0000      0.0227      0.0000      0.0000      0.0000      0.0000      0.0000      0.0765      0.0000
 56      0.0000      0.0144      0.0000      0.0000      0.0788      0.0000      0.0000      0.0000      0.0000
 57      0.0000      0.0159      0.0000      0.0000      0.0000      0.1883      0.0397      0.0000      0.0000
 58      0.0000      0.0134      0.1304      0.0512      0.0000      0.0000      0.0000      0.0000      0.0000
 59      0.0000      0.0118      0.0000      0.0000      0.0000      0.0000      0.0000      0.0000      0.0050
 60      0.0000      0.0076      0.0000      0.0000      0.0000      0.0000      0.0000      0.0000      0.0000
 61      0.0000      0.0041      0.0000      0.0000      0.0000      0.0000      0.0000      0.0207      0.0000
 62      0.0000      0.0060      0.0000      0.0000      0.0000      0.0000      0.0000      0.0033      0.0203
 63      0.0000      0.0065      0.0000      0.0000      0.0000      0.0000      0.0000      0.0000      0.0000
 64      0.0000      0.0090      0.0000      0.0000      0.0000      0.0000      0.0000      0.0000      0.0000
 65      0.0000      0.0158      0.0000      0.0000      0.0000      0.0000      0.0000      0.0000      0.0528
 66      0.0000      0.0295      0.0000      0.1278      0.0067      0.0000      0.0801      0.0000      0.0000
 67      0.0000      0.0211      0.0000      0.0000      0.0000      0.0000      0.0000      0.0000      0.0000
 68      0.0000      0.0717      0.1012      0.0000      0.0000      0.0000      0.0000      0.2598      0.0000
 69      0.0000      0.1499      0.1096      0.0760      0.1133      0.0974      0.0000      0.0000      0.1957
 70      0.0000      0.2102      0.1013      0.1649      0.1454      0.0000      0.0895      0.4312      0.0000
 71      0.0067      0.2926      0.4618      0.0000      0.2693      0.1636      0.5431      0.0000      0.0000
 72      5.2652      6.5297      6.8150      6.3749      6.7123      6.5896      6.4751      6.8381      7.0949
 73      7.8909      5.9744      5.8234      6.6463      6.0739      6.0378      6.0478      6.0595      5.0000
 74      1.9675      0.7305      0.4870      0.5942      0.5785      0.6867      0.5490      0.3834      0.7852
 75      0.0000      0.3209      0.3905      0.0880      0.0000      0.4207      0.3539      0.6427      0.8922
 76      0.0000      0.0131      0.0000      0.0000      0.0000      0.0000      0.0330      0.0000      0.0000
 77      0.0000      0.0192      0.0000      0.0000      0.0000      0.0000      0.0000      0.0000      0.0000
 78      0.0000      0.0097      0.0000      0.0985      0.0891      0.0000      0.0000      0.0000      0.0000
 79      0.0000      0.0133      0.0000      0.0000      0.0000      0.0000      0.0000      0.0000      0.1117
 80      0.0000      0.0110      0.0000      0.0000      0.0018      0.0000      0.0000      0.0000      0.0000
 81      0.0000      0.0088      0.0000      0.0000      0.0000      0.0299      0.0000      0.0058      0.0000
 82      0.0000      0.0105      0.0000      0.0000      0.0000      0.0000      0.0000      0.0000      0.0000
 83      0.0000      0.0073      0.0000      0.0000      0.0000      0.0000      0.0163      0.0000      0.0318
 84      0.0000      0.0092      0.0000      0.0000      0.0000      0.0000      0.0544      0.0000      0.0000
 85      0.0000      0.0070      0.0000      0.0000      0.0000      0.0000      0.0000      0.0000      0.0000
 86      0.0000      0.0076      0.0000      0.0000      0.0000      0.0000      0.0001      0.0000      0.0000
 87      0.0000      0.0042      0.0000      0.0020      0.0000      0.0000      0.0000      0.0000      0.0000
 88      0.0000      0.0046      0.0000      0.0000      0.0000      0.0000      0.0000      0.0000      0.0000
 89      0.0000      0.0052      0.0000      0.0000      0.0198      0.0000      0.0000      0.0000      0.0000
 90      0.0000      0.0079      0.0000      0.0000      0.0000      0.0000      0.0000      0.0000      0.0000
 91      0.0000      0.0208      0.0000      0.0000      0.0000      0.0000      0.0000      0.0168      0.0065
 92      0.0000      0.0228      0.0000      0.0030      0.0000      0.0000      0.0000      0.0000      0.0000
 93      0.0000      0.0652      0.0000      0.0000      0.0015      0.0000      0.0000      0.0177      0.0000
 94      0.0000      0.0960      0.0000      0.0000      0.0000      0.1290      0.0000      0.0462      0.0000
 95      0.0000      0.1551      0.1854      0.0837      0.0437      0.5182      0.0753      0.0000      0.6631
 96      0.0000      0.1613      0.2152      0.2179      0.0000      0.1323      0.0659      0.0000      0.0000
 97      3.3544      3.8705      3.9386      4.0378      3.9508      3.6776      4.3062      3.7930      3.7823
 98      2.4484      2.9651      2.8211      3.2043      3.1437      3.0932      3.8098      3.1836      3.0259
 99      4.6250      4.6656      4.7006      4.5387      5.0530      4.5602      4.6932      4.2057      4.6000
100      1.4263      2.5473      2.1229      2.6018      2.8186      2.0956      1.2122      2.8332      1.6626
101      0.0000      0.0313      0.0201      0.0984      0.0000      0.0133      0.0147      0.0157      0.0043
102      0.0000      0.0182      0.0000      0.0000      0.0000      0.0000      0.0000      0.0000      0.0000
103      0.0000      0.0194      0.0000      0.0000      0.0000      0.0000      0.0000      0.0000      0.0157
104      0.0000      0.0169      0.0016      0.0000      0.0000      0.0000      0.0000      0.0000      0.0005
105      0.0000      0.0231      0.1327      0.0000      0.0279      0.0000      0.0000      0.0000      0.0000
106      0.0000      0.0146      0.0016      0.0000      0.0000      0.0000      0.0000      0.0000      0.0868
107      0.0000      0.0103      0.0000      0.0000      0.0851      0.0000      0.0000      0.0000      0.0000
108      0.0000      0.0109      0.0000      0.0000      0.0000      0.0054      0.0000      0.0000      0.0000
109      0.0000      0.0070      0.0000      0.0000      0.0000      0.0000      0.0000      0.0000      0.0000
110      0.0000      0.0084      0.0000      0.0000      0.0000      0.0000      0.0000      0.0000      0.0000
111      0.0000      0.0041      0.0000      0.0000      0.0000      0.0000      0.0000      0.0000      0.0000
112      0.0000      0.0049      0.0000      0.0000      0.0000      0.0000      0.0000      0.0000      0.0000
113      0.0000      0.0036      0.0000      0.0000      0.0000      0.0000      0.0013      0.0000      0.0000
114      0.0000      0.0041      0.0000      0.0000      0.0000      0.0000      0.0000      0.0000      0.0000
115      0.0000      0.0084      0.0000      0.0000      0.0000      0.0000      0.0000      0.0000      0.0000
116      0.0000      0.0143      0.0000      0.0000      0.0000      0.0000      0.0000      0.0000      0.0000
117      0.0000      0.0223      0.0437      0.0000      0.0000      0.0000      0.0000      0.0000      0.0000
118      0.0000      0.0537      0.1167      0.0000      0.0000      0.0000      0.0000      0.0000      0.0000
119      0.0000      0.0870      0.0000      0.0861      0.0000      0.1268      0.0000      0.0000      0.0000
120      0.0000      0.1016      0.1064      0.0000      0.0541      0.2124      0.0742      0.1238      0.2700
121      0.0000      0.0947      0.0000      0.1911      0.0000      0.2486      0.0000      0.1525      0.1832
122      0.1286      0.4394      0.6389      0.3159      0.6150      0.3642      0.5856      0.4790      0.3207
123      4.4625      4.0915      4.2793      3.9530      4.1261      4.3632      4.2436      3.8837      4.4694
124     10.7332      9.6582      9.7950      9.8060      9.5008      9.7714     10.0190      9.6384      9.7425
125      1.5939      1.1097      1.2075      1.2341      1.1192      0.9969      1.2481      1.2488      1.2817
126      0.0000      0.0154      0.0000      0.0000      0.0000      0.0000      0.0000      0.0291      0.0000
127      0.0000      0.0183      0.0000      0.1519      0.0000      0.0000      0.0000      0.0000      0.0000
128      0.0000      0.0203      0.0000      0.0000      0.0000      0.0000      0.0090      0.0000      0.0000
129      0.0000      0.0237      0.0000      0.0000      0.0750      0.0031      0.0000      0.0076      0.1260
130      0.0000      0.0118      0.0000      0.0000      0.0000      0.0000      0.0000      0.0000      0.0000
131      0.0000      0.0138      0.0000      0.0000      0.0153      0.0011      0.0195      0.0000      0.1243
132      0.0000      0.0093      0.0000      0.0000      0.0000      0.0000      0.0000      0.0000      0.0000
133      0.0000      0.0111      0.0268      0.0000      0.0000      0.0000      0.0000      0.0000      0.0000
134      0.0000      0.0047      0.0000      0.0000      0.0000      0.0000      0.0000      0.0000      0.0265
135      0.0000      0.0034      0.0000      0.0000      0.0000      0.0000      0.0000      0.0000      0.0000
136      0.0000      0.0043      0.0000      0.0000      0.0000      0.0130      0.0000      0.0000      0.0000
137      0.0000      0.0046      0.0000      0.0000      0.0000      0.0000      0.0000      0.0000      0.0000
138      0.0000      0.0045      0.0000      0.0000      0.0000      0.0000      0.0000      0.0000      0.0000
139      0.0000      0.0062      0.0000      0.0037      0.0000      0.0000      0.0000      0.0000      0.0000
140      0.0000      0.0190      0.0007      0.0000      0.0000      0.0000      0.0000      0.0000      0.0054
141      0.0000      0.0414      0.0000      0.0000      0.0000      0.0000      0.0000      0.0000      0.0000
142      0.0000      0.0440      0.1241      0.0000      0.0000      0.0000      0.0000      0.0000      0.0048
143      0.0000      0.0949      0.0000      0.0000      0.0000      0.0761      0.0834      0.0000      0.0057
144      0.0000      0.0655      0.0000      0.1210      0.0709      0.2205      0.0000      0.0000      0.0000
145      0.0000      0.0734      0.0397      0.0128      0.0000      0.1299      0.0000      0.0000      0.0467
146      0.0000      0.0397      0.0437      0.0000      0.0000      0.0000      0.0000      0.0000      0.0000
147      0.0000      0.0722      0.0714      0.1492      0.0000      0.0000      0.0204      0.2077      0.0000
148      0.0000      0.0871      0.0720      0.0000      0.0940      0.0000      0.0000      0.0000      0.2434
149      0.0000      0.0897      0.0000      0.1043      0.0478      0.0589      0.0149      0.0000      0.1008
150      0.0000      0.0999      0.0416      0.0236      0.0000      0.0915      0.1838      0.2210      0.0000

# j      m_j: min, <> & last-chain-values for 1 ...  7 chains
  1  0.0000E+00  1.3328E-04  3.7788E-04  0.0000E+00  1.4376E-04  0.0000E+00  0.0000E+00  0.0000E+00  0.0000E+00
  2  0.0000E+00  1.4372E-05  0.0000E+00  0.0000E+00  0.0000E+00  0.0000E+00  0.0000E+00  0.0000E+00  0.0000E+00
  3  4.0386E-03  2.9453E-03  2.9412E-03  2.7982E-03  2.9901E-03  3.5320E-03  3.4974E-03  3.2208E-03  3.0500E-03
  4  0.0000E+00  6.1109E-05  0.0000E+00  0.0000E+00  0.0000E+00  6.3189E-04  0.0000E+00  0.0000E+00  0.0000E+00
  5  0.0000E+00  5.8797E-05  0.0000E+00  1.3186E-04  3.0665E-04  0.0000E+00  0.0000E+00  3.2150E-04  2.6762E-04
  6  0.0000E+00  1.3982E-04  0.0000E+00  4.8243E-05  0.0000E+00  0.0000E+00  0.0000E+00  0.0000E+00  2.1207E-04
  7  0.0000E+00  1.1344E-04  0.0000E+00  0.0000E+00  0.0000E+00  7.2368E-05  5.9155E-04  0.0000E+00  0.0000E+00
  8  0.0000E+00  1.0816E-04  3.9172E-06  0.0000E+00  0.0000E+00  0.0000E+00  0.0000E+00  0.0000E+00  0.0000E+00
  9  0.0000E+00  1.4633E-04  0.0000E+00  0.0000E+00  0.0000E+00  0.0000E+00  0.0000E+00  0.0000E+00  0.0000E+00
 10  0.0000E+00  1.0526E-04  0.0000E+00  0.0000E+00  0.0000E+00  0.0000E+00  0.0000E+00  0.0000E+00  3.2183E-04
 11  0.0000E+00  1.1144E-04  1.9878E-03  0.0000E+00  0.0000E+00  0.0000E+00  0.0000E+00  1.0584E-03  0.0000E+00
 12  0.0000E+00  1.4470E-04  0.0000E+00  0.0000E+00  0.0000E+00  0.0000E+00  0.0000E+00  0.0000E+00  0.0000E+00
 13  0.0000E+00  1.2403E-04  0.0000E+00  0.0000E+00  0.0000E+00  0.0000E+00  0.0000E+00  0.0000E+00  1.9705E-04
 14  0.0000E+00  1.6990E-04  0.0000E+00  0.0000E+00  0.0000E+00  0.0000E+00  0.0000E+00  0.0000E+00  0.0000E+00
 15  0.0000E+00  2.5851E-04  0.0000E+00  0.0000E+00  0.0000E+00  0.0000E+00  0.0000E+00  0.0000E+00  0.0000E+00
 16  0.0000E+00  6.9131E-04  0.0000E+00  0.0000E+00  0.0000E+00  0.0000E+00  0.0000E+00  0.0000E+00  0.0000E+00
 17  0.0000E+00  9.2986E-04  0.0000E+00  5.5730E-03  7.3415E-03  0.0000E+00  0.0000E+00  0.0000E+00  0.0000E+00
 18  0.0000E+00  1.9181E-03  0.0000E+00  0.0000E+00  0.0000E+00  0.0000E+00  0.0000E+00  1.0754E-02  0.0000E+00
 19  0.0000E+00  5.6262E-03  0.0000E+00  0.0000E+00  0.0000E+00  0.0000E+00  0.0000E+00  0.0000E+00  9.7631E-03
 20  0.0000E+00  1.5010E-02  0.0000E+00  0.0000E+00  4.7839E-02  3.6917E-02  0.0000E+00  1.1720E-02  0.0000E+00
 21  0.0000E+00  1.9046E-02  0.0000E+00  1.0312E-03  0.0000E+00  0.0000E+00  3.7257E-02  0.0000E+00  2.6558E-02
 22  0.0000E+00  3.0607E-02  4.1884E-02  0.0000E+00  0.0000E+00  0.0000E+00  4.4972E-02  0.0000E+00  0.0000E+00
 23  0.0000E+00  4.7269E-02  3.6975E-02  4.8146E-02  5.9889E-02  1.0862E-01  0.0000E+00  2.1042E-02  0.0000E+00
 24  0.0000E+00  5.2797E-02  0.0000E+00  7.1973E-02  2.4496E-01  0.0000E+00  4.7892E-02  6.7587E-03  0.0000E+00
 25  0.0000E+00  1.6215E-01  0.0000E+00  0.0000E+00  5.7136E-02  2.9943E-01  0.0000E+00  1.4044E-01  0.0000E+00
 26  0.0000E+00  1.1414E-04  0.0000E+00  0.0000E+00  0.0000E+00  0.0000E+00  0.0000E+00  0.0000E+00  0.0000E+00
 27  0.0000E+00  1.2317E-05  0.0000E+00  0.0000E+00  5.2760E-05  0.0000E+00  4.1187E-05  0.0000E+00  0.0000E+00
 28  0.0000E+00  4.1299E-05  0.0000E+00  1.0846E-04  4.1474E-05  0.0000E+00  0.0000E+00  2.6222E-04  7.9090E-06
 29  0.0000E+00  4.1630E-05  0.0000E+00  0.0000E+00  0.0000E+00  0.0000E+00  4.6781E-04  1.5886E-04  0.0000E+00
 30  0.0000E+00  9.7957E-05  4.2055E-04  3.3557E-04  0.0000E+00  6.0661E-05  0.0000E+00  0.0000E+00  7.7656E-05
 31  0.0000E+00  5.5769E-05  0.0000E+00  0.0000E+00  0.0000E+00  0.0000E+00  0.0000E+00  0.0000E+00  0.0000E+00
 32  0.0000E+00  6.2530E-05  0.0000E+00  0.0000E+00  0.0000E+00  0.0000E+00  0.0000E+00  4.7631E-04  0.0000E+00
 33  0.0000E+00  1.0541E-04  0.0000E+00  3.7412E-04  0.0000E+00  0.0000E+00  0.0000E+00  0.0000E+00  0.0000E+00
 34  0.0000E+00  1.1979E-04  0.0000E+00  0.0000E+00  0.0000E+00  7.6084E-05  3.3790E-04  0.0000E+00  1.1852E-04
 35  0.0000E+00  1.0814E-04  0.0000E+00  0.0000E+00  0.0000E+00  0.0000E+00  0.0000E+00  0.0000E+00  0.0000E+00
 36  0.0000E+00  1.3730E-04  0.0000E+00  0.0000E+00  0.0000E+00  0.0000E+00  0.0000E+00  0.0000E+00  0.0000E+00
 37  0.0000E+00  1.2810E-04  0.0000E+00  0.0000E+00  0.0000E+00  0.0000E+00  0.0000E+00  0.0000E+00  0.0000E+00
 38  0.0000E+00  1.3583E-04  0.0000E+00  0.0000E+00  0.0000E+00  0.0000E+00  1.3906E-03  0.0000E+00  0.0000E+00
 39  0.0000E+00  1.7205E-04  0.0000E+00  7.2241E-04  0.0000E+00  0.0000E+00  0.0000E+00  0.0000E+00  0.0000E+00
 40  0.0000E+00  5.6630E-04  0.0000E+00  3.7490E-03  2.8034E-03  1.3024E-03  0.0000E+00  0.0000E+00  1.1423E-03
 41  0.0000E+00  1.4275E-03  0.0000E+00  0.0000E+00  0.0000E+00  0.0000E+00  0.0000E+00  0.0000E+00  0.0000E+00
 42  0.0000E+00  1.2094E-03  0.0000E+00  0.0000E+00  0.0000E+00  6.2008E-04  0.0000E+00  0.0000E+00  5.2136E-04
 43  0.0000E+00  5.4549E-03  0.0000E+00  0.0000E+00  0.0000E+00  1.4424E-03  0.0000E+00  0.0000E+00  0.0000E+00
 44  0.0000E+00  1.6620E-02  2.4129E-02  0.0000E+00  3.8688E-02  0.0000E+00  0.0000E+00  0.0000E+00  4.5214E-02
 45  4.6295E+00  4.3377E+00  4.6024E+00  4.4790E+00  4.4970E+00  4.5691E+00  4.4720E+00  4.3536E+00  4.6114E+00
 46  8.9474E+00  8.2127E+00  8.5092E+00  8.3665E+00  8.5053E+00  8.3761E+00  8.5848E+00  8.3787E+00  8.7130E+00
 47  8.7400E+00  8.6974E+00  8.7131E+00  9.1572E+00  8.8936E+00  8.8746E+00  8.8531E+00  9.0166E+00  8.6031E+00
 48  0.0000E+00  1.1942E-01  2.3278E-01  6.6108E-02  0.0000E+00  0.0000E+00  2.9859E-02  2.4261E-01  1.1819E-01
 49  0.0000E+00  8.5042E-02  0.0000E+00  0.0000E+00  3.0644E-03  1.3206E-02  0.0000E+00  0.0000E+00  0.0000E+00
 50  0.0000E+00  1.2157E-01  2.9905E-02  1.0401E-02  0.0000E+00  0.0000E+00  0.0000E+00  1.1197E-01  9.5085E-02
 51  0.0000E+00  1.0353E-04  6.0304E-04  0.0000E+00  2.6447E-04  0.0000E+00  5.7321E-06  0.0000E+00  0.0000E+00
 52  0.0000E+00  1.0820E-05  0.0000E+00  0.0000E+00  0.0000E+00  0.0000E+00  0.0000E+00  0.0000E+00  0.0000E+00
 53  0.0000E+00  1.6158E-05  0.0000E+00  4.4887E-05  0.0000E+00  0.0000E+00  0.0000E+00  0.0000E+00  0.0000E+00
 54  0.0000E+00  1.4226E-05  0.0000E+00  0.0000E+00  0.0000E+00  0.0000E+00  0.0000E+00  0.0000E+00  0.0000E+00
 55  0.0000E+00  5.2082E-05  0.0000E+00  0.0000E+00  0.0000E+00  0.0000E+00  0.0000E+00  1.7503E-04  0.0000E+00
 56  0.0000E+00  4.3796E-05  0.0000E+00  0.0000E+00  2.4055E-04  0.0000E+00  0.0000E+00  0.0000E+00  0.0000E+00
 57  0.0000E+00  7.7449E-05  0.0000E+00  0.0000E+00  0.0000E+00  9.2232E-04  1.9363E-04  0.0000E+00  0.0000E+00
 58  0.0000E+00  9.3800E-05  9.2196E-04  3.5940E-04  0.0000E+00  0.0000E+00  0.0000E+00  0.0000E+00  0.0000E+00
 59  0.0000E+00  1.1512E-04  0.0000E+00  0.0000E+00  0.0000E+00  0.0000E+00  0.0000E+00  0.0000E+00  4.9378E-05
 60  0.0000E+00  8.2365E-05  0.0000E+00  0.0000E+00  0.0000E+00  0.0000E+00  0.0000E+00  0.0000E+00  0.0000E+00
 61  0.0000E+00  5.6826E-05  0.0000E+00  0.0000E+00  0.0000E+00  0.0000E+00  0.0000E+00  2.8548E-04  0.0000E+00
 62  0.0000E+00  1.0547E-04  0.0000E+00  0.0000E+00  0.0000E+00  0.0000E+00  0.0000E+00  5.7717E-05  3.5820E-04
 63  0.0000E+00  1.7297E-04  0.0000E+00  0.0000E+00  0.0000E+00  0.0000E+00  0.0000E+00  0.0000E+00  0.0000E+00
 64  0.0000E+00  3.9478E-04  0.0000E+00  0.0000E+00  0.0000E+00  0.0000E+00  0.0000E+00  0.0000E+00  0.0000E+00
 65  0.0000E+00  1.1696E-03  0.0000E+00  0.0000E+00  0.0000E+00  0.0000E+00  0.0000E+00  0.0000E+00  3.9298E-03
 66  0.0000E+00  2.8027E-03  0.0000E+00  1.2141E-02  6.4005E-04  0.0000E+00  7.6135E-03  0.0000E+00  0.0000E+00
 67  0.0000E+00  2.7559E-03  0.0000E+00  0.0000E+00  0.0000E+00  0.0000E+00  0.0000E+00  0.0000E+00  0.0000E+00
 68  0.0000E+00  1.7392E-02  2.4690E-02  0.0000E+00  0.0000E+00  0.0000E+00  0.0000E+00  6.2783E-02  0.0000E+00
 69  0.0000E+00  6.2667E-02  4.6104E-02  3.1782E-02  4.7571E-02  4.0929E-02  0.0000E+00  0.0000E+00  8.2103E-02
 70  0.0000E+00  1.2233E-01  5.9302E-02  9.5963E-02  8.4997E-02  0.0000E+00  5.2102E-02  2.5004E-01  0.0000E+00
 71  4.5955E-03  2.0090E-01  3.1912E-01  0.0000E+00  1.8574E-01  1.1297E-01  3.7312E-01  0.0000E+00  0.0000E+00
 72  4.7354E+00  5.9013E+00  6.1995E+00  5.7622E+00  6.0933E+00  5.9884E+00  5.8564E+00  6.1595E+00  6.4336E+00
 73  8.9524E+00  6.8111E+00  6.6824E+00  7.5781E+00  6.9553E+00  6.9215E+00  6.9000E+00  6.8851E+00  5.7194E+00
 74  2.4904E+00  9.2910E-01  6.2348E-01  7.5590E-01  7.3905E-01  8.7829E-01  6.9878E-01  4.8605E-01  1.0020E+00
 75  0.0000E+00  4.6933E-01  5.7487E-01  1.2875E-01  0.0000E+00  6.1864E-01  5.1801E-01  9.3689E-01  1.3092E+00
 76  0.0000E+00  4.4520E-05  0.0000E+00  0.0000E+00  0.0000E+00  0.0000E+00  1.1199E-04  0.0000E+00  0.0000E+00
 77  0.0000E+00  2.6548E-05  0.0000E+00  0.0000E+00  0.0000E+00  0.0000E+00  0.0000E+00  0.0000E+00  0.0000E+00
 78  0.0000E+00  1.5025E-05  0.0000E+00  1.5213E-04  1.3830E-04  0.0000E+00  0.0000E+00  0.0000E+00  0.0000E+00
 79  0.0000E+00  2.4667E-05  0.0000E+00  0.0000E+00  0.0000E+00  0.0000E+00  0.0000E+00  0.0000E+00  2.0839E-04
 80  0.0000E+00  2.6353E-05  0.0000E+00  0.0000E+00  4.3226E-06  0.0000E+00  0.0000E+00  0.0000E+00  0.0000E+00
 81  0.0000E+00  2.7994E-05  0.0000E+00  0.0000E+00  0.0000E+00  9.5046E-05  0.0000E+00  1.8329E-05  0.0000E+00
 82  0.0000E+00  4.4935E-05  0.0000E+00  0.0000E+00  0.0000E+00  0.0000E+00  0.0000E+00  0.0000E+00  0.0000E+00
 83  0.0000E+00  4.5762E-05  0.0000E+00  0.0000E+00  0.0000E+00  0.0000E+00  1.0245E-04  0.0000E+00  2.0012E-04
 84  0.0000E+00  7.9740E-05  0.0000E+00  0.0000E+00  0.0000E+00  0.0000E+00  4.7248E-04  0.0000E+00  0.0000E+00
 85  0.0000E+00  7.4061E-05  0.0000E+00  0.0000E+00  0.0000E+00  0.0000E+00  0.0000E+00  0.0000E+00  0.0000E+00
 86  0.0000E+00  1.0816E-04  0.0000E+00  0.0000E+00  0.0000E+00  0.0000E+00  8.4657E-07  0.0000E+00  0.0000E+00
 87  0.0000E+00  8.0588E-05  0.0000E+00  3.7757E-05  0.0000E+00  0.0000E+00  0.0000E+00  0.0000E+00  0.0000E+00
 88  0.0000E+00  1.3313E-04  0.0000E+00  0.0000E+00  0.0000E+00  0.0000E+00  0.0000E+00  0.0000E+00  0.0000E+00
 89  0.0000E+00  2.5148E-04  0.0000E+00  0.0000E+00  9.5908E-04  0.0000E+00  0.0000E+00  0.0000E+00  0.0000E+00
 90  0.0000E+00  7.0245E-04  0.0000E+00  0.0000E+00  0.0000E+00  0.0000E+00  0.0000E+00  0.0000E+00  0.0000E+00
 91  0.0000E+00  2.3883E-03  0.0000E+00  0.0000E+00  0.0000E+00  0.0000E+00  0.0000E+00  1.9262E-03  7.4398E-04
 92  0.0000E+00  3.4893E-03  0.0000E+00  4.6650E-04  0.0000E+00  0.0000E+00  0.0000E+00  0.0000E+00  0.0000E+00
 93  0.0000E+00  2.0302E-02  0.0000E+00  0.0000E+00  4.7860E-04  0.0000E+00  0.0000E+00  5.5052E-03  0.0000E+00
 94  0.0000E+00  5.3603E-02  0.0000E+00  0.0000E+00  0.0000E+00  7.2461E-02  0.0000E+00  2.5691E-02  0.0000E+00
 95  0.0000E+00  1.1666E-01  1.4041E-01  6.2991E-02  3.3033E-02  3.9196E-01  5.6676E-02  0.0000E+00  5.0051E-01
 96  0.0000E+00  1.4642E-01  1.9658E-01  1.9775E-01  0.0000E+00  1.2076E-01  5.9885E-02  0.0000E+00  0.0000E+00
 97  3.9478E+00  4.5773E+00  4.6884E+00  4.7759E+00  4.6931E+00  4.3734E+00  5.0964E+00  4.4708E+00  4.4881E+00
 98  3.6952E+00  4.4968E+00  4.3065E+00  4.8603E+00  4.7890E+00  4.7172E+00  5.7824E+00  4.8122E+00  4.6045E+00
 99  7.9569E+00  8.0659E+00  8.1796E+00  7.8476E+00  8.7746E+00  7.9274E+00  8.1197E+00  7.2467E+00  7.9792E+00
100  2.8250E+00  5.0701E+00  4.2532E+00  5.1793E+00  5.6350E+00  4.1941E+00  2.4146E+00  5.6205E+00  3.3203E+00
101  0.0000E+00  6.8491E-05  4.4280E-05  2.1554E-04  0.0000E+00  2.9229E-05  3.2125E-05  3.4361E-05  9.4002E-06
102  0.0000E+00  2.0761E-05  0.0000E+00  0.0000E+00  0.0000E+00  0.0000E+00  0.0000E+00  0.0000E+00  0.0000E+00
103  0.0000E+00  2.4521E-05  0.0000E+00  0.0000E+00  0.0000E+00  0.0000E+00  0.0000E+00  0.0000E+00  1.9927E-05
104  0.0000E+00  2.8049E-05  2.6514E-06  0.0000E+00  0.0000E+00  0.0000E+00  0.0000E+00  0.0000E+00  8.2103E-07
105  0.0000E+00  8.1074E-05  4.6804E-04  0.0000E+00  9.8203E-05  0.0000E+00  0.0000E+00  0.0000E+00  0.0000E+00
106  0.0000E+00  5.5187E-05  6.1503E-06  0.0000E+00  0.0000E+00  0.0000E+00  0.0000E+00  0.0000E+00  3.2842E-04
107  0.0000E+00  5.2072E-05  0.0000E+00  0.0000E+00  4.3030E-04  0.0000E+00  0.0000E+00  0.0000E+00  0.0000E+00
108  0.0000E+00  9.1711E-05  0.0000E+00  0.0000E+00  0.0000E+00  4.5366E-05  0.0000E+00  0.0000E+00  0.0000E+00
109  0.0000E+00  7.0874E-05  0.0000E+00  0.0000E+00  0.0000E+00  0.0000E+00  0.0000E+00  0.0000E+00  0.0000E+00
110  0.0000E+00  1.0067E-04  0.0000E+00  0.0000E+00  0.0000E+00  0.0000E+00  0.0000E+00  0.0000E+00  0.0000E+00
111  0.0000E+00  6.9251E-05  0.0000E+00  0.0000E+00  0.0000E+00  0.0000E+00  0.0000E+00  0.0000E+00  0.0000E+00
112  0.0000E+00  1.0807E-04  0.0000E+00  0.0000E+00  0.0000E+00  0.0000E+00  0.0000E+00  0.0000E+00  0.0000E+00
113  0.0000E+00  1.1948E-04  0.0000E+00  0.0000E+00  0.0000E+00  0.0000E+00  4.1641E-05  0.0000E+00  0.0000E+00
114  0.0000E+00  2.3504E-04  0.0000E+00  0.0000E+00  0.0000E+00  0.0000E+00  0.0000E+00  0.0000E+00  0.0000E+00
115  0.0000E+00  9.6996E-04  0.0000E+00  0.0000E+00  0.0000E+00  0.0000E+00  0.0000E+00  0.0000E+00  0.0000E+00
116  0.0000E+00  2.6573E-03  0.0000E+00  0.0000E+00  0.0000E+00  0.0000E+00  0.0000E+00  0.0000E+00  0.0000E+00
117  0.0000E+00  4.8740E-03  9.6165E-03  0.0000E+00  0.0000E+00  0.0000E+00  0.0000E+00  0.0000E+00  0.0000E+00
118  0.0000E+00  2.3824E-02  5.2142E-02  0.0000E+00  0.0000E+00  0.0000E+00  0.0000E+00  0.0000E+00  0.0000E+00
119  0.0000E+00  6.6731E-02  0.0000E+00  6.6118E-02  0.0000E+00  9.7857E-02  0.0000E+00  0.0000E+00  0.0000E+00
120  0.0000E+00  1.1099E-01  1.1701E-01  0.0000E+00  5.9346E-02  2.3335E-01  8.1191E-02  1.3485E-01  2.9607E-01
121  0.0000E+00  1.2180E-01  0.0000E+00  2.4577E-01  0.0000E+00  3.2140E-01  0.0000E+00  1.9547E-01  2.3628E-01
122  2.2020E-01  7.5589E-01  1.1063E+00  5.4348E-01  1.0627E+00  6.2996E-01  1.0082E+00  8.2123E-01  5.5350E-01
123  1.0077E+01  9.2840E+00  9.7738E+00  8.9710E+00  9.4042E+00  9.9555E+00  9.6364E+00  8.7831E+00  1.0176E+01
124  2.7828E+01  2.5163E+01  2.5687E+01  2.5551E+01  2.4863E+01  2.5599E+01  2.6123E+01  2.5028E+01  2.5468E+01
125  4.9460E+00  3.4603E+00  3.7899E+00  3.8487E+00  3.5055E+00  3.1258E+00  3.8946E+00  3.8810E+00  4.0101E+00
126  0.0000E+00  2.5299E-05  0.0000E+00  0.0000E+00  0.0000E+00  0.0000E+00  0.0000E+00  4.7603E-05  0.0000E+00
127  0.0000E+00  1.5895E-05  0.0000E+00  1.3160E-04  0.0000E+00  0.0000E+00  0.0000E+00  0.0000E+00  0.0000E+00
128  0.0000E+00  2.6050E-05  0.0000E+00  0.0000E+00  0.0000E+00  0.0000E+00  1.1541E-05  0.0000E+00  0.0000E+00
129  0.0000E+00  6.2310E-05  0.0000E+00  0.0000E+00  1.9805E-04  8.1662E-06  0.0000E+00  1.9884E-05  3.3227E-04
130  0.0000E+00  4.2243E-05  0.0000E+00  0.0000E+00  0.0000E+00  0.0000E+00  0.0000E+00  0.0000E+00  0.0000E+00
131  0.0000E+00  5.7117E-05  0.0000E+00  0.0000E+00  6.3937E-05  4.5207E-06  8.0771E-05  0.0000E+00  5.1743E-04
132  0.0000E+00  5.2129E-05  0.0000E+00  0.0000E+00  0.0000E+00  0.0000E+00  0.0000E+00  0.0000E+00  0.0000E+00
133  0.0000E+00  9.0679E-05  2.2076E-04  0.0000E+00  0.0000E+00  0.0000E+00  0.0000E+00  0.0000E+00  0.0000E+00
134  0.0000E+00  4.8285E-05  0.0000E+00  0.0000E+00  0.0000E+00  0.0000E+00  0.0000E+00  0.0000E+00  2.7603E-04
135  0.0000E+00  4.1870E-05  0.0000E+00  0.0000E+00  0.0000E+00  0.0000E+00  0.0000E+00  0.0000E+00  0.0000E+00
136  0.0000E+00  7.8231E-05  0.0000E+00  0.0000E+00  0.0000E+00  2.3601E-04  0.0000E+00  0.0000E+00  0.0000E+00
137  0.0000E+00  1.1419E-04  0.0000E+00  0.0000E+00  0.0000E+00  0.0000E+00  0.0000E+00  0.0000E+00  0.0000E+00
138  0.0000E+00  1.8556E-04  0.0000E+00  0.0000E+00  0.0000E+00  0.0000E+00  0.0000E+00  0.0000E+00  0.0000E+00
139  0.0000E+00  4.8155E-04  0.0000E+00  2.8177E-04  0.0000E+00  0.0000E+00  0.0000E+00  0.0000E+00  0.0000E+00
140  0.0000E+00  3.3953E-03  1.3272E-04  0.0000E+00  0.0000E+00  0.0000E+00  0.0000E+00  0.0000E+00  9.7713E-04
141  0.0000E+00  1.1331E-02  0.0000E+00  0.0000E+00  0.0000E+00  0.0000E+00  0.0000E+00  0.0000E+00  0.0000E+00
142  0.0000E+00  1.4332E-02  4.0642E-02  0.0000E+00  0.0000E+00  0.0000E+00  0.0000E+00  0.0000E+00  1.5701E-03
143  0.0000E+00  6.1436E-02  0.0000E+00  0.0000E+00  0.0000E+00  4.9500E-02  5.3981E-02  0.0000E+00  3.6898E-03
144  0.0000E+00  8.3282E-02  0.0000E+00  1.5377E-01  9.0540E-02  2.8184E-01  0.0000E+00  0.0000E+00  0.0000E+00
145  0.0000E+00  1.3881E-01  7.5638E-02  2.4287E-02  0.0000E+00  2.4709E-01  0.0000E+00  0.0000E+00  8.8583E-02
146  0.0000E+00  8.9681E-02  9.9425E-02  0.0000E+00  0.0000E+00  0.0000E+00  0.0000E+00  0.0000E+00  0.0000E+00
147  0.0000E+00  2.1920E-01  2.1819E-01  4.5310E-01  0.0000E+00  0.0000E+00  6.2019E-02  6.2858E-01  0.0000E+00
148  0.0000E+00  3.5818E-01  2.9795E-01  0.0000E+00  3.8826E-01  0.0000E+00  0.0000E+00  0.0000E+00  1.0042E+00
149  0.0000E+00  4.3190E-01  0.0000E+00  5.0237E-01  2.3110E-01  2.8553E-01  7.1822E-02  0.0000E+00  4.8719E-01
150  0.0000E+00  5.7296E-01  2.4015E-01  1.3529E-01  0.0000E+00  5.2822E-01  1.0556E+00  1.2638E+00  0.0000E+00

# AV, chi2 & Mass for <> & i_chain = 1 ...  7 solutions
AV       1.1800      1.1781      1.1796      1.1779      1.1810      1.1780      1.1772      1.1797      1.1803
chi2 2.7531E+00  2.8053E+00  2.7872E+00  2.7821E+00  2.7852E+00  2.7814E+00  2.7794E+00  2.7832E+00  2.7842E+00
Mass 4.1687E-10  4.1379E-10  4.1193E-10  4.1358E-10  4.1355E-10  4.1141E-10  4.1298E-10  4.1604E-10  4.1361E-10
 -19.37                                  [v0_min (km/s) before EX0s...]
  42.75                                  [vd_min (km/s) before EX0s...]


## Synthetic spectrum (Best Model) ##l_obs f_obs f_syn wei
 3070    [Nl_obs]
 3359.00    0.19253   0.33835   -1.000
 3360.00    0.21582   0.31823   -1.000
 3361.00    0.21060   0.32921   -1.000
 3362.00    0.17540   0.36161   -1.000
 3363.00    0.19808   0.39987   -1.000
 3364.00    0.19077   0.42243   -1.000
 3365.00    0.21820   0.42131   -1.000
 3366.00    0.23457   0.40833   -1.000
 3367.00    0.21905   0.39245   -1.000
 3368.00    0.20548   0.37705   -1.000
 3369.00    0.23233   0.36251   -1.000
 3370.00    0.25810   0.34373   -1.000
 3371.00    0.22475   0.33379   -1.000
 3372.00    0.20315   0.34166   -1.000
 3373.00    0.24352   0.36606   -1.000
 3374.00    0.28829   0.39834   -1.000
 3375.00    0.27875   0.42817   -1.000
 3376.00    0.28113   0.44154   -1.000
 3377.00    0.28636   0.43370   -1.000
 3378.00    0.29867   0.41308   -1.000
 3379.00    0.28677   0.39608   -1.000
 3380.00    0.27985   0.39212   -1.000
 3381.00    0.30473   0.39965   -1.000
 3382.00    0.28095   0.41142   -1.000
 3383.00    0.27577   0.42172   -1.000
 3384.00    0.27672   0.43096   -1.000
 3385.00    0.28178   0.43845   -1.000
 3386.00    0.29496   0.43462   -1.000
 3387.00    0.30281   0.42388   -1.000
 3388.00    0.29420   0.41873   -1.000
 3389.00    0.26454   0.42505   -1.000
 3390.00    0.28076   0.43235   -1.000
 3391.00    0.30014   0.43003   -1.000
 3392.00    0.31004   0.41670   -1.000
 3393.00    0.30035   0.40955   -1.000
 3394.00    0.30708   0.41868   -1.000
 3395.00    0.34177   0.43815   -1.000
 3396.00    0.37894   0.45879   -1.000
 3397.00    0.40106   0.47620   -1.000
 3398.00    0.36668   0.48962   -1.000
 3399.00    0.36209   0.49494   -1.000
 3400.00    0.42447   0.49065   39.621
 3401.00    0.42138   0.47685   40.965
 3402.00    0.40237   0.45721   41.464
 3403.00    0.38990   0.44393   42.207
 3404.00    0.34354   0.43732   -1.000
 3405.00    0.32640   0.43739   -1.000
 3406.00    0.32717   0.43478   -1.000
 3407.00    0.33023   0.42791   -1.000
 3408.00    0.32080   0.42338   -1.000
 3409.00    0.33471   0.42935   -1.000
 3410.00    0.36433   0.43966   -1.000
 3411.00    0.37442   0.43655   43.178
 3412.00    0.37153   0.42138   44.745
 3413.00    0.37775   0.40401   45.250
 3414.00    0.35846   0.40063   44.796
 3415.00    0.35677   0.41600   43.393
 3416.00    0.36371   0.43690   41.451
 3417.00    0.39697   0.45553   39.440
 3418.00    0.41023   0.47026   38.043
 3419.00    0.42855   0.48223   37.875
 3420.00    0.42241   0.48769   37.772
 3421.00    0.42639   0.47988   38.294
 3422.00    0.44722   0.45923   39.351
 3423.00    0.45063   0.44241   39.562
 3424.00    0.42672   0.43937   38.433
 3425.00    0.42036   0.44571   37.686
 3426.00    0.45190   0.45460   52.881
 3427.00    0.44381   0.46852   -1.000
 3428.00    0.43869   0.48982   -1.000
 3429.00    0.43369   0.50822   -1.000
 3430.00    0.44768   0.50842   -1.000
 3431.00    0.46986   0.48751   95.737
 3432.00    0.46350   0.46380   37.630
 3433.00    0.42932   0.45597   52.926
 3434.00    0.43456   0.46834   -1.000
 3435.00    0.44460   0.48245   -1.000
 3436.00    0.43853   0.48064   38.006
 3437.00    0.42376   0.46386   39.966
 3438.00    0.41747   0.43960   42.628
 3439.00    0.41528   0.41251   45.496
 3440.00    0.38432   0.38699   46.730
 3441.00    0.35986   0.36894   46.701
 3442.00    0.35715   0.36572   45.932
 3443.00    0.35984   0.37409   43.854
 3444.00    0.38135   0.38816   41.436
 3445.00    0.41475   0.40601   39.432
 3446.00    0.41713   0.43102   54.678
 3447.00    0.43685   0.45877   -1.000
 3448.00    0.45755   0.48224   -1.000
 3449.00    0.46656   0.49379   -1.000
 3450.00    0.45593   0.48578   -1.000
 3451.00    0.44631   0.46551   -1.000
 3452.00    0.44374   0.45003  316.912
 3453.00    0.43763   0.44959   -1.000
 3454.00    0.46245   0.46101  316.912
 3455.00    0.47249   0.47132  316.912
 3456.00    0.46861   0.46989  316.912
 3457.00    0.46578   0.45828   92.875
 3458.00    0.45547   0.44338   37.726
 3459.00    0.44605   0.42977   37.981
 3460.00    0.43518   0.41830   54.096
 3461.00    0.43015   0.41936   -1.000
 3462.00    0.42603   0.43561  316.912
 3463.00    0.44753   0.45200  316.912
 3464.00    0.48379   0.45633   -1.000
 3465.00    0.46557   0.45118   -1.000
 3466.00    0.46720   0.45251   -1.000
 3467.00    0.47338   0.46683  316.912
 3468.00    0.48456   0.48679  316.912
 3469.00    0.49774   0.50134  316.912
 3470.00    0.49348   0.50339   -1.000
 3471.00    0.50005   0.49200  316.912
 3472.00    0.48377   0.47055   -1.000
 3473.00    0.45580   0.44152   92.305
 3474.00    0.44011   0.41671   38.348
 3475.00    0.40596   0.40498   38.999
 3476.00    0.39276   0.41344   55.306
 3477.00    0.39684   0.43812   -1.000
 3478.00    0.40913   0.46365   -1.000
 3479.00    0.47048   0.48171   -1.000
 3480.00    0.50337   0.49090   -1.000
 3481.00    0.50093   0.48899   -1.000
 3482.00    0.50620   0.48042   -1.000
 3483.00    0.49451   0.47243   -1.000
 3484.00    0.50389   0.47238   -1.000
 3485.00    0.49214   0.48455  308.983
 3486.00    0.51337   0.49866   -1.000
 3487.00    0.54444   0.49942   -1.000
 3488.00    0.51190   0.48233   -1.000
 3489.00    0.48717   0.45676   -1.000
 3490.00    0.48398   0.43971   -1.000
 3491.00    0.46166   0.44159   -1.000
 3492.00    0.48736   0.45352   -1.000
 3493.00    0.50342   0.46212   -1.000
 3494.00    0.48717   0.46243   -1.000
 3495.00    0.45831   0.45401  316.912
 3496.00    0.45686   0.44719   -1.000
 3497.00    0.45088   0.45208  316.912
 3498.00    0.45112   0.46696   -1.000
 3499.00    0.47635   0.48307  298.858
 3500.00    0.51913   0.49076   -1.000
 3501.00    0.51212   0.49700   -1.000
 3502.00    0.51322   0.50624  293.797
 3503.00    0.51975   0.51151  300.647
 3504.00    0.52983   0.50760   -1.000
 3505.00    0.52840   0.49568   -1.000
 3506.00    0.50136   0.48548   -1.000
 3507.00    0.51226   0.48130   -1.000
 3508.00    0.50761   0.47872   -1.000
 3509.00    0.49846   0.47545   -1.000
 3510.00    0.50544   0.46981   -1.000
 3511.00    0.49676   0.46192   -1.000
 3512.00    0.50606   0.45069   -1.000
 3513.00    0.49053   0.43990   -1.000
 3514.00    0.45652   0.44180   -1.000
 3515.00    0.46177   0.46384  313.702
 3516.00    0.49909   0.49858  299.939
 3517.00    0.53402   0.52401  300.375
 3518.00    0.53725   0.52530   -1.000
 3519.00    0.55420   0.50437   -1.000
 3520.00    0.53199   0.47874   -1.000
 3521.00    0.48424   0.45792   -1.000
 3522.00    0.46029   0.44244   88.108
 3523.00    0.47792   0.42565   38.020
 3524.00    0.46513   0.40927   38.805
 3525.00    0.42083   0.40528   57.022
 3526.00    0.42145   0.42084  316.912
 3527.00    0.44563   0.44882  316.912
 3528.00    0.46330   0.47902   -1.000
 3529.00    0.46030   0.49943   -1.000
 3530.00    0.48864   0.50764   -1.000
 3531.00    0.52041   0.50607   -1.000
 3532.00    0.51985   0.49810   -1.000
 3533.00    0.51211   0.48954   -1.000
 3534.00    0.50169   0.48889   -1.000
 3535.00    0.53043   0.49618   -1.000
 3536.00    0.53470   0.51164   -1.000
 3537.00    0.52486   0.52974  297.236
 3538.00    0.53969   0.54277  295.774
 3539.00    0.54758   0.54670  299.544
 3540.00    0.53199   0.54006  304.134
 3541.00    0.52819   0.53195  305.014
 3542.00    0.53396   0.53373  302.009
 3543.00    0.53196   0.54402   -1.000
 3544.00    0.53159   0.55137   -1.000
 3545.00    0.53828   0.54950   -1.000
 3546.00    0.53592   0.54117  311.322
 3547.00    0.54927   0.53351   -1.000
 3548.00    0.54565   0.53200   -1.000
 3549.00    0.53594   0.53630  310.706
 3550.00    0.53492   0.54149  316.912
 3551.00    0.52986   0.53994   -1.000
 3552.00    0.52544   0.52685  316.912
 3553.00    0.52335   0.51012   -1.000
 3554.00    0.53089   0.50305   -1.000
 3555.00    0.54254   0.50823   -1.000
 3556.00    0.52449   0.51742  316.912
 3557.00    0.49821   0.52393   -1.000
 3558.00    0.49694   0.52508   -1.000
 3559.00    0.50074   0.52570   -1.000
 3560.00    0.49723   0.53094   -1.000
 3561.00    0.50692   0.53806   -1.000
 3562.00    0.50888   0.53671   -1.000
 3563.00    0.51650   0.51664   85.463
 3564.00    0.51301   0.48174   38.496
 3565.00    0.48426   0.45128   39.304
 3566.00    0.44129   0.44180   38.925
 3567.00    0.43990   0.44437   39.290
 3568.00    0.41469   0.44263   40.414
 3569.00    0.41039   0.43188   40.369
 3570.00    0.42422   0.42141   38.874
 3571.00    0.44181   0.42416   57.216
 3572.00    0.45406   0.43714   -1.000
 3573.00    0.45669   0.44997  316.912
 3574.00    0.46390   0.46028  316.912
 3575.00    0.45713   0.46818   -1.000
 3576.00    0.46267   0.47232  316.912
 3577.00    0.47422   0.46998   87.746
 3578.00    0.48053   0.45877   40.338
 3579.00    0.45597   0.43733   43.195
 3580.00    0.41459   0.41500   44.752
 3581.00    0.39400   0.40090   44.986
 3582.00    0.38912   0.40009   45.535
 3583.00    0.40580   0.40458   46.832
 3584.00    0.44004   0.40049   48.042
 3585.00    0.41885   0.38756   47.465
 3586.00    0.38179   0.37723   44.989
 3587.00    0.38405   0.38165   42.677
 3588.00    0.40761   0.40493   39.889
 3589.00    0.43768   0.43989   57.435
 3590.00    0.45975   0.47222   -1.000
 3591.00    0.48377   0.49090  316.912
 3592.00    0.50374   0.49354   -1.000
 3593.00    0.49800   0.49340  316.912
 3594.00    0.49120   0.50248   -1.000
 3595.00    0.53089   0.52176  299.195
 3596.00    0.56755   0.54029   -1.000
 3597.00    0.57524   0.55066   -1.000
 3598.00    0.58591   0.55710   -1.000
 3599.00    0.59050   0.56044   -1.000
 3600.00    0.59630   0.55334   -1.000
 3601.00    0.60092   0.53240   -1.000
 3602.00    0.56549   0.50851   -1.000
 3603.00    0.53257   0.49204   -1.000
 3604.00    0.51356   0.48818   -1.000
 3605.00    0.48937   0.48875  316.912
 3606.00    0.50670   0.48403   -1.000
 3607.00    0.53158   0.47195   -1.000
 3608.00    0.50317   0.45885   -1.000
 3609.00    0.47388   0.45563   -1.000
 3610.00    0.47589   0.46546   -1.000
 3611.00    0.49117   0.48224   -1.000
 3612.00    0.50053   0.49711  316.912
 3613.00    0.52044   0.51092   -1.000
 3614.00    0.53618   0.52724  306.135
 3615.00    0.52458   0.53861   -1.000
 3616.00    0.51015   0.52718   -1.000
 3617.00    0.48851   0.49439   81.555
 3618.00    0.46925   0.46186   57.884
 3619.00    0.45890   0.45562  316.912
 3620.00    0.46555   0.47706   -1.000
 3621.00    0.48525   0.50836   -1.000
 3622.00    0.53055   0.53211  293.118
 3623.00    0.56913   0.54744   -1.000
 3624.00    0.58423   0.56446   -1.000
 3625.00    0.60465   0.59055   -1.000
 3626.00    0.62533   0.61791  266.403
 3627.00    0.64302   0.63114  275.939
 3628.00    0.63596   0.61405   -1.000
 3629.00    0.60352   0.56734   -1.000
 3630.00    0.54201   0.51249   -1.000
 3631.00    0.48742   0.48299  316.912
 3632.00    0.48460   0.48594  316.912
 3633.00    0.50583   0.50667  316.912
 3634.00    0.50171   0.52325   -1.000
 3635.00    0.50441   0.53158   -1.000
 3636.00    0.53605   0.54158  288.402
 3637.00    0.56000   0.56145  276.797
 3638.00    0.59738   0.58368   -1.000
 3639.00    0.61457   0.59918   -1.000
 3640.00    0.59352   0.60237  281.866
 3641.00    0.59542   0.59098  293.779
 3642.00    0.59597   0.57078   -1.000
 3643.00    0.55765   0.55057  314.241
 3644.00    0.53595   0.53425  316.912
 3645.00    0.50443   0.52159   -1.000
 3646.00    0.49149   0.50964   -1.000
 3647.00    0.49473   0.50126  316.912
 3648.00    0.49963   0.50165  313.802
 3649.00    0.50449   0.51102  299.963
 3650.00    0.52566   0.52946  286.208
 3651.00    0.57308   0.55376   -1.000
 3652.00    0.59928   0.57880   -1.000
 3653.00    0.58608   0.59650   -1.000
 3654.00    0.59476   0.61012   -1.000
 3655.00    0.62006   0.62249  263.479
 3656.00    0.61314   0.63504   -1.000
 3657.00    0.60622   0.64445   -1.000
 3658.00    0.63024   0.64776   -1.000
 3659.00    0.64761   0.64834  258.899
 3660.00    0.64706   0.64436  261.776
 3661.00    0.63068   0.63300  265.295
 3662.00    0.60632   0.61828   -1.000
 3663.00    0.58306   0.60847   -1.000
 3664.00    0.59898   0.60820  266.685
 3665.00    0.63590   0.61329   -1.000
 3666.00    0.63737   0.61476   -1.000
 3667.00    0.62200   0.60798   -1.000
 3668.00    0.60530   0.59407   -1.000
 3669.00    0.57850   0.58452  275.906
 3670.00    0.58983   0.59005  267.485
 3671.00    0.60464   0.60590  264.057
 3672.00    0.62746   0.62049  263.549
 3673.00    0.65156   0.62691   -1.000
 3674.00    0.65837   0.62388   -1.000
 3675.00    0.65151   0.61182   -1.000
 3676.00    0.63657   0.59111   -1.000
 3677.00    0.62011   0.56712   -1.000
 3678.00    0.59378   0.54813   -1.000
 3679.00    0.56410   0.54152   -1.000
 3680.00    0.56724   0.54644   -1.000
 3681.00    0.56432   0.55811  278.597
 3682.00    0.54989   0.57026   -1.000
 3683.00    0.56903   0.57594  289.021
 3684.00    0.59687   0.56940   -1.000
 3685.00    0.58015   0.55095   -1.000
 3686.00    0.53697   0.53378  309.623
 3687.00    0.51548   0.53310   -1.000
 3688.00    0.54139   0.55206  275.688
 3689.00    0.57271   0.58364  261.772
 3690.00    0.58826   0.61204   -1.000
 3691.00    0.61639   0.62619  262.569
 3692.00    0.63182   0.62176  268.359
 3693.00    0.62240   0.60996   -1.000
 3694.00    0.61240   0.60342  268.083
 3695.00    0.62524   0.60392   -1.000
 3696.00    0.62408   0.60822   -1.000
 3697.00    0.61755   0.61832  251.832
 3698.00    0.66010   0.63636   -1.000
 3699.00    0.70322   0.65382   -1.000
 3700.00    0.71414   0.66122   -1.000
 3701.00    0.71964   0.64545   -1.000
 3702.00    0.66929   0.60519   -1.000
 3703.00    0.59636   0.55491   -1.000
 3704.00    0.56020   0.51454   -1.000
 3705.00    0.54530   0.49425   -1.000
 3706.00    0.52184   0.49438   -1.000
 3707.00    0.53515   0.50320   -1.000
 3708.00    0.54848   0.51533   -1.000
 3709.00    0.53677   0.52869  285.328
 3710.00    0.56112   0.54414   -1.000
 3711.00    0.59813   0.56455   -1.000
 3712.00    0.63783   0.59298   -1.000
 3713.00    0.68656   0.62286   -1.000
 3714.00    0.69609   0.64302   -1.000
 3715.00    0.67870   0.64761   -1.000
 3716.00    0.68952   0.63558   -1.000
 3717.00    0.68749   0.60483   -1.000
 3718.00    0.62496   0.55600   -1.000
 3719.00    0.54362   0.49491   -1.000
 3720.00    0.47752   0.44241   62.422
 3721.00    0.44455   0.42753   -1.000
 3722.00    0.46661   0.45431   -1.000
 3723.00    0.52612   0.50696   -1.000
 3724.00    0.58877   0.56002   -1.000
 3725.00    0.60438   0.58805   -1.000
 3726.00    0.60427   0.58934   -1.000
 3727.00    0.59195   0.58419  282.373
 3728.00    0.58759   0.58625  280.995
 3729.00    0.63618   0.58975   -1.000
 3730.00    0.65031   0.58129   -1.000
 3731.00    0.60664   0.54591   -1.000
 3732.00    0.56399   0.48669   -1.000
 3733.00    0.49504   0.42918   42.632
 3734.00    0.42712   0.38963   42.500
 3735.00    0.41977   0.38268   39.466
 3736.00    0.44296   0.41005   61.512
 3737.00    0.46476   0.46069  314.675
 3738.00    0.49145   0.51872   -1.000
 3739.00    0.54882   0.57141   -1.000
 3740.00    0.61417   0.60028   -1.000
 3741.00    0.62700   0.59948   -1.000
 3742.00    0.60178   0.57457   -1.000
 3743.00    0.59438   0.54163   -1.000
 3744.00    0.56655   0.51135   -1.000
 3745.00    0.51155   0.49079   75.320
 3746.00    0.49171   0.47229   39.010
 3747.00    0.45889   0.44762   40.605
 3748.00    0.42201   0.42387   67.803
 3749.00    0.42861   0.41618   -1.000
 3750.00    0.44119   0.43811  306.715
 3751.00    0.49684   0.48632  279.366
 3752.00    0.57659   0.54402   -1.000
 3753.00    0.61526   0.59909   -1.000
 3754.00    0.65218   0.63569   -1.000
 3755.00    0.67907   0.64072   -1.000
 3756.00    0.65704   0.61445   -1.000
 3757.00    0.59881   0.57246   -1.000
 3758.00    0.56059   0.54127   -1.000
 3759.00    0.55457   0.53694   -1.000
 3760.00    0.56458   0.55136   -1.000
 3761.00    0.59277   0.56868   -1.000
 3762.00    0.60574   0.57562   -1.000
 3763.00    0.60728   0.57545   -1.000
 3764.00    0.62403   0.57237   -1.000
 3765.00    0.62404   0.56556   -1.000
 3766.00    0.60163   0.55566   -1.000
 3767.00    0.59028   0.54493   -1.000
 3768.00    0.59249   0.53252   -1.000
 3769.00    0.59126   0.52147   -1.000
 3770.00    0.57810   0.52162   -1.000
 3771.00    0.58233   0.54186   -1.000
 3772.00    0.62239   0.57589   -1.000
 3773.00    0.65095   0.60856   -1.000
 3774.00    0.67479   0.62641   -1.000
 3775.00    0.67981   0.63272   -1.000
 3776.00    0.67187   0.63773   -1.000
 3777.00    0.67147   0.64904   -1.000
 3778.00    0.68819   0.66770   -1.000
 3779.00    0.70465   0.68779   -1.000
 3780.00    0.70806   0.70348  237.535
 3781.00    0.73430   0.70991   -1.000
 3782.00    0.75049   0.70968   -1.000
 3783.00    0.73032   0.70419   -1.000
 3784.00    0.71374   0.68824   -1.000
 3785.00    0.69170   0.66092   -1.000
 3786.00    0.64662   0.63109   -1.000
 3787.00    0.62436   0.60541   -1.000
 3788.00    0.61215   0.59220   -1.000
 3789.00    0.59940   0.59405  286.903
 3790.00    0.59265   0.60244  287.459
 3791.00    0.60297   0.60657  295.017
 3792.00    0.61464   0.59796   -1.000
 3793.00    0.59113   0.57530   -1.000
 3794.00    0.56477   0.54775   -1.000
 3795.00    0.55054   0.51862   -1.000
 3796.00    0.53744   0.48808   -1.000
 3797.00    0.52377   0.46059   -1.000
 3798.00    0.51639   0.45476   -1.000
 3799.00    0.52930   0.48586   -1.000
 3800.00    0.56094   0.54345   -1.000
 3801.00    0.60951   0.60019  267.960
 3802.00    0.64128   0.64143  264.208
 3803.00    0.65043   0.66033  265.414
 3804.00    0.67263   0.66221  272.450
 3805.00    0.66283   0.65176   -1.000
 3806.00    0.60975   0.64065   -1.000
 3807.00    0.59150   0.64223   -1.000
 3808.00    0.62289   0.65887   -1.000
 3809.00    0.65496   0.67921   -1.000
 3810.00    0.67661   0.68838  274.146
 3811.00    0.68502   0.67539   -1.000
 3812.00    0.64794   0.64363  308.034
 3813.00    0.60046   0.60771  316.912
 3814.00    0.57151   0.57967  316.912
 3815.00    0.55750   0.57254   -1.000
 3816.00    0.56435   0.58380   -1.000
 3817.00    0.57667   0.59553   -1.000
 3818.00    0.57688   0.58850  316.912
 3819.00    0.56960   0.56456   -1.000
 3820.00    0.52591   0.54703   -1.000
 3821.00    0.49976   0.54958   -1.000
 3822.00    0.53250   0.56177   -1.000
 3823.00    0.54088   0.55813   73.769
 3824.00    0.51226   0.53522   39.622
 3825.00    0.47921   0.51243   39.883
 3826.00    0.46681   0.49899   39.376
 3827.00    0.46834   0.49436   38.730
 3828.00    0.48138   0.49523   38.637
 3829.00    0.50088   0.49515   39.753
 3830.00    0.50350   0.48771   42.247
 3831.00    0.46429   0.46892   44.655
 3832.00    0.42724   0.43990   44.878
 3833.00    0.41859   0.40916   43.494
 3834.00    0.42095   0.39145   42.120
 3835.00    0.43144   0.39196   42.098
 3836.00    0.43732   0.40420   43.083
 3837.00    0.42293   0.41820   43.228
 3838.00    0.40209   0.43228   41.565
 3839.00    0.39935   0.45121   -1.000
 3840.00    0.41972   0.48143   -1.000
 3841.00    0.46753   0.52386   -1.000
 3842.00    0.53543   0.56894   -1.000
 3843.00    0.57806   0.60715   -1.000
 3844.00    0.59079   0.62847   -1.000
 3845.00    0.60702   0.63834   -1.000
 3846.00    0.61781   0.64670   -1.000
 3847.00    0.60776   0.65162   -1.000
 3848.00    0.58011   0.64705   -1.000
 3849.00    0.55910   0.63694   -1.000
 3850.00    0.57945   0.63394   -1.000
 3851.00    0.60346   0.64474   -1.000
 3852.00    0.61008   0.65953   -1.000
 3853.00    0.60736   0.66489   -1.000
 3854.00    0.58963   0.65452   -1.000
 3855.00    0.57746   0.63678   -1.000
 3856.00    0.55215   0.61817   -1.000
 3857.00    0.52476   0.59759   38.273
 3858.00    0.51500   0.57779   39.051
 3859.00    0.49144   0.57131   -1.000
 3860.00    0.47937   0.58585   -1.000
 3861.00    0.51551   0.61814   -1.000
 3862.00    0.58681   0.65145   -1.000
 3863.00    0.62834   0.66765   -1.000
 3864.00    0.64098   0.66541   -1.000
 3865.00    0.64165   0.65919   -1.000
 3866.00    0.61639   0.65738   -1.000
 3867.00    0.59917   0.65852   -1.000
 3868.00    0.58846   0.65671   -1.000
 3869.00    0.55765   0.64504   -1.000
 3870.00    0.52467   0.62465   -1.000
 3871.00    0.52666   0.60578   -1.000
 3872.00    0.53374   0.59794   -1.000
 3873.00    0.54773   0.60852   -1.000
 3874.00    0.59125   0.63024   -1.000
 3875.00    0.61930   0.64352   -1.000
 3876.00    0.61518   0.63245   -1.000
 3877.00    0.57981   0.60797   -1.000
 3878.00    0.55011   0.59125   -1.000
 3879.00    0.55897   0.58984   -1.000
 3880.00    0.55928   0.59789   -1.000
 3881.00    0.54264   0.60257   -1.000
 3882.00    0.54328   0.60178   -1.000
 3883.00    0.56163   0.59976   -1.000
 3884.00    0.59063   0.58605  311.996
 3885.00    0.59477   0.55302   -1.000
 3886.00    0.55814   0.51123   -1.000
 3887.00    0.53471   0.47713   -1.000
 3888.00    0.53900   0.46809   -1.000
 3889.00    0.55168   0.49106   -1.000
 3890.00    0.59177   0.53788   -1.000
 3891.00    0.63944   0.59019   -1.000
 3892.00    0.67068   0.62586   -1.000
 3893.00    0.68768   0.63563   -1.000
 3894.00    0.69135   0.63550   -1.000
 3895.00    0.69876   0.64147   -1.000
 3896.00    0.71279   0.65403   -1.000
 3897.00    0.73583   0.66573   -1.000
 3898.00    0.73784   0.66939   -1.000
 3899.00    0.71448   0.66938   -1.000
 3900.00    0.71946   0.67435   -1.000
 3901.00    0.73422   0.67899   -1.000
 3902.00    0.71609   0.67568   -1.000
 3903.00    0.68180   0.66405   -1.000
 3904.00    0.66143   0.65011   -1.000
 3905.00    0.65784   0.64702   -1.000
 3906.00    0.67462   0.66103   -1.000
 3907.00    0.70942   0.69065   -1.000
 3908.00    0.73191   0.72335  230.994
 3909.00    0.74060   0.74703  228.888
 3910.00    0.77274   0.75914   -1.000
 3911.00    0.80319   0.76595   -1.000
 3912.00    0.79426   0.76862   -1.000
 3913.00    0.77646   0.76384   -1.000
 3914.00    0.75361   0.75224  241.181
 3915.00    0.74680   0.74121  244.293
 3916.00    0.76467   0.73237   -1.000
 3917.00    0.77744   0.72060   -1.000
 3918.00    0.75639   0.70214   -1.000
 3919.00    0.73277   0.68049   -1.000
 3920.00    0.70347   0.66269   -1.000
 3921.00    0.65971   0.65450  277.306
 3922.00    0.66164   0.65928  275.990
 3923.00    0.68636   0.66804   -1.000
 3924.00    0.66847   0.66806  305.509
 3925.00    0.63307   0.65243   -1.000
 3926.00    0.59932   0.61874   72.630
 3927.00    0.55658   0.57312   44.948
 3928.00    0.50272   0.51985   52.653
 3929.00    0.42429   0.46291   61.952
 3930.00    0.34873   0.39756   -1.000
 3931.00    0.29151   0.32402   82.453
 3932.00    0.25298   0.26036   84.086
 3933.00    0.22612   0.22681   76.222
 3934.00    0.23175   0.23865   64.303
 3935.00    0.27675   0.29369   52.936
 3936.00    0.32587   0.37111   44.049
 3937.00    0.37389   0.45031   -1.000
 3938.00    0.43782   0.52327   -1.000
 3939.00    0.51286   0.57702   -1.000
 3940.00    0.56337   0.61248   -1.000
 3941.00    0.58733   0.63031   -1.000
 3942.00    0.60386   0.63448   -1.000
 3943.00    0.60175   0.63599   -1.000
 3944.00    0.60699   0.64872   -1.000
 3945.00    0.64663   0.67298   -1.000
 3946.00    0.68724   0.69637  254.828
 3947.00    0.70457   0.70938  248.870
 3948.00    0.72847   0.71537   -1.000
 3949.00    0.74500   0.72342   -1.000
 3950.00    0.75377   0.73077   -1.000
 3951.00    0.77708   0.73122   -1.000
 3952.00    0.79676   0.73340   -1.000
 3953.00    0.79591   0.74201   -1.000
 3954.00    0.77771   0.74677   -1.000
 3955.00    0.77631   0.74073   -1.000
 3956.00    0.77380   0.72851   -1.000
 3957.00    0.74820   0.72105   -1.000
 3958.00    0.73631   0.71913   -1.000
 3959.00    0.73781   0.70257   -1.000
 3960.00    0.70239   0.66235   -1.000
 3961.00    0.63405   0.61574   -1.000
 3962.00    0.58421   0.57503   67.271
 3963.00    0.54757   0.54408   42.415
 3964.00    0.49731   0.50578   51.057
 3965.00    0.43112   0.44276   62.778
 3966.00    0.34960   0.36305   72.969
 3967.00    0.28611   0.28799   73.375
 3968.00    0.27098   0.24823   63.558
 3969.00    0.28097   0.25764   52.243
 3970.00    0.30424   0.31098   43.374
 3971.00    0.35355   0.38707   75.797
 3972.00    0.44494   0.46600   -1.000
 3973.00    0.53719   0.53433  288.517
 3974.00    0.59489   0.59368  263.320
 3975.00    0.65815   0.64299   -1.000
 3976.00    0.71649   0.68583   -1.000
 3977.00    0.74002   0.72473   -1.000
 3978.00    0.78727   0.75942   -1.000
 3979.00    0.83670   0.78492   -1.000
 3980.00    0.84698   0.79342   -1.000
 3981.00    0.83671   0.79127   -1.000
 3982.00    0.82723   0.78864   -1.000
 3983.00    0.84009   0.79349   -1.000
 3984.00    0.86156   0.80714   -1.000
 3985.00    0.87785   0.82317   -1.000
 3986.00    0.88720   0.83990   -1.000
 3987.00    0.89371   0.85567   -1.000
 3988.00    0.90355   0.86403   -1.000
 3989.00    0.92026   0.86537   -1.000
 3990.00    0.92570   0.86779   -1.000
 3991.00    0.91849   0.87651   -1.000
 3992.00    0.93014   0.88820   -1.000
 3993.00    0.93019   0.89362   -1.000
 3994.00    0.91031   0.88670   -1.000
 3995.00    0.88090   0.86909  204.512
 3996.00    0.86340   0.85086  202.622
 3997.00    0.86681   0.84635   -1.000
 3998.00    0.88104   0.85926   -1.000
 3999.00    0.92333   0.88301   -1.000
 4000.00    0.95252   0.90554   -1.000
 4001.00    0.95606   0.92040   -1.000
 4002.00    0.97622   0.92126   -1.000
 4003.00    0.97362   0.90264   -1.000
 4004.00    0.93693   0.86866   -1.000
 4005.00    0.89394   0.84392   -1.000
 4006.00    0.86718   0.84885   -1.000
 4007.00    0.88050   0.87777  182.979
 4008.00    0.93715   0.91005   -1.000
 4009.00    0.98412   0.92918   -1.000
 4010.00    1.00086   0.93776   -1.000
 4011.00    1.00323   0.94108   -1.000
 4012.00    0.99174   0.94246   -1.000
 4013.00    0.97026   0.94473   -1.000
 4014.00    1.00000   0.94891   -1.000
 4015.00    1.02135   0.95193   -1.000
 4016.00    1.00388   0.95112   -1.000
 4017.00    0.99594   0.95165   -1.000
 4018.00    0.98775   0.95774   -1.000
 4019.00    0.99938   0.96487   -1.000
 4020.00    1.01449   0.96805   -1.000
 4021.00    1.02372   0.96442   -1.000
 4022.00    0.99795   0.95860   -1.000
 4023.00    0.98745   0.95268   -1.000
 4024.00    1.00732   0.94975   -1.000
 4025.00    1.00707   0.95656   -1.000
 4026.00    1.00358   0.97462   -1.000
 4027.00    1.03677   0.99084   -1.000
 4028.00    1.05424   0.98449   -1.000
 4029.00    1.00908   0.95058   -1.000
 4030.00    0.96160   0.90452   -1.000
 4031.00    0.91908   0.87009   -1.000
 4032.00    0.89320   0.85594   -1.000
 4033.00    0.89449   0.86281   -1.000
 4034.00    0.92835   0.88891   -1.000
 4035.00    0.97898   0.92948   -1.000
 4036.00    1.02342   0.97397   -1.000
 4037.00    1.05755   1.00806   -1.000
 4038.00    1.07085   1.01662   -1.000
 4039.00    1.05889   1.00579   -1.000
 4040.00    1.04235   0.99131   -1.000
 4041.00    1.02742   0.98113   -1.000
 4042.00    1.02678   0.96267   -1.000
 4043.00    0.99202   0.91903   -1.000
 4044.00    0.90071   0.86022   -1.000
 4045.00    0.82167   0.82423  198.818
 4046.00    0.84261   0.83927  183.619
 4047.00    0.93630   0.89310   -1.000
 4048.00    1.00038   0.94999   -1.000
 4049.00    1.01748   0.98796   -1.000
 4050.00    1.04509   1.00093   -1.000
 4051.00    1.04815   0.99842   -1.000
 4052.00    1.01021   0.98513   -1.000
 4053.00    0.99093   0.96831   -1.000
 4054.00    0.97529   0.95463   -1.000
 4055.00    0.96020   0.94410   -1.000
 4056.00    0.95256   0.93484   -1.000
 4057.00    0.95438   0.93145   -1.000
 4058.00    0.96067   0.94265   -1.000
 4059.00    0.98406   0.96315   -1.000
 4060.00    1.00898   0.97076   -1.000
 4061.00    1.00135   0.94560   -1.000
 4062.00    0.94857   0.89720   -1.000
 4063.00    0.90268   0.86282   -1.000
 4064.00    0.88533   0.85878   -1.000
 4065.00    0.91065   0.87691   -1.000
 4066.00    0.94739   0.90216   -1.000
 4067.00    0.96238   0.92435   -1.000
 4068.00    1.00796   0.93884   -1.000
 4069.00    1.04744   0.93718   -1.000
 4070.00    1.01104   0.91439   -1.000
 4071.00    0.95482   0.89048   -1.000
 4072.00    0.94722   0.89142   -1.000
 4073.00    0.96331   0.90989   -1.000
 4074.00    0.98722   0.91858   -1.000
 4075.00    0.98131   0.89971   -1.000
 4076.00    0.93823   0.86767   -1.000
 4077.00    0.89336   0.85123   -1.000
 4078.00    0.88155   0.86531  184.027
 4079.00    0.92410   0.90681  175.588
 4080.00    0.98709   0.95088   -1.000
 4081.00    1.04344   0.97444   -1.000
 4082.00    1.05072   0.96969   -1.000
 4083.00    1.01147   0.95079   -1.000
 4084.00    0.98795   0.93900   -1.000
 4085.00    0.99876   0.94746   -1.000
 4086.00    1.02590   0.97337   -1.000
 4087.00    1.06471   1.00182   -1.000
 4088.00    1.08459   1.01910   -1.000
 4089.00    1.08305   1.01786   -1.000
 4090.00    1.08060   1.00507   -1.000
 4091.00    1.06765   0.99268   -1.000
 4092.00    1.03994   0.98467   -1.000
 4093.00    1.03888   0.97301   -1.000
 4094.00    1.02804   0.95256   -1.000
 4095.00    0.99261   0.92362   -1.000
 4096.00    0.96363   0.89574   -1.000
 4097.00    0.96700   0.87216   -1.000
 4098.00    0.95962   0.84176   -1.000
 4099.00    0.90275   0.79259   -1.000
 4100.00    0.81332   0.73344   -1.000
 4101.00    0.75608   0.69745   -1.000
 4102.00    0.77679   0.70953   -1.000
 4103.00    0.83324   0.76656   -1.000
 4104.00    0.88853   0.83524   -1.000
 4105.00    0.94413   0.88996   -1.000
 4106.00    0.98455   0.92109   -1.000
 4107.00    1.00953   0.93562   -1.000
 4108.00    1.01303   0.93838   -1.000
 4109.00    1.00643   0.93619   -1.000
 4110.00    0.98442   0.93762   -1.000
 4111.00    0.96420   0.94592  181.898
 4112.00    0.97925   0.96030  178.984
 4113.00    1.01514   0.97808   -1.000
 4114.00    1.03784   0.99551   -1.000
 4115.00    1.05722   1.00570   -1.000
 4116.00    1.04836   1.00144   -1.000
 4117.00    1.02866   0.98588   -1.000
 4118.00    1.00900   0.96840   -1.000
 4119.00    0.98773   0.95941   -1.000
 4120.00    0.99166   0.96355   -1.000
 4121.00    0.99669   0.97270   -1.000
 4122.00    0.99528   0.98093  181.077
 4123.00    1.01608   0.98834   -1.000
 4124.00    1.02679   0.99619   -1.000
 4125.00    1.02333   1.00100   -1.000
 4126.00    1.00397   0.99751  186.628
 4127.00    1.00327   0.98919  187.766
 4128.00    0.99319   0.98351  189.578
 4129.00    0.98718   0.97741  194.200
 4130.00    0.98069   0.96125   -1.000
 4131.00    0.94933   0.93671  203.193
 4132.00    0.92884   0.91853  199.119
 4133.00    0.92253   0.92353  190.223
 4134.00    0.93259   0.95000   -1.000
 4135.00    0.97446   0.98344  178.639
 4136.00    1.00957   1.01303  175.851
 4137.00    1.03098   1.03423  174.373
 4138.00    1.05189   1.04808  176.345
 4139.00    1.05378   1.05049  183.514
 4140.00    1.04447   1.03076  196.894
 4141.00    1.01748   0.98876   -1.000
 4142.00    0.95809   0.94182   -1.000
 4143.00    0.90696   0.91714  198.020
 4144.00    0.90637   0.92854   -1.000
 4145.00    0.96495   0.96345  185.049
 4146.00    1.01008   0.99480  186.575
 4147.00    1.01979   1.00488  191.273
 4148.00    1.02995   1.00149   -1.000
 4149.00    1.01451   0.99752  194.798
 4150.00    0.99830   0.99741  193.506
 4151.00    0.99323   0.99656  194.224
 4152.00    0.97998   0.99006  196.965
 4153.00    0.96642   0.97925  195.055
 4154.00    0.94863   0.97086   -1.000
 4155.00    0.95045   0.97243   -1.000
 4156.00    0.95850   0.98480   -1.000
 4157.00    1.01914   1.00294  186.575
 4158.00    1.25139   1.02286   -1.000
 4159.00    1.27453   1.03900   -1.000
 4160.00    0.88896   1.05025   -1.000
 4161.00    0.81953   1.05888   -1.000
 4162.00    1.04810   1.06594   -1.000
 4163.00    1.10884   1.06996   -1.000
 4164.00    1.07158   1.06619  187.906
 4165.00    1.02680   1.05172   -1.000
 4166.00    0.99107   1.03312   -1.000
 4167.00    0.98296   1.02404   -1.000
 4168.00    0.98825   1.02499   -1.000
 4169.00    1.00921   1.02594   -1.000
 4170.00    1.01978   1.01112  208.719
 4171.00    0.98476   0.97907  213.796
 4172.00    0.92474   0.95130   -1.000
 4173.00    0.89501   0.94524   -1.000
 4174.00    0.91186   0.96072   -1.000
 4175.00    0.94627   0.98089   -1.000
 4176.00    0.95852   0.99176   -1.000
 4177.00    0.95426   1.00012   -1.000
 4178.00    0.94556   1.01133   -1.000
 4179.00    0.95465   1.02137   -1.000
 4180.00    0.96387   1.02261   -1.000
 4181.00    0.99166   1.01406   -1.000
 4182.00    0.99691   1.01345   -1.000
 4183.00    0.99676   1.02690   -1.000
 4184.00    1.01920   1.03701   -1.000
 4185.00    1.00947   1.03079   -1.000
 4186.00    0.97890   1.01086   -1.000
 4187.00    0.97369   0.99645   -1.000
 4188.00    0.95916   0.99973   -1.000
 4189.00    0.98179   1.01268   -1.000
 4190.00    1.00523   1.02482   -1.000
 4191.00    0.99922   1.03458   -1.000
 4192.00    1.01078   1.04446   -1.000
 4193.00    1.02137   1.05053   -1.000
 4194.00    1.01117   1.04107   -1.000
 4195.00    0.98215   1.01380   -1.000
 4196.00    0.95992   0.98301   -1.000
 4197.00    0.95451   0.96025  204.501
 4198.00    0.95994   0.94941  201.522
 4199.00    0.95763   0.94757  200.014
 4200.00    0.94686   0.95276  199.029
 4201.00    0.94561   0.95947  196.508
 4202.00    0.95744   0.96950  194.481
 4203.00    0.97239   0.98942   -1.000
 4204.00    0.98476   1.01554   -1.000
 4205.00    1.01151   1.03839   -1.000
 4206.00    1.04691   1.05558  181.221
 4207.00    1.05563   1.06658  181.447
 4208.00    1.06780   1.06866  181.485
 4209.00    1.06759   1.06551  180.488
 4210.00    1.03380   1.06513   -1.000
 4211.00    1.01990   1.07157   -1.000
 4212.00    1.03750   1.07392   -1.000
 4213.00    1.02924   1.05521   -1.000
 4214.00    0.98693   1.02503   -1.000
 4215.00    0.96412   1.00712   -1.000
 4216.00    0.98119   1.01528   -1.000
 4217.00    1.01416   1.04679   -1.000
 4218.00    1.06451   1.07974   -1.000
 4219.00    1.09334   1.10140  168.113
 4220.00    1.12426   1.10625  173.225
 4221.00    1.13268   1.09295   -1.000
 4222.00    1.10467   1.05822   -1.000
 4223.00    1.05583   0.99762   -1.000
 4224.00    0.95202   0.91901   -1.000
 4225.00    0.84832   0.85089  243.535
 4226.00    0.77975   0.82440   -1.000
 4227.00    0.80507   0.86198   -1.000
 4228.00    0.90794   0.94569   -1.000
 4229.00    1.00326   1.02846   -1.000
 4230.00    1.04725   1.06982   -1.000
 4231.00    1.07913   1.07418  180.877
 4232.00    1.07206   1.05967  183.681
 4233.00    1.04725   1.03848  187.112
 4234.00    1.04317   1.02072   -1.000
 4235.00    1.03027   1.01317   -1.000
 4236.00    1.00873   1.01227  187.520
 4237.00    0.99493   1.01965   -1.000
 4238.00    0.99818   1.03544   -1.000
 4239.00    1.02006   1.05423   -1.000
 4240.00    1.05362   1.07449   -1.000
 4241.00    1.06509   1.09351   -1.000
 4242.00    1.06715   1.10799   -1.000
 4243.00    1.10665   1.11963  171.099
 4244.00    1.12560   1.12582  177.075
 4245.00    1.10855   1.11606  184.450
 4246.00    1.08779   1.08618  189.911
 4247.00    1.04805   1.04851  192.631
 4248.00    1.01356   1.01784  193.005
 4249.00    0.99241   1.00474  189.103
 4250.00    0.98060   1.01125   -1.000
 4251.00    1.01886   1.02971  182.640
 4252.00    1.05372   1.04001  186.468
 4253.00    1.04000   1.03472  186.560
 4254.00    1.01866   1.02799  180.634
 4255.00    1.00389   1.04019   -1.000
 4256.00    1.05226   1.06597  181.458
 4257.00    1.08836   1.07309  190.690
 4258.00    1.05284   1.04791  197.612
 4259.00    0.99106   1.01231   -1.000
 4260.00    0.94551   1.00072   -1.000
 4261.00    0.96508   1.02838   -1.000
 4262.00    1.03191   1.07745   -1.000
 4263.00    1.08861   1.12087   -1.000
 4264.00    1.12217   1.14123   -1.000
 4265.00    1.12198   1.14116   -1.000
 4266.00    1.12229   1.12965  178.787
 4267.00    1.09714   1.10681  185.199
 4268.00    1.07576   1.07134  195.812
 4269.00    1.04181   1.02453   -1.000
 4270.00    0.98599   0.97504  213.954
 4271.00    0.91811   0.94152   -1.000
 4272.00    0.90556   0.93169   -1.000
 4273.00    0.93168   0.94521  197.900
 4274.00    0.93998   0.97418   -1.000
 4275.00    0.97857   1.01458   -1.000
 4276.00    1.03790   1.06353   -1.000
 4277.00    1.09386   1.10283  179.134
 4278.00    1.09594   1.11072  186.121
 4279.00    1.05539   1.09232   -1.000
 4280.00    1.02715   1.06816   -1.000
 4281.00    1.02790   1.06008   -1.000
 4282.00    1.04581   1.06547   -1.000
 4283.00    1.05425   1.06823  190.349
 4284.00    1.04786   1.06201  195.484
 4285.00    1.01982   1.04878   -1.000
 4286.00    1.00017   1.03169   -1.000
 4287.00    0.98000   1.00804   -1.000
 4288.00    0.94864   0.97527   -1.000
 4289.00    0.90491   0.94580   -1.000
 4290.00    0.88560   0.94355   -1.000
 4291.00    0.91303   0.97112   -1.000
 4292.00    0.97573   1.00643   -1.000
 4293.00    1.02210   1.02407  194.370
 4294.00    1.01639   1.02129  198.469
 4295.00    0.99130   1.00891   -1.000
 4296.00    0.96421   0.98557   -1.000
 4297.00    0.91653   0.94606   -1.000
 4298.00    0.86374   0.89803   -1.000
 4299.00    0.80787   0.85714   -1.000
 4300.00    0.78562   0.83915   -1.000
 4301.00    0.79931   0.84249   -1.000
 4302.00    0.82568   0.85597   -1.000
 4303.00    0.82923   0.86986   -1.000
 4304.00    0.83761   0.87761   -1.000
 4305.00    0.83763   0.86940   -1.000
 4306.00    0.81486   0.84547   -1.000
 4307.00    0.78756   0.81994   -1.000
 4308.00    0.76457   0.81048   -1.000
 4309.00    0.76100   0.82625   -1.000
 4310.00    0.79998   0.86051   -1.000
 4311.00    0.84677   0.90199   -1.000
 4312.00    0.87011   0.94401   -1.000
 4313.00    0.91446   0.99411   -1.000
 4314.00    0.99502   1.05618   -1.000
 4315.00    1.10022   1.12662   -1.000
 4316.00    1.17896   1.19184  156.943
 4317.00    1.20172   1.22676   -1.000
 4318.00    1.21907   1.22946  162.094
 4319.00    1.21483   1.21383  167.085
 4320.00    1.20029   1.18894  174.609
 4321.00    1.16552   1.15063  186.292
 4322.00    1.10592   1.09388  202.321
 4323.00    1.03215   1.02475  213.612
 4324.00    0.93913   0.97008   -1.000
 4325.00    0.89107   0.96132   -1.000
 4326.00    0.93425   1.00732   -1.000
 4327.00    1.05042   1.08370   -1.000
 4328.00    1.14538   1.15047  164.698
 4329.00    1.17308   1.17968  164.314
 4330.00    1.17153   1.18346  161.944
 4331.00    1.17234   1.18429  159.915
 4332.00    1.17257   1.19188   -1.000
 4333.00    1.18466   1.19772  161.101
 4334.00    1.19559   1.18881  169.307
 4335.00    1.17856   1.15389   -1.000
 4336.00    1.14640   1.08814   -1.000
 4337.00    1.06384   0.99685   -1.000
 4338.00    0.96036   0.90433   -1.000
 4339.00    0.88968   0.84736   -1.000
 4340.00    0.85515   0.84396  196.746
 4341.00    0.89025   0.89701  182.572
 4342.00    0.97179   0.98214  175.415
 4343.00    1.04114   1.05981   -1.000
 4344.00    1.08976   1.11042   -1.000
 4345.00    1.11774   1.14398   -1.000
 4346.00    1.14954   1.16917   -1.000
 4347.00    1.18356   1.19234  162.252
 4348.00    1.20628   1.20545  168.887
 4349.00    1.19776   1.18892  180.865
 4350.00    1.13843   1.14285  186.594
 4351.00    1.06463   1.09646   -1.000
 4352.00    1.03919   1.08143   -1.000
 4353.00    1.06186   1.10748   -1.000
 4354.00    1.10638   1.15110   -1.000
 4355.00    1.13989   1.18572   -1.000
 4356.00    1.16934   1.20177   -1.000
 4357.00    1.17155   1.20303   -1.000
 4358.00    1.16349   1.19579   -1.000
 4359.00    1.16200   1.19382   -1.000
 4360.00    1.18383   1.20657   -1.000
 4361.00    1.21399   1.22806  157.632
 4362.00    1.23145   1.24782   -1.000
 4363.00    1.22486   1.26071   -1.000
 4364.00    1.22635   1.26694   -1.000
 4365.00    1.24902   1.26016  164.793
 4366.00    1.22931   1.23666  167.779
 4367.00    1.17052   1.21000   -1.000
 4368.00    1.13936   1.19501   -1.000
 4369.00    1.16170   1.18957   -1.000
 4370.00    1.17342   1.18632  166.540
 4371.00    1.18426   1.17622  172.009
 4372.00    1.16482   1.15454  179.043
 4373.00    1.13154   1.12408  181.014
 4374.00    1.09630   1.09893  175.340
 4375.00    1.06394   1.10147   -1.000
 4376.00    1.08304   1.13547   -1.000
 4377.00    1.14277   1.17882   -1.000
 4378.00    1.17012   1.20226   -1.000
 4379.00    1.20344   1.19670  171.444
 4380.00    1.19217   1.16093   -1.000
 4381.00    1.14839   1.09452   -1.000
 4382.00    1.05062   1.01510   -1.000
 4383.00    0.95252   0.96218  201.978
 4384.00    0.91388   0.96561   -1.000
 4385.00    0.97325   1.02087   -1.000
 4386.00    1.04793   1.08667   -1.000
 4387.00    1.10125   1.12388   -1.000
 4388.00    1.14318   1.13289  175.089
 4389.00    1.13547   1.13233  172.663
 4390.00    1.13890   1.13672  168.825
 4391.00    1.14500   1.14889  168.689
 4392.00    1.17112   1.16140  171.881
 4393.00    1.15572   1.16412  172.433
 4394.00    1.12673   1.16128   -1.000
 4395.00    1.13165   1.17259   -1.000
 4396.00    1.17517   1.19918   -1.000
 4397.00    1.21720   1.21757  166.249
 4398.00    1.20784   1.21198  171.597
 4399.00    1.17552   1.19039  171.337
 4400.00    1.15152   1.17325   -1.000
 4401.00    1.14945   1.16494  171.975
 4402.00    1.15723   1.15197  181.245
 4403.00    1.14123   1.12270   -1.000
 4404.00    1.06966   1.09096   -1.000
 4405.00    1.05260   1.08357   -1.000
 4406.00    1.07325   1.10350   -1.000
 4407.00    1.09867   1.13170   -1.000
 4408.00    1.12919   1.16122   -1.000
 4409.00    1.17993   1.20043   -1.000
 4410.00    1.21890   1.24678   -1.000
 4411.00    1.24327   1.27521   -1.000
 4412.00    1.27627   1.26704  164.727
 4413.00    1.24068   1.22994  171.702
 4414.00    1.16930   1.18376  172.402
 4415.00    1.12931   1.15480   -1.000
 4416.00    1.12000   1.16588   -1.000
 4417.00    1.14584   1.20841   -1.000
 4418.00    1.20928   1.25626   -1.000
 4419.00    1.24988   1.28449   -1.000
 4420.00    1.25163   1.28464   -1.000
 4421.00    1.23889   1.26448   -1.000
 4422.00    1.19389   1.24493   -1.000
 4423.00    1.18723   1.23812   -1.000
 4424.00    1.19725   1.23954   -1.000
 4425.00    1.18547   1.23948   -1.000
 4426.00    1.18175   1.23882   -1.000
 4427.00    1.19734   1.24429   -1.000
 4428.00    1.21820   1.25225   -1.000
 4429.00    1.22488   1.25634   -1.000
 4430.00    1.21634   1.25716   -1.000
 4431.00    1.21274   1.25794   -1.000
 4432.00    1.21484   1.25073   -1.000
 4433.00    1.19299   1.22502   -1.000
 4434.00    1.14625   1.19411   -1.000
 4435.00    1.11841   1.18678   -1.000
 4436.00    1.16190   1.22072   -1.000
 4437.00    1.22869   1.27781   -1.000
 4438.00    1.28119   1.31977   -1.000
 4439.00    1.30075   1.32527   -1.000
 4440.00    1.26466   1.29377   -1.000
 4441.00    1.22340   1.24933   -1.000
 4442.00    1.19697   1.22090   -1.000
 4443.00    1.19293   1.22936   -1.000
 4444.00    1.20425   1.26598   -1.000
 4445.00    1.24400   1.30531   -1.000
 4446.00    1.28215   1.32806   -1.000
 4447.00    1.30683   1.33293   -1.000
 4448.00    1.30600   1.33272   -1.000
 4449.00    1.28745   1.33166   -1.000
 4450.00    1.29197   1.32671   -1.000
 4451.00    1.29619   1.31626   -1.000
 4452.00    1.26989   1.29568   -1.000
 4453.00    1.22259   1.25872   -1.000
 4454.00    1.18804   1.21695   -1.000
 4455.00    1.16314   1.19580   -1.000
 4456.00    1.17698   1.20029   -1.000
 4457.00    1.19841   1.21561   -1.000
 4458.00    1.18970   1.22320   -1.000
 4459.00    1.18121   1.22130   -1.000
 4460.00    1.16633   1.21944   -1.000
 4461.00    1.17022   1.22655   -1.000
 4462.00    1.19517   1.24758   -1.000
 4463.00    1.23062   1.27622   -1.000
 4464.00    1.24300   1.29800   -1.000
 4465.00    1.25360   1.30424   -1.000
 4466.00    1.27419   1.29730   -1.000
 4467.00    1.24925   1.28555   -1.000
 4468.00    1.23809   1.27677   -1.000
 4469.00    1.22391   1.27797   -1.000
 4470.00    1.23810   1.29736   -1.000
 4471.00    1.27694   1.33099   -1.000
 4472.00    1.33022   1.36397   -1.000
 4473.00    1.33857   1.38586   -1.000
 4474.00    1.35205   1.39352   -1.000
 4475.00    1.37729   1.39768   -1.000
 4476.00    1.38133   1.40446   -1.000
 4477.00    1.39282   1.40621  149.820
 4478.00    1.38672   1.38897  156.450
 4479.00    1.33692   1.34983  161.510
 4480.00    1.28010   1.30870   -1.000
 4481.00    1.24477   1.29078   -1.000
 4482.00    1.26048   1.30702   -1.000
 4483.00    1.30976   1.34932   -1.000
 4484.00    1.36590   1.39454   -1.000
 4485.00    1.38716   1.42262   -1.000
 4486.00    1.39001   1.42283   -1.000
 4487.00    1.36528   1.39846   -1.000
 4488.00    1.31896   1.36496   -1.000
 4489.00    1.28528   1.34573   -1.000
 4490.00    1.27923   1.35124   -1.000
 4491.00    1.31618   1.37156   -1.000
 4492.00    1.34549   1.38012   -1.000
 4493.00    1.33407   1.36455   -1.000
 4494.00    1.31819   1.34119   -1.000
 4495.00    1.29575   1.33166   -1.000
 4496.00    1.30924   1.34461   -1.000
 4497.00    1.33493   1.36942   -1.000
 4498.00    1.35411   1.39019   -1.000
 4499.00    1.35460   1.39698   -1.000
 4500.00    1.33771   1.39333   -1.000
 4501.00    1.33114   1.39647   -1.000
 4502.00    1.35431   1.41519   -1.000
 4503.00    1.40886   1.44369   -1.000
 4504.00    1.45342   1.46754   -1.000
 4505.00    1.45772   1.47409   -1.000
 4506.00    1.43415   1.46550   -1.000
 4507.00    1.42175   1.45464   -1.000
 4508.00    1.42771   1.45139   -1.000
 4509.00    1.43093   1.45497   -1.000
 4510.00    1.44550   1.45727  144.443
 4511.00    1.44562   1.44974  147.113
 4512.00    1.39449   1.43424   -1.000
 4513.00    1.37896   1.41940   -1.000
 4514.00    1.38211   1.41008   -1.000
 4515.00    1.37738   1.40676   -1.000
 4516.00    1.37773   1.40553   -1.000
 4517.00    1.35133   1.40194   -1.000
 4518.00    1.34998   1.40027   -1.000
 4519.00    1.37712   1.40831   -1.000
 4520.00    1.40361   1.42143   -1.000
 4521.00    1.41790   1.42643  151.247
 4522.00    1.38771   1.41590   -1.000
 4523.00    1.34458   1.39552   -1.000
 4524.00    1.33999   1.37515   -1.000
 4525.00    1.33284   1.35315   -1.000
 4526.00    1.28799   1.32418   -1.000
 4527.00    1.24601   1.29272   -1.000
 4528.00    1.22226   1.27246   -1.000
 4529.00    1.23488   1.27275   -1.000
 4530.00    1.26020   1.28768   -1.000
 4531.00    1.29490   1.30423  162.656
 4532.00    1.29422   1.30785  168.095
 4533.00    1.27163   1.29550   -1.000
 4534.00    1.25313   1.28283   -1.000
 4535.00    1.25421   1.29190   -1.000
 4536.00    1.29572   1.33057   -1.000
 4537.00    1.36493   1.38337   -1.000
 4538.00    1.40167   1.42228   -1.000
 4539.00    1.41297   1.43207   -1.000
 4540.00    1.38839   1.42350   -1.000
 4541.00    1.37009   1.41557   -1.000
 4542.00    1.37787   1.41610   -1.000
 4543.00    1.37074   1.41803   -2.000
 4544.00    1.36637   1.41220   -2.000
 4545.00    1.39427   1.40073   -2.000
 4546.00    1.21096   1.39082   -1.000
 4547.00    0.34283   1.38006   -1.000
 4548.00   -0.00687   1.36449    0.000
 4549.00    0.14437   1.35242   -1.000
 4550.00    0.75075   1.35648   -1.000
 4551.00    0.41293   1.37245   -1.000
 4552.00    0.98296   1.37936   -1.000
 4553.00    1.33520   1.37087   -1.000
 4554.00    1.33175   1.36133   -1.000
 4555.00    1.31424   1.36728   -1.000
 4556.00    1.35552   1.39544   -1.000
 4557.00    1.41571   1.43426   -1.000
 4558.00    1.46376   1.46478  142.300
 4559.00    1.47117   1.47987  142.316
 4560.00    1.47342   1.48336  145.007
 4561.00    1.47789   1.47749  148.634
 4562.00    1.44178   1.46168   -1.000
 4563.00    1.40009   1.43828   -1.000
 4564.00    1.36852   1.41904   -1.000
 4565.00    1.34511   1.41745   -1.000
 4566.00    1.37816   1.43638   -1.000
 4567.00    1.43106   1.46311   -1.000
 4568.00    1.46509   1.47847  145.568
 4569.00    1.45635   1.47229   -1.000
 4570.00    1.42253   1.45089   -1.000
 4571.00    1.39506   1.43019   -1.000
 4572.00    1.39262   1.42795   -1.000
 4573.00    1.40604   1.44774   -1.000
 4574.00    1.42914   1.47123   -1.000
 4575.00    1.44550   1.48156   -1.000
 4576.00    1.43944   1.47832   -1.000
 4577.00    1.42568   1.46620   -1.000
 4578.00    1.39694   1.44478   -1.000
 4579.00    1.36766   1.41682   -1.000
 4580.00    1.34234   1.39342   -1.000
 4581.00    1.34112   1.38553   -1.000
 4582.00    1.36840   1.39254   -1.000
 4583.00    1.38552   1.40239   -1.000
 4584.00    1.37157   1.40591   -1.000
 4585.00    1.35741   1.40644   -1.000
 4586.00    1.37705   1.41486   -1.000
 4587.00    1.42087   1.43547  142.350
 4588.00    1.46163   1.45913  144.053
 4589.00    1.46013   1.47240  146.670
 4590.00    1.43837   1.46988   -1.000
 4591.00    1.42401   1.45429   -1.000
 4592.00    1.39548   1.43576   -1.000
 4593.00    1.36741   1.42649   -1.000
 4594.00    1.36906   1.42718   -1.000
 4595.00    1.39187   1.43164   -1.000
 4596.00    1.40423   1.43757   -1.000
 4597.00    1.42416   1.44397   -1.000
 4598.00    1.43644   1.44733  148.791
 4599.00    1.41089   1.44503   -1.000
 4600.00    1.37545   1.43823   -1.000
 4601.00    1.38045   1.43247   -1.000
 4602.00    1.40230   1.43246   -1.000
 4603.00    1.41304   1.43716   -1.000
 4604.00    1.41325   1.44355   -1.000
 4605.00    1.43155   1.45060   -1.000
 4606.00    1.46090   1.46258  139.168
 4607.00    1.45471   1.48317   -1.000
 4608.00    1.50426   1.50747  137.533
 4609.00    1.52432   1.52506  139.236
 4610.00    1.53330   1.52469  140.866
 4611.00    1.50609   1.51061  141.888
 4612.00    1.46761   1.49745   -1.000
 4613.00    1.44653   1.49224   -1.000
 4614.00    1.45594   1.49585   -1.000
 4615.00    1.46508   1.50341   -1.000
 4616.00    1.46882   1.50862   -1.000
 4617.00    1.47998   1.50956   -1.000
 4618.00    1.47220   1.50777   -1.000
 4619.00    1.45513   1.50763   -1.000
 4620.00    1.45939   1.51410   -1.000
 4621.00    1.48050   1.52464   -1.000
 4622.00    1.49186   1.53022   -1.000
 4623.00    1.51453   1.52658  139.410
 4624.00    1.50969   1.51884  139.919
 4625.00    1.49041   1.51320   -1.000
 4626.00    1.50303   1.51037  140.645
 4627.00    1.50768   1.51181  141.058
 4628.00    1.48777   1.51521   -1.000
 4629.00    1.46871   1.51790   -1.000
 4630.00    1.46658   1.52170   -1.000
 4631.00    1.48988   1.52583   -1.000
 4632.00    1.49329   1.52381   -1.000
 4633.00    1.47554   1.51408   -1.000
 4634.00    1.46837   1.50392   -1.000
 4635.00    1.47438   1.49766   -1.000
 4636.00    1.47198   1.49034   -1.000
 4637.00    1.46442   1.47931  146.372
 4638.00    1.43700   1.46972   -1.000
 4639.00    1.43334   1.46843   -1.000
 4640.00    1.46446   1.47909  138.650
 4641.00    1.48978   1.49706  138.839
 4642.00    1.50990   1.51086  141.137
 4643.00    1.52010   1.50977  144.937
 4644.00    1.49599   1.49255  148.988
 4645.00    1.44860   1.46641   -1.000
 4646.00    1.41468   1.43902   -1.000
 4647.00    1.42840   1.42550  144.607
 4648.00    1.44565   1.43601  142.398
 4649.00    1.44421   1.46283   -1.000
 4650.00    1.46752   1.48986   -1.000
 4651.00    1.48429   1.50550   -1.000
 4652.00    1.48109   1.50794   -1.000
 4653.00    1.47262   1.49936   -1.000
 4654.00    1.44387   1.48421   -1.000
 4655.00    1.41587   1.47467   -1.000
 4656.00    1.42197   1.48136   -1.000
 4657.00    1.46991   1.50653   -1.000
 4658.00    1.52548   1.54351   -1.000
 4659.00    1.56440   1.57514  135.075
 4660.00    1.57049   1.58545   -1.000
 4661.00    1.55203   1.57309   -1.000
 4662.00    1.52001   1.54885   -1.000
 4663.00    1.48819   1.52374   -1.000
 4664.00    1.48346   1.49986   -1.000
 4665.00    1.45659   1.47105  155.675
 4666.00    1.40003   1.43530   -1.000
 4667.00    1.36613   1.40490   -1.000
 4668.00    1.34652   1.40069   -1.000
 4669.00    1.36769   1.42789   -1.000
 4670.00    1.42822   1.46824   -1.000
 4671.00    1.48989   1.49962  140.842
 4672.00    1.52161   1.51266  140.740
 4673.00    1.49188   1.51439   -1.000
 4674.00    1.49382   1.51824   -1.000
 4675.00    1.53087   1.52876  137.353
 4676.00    1.54042   1.53775  140.047
 4677.00    1.52639   1.53188  142.886
 4678.00    1.49400   1.51160   -1.000
 4679.00    1.47677   1.48818  146.859
 4680.00    1.44483   1.47061   -1.000
 4681.00    1.44803   1.46493  142.010
 4682.00    1.47188   1.47323  139.889
 4683.00    1.51645   1.49120  140.061
 4684.00    1.53870   1.50797   -1.000
 4685.00    1.55589   1.51552   -1.000
 4686.00    1.52378   1.51471  141.020
 4687.00    1.49666   1.51057  141.024
 4688.00    1.52021   1.50733  141.906
 4689.00    1.50641   1.50607  142.312
 4690.00    1.50041   1.50508  140.882
 4691.00    1.49551   1.50419  138.818
 4692.00    1.49597   1.50791  135.848
 4693.00    1.50592   1.51737  133.929
 4694.00    1.52612   1.52857  134.282
 4695.00    1.55566   1.53730  137.750
 4696.00    1.57284   1.53759   -1.000
 4697.00    1.53205   1.52325  143.952
 4698.00    1.49297   1.49915  143.142
 4699.00    1.46836   1.47806  143.890
 4700.00    1.44964   1.46487  146.275
 4701.00    1.46650   1.45475  147.297
 4702.00    1.45030   1.44628  144.941
 4703.00    1.42631   1.44706   -1.000
 4704.00    1.45664   1.46092  144.144
 4705.00    1.48047   1.47579  146.974
 4706.00    1.46791   1.47734  148.606
 4707.00    1.44017   1.46651   -1.000
 4708.00    1.42958   1.45738   -1.000
 4709.00    1.43922   1.46272   -1.000
 4710.00    1.46025   1.48137   -1.000
 4711.00    1.49182   1.50220  139.433
 4712.00    1.51938   1.51315  141.943
 4713.00    1.51877   1.50905  142.304
 4714.00    1.49400   1.50152  139.798
 4715.00    1.49369   1.50666  137.071
 4716.00    1.52481   1.52706  136.000
 4717.00    1.54688   1.55259  135.490
 4718.00    1.55597   1.57226   -1.000
 4719.00    1.58135   1.58372  135.978
 4720.00    1.57266   1.58724  136.986
 4721.00    1.54677   1.58363   -1.000
 4722.00    1.52695   1.57827   -1.000
 4723.00    1.53053   1.57943   -1.000
 4724.00    1.54813   1.58443   -1.000
 4725.00    1.55440   1.58044   -1.000
 4726.00    1.53151   1.55967   -1.000
 4727.00    1.49581   1.52521   -1.000
 4728.00    1.46628   1.49403   -1.000
 4729.00    1.44977   1.48210   -1.000
 4730.00    1.47248   1.48758  142.102
 4731.00    1.49900   1.50197  140.805
 4732.00    1.52045   1.51951  139.959
 4733.00    1.53013   1.53406  139.180
 4734.00    1.53474   1.54055  140.410
 4735.00    1.51362   1.53972   -1.000
 4736.00    1.53499   1.53654  139.162
 4737.00    1.53254   1.53705  138.986
 4738.00    1.55424   1.54503  139.728
 4739.00    1.55976   1.55510  139.992
 4740.00    1.54444   1.55861  139.013
 4741.00    1.53975   1.55851   -1.000
 4742.00    1.56920   1.56304  137.594
 4743.00    1.57381   1.57071  137.750
 4744.00    1.57634   1.57716  136.848
 4745.00    1.59818   1.58268  135.490
 4746.00    1.57419   1.59027  135.078
 4747.00    1.58013   1.60155   -1.000
 4748.00    1.59291   1.61140   -1.000
 4749.00    1.59046   1.61646   -1.000
 4750.00    1.57879   1.61866   -1.000
 4751.00    1.56576   1.61609   -1.000
 4752.00    1.56525   1.60555   -1.000
 4753.00    1.54059   1.58964   -1.000
 4754.00    1.51795   1.57688   -1.000
 4755.00    1.52343   1.57275   -1.000
 4756.00    1.52308   1.57575   -1.000
 4757.00    1.51553   1.58291   -1.000
 4758.00    1.53039   1.59209   -1.000
 4759.00    1.53206   1.59927   -1.000
 4760.00    1.54277   1.59833   -1.000
 4761.00    1.53636   1.58453   -1.000
 4762.00    1.50264   1.56074   -1.000
 4763.00    1.47484   1.53832   -1.000
 4764.00    1.46624   1.52561   -1.000
 4765.00    1.47986   1.52029   -1.000
 4766.00    1.48229   1.52234   -1.000
 4767.00    1.49194   1.53763   -1.000
 4768.00    1.51978   1.56611   -1.000
 4769.00    1.55019   1.59494   -1.000
 4770.00    1.56037   1.60908   -1.000
 4771.00    1.55297   1.60556   -1.000
 4772.00    1.54670   1.59921   -1.000
 4773.00    1.54239   1.60530   -1.000
 4774.00    1.56793   1.62323   -1.000
 4775.00    1.58519   1.63967   -1.000
 4776.00    1.58814   1.64607   -1.000
 4777.00    1.58096   1.64607   -1.000
 4778.00    1.59043   1.64305   -1.000
 4779.00    1.59149   1.63602   -1.000
 4780.00    1.57756   1.62640   -1.000
 4781.00    1.57439   1.61705   -1.000
 4782.00    1.58399   1.60644   -1.000
 4783.00    1.57768   1.59541   -1.000
 4784.00    1.54756   1.58873   -1.000
 4785.00    1.53333   1.58571   -1.000
 4786.00    1.51520   1.58176   -1.000
 4787.00    1.50966   1.57813   -1.000
 4788.00    1.51523   1.57860   -1.000
 4789.00    1.54053   1.58283   -1.000
 4790.00    1.55422   1.59150   -1.000
 4791.00    1.55130   1.60824   -1.000
 4792.00    1.58217   1.63250   -1.000
 4793.00    1.59938   1.65919   -1.000
 4794.00    1.61933   1.68305   -1.000
 4795.00    1.64138   1.69554   -1.000
 4796.00    1.65358   1.69142   -1.000
 4797.00    1.61680   1.67310   -1.000
 4798.00    1.57949   1.64902   -1.000
 4799.00    1.54555   1.63175   -1.000
 4800.00    1.55955   1.63202   -1.000
 4801.00    1.59898   1.64933   -1.000
 4802.00    1.61006   1.67166   -1.000
 4803.00    1.61650   1.68146   -1.000
 4804.00    1.59523   1.67143   -1.000
 4805.00    1.59286   1.65289   -1.000
 4806.00    1.59978   1.63805   -1.000
 4807.00    1.59459   1.63157   -1.000
 4808.00    1.58772   1.63393   -1.000
 4809.00    1.58586   1.64290   -1.000
 4810.00    1.59576   1.65371   -1.000
 4811.00    1.62010   1.66244   -1.000
 4812.00    1.62188   1.66716   -1.000
 4813.00    1.60367   1.67058   -1.000
 4814.00    1.62989   1.67603   -1.000
 4815.00    1.63715   1.68476   -1.000
 4816.00    1.63135   1.69582   -1.000
 4817.00    1.66004   1.70594   -1.000
 4818.00    1.65577   1.71246   -1.000
 4819.00    1.65196   1.71502   -1.000
 4820.00    1.66208   1.71248   -1.000
 4821.00    1.64142   1.69955   -1.000
 4822.00    1.60697   1.67376   -1.000
 4823.00    1.57572   1.64412   -1.000
 4824.00    1.56961   1.62853   -1.000
 4825.00    1.60172   1.63665   -1.000
 4826.00    1.61620   1.65592   -1.000
 4827.00    1.61669   1.66613   -1.000
 4828.00    1.62317   1.66299   -1.000
 4829.00    1.59603   1.65493   -1.000
 4830.00    1.59565   1.64765   -1.000
 4831.00    1.59250   1.63898   -1.000
 4832.00    1.57463   1.63242   -1.000
 4833.00    1.59339   1.63609   -1.000
 4834.00    1.61916   1.64977   -1.000
 4835.00    1.62163   1.66498   -1.000
 4836.00    1.63183   1.67140   -1.000
 4837.00    1.64960   1.66863   -1.000
 4838.00    1.61339   1.65847   -1.000
 4839.00    1.57897   1.64311   -1.000
 4840.00    1.56817   1.63081   -1.000
 4841.00    1.57819   1.62670   -1.000
 4842.00    1.60060   1.62733   -1.000
 4843.00    1.59544   1.63035   -1.000
 4844.00    1.59694   1.63967   -1.000
 4845.00    1.63140   1.65625   -1.000
 4846.00    1.65903   1.66941  139.714
 4847.00    1.64278   1.66615   -1.000
 4848.00    1.62145   1.65166   -1.000
 4849.00    1.59748   1.64342   -1.000
 4850.00    1.60027   1.64620   -1.000
 4851.00    1.60156   1.65114   -1.000
 4852.00    1.60942   1.64873   -1.000
 4853.00    1.58983   1.63202   -1.000
 4854.00    1.55725   1.59876   -1.000
 4855.00    1.51576   1.56181   -1.000
 4856.00    1.51014   1.53988   -1.000
 4857.00    1.50180   1.52773   -1.000
 4858.00    1.46558   1.49389   -1.000
 4859.00    1.38050   1.40469   -1.000
 4860.00    1.24631   1.28029   -1.000
 4861.00    1.16404   1.19510   -1.000
 4862.00    1.19978   1.20400  154.443
 4863.00    1.30854   1.29953  148.717
 4864.00    1.40007   1.41361  145.420
 4865.00    1.45694   1.49754   -1.000
 4866.00    1.48518   1.54720   -1.000
 4867.00    1.51342   1.57672   -1.000
 4868.00    1.55769   1.59153   -1.000
 4869.00    1.54138   1.58581   -1.000
 4870.00    1.48226   1.55575   -1.000
 4871.00    1.44655   1.51622   -1.000
 4872.00    1.44435   1.49947   -1.000
 4873.00    1.46471   1.52458   -1.000
 4874.00    1.47816   1.56919   -1.000
 4875.00    1.51895   1.60278   -1.000
 4876.00    1.56228   1.61906   -1.000
 4877.00    1.57130   1.62927   -1.000
 4878.00    1.56954   1.64481   -1.000
 4879.00    1.59298   1.66455   -1.000
 4880.00    1.58397   1.67765   -1.000
 4881.00    1.57749   1.67308   -1.000
 4882.00    1.57622   1.65793   -1.000
 4883.00    1.58054   1.64805   -1.000
 4884.00    1.55400   1.63896   -1.000
 4885.00    1.53022   1.62334   -1.000
 4886.00    1.51601   1.60887   -1.000
 4887.00    1.53974   1.60362   -1.000
 4888.00    1.56110   1.60014   -1.000
 4889.00    1.50563   1.58536   -1.000
 4890.00    1.50460   1.56022   -1.000
 4891.00    1.49781   1.54847   -1.000
 4892.00    1.54252   1.57654   -1.000
 4893.00    1.62244   1.64100   -1.000
 4894.00    1.68217   1.71079   -1.000
 4895.00    1.71322   1.75708   -1.000
 4896.00    1.70252   1.77583   -1.000
 4897.00    1.70188   1.77543   -1.000
 4898.00    1.67242   1.76324   -1.000
 4899.00    1.65559   1.74403   -1.000
 4900.00    1.64705   1.72586   -1.000
 4901.00    1.64901   1.71410   -1.000
 4902.00    1.64136   1.70470   -1.000
 4903.00    1.63671   1.69539   -1.000
 4904.00    1.63749   1.69709   -1.000
 4905.00    1.65891   1.71860   -1.000
 4906.00    1.69833   1.74261   -1.000
 4907.00    1.68503   1.74332   -1.000
 4908.00    1.62519   1.71983   -1.000
 4909.00    1.59380   1.68652   -1.000
 4910.00    1.57447   1.66047   -1.000
 4911.00    1.58311   1.65469   -1.000
 4912.00    1.60331   1.67055   -1.000
 4913.00    1.61247   1.69667   -1.000
 4914.00    1.65438   1.72052   -1.000
 4915.00    1.69595   1.73543   -1.000
 4916.00    1.68331   1.72972   -1.000
 4917.00    1.63594   1.68883   -1.000
 4918.00    1.57144   1.61657   -1.000
 4919.00    1.48937   1.54148   -1.000
 4920.00    1.45191   1.49880   -1.000
 4921.00    1.49240   1.50920  143.147
 4922.00    1.54748   1.55542  142.889
 4923.00    1.56865   1.60018   -1.000
 4924.00    1.58628   1.62494   -1.000
 4925.00    1.59524   1.64490   -1.000
 4926.00    1.64105   1.67605   -1.000
 4927.00    1.68441   1.71272   -1.000
 4928.00    1.70524   1.74354   -1.000
 4929.00    1.71648   1.76547   -1.000
 4930.00    1.70477   1.77492   -1.000
 4931.00    1.70334   1.76462   -1.000
 4932.00    1.64100   1.73257   -1.000
 4933.00    1.61031   1.69181   -1.000
 4934.00    1.59970   1.66679   -1.000
 4935.00    1.62905   1.66621   -1.000
 4936.00    1.63792   1.66861   -1.000
 4937.00    1.58546   1.64950   -1.000
 4938.00    1.54917   1.61675   -1.000
 4939.00    1.56284   1.60512   -1.000
 4940.00    1.58845   1.63303   -1.000
 4941.00    1.67443   1.68687  133.167
 4942.00    1.69781   1.73703   -1.000
 4943.00    1.74229   1.76327   -1.000
 4944.00    1.72636   1.76821   -1.000
 4945.00    1.70754   1.76184   -1.000
 4946.00    1.69823   1.75641   -1.000
 4947.00    1.70394   1.76096   -1.000
 4948.00    1.71714   1.77574   -1.000
 4949.00    1.72257   1.79048   -1.000
 4950.00    1.71938   1.79643   -1.000
 4951.00    1.72169   1.79430   -1.000
 4952.00    1.70885   1.78678   -1.000
 4953.00    1.70383   1.77564   -1.000
 4954.00    1.70132   1.75652   -1.000
 4955.00    1.68552   1.71554   -1.000
 4956.00    1.63126   1.64582  149.403
 4957.00    1.54830   1.57811   -1.000
 4958.00    1.55806   1.56583  136.019
 4959.00    1.64512   1.61871  134.775
 4960.00    1.71085   1.69441  135.324
 4961.00    1.71111   1.74687   -1.000
 4962.00    1.72065   1.76327   -1.000
 4963.00    1.73288   1.75738   -1.000
 4964.00    1.69782   1.73799   -1.000
 4965.00    1.69601   1.71082  142.883
 4966.00    1.68494   1.68815  142.484
 4967.00    1.66025   1.67930   -1.000
 4968.00    1.63381   1.68130   -1.000
 4969.00    1.63246   1.69035   -1.000
 4970.00    1.64124   1.70582   -1.000
 4971.00    1.68610   1.72589   -1.000
 4972.00    1.73796   1.74663  134.914
 4973.00    1.74387   1.76279   -1.000
 4974.00    1.72108   1.76930   -1.000
 4975.00    1.73450   1.76601   -1.000
 4976.00    1.72498   1.75485   -1.000
 4977.00    1.70560   1.73668   -1.000
 4978.00    1.65934   1.71643   -1.000
 4979.00    1.64092   1.69748   -1.000
 4980.00    1.63480   1.67278   -1.000
 4981.00    1.58322   1.63409   -1.000
 4982.00    1.53564   1.58711   -1.000
 4983.00    1.50628   1.55529   -1.000
 4984.00    1.53058   1.55908   -1.000
 4985.00    1.57332   1.59432   -1.000
 4986.00    1.62775   1.64307  139.549
 4987.00    1.67433   1.68855  141.535
 4988.00    1.71078   1.71529  143.029
 4989.00    1.68314   1.71387   -1.000
 4990.00    1.63741   1.69799   -1.000
 4991.00    1.65647   1.68805   -1.000
 4992.00    1.65779   1.69173   -1.000
 4993.00    1.66070   1.70154   -1.000
 4994.00    1.68346   1.70981   -1.000
 4995.00    1.71013   1.71864  140.590
 4996.00    1.70567   1.72777   -1.000
 4997.00    1.67255   1.72629   -1.000
 4998.00    1.65854   1.70624   -1.000
 4999.00    1.61814   1.67272   -1.000
 5000.00    1.60719   1.64152   -1.000
 5001.00    1.60567   1.62820   -1.000
 5002.00    1.61568   1.63201  146.971
 5003.00    1.61900   1.63883   -1.000
 5004.00    1.60468   1.63093   -1.000
 5005.00    1.58445   1.60464   -1.000
 5006.00    1.56524   1.58087  143.594
 5007.00    1.58395   1.58885  141.951
 5008.00    1.63881   1.62795  143.691
 5009.00    1.68739   1.66594  147.938
 5010.00    1.67275   1.67673  153.479
 5011.00    1.62871   1.65420   -1.000
 5012.00    1.58511   1.61278   -1.000
 5013.00    1.54397   1.57556   -1.000
 5014.00    1.54716   1.56145  149.934
 5015.00    1.58205   1.57215  149.214
 5016.00    1.60513   1.59125  149.231
 5017.00    1.61774   1.60356  147.586
 5018.00    1.61369   1.60962  146.358
 5019.00    1.61774   1.62145  146.950
 5020.00    1.63377   1.63696  147.290
 5021.00    1.64323   1.64409  146.482
 5022.00    1.64800   1.64501  144.947
 5023.00    1.64354   1.65281  143.953
 5024.00    1.63606   1.67300   -1.000
 5025.00    1.65291   1.69156   -1.000
 5026.00    1.64714   1.69258   -1.000
 5027.00    1.62799   1.68237   -1.000
 5028.00    1.64646   1.67988   -1.000
 5029.00    1.67084   1.69351   -1.000
 5030.00    1.71684   1.71823  135.438
 5031.00    1.74778   1.74492  135.613
 5032.00    1.75558   1.76665  139.869
 5033.00    1.74044   1.77351   -1.000
 5034.00    1.73603   1.75512   -1.000
 5035.00    1.66582   1.71659   -1.000
 5036.00    1.62959   1.68187   -1.000
 5037.00    1.66204   1.66535  156.146
 5038.00    1.65280   1.65058  162.538
 5039.00    1.60018   1.61489  162.766
 5040.00    1.50612   1.56454   -1.000
 5041.00    1.46629   1.53778   -1.000
 5042.00    1.54371   1.56460   -1.000
 5043.00    1.64715   1.63465  136.468
 5044.00    1.71046   1.71244  131.267
 5045.00    1.75577   1.76803  135.156
 5046.00    1.74686   1.79113   39.762
 5047.00    1.83232   1.77954   -1.000
 5048.00    0.86391   1.74035   -1.000
 5049.00   -0.04008   1.69416    0.000
 5050.00   -0.01868   1.66436    0.000
 5051.00    0.21385   1.65993   -1.000
 5052.00    1.10160   1.67858   -1.000
 5053.00    1.75372   1.71298   -1.000
 5054.00    1.74566   1.74965  135.015
 5055.00    1.76634   1.77463  135.255
 5056.00    1.76263   1.78744   -1.000
 5057.00    1.76852   1.79374   -1.000
 5058.00    1.80278   1.79897  134.540
 5059.00    1.78315   1.80655   -1.000
 5060.00    1.76379   1.81563   -1.000
 5061.00    1.79284   1.82196   -1.000
 5062.00    1.82664   1.81432  145.399
 5063.00    1.77355   1.78265  147.113
 5064.00    1.68723   1.73651   -1.000
 5065.00    1.65891   1.70168   -1.000
 5066.00    1.67801   1.69276  142.672
 5067.00    1.68813   1.70038  141.996
 5068.00    1.69240   1.71029  141.058
 5069.00    1.71888   1.72016  142.193
 5070.00    1.73660   1.73007  143.324
 5071.00    1.74023   1.73219  141.565
 5072.00    1.72044   1.72410  140.452
 5073.00    1.73220   1.71773  140.263
 5074.00    1.73878   1.72162  140.152
 5075.00    1.73373   1.72975  141.516
 5076.00    1.72306   1.73263  146.471
 5077.00    1.71853   1.72185  153.486
 5078.00    1.67025   1.69035   -1.000
 5079.00    1.61055   1.64487   -1.000
 5080.00    1.58349   1.61464   -1.000
 5081.00    1.60568   1.61787  146.735
 5082.00    1.63753   1.63959  143.955
 5083.00    1.64274   1.66314   -1.000
 5084.00    1.67305   1.68853  140.479
 5085.00    1.74220   1.71771  140.290
 5086.00    1.76072   1.74262  139.580
 5087.00    1.75234   1.75653  138.566
 5088.00    1.74675   1.76254  137.803
 5089.00    1.77407   1.76792  137.089
 5090.00    1.76378   1.77496  135.496
 5091.00    1.77054   1.78506  134.279
 5092.00    1.81451   1.80011  135.528
 5093.00    1.83180   1.81452  138.384
 5094.00    1.78431   1.81574   -1.000
 5095.00    1.84492   1.79610   -1.000
 5096.00    1.87176   1.75941   -1.000
 5097.00    1.71356   1.71785  148.302
 5098.00    1.63627   1.68461   -1.000
 5099.00    1.63404   1.67455   -1.000
 5100.00    1.68383   1.69576  139.198
 5101.00    1.73267   1.73365  140.045
 5102.00    1.76290   1.76214  141.914
 5103.00    1.75143   1.76727  143.710
 5104.00    1.74788   1.75694  145.471
 5105.00    1.72840   1.74029  147.300
 5106.00    1.70436   1.71876  147.045
 5107.00    1.68238   1.69663  146.088
 5108.00    1.66179   1.68222   -1.000
 5109.00    1.67448   1.67989  142.926
 5110.00    1.70274   1.69183  141.181
 5111.00    1.71527   1.71701  139.458
 5112.00    1.77905   1.74712   -1.000
 5113.00    1.78171   1.77084  137.478
 5114.00    1.77459   1.78710  136.007
 5115.00    1.75506   1.80076   -1.000
 5116.00    1.79430   1.81441   -1.000
 5117.00    1.80524   1.82543   -1.000
 5118.00    1.85438   1.82889   -1.000
 5119.00    1.81463   1.82090  141.497
 5120.00    1.80213   1.80123  145.181
 5121.00    1.76342   1.77270  149.591
 5122.00    1.71328   1.73866   -1.000
 5123.00    1.70263   1.70446  149.150
 5124.00    1.68620   1.68100  148.436
 5125.00    1.67785   1.67615  147.544
 5126.00    1.69190   1.68322  147.787
 5127.00    1.71419   1.68960   -1.000
 5128.00    1.70366   1.69190  145.666
 5129.00    1.68209   1.69615  143.157
 5130.00    1.69405   1.70818  142.032
 5131.00    1.73502   1.72725  140.670
 5132.00    1.74750   1.74627  139.432
 5133.00    1.76695   1.76088  139.099
 5134.00    1.77339   1.77139  141.703
 5135.00    1.77722   1.77640  145.193
 5136.00    1.77659   1.76755  147.472
 5137.00    1.72637   1.73946  147.607
 5138.00    1.66780   1.70660   -1.000
 5139.00    1.65850   1.68970   -1.000
 5140.00    1.67681   1.69146  149.859
 5141.00    1.66968   1.69786   -1.000
 5142.00    1.66319   1.69862   -1.000
 5143.00    1.67729   1.70150   -1.000
 5144.00    1.70523   1.71344  147.300
 5145.00    1.70780   1.72186  147.625
 5146.00    1.68394   1.71566   -1.000
 5147.00    1.69101   1.70647  144.944
 5148.00    1.68430   1.70825   -1.000
 5149.00    1.70043   1.71620  149.574
 5150.00    1.72105   1.71480  150.490
 5151.00    1.69322   1.70203  149.656
 5152.00    1.66562   1.69052   -1.000
 5153.00    1.67878   1.68955  142.935
 5154.00    1.69856   1.70109  139.298
 5155.00    1.74584   1.72665  136.728
 5156.00    1.80443   1.76210   -1.000
 5157.00    1.82740   1.79496   -1.000
 5158.00    1.80627   1.81559  136.279
 5159.00    1.82222   1.82331  137.079
 5160.00    1.84927   1.82072   -1.000
 5161.00    1.85023   1.80817   -1.000
 5162.00    1.82418   1.78537   -1.000
 5163.00    1.74707   1.75293  158.850
 5164.00    1.73378   1.70468   -1.000
 5165.00    1.61993   1.62495  187.222
 5166.00    1.45720   1.51369   -1.000
 5167.00    1.37456   1.41771   -1.000
 5168.00    1.38750   1.39400  169.901
 5169.00    1.47589   1.43695   -1.000
 5170.00    1.51171   1.47430   -1.000
 5171.00    1.45878   1.44719  185.028
 5172.00    1.32952   1.39192   -1.000
 5173.00    1.34148   1.39105   -1.000
 5174.00    1.51304   1.47746   -1.000
 5175.00    1.67333   1.60175   -1.000
 5176.00    1.74174   1.69313   -1.000
 5177.00    1.76876   1.73607   -1.000
 5178.00    1.78855   1.74841   -1.000
 5179.00    1.78546   1.74077   -1.000
 5180.00    1.74428   1.70366   -1.000
 5181.00    1.63286   1.61921  195.246
 5182.00    1.46677   1.49893   -1.000
 5183.00    1.32782   1.39996   -1.000
 5184.00    1.32287   1.38920   -1.000
 5185.00    1.48053   1.48048  145.404
 5186.00    1.65910   1.60769   -1.000
 5187.00    1.75766   1.69960   -1.000
 5188.00    1.79093   1.74043   -1.000
 5189.00    1.78321   1.75064   -1.000
 5190.00    1.78038   1.73826   -1.000
 5191.00    1.73192   1.70245   -1.000
 5192.00    1.67462   1.66398  150.136
 5193.00    1.67797   1.65301   -1.000
 5194.00    1.70158   1.66944   -1.000
 5195.00    1.73320   1.69366   -1.000
 5196.00    1.74709   1.71949   -1.000
 5197.00    1.79375   1.74892   -1.000
 5198.00    1.82814   1.77915   -1.000
 5199.00    1.85403   1.80263   -1.000
 5200.00    1.84560   1.81311   -1.000
 5201.00    1.83016   1.80715  146.454
 5202.00    1.80972   1.78263   -1.000
 5203.00    1.78620   1.73941   -1.000
 5204.00    1.72383   1.68348   -1.000
 5205.00    1.67201   1.63196   -1.000
 5206.00    1.68262   1.60090   -1.000
 5207.00    1.66014   1.59141   -1.000
 5208.00    1.64071   1.59388   -1.000
 5209.00    1.65808   1.61181   -1.000
 5210.00    1.70613   1.65781   -1.000
 5211.00    1.76428   1.72472   -1.000
 5212.00    1.84396   1.78710   -1.000
 5213.00    1.88430   1.82128   -1.000
 5214.00    1.87343   1.81682   -1.000
 5215.00    1.82764   1.78817   -1.000
 5216.00    1.77953   1.76483  137.880
 5217.00    1.78529   1.77086  135.864
 5218.00    1.83254   1.80375   -1.000
 5219.00    1.87653   1.84245   -1.000
 5220.00    1.89834   1.87027   -1.000
 5221.00    1.91301   1.88064   -1.000
 5222.00    1.90487   1.87016   -1.000
 5223.00    1.84494   1.83627  153.527
 5224.00    1.76951   1.77834  157.451
 5225.00    1.69435   1.70424  153.522
 5226.00    1.64409   1.64353  144.684
 5227.00    1.65340   1.63304  138.975
 5228.00    1.71590   1.68166   -1.000
 5229.00    1.80357   1.75821   -1.000
 5230.00    1.85206   1.81347   -1.000
 5231.00    1.85567   1.82148   -1.000
 5232.00    1.82622   1.79529   -1.000
 5233.00    1.80357   1.76677   -1.000
 5234.00    1.78052   1.76692  134.833
 5235.00    1.80676   1.79961  133.461
 5236.00    1.85318   1.84580  133.440
 5237.00    1.91661   1.88426   -1.000
 5238.00    1.91914   1.90234  133.584
 5239.00    1.92751   1.90415  132.782
 5240.00    1.91476   1.90002  133.044
 5241.00    1.91865   1.89506  132.734
 5242.00    1.91123   1.89248  132.603
 5243.00    1.92589   1.89609   -1.000
 5244.00    1.94113   1.90124   -1.000
 5245.00    1.93042   1.89275   -1.000
 5246.00    1.87213   1.86266  143.105
 5247.00    1.81180   1.82612  143.394
 5248.00    1.80700   1.80348  144.318
 5249.00    1.83639   1.79554   -1.000
 5250.00    1.82345   1.79378   -1.000
 5251.00    1.82167   1.79951  140.102
 5252.00    1.82707   1.81278  140.189
 5253.00    1.83332   1.82302  139.033
 5254.00    1.85095   1.82643   -1.000
 5255.00    1.86150   1.83506   -1.000
 5256.00    1.89212   1.86306   -1.000
 5257.00    1.93247   1.90280   -1.000
 5258.00    1.98393   1.92990   -1.000
 5259.00    1.97871   1.92847   -1.000
 5260.00    1.92591   1.89523   -1.000
 5261.00    1.84206   1.83600  154.104
 5262.00    1.76014   1.76515  157.048
 5263.00    1.70131   1.69881  157.181
 5264.00    1.65765   1.64921  154.230
 5265.00    1.65503   1.62713   -1.000
 5266.00    1.69504   1.63194   -1.000
 5267.00    1.72669   1.64228   -1.000
 5268.00    1.70336   1.62622   -1.000
 5269.00    1.64291   1.58690   -1.000
 5270.00    1.63389   1.57331   -1.000
 5271.00    1.70589   1.62389   -1.000
 5272.00    1.79285   1.71037   -1.000
 5273.00    1.83798   1.77012   -1.000
 5274.00    1.82172   1.79035   -1.000
 5275.00    1.81533   1.80216  133.173
 5276.00    1.85047   1.83091  130.973
 5277.00    1.94072   1.87690   -1.000
 5278.00    1.96527   1.91598   -1.000
 5279.00    1.95528   1.92377   -1.000
 5280.00    1.93739   1.89773   -1.000
 5281.00    1.89415   1.85590   -1.000
 5282.00    1.85200   1.81854   -1.000
 5283.00    1.82699   1.80291   -1.000
 5284.00    1.85117   1.82290   -1.000
 5285.00    1.92719   1.87520   -1.000
 5286.00    1.96910   1.93314   -1.000
 5287.00    1.86053   1.96746   -1.000
 5288.00    1.99395   1.97870  129.313
 5289.00    2.02237   1.98238   -1.000
 5290.00    2.01403   1.98526   -1.000
 5291.00    2.01695   1.98454   -1.000
 5292.00    1.99688   1.97818  133.126
 5293.00    1.99629   1.96848   -1.000
 5294.00    1.98594   1.95245   -1.000
 5295.00    1.94333   1.91887   -1.000
 5296.00    1.89647   1.86567   -1.000
 5297.00    1.80253   1.81331  140.557
 5298.00    1.78772   1.79191  138.100
 5299.00    1.84766   1.81046   -1.000
 5300.00    1.88773   1.84451   -1.000
 5301.00    1.90166   1.87132   -1.000
 5302.00    1.91900   1.89427  129.470
 5303.00    1.96660   1.92599   -1.000
 5304.00    1.99621   1.96280   -1.000
 5305.00    2.00270   1.98515  131.742
 5306.00    2.01836   1.98470   -1.000
 5307.00    2.00597   1.97536   -1.000
 5308.00    1.99088   1.97460  128.598
 5309.00    2.02790   1.98749   -1.000
 5310.00    2.04616   2.00201   -1.000
 5311.00    2.04101   2.00543   -1.000
 5312.00    2.05380   1.99842   -1.000
 5313.00    2.02381   1.98633   -1.000
 5314.00    2.00009   1.97134   -1.000
 5315.00    1.98894   1.95408   -1.000
 5316.00    1.95032   1.93852  132.428
 5317.00    1.95978   1.93384   -1.000
 5318.00    1.96620   1.94246  132.545
 5319.00    1.98722   1.95364   -1.000
 5320.00    1.99779   1.95631   -1.000
 5321.00    2.00485   1.94672   -1.000
 5322.00    1.98327   1.92341   -1.000
 5323.00    1.94542   1.89002   -1.000
 5324.00    1.92416   1.85866   -1.000
 5325.00    1.89308   1.83092   -1.000
 5326.00    1.87308   1.78703   -1.000
 5327.00    1.78716   1.72085   -1.000
 5328.00    1.70214   1.67102   -1.000
 5329.00    1.72996   1.68812   -1.000
 5330.00    1.86744   1.76924   -1.000
 5331.00    1.94060   1.85402   -1.000
 5332.00    1.93758   1.90274   -1.000
 5333.00    1.94380   1.92495  131.976
 5334.00    1.97930   1.94322   -1.000
 5335.00    1.99886   1.96033   -1.000
 5336.00    1.99574   1.96599   -1.000
 5337.00    1.97017   1.95560  138.978
 5338.00    1.97412   1.92914   -1.000
 5339.00    1.94346   1.88870   -1.000
 5340.00    1.88479   1.85141   -1.000
 5341.00    1.87874   1.84549   -1.000
 5342.00    1.92361   1.87605   -1.000
 5343.00    1.98254   1.91387   -1.000
 5344.00    2.00372   1.93220   -1.000
 5345.00    1.97877   1.92832   -1.000
 5346.00    1.96617   1.91439   -1.000
 5347.00    1.97250   1.90027   -1.000
 5348.00    1.95852   1.88927   -1.000
 5349.00    1.94218   1.88831   -1.000
 5350.00    1.96584   1.90687   -1.000
 5351.00    1.98431   1.93957   -1.000
 5352.00    2.00434   1.97093   -1.000
 5353.00    2.01503   1.99174  127.339
 5354.00    2.02268   2.00715  126.515
 5355.00    2.07336   2.02490   -1.000
 5356.00    2.09583   2.04033   -1.000
 5357.00    2.07911   2.04700   -1.000
 5358.00    2.06012   2.04582  129.118
 5359.00    2.08893   2.03869   -1.000
 5360.00    2.07797   2.02444   -1.000
 5361.00    2.01860   2.00435  133.989
 5362.00    2.00305   1.98299  134.762
 5363.00    1.99730   1.96251   -1.000
 5364.00    1.97989   1.94397   -1.000
 5365.00    1.95921   1.93050   -1.000
 5366.00    1.96831   1.92554   -1.000
 5367.00    1.96080   1.92437   -1.000
 5368.00    1.97476   1.90923   -1.000
 5369.00    1.92798   1.86940   -1.000
 5370.00    1.86505   1.81888   -1.000
 5371.00    1.83725   1.79193   -1.000
 5372.00    1.89348   1.81723   -1.000
 5373.00    1.97557   1.88388   -1.000
 5374.00    2.04759   1.95291   -1.000
 5375.00    2.08156   1.99446   -1.000
 5376.00    2.06802   2.00615   -1.000
 5377.00    2.07471   2.00571   -1.000
 5378.00    2.03496   2.00546   -1.000
 5379.00    2.02407   2.00435  132.765
 5380.00    2.03326   1.99592   -1.000
 5381.00    2.01997   1.97969   -1.000
 5382.00    2.00552   1.96341   -1.000
 5383.00    2.02664   1.95654   -1.000
 5384.00    2.01523   1.96411   -1.000
 5385.00    2.02357   1.98207   -1.000
 5386.00    2.04611   1.99819   -1.000
 5387.00    2.03556   2.00035   -1.000
 5388.00    2.00170   1.98647  136.442
 5389.00    1.99853   1.96249   -1.000
 5390.00    1.98889   1.93811   -1.000
 5391.00    1.97597   1.92110   -1.000
 5392.00    1.95840   1.91157   -1.000
 5393.00    1.96574   1.90669   -1.000
 5394.00    1.96879   1.90040   -1.000
 5395.00    1.93044   1.88298   -1.000
 5396.00    1.91262   1.85432   -1.000
 5397.00    1.91089   1.83599   -1.000
 5398.00    1.93476   1.85026   -1.000
 5399.00    1.96369   1.89084   -1.000
 5400.00    1.97882   1.93018   -1.000
 5401.00    2.00190   1.94878   -1.000
 5402.00    1.99541   1.94103   -1.000
 5403.00    1.94067   1.90329   -1.000
 5404.00    1.90060   1.84366   -1.000
 5405.00    1.84395   1.79515   -1.000
 5406.00    1.85411   1.79186   -1.000
 5407.00    1.91238   1.82527   -1.000
 5408.00    1.95126   1.85718   -1.000
 5409.00    1.93456   1.86609   -1.000
 5410.00    1.90418   1.86933   -1.000
 5411.00    1.95648   1.89593   -1.000
 5412.00    2.03408   1.93756   -1.000
 5413.00    2.03803   1.96638   -1.000
 5414.00    2.00917   1.97560   -1.000
 5415.00    1.99673   1.98022  130.931
 5416.00    2.00077   1.99457  131.666
 5417.00    2.02622   2.01135  132.987
 5418.00    2.03722   2.01571  133.596
 5419.00    2.02161   2.00818  132.942
 5420.00    2.03018   1.99839   -1.000
 5421.00    2.05030   1.99127   -1.000
 5422.00    2.02505   1.98301   -1.000
 5423.00    2.00779   1.96908   -1.000
 5424.00    1.98776   1.96079   -1.000
 5425.00    1.99327   1.97439  132.733
 5426.00    2.01269   2.00159  136.753
 5427.00    2.04850   2.00938   -1.000
 5428.00    2.02753   1.97487   -1.000
 5429.00    1.96500   1.92191   -1.000
 5430.00    1.94648   1.89517   -1.000
 5431.00    1.96944   1.90382   -1.000
 5432.00    1.96696   1.91798   -1.000
 5433.00    1.95301   1.90874   -1.000
 5434.00    1.94294   1.88646   -1.000
 5435.00    1.93006   1.88295   -1.000
 5436.00    1.96224   1.91170   -1.000
 5437.00    2.02045   1.96246   -1.000
 5438.00    2.06577   2.01330   -1.000
 5439.00    2.09862   2.04818   -1.000
 5440.00    2.12024   2.06623   -1.000
 5441.00    2.11634   2.07431   -1.000
 5442.00    2.08522   2.07487  134.246
 5443.00    2.05906   2.06002  139.858
 5444.00    2.03072   2.01928  143.724
 5445.00    1.98037   1.95470   -1.000
 5446.00    1.89473   1.89442  136.975
 5447.00    1.91327   1.87535   -1.000
 5448.00    1.98291   1.90680   -1.000
 5449.00    2.05796   1.96347   -1.000
 5450.00    2.09780   2.00678   -1.000
 5451.00    2.11640   2.02029   -1.000
 5452.00    2.10638   2.00863   -1.000
 5453.00    2.06298   1.97498   -1.000
 5454.00    2.00250   1.92535   -1.000
 5455.00    1.94833   1.88467   -1.000
 5456.00    1.97255   1.88622   -1.000
 5457.00    2.02592   1.93618   -1.000
 5458.00    2.08789   1.99732   -1.000
 5459.00    2.11676   2.02794   -1.000
 5460.00    2.09209   2.02186   -1.000
 5461.00    2.06373   1.99379   -1.000
 5462.00    2.01350   1.96330   -1.000
 5463.00    1.99712   1.94886   -1.000
 5464.00    2.02286   1.95799   -1.000
 5465.00    2.04036   1.98046   -1.000
 5466.00    2.07674   2.00096   -1.000
 5467.00    2.08185   2.01400   -1.000
 5468.00    2.07983   2.01988   -1.000
 5469.00    2.08716   2.01842   -1.000
 5470.00    2.08267   2.01017   -1.000
 5471.00    2.07800   1.99855   -1.000
 5472.00    2.07382   1.98730   -1.000
 5473.00    2.04833   1.97451   -1.000
 5474.00    2.02426   1.95221   -1.000
 5475.00    1.97851   1.91821   -1.000
 5476.00    1.93488   1.88640   -1.000
 5477.00    1.92850   1.88337   -1.000
 5478.00    1.97288   1.91667   -1.000
 5479.00    2.02997   1.95484   -1.000
 5480.00    2.02793   1.96695   -1.000
 5481.00    1.98720   1.95625   -1.000
 5482.00    1.97543   1.95183   -1.000
 5483.00    2.00889   1.97305   -1.000
 5484.00    2.05701   2.00719   -1.000
 5485.00    2.09113   2.02855   -1.000
 5486.00    2.06459   2.02429   -1.000
 5487.00    2.02518   2.00435  137.198
 5488.00    2.04130   1.98859   -1.000
 5489.00    2.05237   1.98869   -1.000
 5490.00    2.07513   2.00160   -1.000
 5491.00    2.08997   2.01441   -1.000
 5492.00    2.06525   2.01997   -1.000
 5493.00    2.06512   2.01934   -1.000
 5494.00    2.08870   2.01713   -1.000
 5495.00    2.07154   2.01271   -1.000
 5496.00    2.06223   2.00206   -1.000
 5497.00    2.06227   1.99203   -1.000
 5498.00    2.07395   1.99499   -1.000
 5499.00    2.08530   2.00470   -1.000
 5500.00    2.07720   2.00243   -1.000
 5501.00    2.07096   1.98442   -1.000
 5502.00    2.07010   1.96836   -1.000
 5503.00    2.06767   1.96875   -1.000
 5504.00    2.05074   1.97310   -1.000
 5505.00    2.03055   1.96507   -1.000
 5506.00    2.02611   1.95159   -1.000
 5507.00    2.04353   1.95181   -1.000
 5508.00    2.06567   1.97293   -1.000
 5509.00    2.05869   1.99608   -1.000
 5510.00    2.06390   1.99693   -1.000
 5511.00    2.03862   1.97476   -1.000
 5512.00    2.00414   1.94617   -1.000
 5513.00    1.98098   1.92954   -1.000
 5514.00    1.99908   1.93327   -1.000
 5515.00    2.04648   1.95283   -1.000
 5516.00    2.08424   1.98029   -1.000
 5517.00    2.11869   2.00997   -1.000
 5518.00    2.14728   2.03735   -1.000
 5519.00    2.14779   2.05593   -1.000
 5520.00    2.15286   2.06119   -1.000
 5521.00    2.13112   2.05839   -1.000
 5522.00    2.10579   2.05684   -1.000
 5523.00    2.11662   2.05692   -1.000
 5524.00    2.10956   2.05097   -1.000
 5525.00    2.09981   2.02919   -1.000
 5526.00    2.05770   1.99021   -1.000
 5527.00    1.98243   1.94709   -1.000
 5528.00    1.97412   1.92492   -1.000
 5529.00    2.00733   1.94198   -1.000
 5530.00    2.06528   1.98579   -1.000
 5531.00    2.11010   2.02415   -1.000
 5532.00    2.09742   2.03663   -1.000
 5533.00    2.09321   2.02966   -1.000
 5534.00    2.07360   2.01849   -1.000
 5535.00    2.07250   2.01291   -1.000
 5536.00    2.08431   2.01630   -1.000
 5537.00    2.08508   2.02590   -1.000
 5538.00    2.09426   2.03734   -1.000
 5539.00    2.12929   2.05024   -1.000
 5540.00    2.12768   2.06377   -1.000
 5541.00    2.14014   2.07009   -1.000
 5542.00    2.13194   2.06342   -1.000
 5543.00    2.10315   2.05022   -1.000
 5544.00    2.09684   2.04214   -1.000
 5545.00    2.09635   2.04290   -1.000
 5546.00    2.11900   2.04919   -1.000
 5547.00    2.13153   2.06069   -1.000
 5548.00    2.15757   2.07805   -1.000
 5549.00    2.17631   2.09408   -1.000
 5550.00    2.17726   2.10093   -1.000
 5551.00    2.17536   2.09737   -1.000
 5552.00    2.14598   2.08550   -1.000
 5553.00    2.11383   2.07037   -1.000
 5554.00    2.11161   2.05996   -1.000
 5555.00    2.12001   2.05833   -1.000
 5556.00    2.14219   2.06204   -1.000
 5557.00    2.13960   2.06545   -1.000
 5558.00    2.16430   2.06743   -1.000
 5559.00    2.16487   2.07023   -1.000
 5560.00    2.15453   2.07065   -1.000
 5561.00    2.13682   2.06275   -1.000
 5562.00    2.12175   2.04901   -1.000
 5563.00    2.11083   2.03767   -1.000
 5564.00    2.09118   2.03199   -1.000
 5565.00    2.08726   2.02845   -1.000
 5566.00    2.10305   2.02336   -1.000
 5567.00    2.09771   2.01836   -1.000
 5568.00    2.08680   2.01589   -1.000
 5569.00    2.09019   2.01640   -1.000
 5570.00    2.07067   2.01809   -1.000
 5571.00    2.02013   2.01654  136.965
 5572.00    1.89249   2.01203   -1.000
 5573.00    1.76877   2.01122   -1.000
 5574.00    2.14380   2.02096   -1.000
 5575.00    2.85053   2.03758   -1.000
 5576.00    3.21396   2.04958   -1.000
 5577.00    3.00904   2.05669   -1.000
 5578.00    2.36305   2.06542   -1.000
 5579.00    2.23508   2.07367   -1.000
 5580.00    2.17423   2.07605   -1.000
 5581.00    2.15158   2.07223   -1.000
 5582.00    2.12195   2.06610   -1.000
 5583.00    2.12688   2.06069   -1.000
 5584.00    2.11865   2.04853   -1.000
 5585.00    2.08727   2.01702   -1.000
 5586.00    2.05005   1.96779   -1.000
 5587.00    1.99121   1.92164   -1.000
 5588.00    1.96570   1.90131   -1.000
 5589.00    1.99942   1.91166   -1.000
 5590.00    2.03485   1.94194   -1.000
 5591.00    2.05217   1.97408   -1.000
 5592.00    2.06703   1.99283   -1.000
 5593.00    2.05106   1.99916   -1.000
 5594.00    2.04490   2.00650   -1.000
 5595.00    2.09942   2.02493   -1.000
 5596.00    2.13045   2.04255   -1.000
 5597.00    2.13433   2.03988   -1.000
 5598.00    2.10137   2.01837   -1.000
 5599.00    2.08416   1.99437   -1.000
 5600.00    2.05405   1.97601   -1.000
 5601.00    2.03884   1.96262   -1.000
 5602.00    2.02165   1.96212   -1.000
 5603.00    2.04371   1.98667   -1.000
 5604.00    2.09829   2.03335   -1.000
 5605.00    2.16667   2.08204   -1.000
 5606.00    2.20617   2.11482   -1.000
 5607.00    2.20310   2.12874   -1.000
 5608.00    2.20381   2.13068   -1.000
 5609.00    2.20321   2.12981   -1.000
 5610.00    2.20228   2.13248   -1.000
 5611.00    2.20555   2.13590   -1.000
 5612.00    2.19610   2.12672   -1.000
 5613.00    2.15636   2.09098   -1.000
 5614.00    2.08331   2.03115   -1.000
 5615.00    2.03824   1.97840   -1.000
 5616.00    2.06028   1.96688   -1.000
 5617.00    2.09902   1.99683   -1.000
 5618.00    2.13841   2.03579   -1.000
 5619.00    2.15845   2.05852   -1.000
 5620.00    2.16222   2.07064   -1.000
 5621.00    2.20030   2.07968   -1.000
 5622.00    2.19121   2.07664   -1.000
 5623.00    2.14357   2.05513   -1.000
 5624.00    2.11527   2.02704   -1.000
 5625.00    2.10315   2.01527   -1.000
 5626.00    2.10962   2.03053   -1.000
 5627.00    2.14929   2.05881   -1.000
 5628.00    2.18310   2.08505   -1.000
 5629.00    2.19591   2.10554   -1.000
 5630.00    2.20921   2.11845   -1.000
 5631.00    2.22366   2.12154   -1.000
 5632.00    2.19084   2.11619   -1.000
 5633.00    2.18359   2.10666   -1.000
 5634.00    2.19630   2.09451   -1.000
 5635.00    2.19287   2.07975   -1.000
 5636.00    2.17826   2.06538   -1.000
 5637.00    2.15465   2.05669   -1.000
 5638.00    2.13252   2.05629   -1.000
 5639.00    2.14528   2.05950   -1.000
 5640.00    2.13271   2.05863   -1.000
 5641.00    2.14273   2.05318   -1.000
 5642.00    2.13508   2.05217   -1.000
 5643.00    2.15873   2.05952   -1.000
 5644.00    2.17401   2.06890   -1.000
 5645.00    2.16780   2.07663   -1.000
 5646.00    2.18079   2.08269   -1.000
 5647.00    2.18813   2.08532   -1.000
 5648.00    2.18322   2.08370   -1.000
 5649.00    2.17268   2.08081   -1.000
 5650.00    2.17661   2.08256   -1.000
 5651.00    2.19262   2.09129   -1.000
 5652.00    2.20382   2.09895   -1.000
 5653.00    2.19163   2.09609   -1.000
 5654.00    2.15885   2.08487   -1.000
 5655.00    2.15120   2.06973   -1.000
 5656.00    2.12173   2.04613   -1.000
 5657.00    2.07245   2.01261   -1.000
 5658.00    2.02449   1.98368   -1.000
 5659.00    2.02290   1.98055   -1.000
 5660.00    2.08185   2.00308   -1.000
 5661.00    2.11303   2.02445   -1.000
 5662.00    2.12346   2.03388   -1.000
 5663.00    2.13682   2.04779   -1.000
 5664.00    2.15658   2.07074   -1.000
 5665.00    2.16738   2.08740   -1.000
 5666.00    2.14380   2.08665   -1.000
 5667.00    2.15199   2.07457   -1.000
 5668.00    2.16337   2.06635   -1.000
 5669.00    2.15901   2.06850   -1.000
 5670.00    2.17580   2.07792   -1.000
 5671.00    2.18987   2.09241   -1.000
 5672.00    2.20743   2.11017   -1.000
 5673.00    2.22140   2.12491   -1.000
 5674.00    2.21748   2.13135   -1.000
 5675.00    2.22011   2.13143   -1.000
 5676.00    2.20853   2.13099   -1.000
 5677.00    2.19454   2.13180   -1.000
 5678.00    2.18813   2.12894   -1.000
 5679.00    2.19907   2.11962   -1.000
 5680.00    2.19645   2.10552   -1.000
 5681.00    2.17535   2.08692   -1.000
 5682.00    2.14047   2.06635   -1.000
 5683.00    2.12396   2.05487   -1.000
 5684.00    2.12721   2.05876   -1.000
 5685.00    2.12878   2.06739   -1.000
 5686.00    2.11927   2.06810   -1.000
 5687.00    2.11483   2.06148   -1.000
 5688.00    2.14394   2.05816   -1.000
 5689.00    2.14700   2.06689   -1.000
 5690.00    2.18135   2.08684   -1.000
 5691.00    2.21449   2.10937   -1.000
 5692.00    2.23273   2.12585   -1.000
 5693.00    2.22278   2.13273   -1.000
 5694.00    2.22192   2.13260   -1.000
 5695.00    2.22487   2.12987   -1.000
 5696.00    2.19618   2.12477   -1.000
 5697.00    2.19003   2.11481   -1.000
 5698.00    2.18724   2.09991   -1.000
 5699.00    2.14391   2.08365   -1.000
 5700.00    2.11105   2.06864   -1.000
 5701.00    2.09793   2.05866   -1.000
 5702.00    2.11255   2.06079   -1.000
 5703.00    2.14069   2.07312   -1.000
 5704.00    2.14852   2.08248   -1.000
 5705.00    2.14690   2.07820   -1.000
 5706.00    2.12418   2.05900   -1.000
 5707.00    2.09117   2.03300   -1.000
 5708.00    2.07264   2.00902   -1.000
 5709.00    2.04695   1.99214   -1.000
 5710.00    2.03807   1.98842   -1.000
 5711.00    2.07132   2.00135   -1.000
 5712.00    2.11381   2.03014   -1.000
 5713.00    2.14525   2.06796   -1.000
 5714.00    2.18926   2.09996   -1.000
 5715.00    2.22514   2.11828   -1.000
 5716.00    2.20903   2.12835   -1.000
 5717.00    2.20437   2.13581   -1.000
 5718.00    2.22208   2.14317   -1.000
 5719.00    2.25447   2.15238   -1.000
 5720.00    2.27195   2.16315   -1.000
 5721.00    2.26217   2.17311   -1.000
 5722.00    2.25609   2.18034   -1.000
 5723.00    2.27827   2.18395   -1.000
 5724.00    2.26091   2.18092   -1.000
 5725.00    2.25414   2.16773   -1.000
 5726.00    2.22501   2.14872   -1.000
 5727.00    2.19762   2.13709   -1.000
 5728.00    2.21869   2.14006   -1.000
 5729.00    2.22914   2.14810   -1.000
 5730.00    2.22246   2.14909   -1.000
 5731.00    2.21009   2.14456   -1.000
 5732.00    2.20812   2.14552   -1.000
 5733.00    2.24205   2.15850   -1.000
 5734.00    2.25389   2.17443   -1.000
 5735.00    2.24941   2.18044   -1.000
 5736.00    2.26206   2.17703   -1.000
 5737.00    2.24736   2.17120   -1.000
 5738.00    2.23948   2.16839   -1.000
 5739.00    2.24138   2.16916   -1.000
 5740.00    2.23730   2.16953   -1.000
 5741.00    2.25096   2.16703   -1.000
 5742.00    2.23235   2.16419   -1.000
 5743.00    2.20660   2.16733   -1.000
 5744.00    2.24175   2.17731   -1.000
 5745.00    2.25661   2.18529   -1.000
 5746.00    2.23583   2.18133   -1.000
 5747.00    2.21251   2.16819   -1.000
 5748.00    2.22722   2.16160   -1.000
 5749.00    2.25287   2.16771   -1.000
 5750.00    2.23810   2.17391   -1.000
 5751.00    2.21316   2.16463   -1.000
 5752.00    2.16749   2.13864   -1.000
 5753.00    2.15650   2.11489   -1.000
 5754.00    2.17361   2.11362   -1.000
 5755.00    2.19625   2.13805   -1.000
 5756.00    2.25102   2.17182   -1.000
 5757.00    2.27958   2.19494   -1.000
 5758.00    2.26662   2.19929   -1.000
 5759.00    2.26436   2.18566   -1.000
 5760.00    2.23789   2.16046   -1.000
 5761.00    2.18114   2.13441   -1.000
 5762.00    2.17039   2.12129   -1.000
 5763.00    2.20181   2.13214   -1.000
 5764.00    2.23991   2.16333   -1.000
 5765.00    2.27066   2.19433   -1.000
 5766.00    2.27157   2.21074   -1.000
 5767.00    2.26406   2.21503   -1.000
 5768.00    2.27296   2.21325   -1.000
 5769.00    2.27850   2.20892   -1.000
 5770.00    2.27163   2.20325   -1.000
 5771.00    2.24193   2.19635   -1.000
 5772.00    2.23494   2.18780   -1.000
 5773.00    2.22936   2.17934   -1.000
 5774.00    2.20400   2.17399   -1.000
 5775.00    2.18262   2.17462  132.628
 5776.00    2.17629   2.18066  133.495
 5777.00    2.18254   2.18322  135.887
 5778.00    2.15346   2.17275  138.728
 5779.00    2.13088   2.14690  139.834
 5780.00    2.11771   2.11301  139.312
 5781.00    2.13548   2.08477   -1.000
 5782.00    2.15293   2.07269   -1.000
 5783.00    2.15590   2.07448   -1.000
 5784.00    2.15814   2.07913   -1.000
 5785.00    2.15615   2.08632   -1.000
 5786.00    2.18503   2.10413   -1.000
 5787.00    2.21110   2.12976   -1.000
 5788.00    2.24665   2.15096   -1.000
 5789.00    2.25067   2.15947   -1.000
 5790.00    2.22670   2.15696   -1.000
 5791.00    2.21935   2.15484   -1.000
 5792.00    2.19626   2.16426   -1.000
 5793.00    2.18572   2.18430  131.415
 5794.00    2.20333   2.20372  132.301
 5795.00    2.22228   2.21174  132.743
 5796.00    2.22810   2.20421   -1.000
 5797.00    2.23732   2.19028   -1.000
 5798.00    2.24853   2.18725   -1.000
 5799.00    2.27121   2.20234   -1.000
 5800.00    2.29310   2.22496   -1.000
 5801.00    2.29038   2.23880   -1.000
 5802.00    2.29453   2.23696   -1.000
 5803.00    2.28714   2.22225   -1.000
 5804.00    2.25508   2.20459   -1.000
 5805.00    2.25374   2.19483   -1.000
 5806.00    2.25601   2.19608   -1.000
 5807.00    2.24788   2.20382   -1.000
 5808.00    2.24840   2.21152   -1.000
 5809.00    2.26657   2.21769   -1.000
 5810.00    2.29353   2.22362   -1.000
 5811.00    2.30895   2.22758   -1.000
 5812.00    2.31537   2.22661   -1.000
 5813.00    2.31640   2.21902   -1.000
 5814.00    2.30109   2.20500   -1.000
 5815.00    2.27117   2.19000   -1.000
 5816.00    2.25873   2.18571   -1.000
 5817.00    2.28512   2.19866   -1.000
 5818.00    2.34159   2.22039   -1.000
 5819.00    2.36901   2.23692   -1.000
 5820.00    2.37024   2.24204   -1.000
 5821.00    2.35194   2.23977   -1.000
 5822.00    2.32486   2.23591   -1.000
 5823.00    2.30535   2.23378   -1.000
 5824.00    2.32683   2.23389   -1.000
 5825.00    2.32461   2.23559   -1.000
 5826.00    2.33061   2.23874   -1.000
 5827.00    2.33907   2.24266   -1.000
 5828.00    2.33395   2.24705   -1.000
 5829.00    2.34272   2.25038   -1.000
 5830.00    2.35118   2.25048   -1.000
 5831.00    2.33435   2.24775   -1.000
 5832.00    2.31070   2.24309   -1.000
 5833.00    2.31232   2.23653   -1.000
 5834.00    2.32055   2.23004   -1.000
 5835.00    2.32290   2.22801   -1.000
 5836.00    2.32736   2.23073   -1.000
 5837.00    2.32427   2.23340   -1.000
 5838.00    2.32226   2.23577   -1.000
 5839.00    2.32559   2.24157   -1.000
 5840.00    2.32932   2.25049   -1.000
 5841.00    2.32817   2.25782   -1.000
 5842.00    2.31747   2.25893   -1.000
 5843.00    2.32999   2.25321   -1.000
 5844.00    2.33202   2.24336   -1.000
 5845.00    2.32060   2.23166   -1.000
 5846.00    2.31901   2.21988   -1.000
 5847.00    2.30892   2.21169   -1.000
 5848.00    2.30406   2.21024   -1.000
 5849.00    2.30369   2.21237   -1.000
 5850.00    2.31717   2.20938   -1.000
 5851.00    2.31223   2.19626   -1.000
 5852.00    2.28967   2.17827   -1.000
 5853.00    2.27369   2.16589   -1.000
 5854.00    2.26268   2.16161   -1.000
 5855.00    2.25464   2.15429   -1.000
 5856.00    2.25369   2.13397   -1.000
 5857.00    2.21387   2.11077   -1.000
 5858.00    2.21834   2.10643   -1.000
 5859.00    2.24316   2.12745   -1.000
 5860.00    2.25964   2.15677   -1.000
 5861.00    2.28147   2.17647   -1.000
 5862.00    2.29824   2.18502   -1.000
 5863.00    2.30605   2.18870   -1.000
 5864.00    2.30623   2.18997   -1.000
 5865.00    2.30317   2.18508   -1.000
 5866.00    2.30223   2.17625   -1.000
 5867.00    2.30671   2.17566   -1.000
 5868.00    2.32346   2.18935   -1.000
 5869.00    2.33488   2.20853   -1.000
 5870.00    2.31526   2.22159   -1.000
 5871.00    2.32096   2.22393   -1.000
 5872.00    2.33414   2.21945   -1.000
 5873.00    2.32701   2.21490   -1.000
 5874.00    2.31367   2.21298   -1.000
 5875.00    2.32910   2.21145   -1.000
 5876.00    2.34440   2.20634   -1.000
 5877.00    2.32244   2.19612   -1.000
 5878.00    2.30039   2.18221   -1.000
 5879.00    2.27833   2.16878   -1.000
 5880.00    2.27392   2.16090   -1.000
 5881.00    2.27964   2.15963   -1.000
 5882.00    2.28874   2.15923   -1.000
 5883.00    2.25779   2.15368   -1.000
 5884.00    2.17065   2.14536   -1.000
 5885.00    2.02175   2.13453   -1.000
 5886.00    1.83900   2.10452   -1.000
 5887.00    1.69201   2.03028   -1.000
 5888.00    1.69483   1.90847   -1.000
 5889.00    1.76512   1.78627  156.397
 5890.00    1.81573   1.73476   -1.000
 5891.00    1.80306   1.77672   -1.000
 5892.00    1.76458   1.85688   -1.000
 5893.00    1.72295   1.89955   -1.000
 5894.00    1.75126   1.88054   -1.000
 5895.00    1.84895   1.83358  148.416
 5896.00    1.95307   1.82351   -1.000
 5897.00    2.06309   1.87866   -1.000
 5898.00    2.14107   1.96232   -1.000
 5899.00    2.20797   2.03344   -1.000
 5900.00    2.25680   2.08379   -1.000
 5901.00    2.29579   2.11913   -1.000
 5902.00    2.30926   2.14151   -1.000
 5903.00    2.28742   2.15332   -1.000
 5904.00    2.28217   2.15813   -1.000
 5905.00    2.27266   2.16006   -1.000
 5906.00    2.28066   2.16374   -1.000
 5907.00    2.28235   2.17065   -1.000
 5908.00    2.29551   2.17832   -1.000
 5909.00    2.30662   2.18503   -1.000
 5910.00    2.30710   2.18988   -1.000
 5911.00    2.31584   2.18876   -1.000
 5912.00    2.28223   2.17694   -1.000
 5913.00    2.22638   2.15536   -1.000
 5914.00    2.21320   2.13458   -1.000
 5915.00    2.24241   2.12728   -1.000
 5916.00    2.26800   2.13502   -1.000
 5917.00    2.26024   2.15105   -1.000
 5918.00    2.26856   2.16805   -1.000
 5919.00    2.29767   2.17979   -1.000
 5920.00    2.29779   2.18448   -1.000
 5921.00    2.29006   2.18396   -1.000
 5922.00    2.29541   2.18226   -1.000
 5923.00    2.29631   2.18453   -1.000
 5924.00    2.30000   2.19277   -1.000
 5925.00    2.31572   2.20255   -1.000
 5926.00    2.33764   2.20700   -1.000
 5927.00    2.33985   2.20111   -1.000
 5928.00    2.30232   2.18639   -1.000
 5929.00    2.26961   2.17264   -1.000
 5930.00    2.27113   2.17114   -1.000
 5931.00    2.29247   2.18202   -1.000
 5932.00    2.31756   2.19168   -1.000
 5933.00    2.31598   2.19031   -1.000
 5934.00    2.30499   2.18314   -1.000
 5935.00    2.30733   2.18316   -1.000
 5936.00    2.30368   2.19430   -1.000
 5937.00    2.31069   2.20664   -1.000
 5938.00    2.29509   2.21062   -1.000
 5939.00    2.29089   2.20411   -1.000
 5940.00    2.27105   2.19052   -1.000
 5941.00    2.26741   2.17807   -1.000
 5942.00    2.26701   2.17545   -1.000
 5943.00    2.27025   2.18431   -1.000
 5944.00    2.30059   2.19758   -1.000
 5945.00    2.32120   2.20633   -1.000
 5946.00    2.28951   2.20503   -1.000
 5947.00    2.27574   2.19411   -1.000
 5948.00    2.27848   2.18274   -1.000
 5949.00    2.27469   2.18180   -1.000
 5950.00    2.27789   2.18835   -1.000
 5951.00    2.28890   2.19053   -1.000
 5952.00    2.30205   2.18587   -1.000
 5953.00    2.28817   2.18224   -1.000
 5954.00    2.28458   2.18426   -1.000
 5955.00    2.30070   2.18535   -1.000
 5956.00    2.29707   2.18069   -1.000
 5957.00    2.27396   2.17813   -1.000
 5958.00    2.31058   2.18634   -1.000
 5959.00    2.33114   2.20321   -1.000
 5960.00    2.32796   2.22045   -1.000
 5961.00    2.34020   2.23130   -1.000
 5962.00    2.35428   2.23398   -1.000
 5963.00    2.32528   2.23001   -1.000
 5964.00    2.30903   2.22167   -1.000
 5965.00    2.29206   2.21333   -1.000
 5966.00    2.30346   2.21141   -1.000
 5967.00    2.32062   2.21751   -1.000
 5968.00    2.32152   2.22630   -1.000
 5969.00    2.32234   2.23421   -1.000
 5970.00    2.32340   2.24075   -1.000
 5971.00    2.33128   2.24429   -1.000
 5972.00    2.32469   2.24333   -1.000
 5973.00    2.30305   2.23750   -1.000
 5974.00    2.29259   2.22525   -1.000
 5975.00    2.29207   2.20712   -1.000
 5976.00    2.28135   2.19102   -1.000
 5977.00    2.28029   2.18562   -1.000
 5978.00    2.29902   2.19301   -1.000
 5979.00    2.31026   2.20829   -1.000
 5980.00    2.30633   2.22146   -1.000
 5981.00    2.30442   2.22198   -1.000
 5982.00    2.28520   2.20641   -1.000
 5983.00    2.26993   2.18399   -1.000
 5984.00    2.27347   2.17061   -1.000
 5985.00    2.27517   2.17571   -1.000
 5986.00    2.28207   2.19201   -1.000
 5987.00    2.27711   2.20751   -1.000
 5988.00    2.28225   2.21880   -1.000
 5989.00    2.30262   2.22518   -1.000
 5990.00    2.30446   2.22624   -1.000
 5991.00    2.30895   2.22720   -1.000
 5992.00    2.31118   2.23546   -1.000
 5993.00    2.32363   2.24931   -1.000
 5994.00    2.35110   2.25713   -1.000
 5995.00    2.35031   2.25095   -1.000
 5996.00    2.32375   2.23538   -1.000
 5997.00    2.29945   2.22150   -1.000
 5998.00    2.30982   2.21784   -1.000
 5999.00    2.32325   2.22341   -1.000
 6000.00    2.31604   2.22880   -1.000
 6001.00    2.28731   2.22753   -1.000
 6002.00    2.28611   2.22092   -1.000
 6003.00    2.28666   2.21680   -1.000
 6004.00    2.28519   2.21807   -1.000
 6005.00    2.29627   2.21429   -1.000
 6006.00    2.28990   2.19906   -1.000
 6007.00    2.25229   2.18203   -1.000
 6008.00    2.24513   2.17992   -1.000
 6009.00    2.27699   2.19814   -1.000
 6010.00    2.31144   2.21944   -1.000
 6011.00    2.31387   2.22505   -1.000
 6012.00    2.29541   2.21702   -1.000
 6013.00    2.28272   2.20886   -1.000
 6014.00    2.29830   2.20813   -1.000
 6015.00    2.30539   2.20972   -1.000
 6016.00    2.29715   2.20829   -1.000
 6017.00    2.28172   2.20678   -1.000
 6018.00    2.27791   2.20443   -1.000
 6019.00    2.25026   2.19693   -1.000
 6020.00    2.24402   2.18895   -1.000
 6021.00    2.25604   2.18825   -1.000
 6022.00    2.27136   2.19480   -1.000
 6023.00    2.29112   2.20508   -1.000
 6024.00    2.29133   2.21768   -1.000
 6025.00    2.31355   2.23139   -1.000
 6026.00    2.32131   2.24276   -1.000
 6027.00    2.31965   2.25142   -1.000
 6028.00    2.32097   2.26028   -1.000
 6029.00    2.34302   2.26812   -1.000
 6030.00    2.34458   2.27291   -1.000
 6031.00    2.34271   2.27664   -1.000
 6032.00    2.34178   2.28180   -1.000
 6033.00    2.34905   2.28951   -1.000
 6034.00    2.36629   2.29795   -1.000
 6035.00    2.35968   2.30222   -1.000
 6036.00    2.36339   2.29971   -1.000
 6037.00    2.37041   2.29171   -1.000
 6038.00    2.34476   2.28103   -1.000
 6039.00    2.31553   2.27123   -1.000
 6040.00    2.30223   2.26683   -1.000
 6041.00    2.30534   2.26969   -1.000
 6042.00    2.32116   2.27674   -1.000
 6043.00    2.35191   2.28567   -1.000
 6044.00    2.36505   2.29459   -1.000
 6045.00    2.36460   2.30100   -1.000
 6046.00    2.36559   2.30486   -1.000
 6047.00    2.35476   2.30747   -1.000
 6048.00    2.34028   2.30944   -1.000
 6049.00    2.35079   2.31030   -1.000
 6050.00    2.36950   2.30851   -1.000
 6051.00    2.37111   2.30244   -1.000
 6052.00    2.37454   2.29306   -1.000
 6053.00    2.37229   2.28223   -1.000
 6054.00    2.34957   2.27100   -1.000
 6055.00    2.32541   2.26175   -1.000
 6056.00    2.31369   2.25891   -1.000
 6057.00    2.31530   2.26397   -1.000
 6058.00    2.33249   2.27328   -1.000
 6059.00    2.35479   2.28194   -1.000
 6060.00    2.36896   2.28544   -1.000
 6061.00    2.36098   2.28035   -1.000
 6062.00    2.32836   2.26502   -1.000
 6063.00    2.28156   2.24231   -1.000
 6064.00    2.23926   2.22257   53.414
 6065.00    1.97224   2.21966   -1.000
 6066.00    1.14040   2.23890   -1.000
 6067.00    1.17751   2.26943   -1.000
 6068.00    2.27188   2.29445  129.900
 6069.00    2.30502   2.30807  130.163
 6070.00    2.17369   2.31482   -1.000
 6071.00    1.97133   2.31813   -1.000
 6072.00    1.25872   2.31839   -1.000
 6073.00    1.16408   2.31719   -1.000
 6074.00    2.36897   2.31492   -1.000
 6075.00    2.35949   2.30758   -1.000
 6076.00    2.32959   2.29391   -1.000
 6077.00    2.32539   2.27805   -1.000
 6078.00    2.31407   2.26613   -1.000
 6079.00    2.30124   2.26038   -1.000
 6080.00    2.29446   2.25645   -1.000
 6081.00    2.28897   2.25128   -1.000
 6082.00    2.29002   2.24801   -1.000
 6083.00    2.30580   2.24895   -1.000
 6084.00    2.29558   2.25199   -1.000
 6085.00    2.29821   2.25660   -1.000
 6086.00    2.29559   2.26347   -1.000
 6087.00    2.29898   2.26954   -1.000
 6088.00    2.30974   2.26898   -1.000
 6089.00    2.30252   2.26035   -1.000
 6090.00    2.28575   2.25024   -1.000
 6091.00    2.27062   2.24661   -1.000
 6092.00    2.27465   2.25197   -1.000
 6093.00    2.29493   2.26398   -1.000
 6094.00    2.31611   2.27739   -1.000
 6095.00    2.33431   2.28664   -1.000
 6096.00    2.33156   2.29098   -1.000
 6097.00    2.32362   2.29454   -1.000
 6098.00    2.33501   2.29703   -1.000
 6099.00    2.34381   2.28924   -1.000
 6100.00    2.29999   2.26207   -1.000
 6101.00    2.25119   2.21911   -1.000
 6102.00    2.23246   2.18483   -1.000
 6103.00    2.21999   2.18411   -1.000
 6104.00    2.23836   2.21326   -1.000
 6105.00    2.28715   2.24759   -1.000
 6106.00    2.30766   2.26945   -1.000
 6107.00    2.30565   2.28101   -1.000
 6108.00    2.29082   2.28973  136.567
 6109.00    2.29669   2.29579  136.177
 6110.00    2.32177   2.29650   -1.000
 6111.00    2.32045   2.29557   -1.000
 6112.00    2.30169   2.29882  135.355
 6113.00    2.29649   2.30547  136.105
 6114.00    2.31711   2.30904  136.737
 6115.00    2.32101   2.30639  137.057
 6116.00    2.31756   2.30171  138.324
 6117.00    2.31319   2.29603  140.361
 6118.00    2.30761   2.28100   -1.000
 6119.00    2.28151   2.25220   -1.000
 6120.00    2.25258   2.21619   -1.000
 6121.00    2.22336   2.18613   -1.000
 6122.00    2.21786   2.17989   -1.000
 6123.00    2.24584   2.20275   -1.000
 6124.00    2.27287   2.23498   -1.000
 6125.00    2.29079   2.25578   -1.000
 6126.00    2.28070   2.26282  138.374
 6127.00    2.26770   2.26445  137.095
 6128.00    2.27014   2.27028  136.218
 6129.00    2.27963   2.28357  136.253
 6130.00    2.29457   2.29993  136.984
 6131.00    2.30641   2.31248  139.126
 6132.00    2.30760   2.31380  142.844
 6133.00    2.29147   2.29508  146.891
 6134.00    2.25914   2.25023  149.140
 6135.00    2.20806   2.18783   -1.000
 6136.00    2.14690   2.13891  143.296
 6137.00    2.12191   2.13446  140.291
 6138.00    2.16035   2.17180  139.707
 6139.00    2.20563   2.21657  140.070
 6140.00    2.22961   2.23894  139.573
 6141.00    2.25606   2.24520  137.911
 6142.00    2.25443   2.25722  136.870
 6143.00    2.24547   2.27887   -1.000
 6144.00    2.27691   2.29770  137.938
 6145.00    2.29680   2.30429  138.883
 6146.00    2.28363   2.29957  139.815
 6147.00    2.28030   2.28837  140.267
 6148.00    2.27690   2.27534  139.983
 6149.00    2.26931   2.26527  139.231
 6150.00    2.27536   2.26264  138.568
 6151.00    2.26915   2.26783  139.054
 6152.00    2.26909   2.27458  140.144
 6153.00    2.27402   2.27430  140.538
 6154.00    2.25072   2.26559  140.804
 6155.00    2.23983   2.25672  141.835
 6156.00    2.25100   2.25257  143.938
 6157.00    2.24989   2.24815  147.487
 6158.00    2.22289   2.23231  152.029
 6159.00    2.19654   2.19332  155.126
 6160.00    2.16311   2.13206   -1.000
 6161.00    2.10046   2.07244   -1.000
 6162.00    2.07391   2.04695   -1.000
 6163.00    2.10025   2.06509   -1.000
 6164.00    2.15694   2.10763   -1.000
 6165.00    2.20505   2.14797   -1.000
 6166.00    2.21853   2.16934   -1.000
 6167.00    2.18898   2.16683   -1.000
 6168.00    2.15431   2.14742  147.470
 6169.00    2.14223   2.13296  144.840
 6170.00    2.15575   2.14320  143.860
 6171.00    2.19958   2.17348   -1.000
 6172.00    2.22588   2.20257   -1.000
 6173.00    2.23456   2.21995  143.681
 6174.00    2.24566   2.22898  143.369
 6175.00    2.23120   2.23351  142.824
 6176.00    2.24301   2.23667  142.174
 6177.00    2.26247   2.24208   -1.000
 6178.00    2.26234   2.24876  141.163
 6179.00    2.25638   2.25393  140.621
 6180.00    2.26432   2.25996  140.582
 6181.00    2.27538   2.26876  141.014
 6182.00    2.26033   2.27527  141.806
 6183.00    2.26645   2.27476  143.188
 6184.00    2.28216   2.26722  144.749
 6185.00    2.27187   2.25389  146.178
 6186.00    2.25823   2.23749   -1.000
 6187.00    2.24374   2.22207   -1.000
 6188.00    2.23508   2.20611   -1.000
 6189.00    2.22328   2.18339   -1.000
 6190.00    2.19389   2.15895   -1.000
 6191.00    2.17307   2.15154   -1.000
 6192.00    2.19147   2.17171   -1.000
 6193.00    2.23838   2.20775   -1.000
 6194.00    2.26510   2.23945   -1.000
 6195.00    2.27338   2.25777  143.705
 6196.00    2.26737   2.26321  145.204
 6197.00    2.24338   2.25611  145.725
 6198.00    2.22950   2.24001  144.858
 6199.00    2.20920   2.22793  143.120
 6200.00    2.19183   2.23169   -1.000
 6201.00    2.20263   2.24794   -1.000
 6202.00    2.24293   2.26575   -1.000
 6203.00    2.28416   2.27806  141.623
 6204.00    2.29909   2.28478  141.902
 6205.00    2.29593   2.28906  142.239
 6206.00    2.29241   2.29259  142.463
 6207.00    2.29015   2.29437  143.480
 6208.00    2.29237   2.29178  144.759
 6209.00    2.28319   2.28351  145.996
 6210.00    2.26874   2.26918  147.834
 6211.00    2.25746   2.24702  149.809
 6212.00    2.23976   2.21771   -1.000
 6213.00    2.22662   2.18978   -1.000
 6214.00    2.21288   2.17454   -1.000
 6215.00    2.21398   2.17520   -1.000
 6216.00    2.21777   2.18347   -1.000
 6217.00    2.21936   2.18762   -1.000
 6218.00    2.22355   2.18303   -1.000
 6219.00    2.22453   2.17720   -1.000
 6220.00    2.23372   2.18067   -1.000
 6221.00    2.23438   2.19311   -1.000
 6222.00    2.24487   2.20552   -1.000
 6223.00    2.14675   2.21286   -1.000
 6224.00    2.00141   2.21742   -1.000
 6225.00    2.16469   2.22133   -1.000
 6226.00    2.28328   2.22125   -1.000
 6227.00    2.22941   2.20988   -1.000
 6228.00    2.21434   2.18264   -1.000
 6229.00    2.19975   2.14712   -1.000
 6230.00    2.15948   2.12231   -1.000
 6231.00    2.13795   2.12340  147.116
 6232.00    2.16494   2.14994  145.575
 6233.00    2.21801   2.18825   -1.000
 6234.00    2.25837   2.22141   -1.000
 6235.00    2.26414   2.23723   -1.000
 6236.00    2.25943   2.23389   -1.000
 6237.00    2.26170   2.21870   -1.000
 6238.00    2.25246   2.20064   -1.000
 6239.00    2.22702   2.18618   -1.000
 6240.00    2.20777   2.17719   -1.000
 6241.00    2.20335   2.17008   -1.000
 6242.00    2.19895   2.16039   -1.000
 6243.00    2.18801   2.15010   -1.000
 6244.00    2.17301   2.14477   -1.000
 6245.00    2.17464   2.14879   -1.000
 6246.00    2.19524   2.16551   -1.000
 6247.00    2.22584   2.19189   -1.000
 6248.00    2.24761   2.21523   -1.000
 6249.00    2.25172   2.22252   -1.000
 6250.00    2.24772   2.20898   -1.000
 6251.00    2.20982   2.18094   -1.000
 6252.00    2.16787   2.15366  154.896
 6253.00    2.14813   2.13870  155.502
 6254.00    2.14226   2.13474  157.034
 6255.00    2.14470   2.13213  157.417
 6256.00    2.14594   2.12540   -1.000
 6257.00    2.13598   2.12094  153.307
 6258.00    2.12871   2.12886  151.130
 6259.00    2.15348   2.15131  148.950
 6260.00    2.20185   2.18099   -1.000
 6261.00    2.23559   2.20881   -1.000
 6262.00    2.24718   2.22821   -1.000
 6263.00    2.25426   2.23490   -1.000
 6264.00    2.25272   2.23221   -1.000
 6265.00    2.23575   2.23033  147.727
 6266.00    2.19377   2.23509   -1.000
 6267.00    2.19816   2.24066   -1.000
 6268.00    2.22284   2.24026  148.360
 6269.00    2.21803   2.23704  147.912
 6270.00    2.20822   2.23748   -1.000
 6271.00    2.22046   2.24217  148.711
 6272.00    2.23642   2.24503  149.899
 6273.00    2.22353   2.23936  151.688
 6274.00    2.17997   2.22389   -1.000
 6275.00    2.12996   2.20307   -1.000
 6276.00    2.10270   2.18223   -1.000
 6277.00    2.10470   2.16491   -1.000
 6278.00    2.10285   2.15247   -1.000
 6279.00    2.05639   2.14606   -1.000
 6280.00    2.03221   2.15021   -1.000
 6281.00    2.06114   2.16802   -1.000
 6282.00    2.10284   2.19528   -1.000
 6283.00    2.13614   2.22306   -1.000
 6284.00    2.17158   2.24410   -1.000
 6285.00    2.22146   2.25748   -1.000
 6286.00    2.24296   2.26692   -1.000
 6287.00    2.24281   2.27308   -1.000
 6288.00    2.24418   2.27210   -1.000
 6289.00    2.24609   2.26258  149.945
 6290.00    2.24610   2.24943  150.116
 6291.00    2.23490   2.23934  150.328
 6292.00    2.22591   2.23493  151.045
 6293.00    2.22866   2.23345  152.198
 6294.00    2.23900   2.22900  152.800
 6295.00    2.24543   2.21721   -1.000
 6296.00    2.28011   2.20217   -1.000
 6297.00    2.34003   2.19308   -1.000
 6298.00    2.39814   2.19312   -1.000
 6299.00    2.40892   2.19453   -1.000
 6300.00    2.33819   2.18954   -1.000
 6301.00    2.23331   2.18451   -1.000
 6302.00    2.18186   2.19076  149.555
 6303.00    2.18969   2.20870  148.041
 6304.00    2.21018   2.23004  146.767
 6305.00    2.22849   2.24866  145.962
 6306.00    2.24216   2.26419   -1.000
 6307.00    2.24824   2.27569   -1.000
 6308.00    2.26105   2.27992  147.915
 6309.00    2.28335   2.27683  148.470
 6310.00    2.25849   2.26979  148.855
 6311.00    2.21809   2.26197   -1.000
 6312.00    2.20279   2.25390   -1.000
 6313.00    2.19065   2.24296   -1.000
 6314.00    2.17331   2.22964   -1.000
 6315.00    2.17044   2.21850   -1.000
 6316.00    2.16310   2.21010   -1.000
 6317.00    2.14644   2.20414   -1.000
 6318.00    2.15129   2.20780   -1.000
 6319.00    2.18780   2.22497   -1.000
 6320.00    2.21941   2.24594   -1.000
 6321.00    2.23496   2.26139   -1.000
 6322.00    2.25066   2.27324  144.820
 6323.00    2.26863   2.28613  144.578
 6324.00    2.27959   2.29827  144.196
 6325.00    2.27184   2.30497   -1.000
 6326.00    2.26054   2.30608   -1.000
 6327.00    2.26907   2.30538   -1.000
 6328.00    2.27689   2.30495   -1.000
 6329.00    2.28681   2.30500  143.494
 6330.00    2.28179   2.30787   -1.000
 6331.00    2.27030   2.31329   -1.000
 6332.00    2.24882   2.31279   -1.000
 6333.00    2.23805   2.29776   -1.000
 6334.00    2.21810   2.27048   -1.000
 6335.00    2.02511   2.24611   -1.000
 6336.00    1.95336   2.23944   -1.000
 6337.00    2.18022   2.25068   -1.000
 6338.00    2.24495   2.27069   -1.000
 6339.00    2.24495   2.29100   -1.000
 6340.00    2.27276   2.30430   -1.000
 6341.00    2.27969   2.30507   -1.000
 6342.00    2.25387   2.29493   -1.000
 6343.00    2.23847   2.28354   -1.000
 6344.00    2.23470   2.28198   -1.000
 6345.00    2.24348   2.29227   -1.000
 6346.00    2.27668   2.30810   -1.000
 6347.00    2.28322   2.32356   -1.000
 6348.00    2.26191   2.33602   -1.000
 6349.00    2.26932   2.34419   -1.000
 6350.00    2.28902   2.34698   -1.000
 6351.00    2.28071   2.34328   -1.000
 6352.00    2.28035   2.33209   -1.000
 6353.00    2.28734   2.31560   -1.000
 6354.00    2.27000   2.30064   -1.000
 6355.00    2.24114   2.29167   -1.000
 6356.00    2.22493   2.28418   -1.000
 6357.00    2.22766   2.27202   -1.000
 6358.00    2.22926   2.25741   -1.000
 6359.00    2.22731   2.24651  146.667
 6360.00    2.23829   2.23968  146.358
 6361.00    2.26187   2.23535   -1.000
 6362.00    2.27639   2.23646   -1.000
 6363.00    2.25780   2.24611  143.777
 6364.00    2.24708   2.26249  142.939
 6365.00    2.25437   2.28117   -1.000
 6366.00    2.25409   2.29927   -1.000
 6367.00    2.25991   2.31426   -1.000
 6368.00    2.26730   2.32271   -1.000
 6369.00    2.27738   2.32516   -1.000
 6370.00    2.28622   2.32718   -1.000
 6371.00    2.29319   2.33309   -1.000
 6372.00    2.29137   2.34165   -1.000
 6373.00    2.27464   2.34798   -1.000
 6374.00    2.26609   2.34942   -1.000
 6375.00    2.23748   2.34694   -1.000
 6376.00    2.22611   2.34131   -1.000
 6377.00    2.25442   2.33330   -1.000
 6378.00    2.25665   2.32507   -1.000
 6379.00    2.24518   2.31853   -1.000
 6380.00    2.24235   2.31511   -1.000
 6381.00    2.24974   2.31539   -1.000
 6382.00    2.25244   2.31781   -1.000
 6383.00    2.25047   2.32046   -1.000
 6384.00    2.24347   2.32401   -1.000
 6385.00    2.25022   2.32970   -1.000
 6386.00    2.24764   2.33558   -1.000
 6387.00    2.21981   2.33871   -1.000
 6388.00    2.22127   2.33902   -1.000
 6389.00    2.23051   2.33551   -1.000
 6390.00    2.21401   2.32317   -1.000
 6391.00    2.18862   2.30009   -1.000
 6392.00    2.17508   2.27595   -1.000
 6393.00    2.14976   2.26814   -1.000
 6394.00    2.12522   2.28366   -1.000
 6395.00    2.11945   2.30967   -1.000
 6396.00    2.13963   2.32581   -1.000
 6397.00    2.15087   2.31880   -1.000
 6398.00    2.11985   2.29178   -1.000
 6399.00    2.06863   2.26614   -1.000
 6400.00    2.03936   2.26603   -1.000
 6401.00    2.05668   2.29344   -1.000
 6402.00    2.09427   2.32835   -1.000
 6403.00    2.11564   2.35228   -1.000
 6404.00    2.10993   2.35823   -1.000
 6405.00    2.09036   2.34757   -1.000
 6406.00    2.07001   2.32948   -1.000
 6407.00    2.05345   2.31678   -1.000
 6408.00    2.01967   2.31501   -1.000
 6409.00    1.98029   2.31769   -1.000
 6410.00    1.97099   2.31602   -1.000
 6411.00    1.98004   2.31190   -1.000
 6412.00    1.97953   2.31318   -1.000
 6413.00    1.96840   2.32086   -1.000
 6414.00    1.97634   2.33048   -1.000
 6415.00    1.98017   2.33798   -1.000
 6416.00    1.95586   2.33972   -1.000
 6417.00    1.94474   2.33221   -1.000
 6418.00    1.92509   2.31477   -1.000
 6419.00    1.87374   2.29396   -1.000
 6420.00    1.84076   2.28359   -1.000
 6421.00    1.83130   2.29394   -1.000
 6422.00    1.82717   2.31971   -1.000
 6423.00    1.84376   2.34570   -1.000
 6424.00    1.85408   2.36317   -1.000
 6425.00    1.83469   2.37336   -1.000
 6426.00    1.82156   2.37765   -1.000
 6427.00    1.79848   2.37116   -1.000
 6428.00    0.92158   2.34970   -1.000
