###################################################################
## OUTPUT of StarlightChains_v04.for    [Cid@UFSC - 01/Apr/2007] ##
###################################################################

## Some input info
NGC6171_b_1.cxt                          [arq_obs]
Base.BC03.S                              [arq_base]
NGC6171_b_1.msk                          [arq_masks]
StCv04.C99.config                        [arq_config]
  150                                    [N_base]
    0                                    [N_YAV_components = # of components with extra extinction!]
    0                                    [i_FitPowerLaw (1/0 = Yes/No)]
-9.99                                    [alpha_PowerLaw]
CCM                                      [red_law_option]
 1.458241                                [q_norm = A(l_norm)/A(V)]

## (Re)Sampling Parameters
 3359.00                                 [l_ini (A)]
 6428.00                                 [l_fin (A)]
    1.00                                 [dl    (A)]     (OBS: dl_cushion =    50.00 A)

## Normalization info
 4020.00                                 [l_norm (A) - for base]
 4010.00                                 [llow_norm (A) - window for f_obs]
 4060.00                                 [lupp_norm (A) - window for f_obs]
4.350830E-15                             [fobs_norm (in input units)]

## S/N
 4730.00                                 [llow_SN (A) - window for S/N]
 4780.00                                 [lupp_SN (A) - window for S/N]
  48.767                                 [S/N in S/N window]
  32.704                                 [S/N in norm. window]
 245.356                                 [S/N_err in S/N window]
 164.540                                 [S/N_err in norm. window]
  1.0000                                 [fscale_chi2]

## etc...
  2147483626                             [idum_orig]
  3066                                   [NOl_eff]
   906                                   [Nl_eff]
  2160    NSIGMA                         [Ntot_cliped & clip_method]
  4045580                                [Nglobal_steps]
   7                                     [N_chains]
  22                                     [NEX0s_base = N_base in EX0s-fits]
 0   0   1      191   2.0   3.637E+02    [Clip-Bug, RC-Crash & Burn-In warning-flags, n_censored_weights, wei_nsig_threshold & wei_limit]
   168    168.197    168.189      0.008  [idt_all, wdt_TotTime, wdt_UsrTime & wdt_SysTime (sec)]

## Synthesis Results - Best model ##

 2.87721E+00                             [chi2/Nl_eff]
     1.14219                             [adev (%)]

    98.35687                             [sum-of-x (%)]
 2.81811E-14                             [Flux_tot (units of input spectrum!)]
 9.42167E-10                             [Mini_tot (???)]
 4.68948E-10                             [Mcor_tot (???)]

 -22.71                                  [v0_min  (km/s)]
   3.69                                  [vd_min  (km/s)]
 1.4034                                  [AV_min  (mag)]
 0.0000                                  [YAV_min (mag)]

# j     x_j(%)      Mini_j(%)     Mcor_j(%)     age_j(yr)     Z_j      (L/M)_j    YAV?  Mstars   component_j        a/Fe...       SSP_chi2r SSP_adev(%)   SSP_AV   SSP_x(%)
  1      0.0000     9.0954E-08    1.8274E-07    1.000000E+06  0.00010  8.160E-03    0   1.0000   age020_m22            0.0000     2.2960E+03    23.9785   4.0000    99.7575
  2      2.5581     1.6346E-03    3.2842E-03    3.160000E+06  0.00010  4.759E-02    0   1.0000   age045_m22            0.0000     1.6436E+02     5.0174   2.9357    99.2048
  3     17.6021     2.7707E-02    5.3339E-02    5.010000E+06  0.00010  1.932E-02    0   0.9582   age055_m22            0.0000     3.9217E+02    10.5798   3.1391    89.0707
  4      0.0000     0.0000E+00    0.0000E+00    6.610000E+06  0.00010  9.973E-03    0   0.9297   age061_m22            0.0000     2.1639E+03    23.2074   4.0000   102.4043
  5      0.0000     0.0000E+00    0.0000E+00    8.710000E+06  0.00010  7.690E-03    0   0.9030   age067_m22            0.0000     2.1095E+03    22.8843   4.0000   102.7290
  6      0.0000     0.0000E+00    0.0000E+00    1.000000E+07  0.00010  6.375E-03    0   0.8902   age070_m22            0.0000     2.1461E+03    22.9415   4.0000   103.0961
  7      0.0000     0.0000E+00    0.0000E+00    1.445000E+07  0.00010  4.874E-03    0   0.8589   age078_m22            0.0000     1.4013E+03    18.8045   4.0000   102.8949
  8      0.0000     0.0000E+00    0.0000E+00    2.512000E+07  0.00010  4.103E-03    0   0.8174   age090_m22            0.0000     4.5186E+02    10.3820   4.0000   100.5604
  9      0.0000     0.0000E+00    0.0000E+00    4.000000E+07  0.00010  3.654E-03    0   0.7830   age104_m22            0.0000     3.2387E+02     7.3995   4.0000    97.6326
 10      0.0000     0.0000E+00    0.0000E+00    5.500000E+07  0.00010  3.093E-03    0   0.7597   age110_m22            0.0000     3.4625E+02     7.7021   3.9438    97.9119
 11      0.0000     0.0000E+00    0.0000E+00    1.015200E+08  0.00010  2.431E-03    0   0.7138   age116_m22            0.0000     4.2158E+02     8.5484   3.6231   100.1822
 12      0.0000     0.0000E+00    0.0000E+00    1.609000E+08  0.00010  1.319E-03    0   0.6775   age120_m22            0.0000     4.0379E+02     8.1070   3.1515   102.4373
 13      0.0000     0.0000E+00    0.0000E+00    2.861200E+08  0.00010  1.075E-03    0   0.6412   age125_m22            0.0000     7.8372E+02    11.3525   3.2705   104.1090
 14      0.0000     0.0000E+00    0.0000E+00    5.088000E+08  0.00010  7.183E-04    0   0.6083   age130_m22            0.0000     9.1456E+02    12.3630   3.0557   105.3096
 15      0.0000     0.0000E+00    0.0000E+00    9.047900E+08  0.00010  4.524E-04    0   0.5785   age135_m22            0.0000     9.2796E+02    12.5300   2.8594   106.4323
 16      0.0000     0.0000E+00    0.0000E+00    1.278050E+09  0.00010  3.018E-04    0   0.5588   age138_m22            0.0000     5.3892E+02     9.4845   2.2994   105.7125
 17      0.0000     0.0000E+00    0.0000E+00    1.434000E+09  0.00010  2.691E-04    0   0.5532   age139_m22            0.0000     4.6958E+02     8.8509   2.1368   105.3867
 18      0.0000     0.0000E+00    0.0000E+00    2.500000E+09  0.00010  1.582E-04    0   0.5296   age150_m22            0.0000     4.2248E+02     8.5061   2.0125   106.5219
 19      0.0000     0.0000E+00    0.0000E+00    4.250000E+09  0.00010  1.007E-04    0   0.5110   age158_m22            0.0000     2.8600E+02     7.0629   1.8412   105.4114
 20      0.0000     0.0000E+00    0.0000E+00    6.250000E+09  0.00010  6.869E-05    0   0.4985   age166_m22            0.0000     1.8031E+02     5.5996   1.7613   103.2715
 21      0.0000     0.0000E+00    0.0000E+00    7.500000E+09  0.00010  5.873E-05    0   0.4931   age171_m22            0.0000     1.6611E+02     5.4189   1.7426   102.9497
 22      0.0000     0.0000E+00    0.0000E+00    1.000000E+10  0.00010  4.481E-05    0   0.4854   age181_m22            0.0000     1.6066E+02     5.3268   1.7042   102.5924
 23      0.0000     0.0000E+00    0.0000E+00    1.300000E+10  0.00010  3.489E-05    0   0.4791   age193_m22            0.0000     1.4859E+02     5.1041   1.6467   102.0637
 24      0.0000     0.0000E+00    0.0000E+00    1.500000E+10  0.00010  3.035E-05    0   0.4766   age201_m22            0.0000     1.4033E+02     4.9616   1.6069   101.9101
 25      0.0064     7.7451E-03    7.3680E-03    1.800000E+10  0.00010  2.510E-05    0   0.4735   age213_m22            0.0000     1.2204E+02     4.6230   1.5352   101.4112
 26      0.0000     0.0000E+00    0.0000E+00    1.000000E+06  0.00040  8.458E-03    0   1.0000   age020_m32            0.0000     2.3584E+03    24.1403   4.0000   100.7586
 27      0.0000     0.0000E+00    0.0000E+00    3.160000E+06  0.00040  3.973E-02    0   1.0000   age045_m32            0.0000     3.3025E+02     9.0285   4.0000    97.9754
 28      0.0000     0.0000E+00    0.0000E+00    5.010000E+06  0.00040  1.935E-02    0   0.9532   age055_m32            0.0000     7.1862E+02    14.3651   4.0000    97.5233
 29      0.0000     0.0000E+00    0.0000E+00    6.610000E+06  0.00040  1.204E-02    0   0.9243   age061_m32            0.0000     1.5747E+03    20.1134   4.0000   102.0332
 30      0.0000     0.0000E+00    0.0000E+00    8.710000E+06  0.00040  9.433E-03    0   0.9001   age067_m32            0.0000     1.4542E+03    19.2980   4.0000   102.4506
 31      0.0000     0.0000E+00    0.0000E+00    1.000000E+07  0.00040  8.053E-03    0   0.8877   age070_m32            0.0000     1.3288E+03    18.5190   4.0000   102.2437
 32      0.0000     0.0000E+00    0.0000E+00    1.445000E+07  0.00040  7.027E-03    0   0.8578   age078_m32            0.0000     3.2586E+02     9.2847   4.0000    95.7500
 33      0.0000     0.0000E+00    0.0000E+00    2.512000E+07  0.00040  4.707E-03    0   0.8166   age090_m32            0.0000     2.5583E+02     7.0647   3.8493    95.9685
 34      0.0000     0.0000E+00    0.0000E+00    4.000000E+07  0.00040  3.714E-03    0   0.7827   age104_m32            0.0000     2.8814E+02     6.9782   3.6813    98.3251
 35      0.0000     0.0000E+00    0.0000E+00    5.500000E+07  0.00040  2.982E-03    0   0.7593   age110_m32            0.0000     3.1949E+02     7.3463   3.6346    99.0678
 36      0.0000     0.0000E+00    0.0000E+00    1.015200E+08  0.00040  2.188E-03    0   0.7143   age116_m32            0.0000     5.1779E+02     9.3218   3.4199   101.8054
 37      0.0000     0.0000E+00    0.0000E+00    1.609000E+08  0.00040  1.690E-03    0   0.6856   age120_m32            0.0000     6.6411E+02    10.4781   3.2372   103.7556
 38      0.0000     0.0000E+00    0.0000E+00    2.861200E+08  0.00040  1.152E-03    0   0.6509   age125_m32            0.0000     8.0917E+02    11.5995   3.0298   105.0055
 39      0.0000     0.0000E+00    0.0000E+00    5.088000E+08  0.00040  7.331E-04    0   0.6182   age130_m32            0.0000     8.6678E+02    12.0576   2.8758   105.4485
 40      0.0000     0.0000E+00    0.0000E+00    9.047900E+08  0.00040  3.960E-04    0   0.5890   age135_m32            0.0000     5.7002E+02     9.8402   2.3939   104.8657
 41      0.0000     0.0000E+00    0.0000E+00    1.278050E+09  0.00040  2.854E-04    0   0.5687   age138_m32            0.0000     4.7221E+02     9.0546   2.0865   107.2236
 42      0.0000     0.0000E+00    0.0000E+00    1.434000E+09  0.00040  2.531E-04    0   0.5632   age139_m32            0.0000     4.5871E+02     8.9220   2.0244   107.2288
 43      0.0000     0.0000E+00    0.0000E+00    2.500000E+09  0.00040  1.488E-04    0   0.5386   age150_m32            0.0000     3.5386E+02     7.8578   1.7581   105.6487
 44      0.0000     0.0000E+00    0.0000E+00    4.250000E+09  0.00040  9.082E-05    0   0.5199   age158_m32            0.0000     1.7266E+02     5.4596   1.6283   103.2861
 45     10.9244     5.2219E+00    5.3254E+00    6.250000E+09  0.00040  6.362E-05    0   0.5076   age166_m32            0.0000     7.8514E+01     3.7221   1.5543   100.9150
 46     18.0947     1.0404E+01    1.0508E+01    7.500000E+09  0.00040  5.289E-05    0   0.5027   age171_m32            0.0000     6.4365E+01     3.3617   1.5137    99.7787
 47     16.7197     1.2801E+01    1.2726E+01    1.000000E+10  0.00040  3.972E-05    0   0.4948   age181_m32            0.0000     5.6303E+01     3.1153   1.4510    98.4359
 48      0.0017     1.5768E-03    1.5428E-03    1.300000E+10  0.00040  3.283E-05    0   0.4870   age193_m32            0.0000     8.7610E+01     3.8975   1.4242   100.7241
 49      0.0000     0.0000E+00    0.0000E+00    1.500000E+10  0.00040  2.925E-05    0   0.4854   age201_m32            0.0000     1.1484E+02     4.4898   1.4169   102.0190
 50      0.0079     9.6840E-03    9.3759E-03    1.800000E+10  0.00040  2.469E-05    0   0.4819   age213_m32            0.0000     1.2504E+02     4.6953   1.3807   102.4345
 51      0.0000     0.0000E+00    0.0000E+00    1.000000E+06  0.00400  1.114E-02    0   1.0000   age020_m42            0.0000     2.0376E+03    22.6258   4.0000   100.1010
 52      0.0000     0.0000E+00    0.0000E+00    3.160000E+06  0.00400  4.073E-02    0   0.9999   age045_m42            0.0000     2.0218E+02     6.1878   3.8922    95.5164
 53      0.0000     0.0000E+00    0.0000E+00    5.010000E+06  0.00400  2.534E-02    0   0.9488   age055_m42            0.0000     4.4124E+02    11.2913   4.0000    96.9060
 54      0.0000     0.0000E+00    0.0000E+00    6.610000E+06  0.00400  2.583E-02    0   0.9220   age061_m42            0.0000     2.2283E+02     6.2953   3.7273    96.0577
 55      0.0000     0.0000E+00    0.0000E+00    8.710000E+06  0.00400  1.706E-02    0   0.8983   age067_m42            0.0000     2.0889E+02     6.8399   3.5254    95.3160
 56      0.0000     0.0000E+00    0.0000E+00    1.000000E+07  0.00400  1.271E-02    0   0.8862   age070_m42            0.0000     2.5050E+02     8.0734   3.4952    94.5033
 57      0.0000     0.0000E+00    0.0000E+00    1.445000E+07  0.00400  7.666E-03    0   0.8571   age078_m42            0.0000     2.9244E+02     9.2655   3.8699    91.8162
 58      0.0000     0.0000E+00    0.0000E+00    2.512000E+07  0.00400  5.070E-03    0   0.8174   age090_m42            0.0000     2.0791E+02     7.3987   3.3673    96.1554
 59      0.0000     0.0000E+00    0.0000E+00    4.000000E+07  0.00400  3.505E-03    0   0.7851   age104_m42            0.0000     1.3855E+02     5.7446   3.0711    98.5986
 60      0.0000     0.0000E+00    0.0000E+00    5.500000E+07  0.00400  3.059E-03    0   0.7629   age110_m42            0.0000     2.3068E+02     5.7921   3.1829   101.4053
 61      0.0000     0.0000E+00    0.0000E+00    1.015200E+08  0.00400  2.268E-03    0   0.7207   age116_m42            0.0000     5.7465E+02     9.5910   3.1551   104.5124
 62      0.0000     0.0000E+00    0.0000E+00    1.609000E+08  0.00400  1.720E-03    0   0.6930   age120_m42            0.0000     6.2892E+02    10.0936   3.0232   105.6613
 63      0.0000     0.0000E+00    0.0000E+00    2.861200E+08  0.00400  1.079E-03    0   0.6613   age125_m42            0.0000     6.1723E+02    10.1659   2.6712   106.1252
 64      0.0000     0.0000E+00    0.0000E+00    5.088000E+08  0.00400  6.261E-04    0   0.6313   age130_m42            0.0000     6.9205E+02    10.8321   2.4826   108.8637
 65      0.0000     0.0000E+00    0.0000E+00    9.047900E+08  0.00400  3.535E-04    0   0.6024   age135_m42            0.0000     4.6256E+02     8.9748   2.0664   109.6683
 66      0.0029     3.3191E-04    3.8924E-04    1.278050E+09  0.00400  2.677E-04    0   0.5837   age138_m42            0.0000     2.5094E+02     7.3714   1.3793   107.2929
 67      0.0000     0.0000E+00    0.0000E+00    1.434000E+09  0.00400  1.910E-04    0   0.5716   age139_m42            0.0000     2.8860E+02     7.5504   1.5507   107.9963
 68      0.0000     0.0000E+00    0.0000E+00    2.500000E+09  0.00400  9.818E-05    0   0.5463   age150_m42            0.0000     1.4837E+02     5.8112   1.2574   103.8044
 69      1.8015     9.9772E-01    1.0562E+00    4.250000E+09  0.00400  5.491E-05    0   0.5269   age158_m42            0.0000     1.1110E+02     5.1062   1.1182   101.5213
 70      0.0000     0.0000E+00    0.0000E+00    6.250000E+09  0.00400  3.857E-05    0   0.5151   age166_m42            0.0000     1.3434E+02     5.4957   0.9948   100.1009
 71      2.5436     2.3853E+00    2.4488E+00    7.500000E+09  0.00400  3.243E-05    0   0.5110   age171_m42            0.0000     1.5979E+02     5.8867   0.9203    99.4386
 72      4.9047     6.1533E+00    6.2159E+00    1.000000E+10  0.00400  2.424E-05    0   0.5028   age181_m42            0.0000     1.9900E+02     6.4258   0.8449    98.6989
 73      3.8940     6.2889E+00    6.2253E+00    1.300000E+10  0.00400  1.883E-05    0   0.4927   age193_m42            0.0000     2.3263E+02     6.8098   0.8057    98.3928
 74      6.7578     1.2196E+01    1.2053E+01    1.500000E+10  0.00400  1.685E-05    0   0.4919   age201_m42            0.0000     2.2277E+02     6.6580   0.8088    98.4540
 75      3.7746     7.9054E+00    7.7413E+00    1.800000E+10  0.00400  1.452E-05    0   0.4874   age213_m42            0.0000     2.0606E+02     6.3988   0.8212    98.8126
 76      0.0000     0.0000E+00    0.0000E+00    1.000000E+06  0.00800  1.286E-02    0   1.0000   age020_m52            0.0000     1.9069E+03    21.7607   4.0000   101.6052
 77      0.0000     0.0000E+00    0.0000E+00    3.160000E+06  0.00800  3.147E-02    0   0.9966   age045_m52            0.0000     1.5950E+03    20.1837   4.0000   101.8458
 78      0.0000     0.0000E+00    0.0000E+00    5.010000E+06  0.00800  2.664E-02    0   0.9443   age055_m52            0.0000     6.6081E+02    13.6726   4.0000    98.7477
 79      0.0000     0.0000E+00    0.0000E+00    6.610000E+06  0.00800  2.151E-02    0   0.9177   age061_m52            0.0000     1.5446E+02     6.7999   3.0864    96.2119
 80      0.0000     0.0000E+00    0.0000E+00    8.710000E+06  0.00800  1.628E-02    0   0.8948   age067_m52            0.0000     2.0931E+02     7.2869   3.4715    96.2336
 81      0.0000     0.0000E+00    0.0000E+00    1.000000E+07  0.00800  1.215E-02    0   0.8827   age070_m52            0.0000     2.5528E+02     8.2404   3.8004    94.6154
 82      0.0000     0.0000E+00    0.0000E+00    1.445000E+07  0.00800  8.739E-03    0   0.8552   age078_m52            0.0000     2.5511E+02     7.6860   3.8529    95.4938
 83      0.0000     0.0000E+00    0.0000E+00    2.512000E+07  0.00800  5.676E-03    0   0.8162   age090_m52            0.0000     2.6298E+02     6.7486   3.4952    99.2316
 84      0.0000     0.0000E+00    0.0000E+00    4.000000E+07  0.00800  3.939E-03    0   0.7841   age104_m52            0.0000     2.8147E+02     6.5232   3.3577   100.9171
 85      0.0000     0.0000E+00    0.0000E+00    5.500000E+07  0.00800  3.155E-03    0   0.7627   age110_m52            0.0000     3.3864E+02     7.1885   3.3445   102.0842
 86      0.0000     0.0000E+00    0.0000E+00    1.015200E+08  0.00800  2.206E-03    0   0.7226   age116_m52            0.0000     4.8146E+02     8.7539   3.1935   104.9295
 87      0.0000     0.0000E+00    0.0000E+00    1.609000E+08  0.00800  1.596E-03    0   0.6963   age120_m52            0.0000     5.4629E+02     9.3971   2.9919   106.2061
 88      0.0000     0.0000E+00    0.0000E+00    2.861200E+08  0.00800  1.002E-03    0   0.6665   age125_m52            0.0000     7.4174E+02    11.3343   2.7324   107.9193
 89      0.0000     0.0000E+00    0.0000E+00    5.088000E+08  0.00800  5.759E-04    0   0.6377   age130_m52            0.0000     8.0027E+02    12.0375   2.3990   111.3874
 90      0.0000     0.0000E+00    0.0000E+00    9.047900E+08  0.00800  2.972E-04    0   0.6086   age135_m52            0.0000     5.5165E+02    10.2876   1.8581   110.2052
 91      0.0000     0.0000E+00    0.0000E+00    1.278050E+09  0.00800  2.242E-04    0   0.5907   age138_m52            0.0000     3.1115E+02     8.0957   1.2218   109.7384
 92      0.0000     0.0000E+00    0.0000E+00    1.434000E+09  0.00800  1.645E-04    0   0.5787   age139_m52            0.0000     2.6640E+02     7.4421   1.3584   109.4493
 93      0.0000     0.0000E+00    0.0000E+00    2.500000E+09  0.00800  7.723E-05    0   0.5519   age150_m52            0.0000     2.1581E+02     6.9116   1.0061   106.0797
 94      0.0000     0.0000E+00    0.0000E+00    4.250000E+09  0.00800  4.151E-05    0   0.5320   age158_m52            0.0000     2.0011E+02     6.7370   0.9304   103.6086
 95      0.0000     0.0000E+00    0.0000E+00    6.250000E+09  0.00800  3.010E-05    0   0.5197   age166_m52            0.0000     2.6056E+02     7.4752   0.7418   102.0920
 96      0.0000     0.0000E+00    0.0000E+00    7.500000E+09  0.00800  2.467E-05    0   0.5139   age171_m52            0.0000     2.8151E+02     7.7333   0.7029   101.6317
 97      0.0000     0.0000E+00    0.0000E+00    1.000000E+10  0.00800  1.862E-05    0   0.5054   age181_m52            0.0000     3.5861E+02     8.5978   0.5818   101.0230
 98      0.0000     0.0000E+00    0.0000E+00    1.300000E+10  0.00800  1.433E-05    0   0.4988   age193_m52            0.0000     4.4545E+02     9.3864   0.4928   101.5216
 99      0.0000     0.0000E+00    0.0000E+00    1.500000E+10  0.00800  1.244E-05    0   0.4936   age201_m52            0.0000     4.8147E+02     9.6695   0.4658   101.9534
100      0.0000     0.0000E+00    0.0000E+00    1.800000E+10  0.00800  1.070E-05    0   0.4888   age213_m52            0.0000     5.0992E+02     9.9151   0.4347   101.7163
101      0.0000     0.0000E+00    0.0000E+00    1.000000E+06  0.02000  1.989E-02    0   1.0000   age020_m62            0.0000     1.8739E+03    21.6638   4.0000   100.4455
102      0.0000     0.0000E+00    0.0000E+00    3.160000E+06  0.02000  3.772E-02    0   0.9858   age045_m62            0.0000     1.3826E+03    19.1379   4.0000   100.3875
103      0.0000     0.0000E+00    0.0000E+00    5.010000E+06  0.02000  3.227E-02    0   0.9342   age055_m62            0.0000     3.1073E+02     8.8403   4.0000    96.4766
104      0.0000     0.0000E+00    0.0000E+00    6.610000E+06  0.02000  2.387E-02    0   0.9090   age061_m62            0.0000     3.0926E+02     9.1432   3.8604    93.5083
105      0.0000     0.0000E+00    0.0000E+00    8.710000E+06  0.02000  1.102E-02    0   0.8861   age067_m62            0.0000     7.8187E+02    15.0000   3.4487    90.8338
106      0.0000     0.0000E+00    0.0000E+00    1.000000E+07  0.02000  1.011E-02    0   0.8751   age070_m62            0.0000     5.0235E+02    12.2333   3.4834    92.6316
107      0.0000     0.0000E+00    0.0000E+00    1.445000E+07  0.02000  7.331E-03    0   0.8472   age078_m62            0.0000     3.3518E+02    10.0874   3.5108    93.5232
108      0.0000     0.0000E+00    0.0000E+00    2.512000E+07  0.02000  4.206E-03    0   0.8099   age090_m62            0.0000     3.4018E+02    10.3075   3.4176    93.2535
109      0.0000     0.0000E+00    0.0000E+00    4.000000E+07  0.02000  3.373E-03    0   0.7799   age104_m62            0.0000     2.0265E+02     6.1895   3.2874   100.0201
110      0.0000     0.0000E+00    0.0000E+00    5.500000E+07  0.02000  2.747E-03    0   0.7595   age110_m62            0.0000     2.7751E+02     6.3958   3.2550   102.4712
111      0.0000     0.0000E+00    0.0000E+00    1.015200E+08  0.02000  1.878E-03    0   0.7221   age116_m62            0.0000     5.1247E+02     8.9839   3.1639   105.8397
112      0.0000     0.0000E+00    0.0000E+00    1.609000E+08  0.02000  1.378E-03    0   0.6978   age120_m62            0.0000     6.7876E+02    10.4230   3.0338   107.6193
113      0.0000     0.0000E+00    0.0000E+00    2.861200E+08  0.02000  8.869E-04    0   0.6700   age125_m62            0.0000     9.3757E+02    12.4760   2.6954   110.9540
114      0.0000     0.0000E+00    0.0000E+00    5.088000E+08  0.02000  4.834E-04    0   0.6430   age130_m62            0.0000     8.7030E+02    12.4749   2.2728   112.7200
115      0.0000     0.0000E+00    0.0000E+00    9.047900E+08  0.02000  2.312E-04    0   0.6152   age135_m62            0.0000     4.9195E+02     9.7330   1.6576   112.3297
116      0.0000     0.0000E+00    0.0000E+00    1.278050E+09  0.02000  1.387E-04    0   0.5927   age138_m62            0.0000     2.7792E+02     7.5709   1.2469   108.9236
117      0.0000     0.0000E+00    0.0000E+00    1.434000E+09  0.02000  1.168E-04    0   0.5865   age139_m62            0.0000     2.4979E+02     7.2188   1.2145   107.4845
118      0.0000     0.0000E+00    0.0000E+00    2.500000E+09  0.02000  5.505E-05    0   0.5610   age150_m62            0.0000     2.6921E+02     7.5588   0.8395   104.6974
119      0.0000     0.0000E+00    0.0000E+00    4.250000E+09  0.02000  3.070E-05    0   0.5407   age158_m62            0.0000     4.3355E+02     9.3376   0.5617   104.2028
120      0.0000     0.0000E+00    0.0000E+00    6.250000E+09  0.02000  2.104E-05    0   0.5277   age166_m62            0.0000     5.3839E+02    10.2456   0.4373   104.4478
121      0.0000     0.0000E+00    0.0000E+00    7.500000E+09  0.02000  1.770E-05    0   0.5223   age171_m62            0.0000     6.0144E+02    10.7672   0.3547   104.6808
122      0.0000     0.0000E+00    0.0000E+00    1.000000E+10  0.02000  1.297E-05    0   0.5121   age181_m62            0.0000     7.4042E+02    11.8177   0.2069   104.8856
123      0.1022     3.2059E-01    3.2507E-01    1.300000E+10  0.02000  9.691E-06    0   0.5047   age193_m62            0.0000     8.4139E+02    12.5060   0.1304   105.0510
124      1.4041     5.1077E+00    5.1299E+00    1.500000E+10  0.02000  8.360E-06    0   0.4999   age201_m62            0.0000     9.3158E+02    13.1216   0.0666   105.0933
125      5.7844     2.5453E+01    2.5293E+01    1.800000E+10  0.02000  6.911E-06    0   0.4946   age213_m62            0.0000     1.0479E+03    13.9021   0.0031   105.0423
126      0.0000     0.0000E+00    0.0000E+00    1.000000E+06  0.05000  2.651E-02    0   0.9998   age020_m72            0.0000     1.8613E+03    21.4380   4.0000   101.5259
127      0.0000     0.0000E+00    0.0000E+00    3.160000E+06  0.05000  4.817E-02    0   0.9577   age045_m72            0.0000     9.3690E+02    15.7617   4.0000   100.8923
128      0.0000     0.0000E+00    0.0000E+00    5.010000E+06  0.05000  3.101E-02    0   0.9147   age055_m72            0.0000     3.5991E+02    10.2970   4.0000    95.4768
129      0.0000     0.0000E+00    0.0000E+00    6.610000E+06  0.05000  1.472E-02    0   0.8877   age061_m72            0.0000     5.8606E+02    12.8197   3.6576    91.8456
130      0.0000     0.0000E+00    0.0000E+00    8.710000E+06  0.05000  1.050E-02    0   0.8638   age067_m72            0.0000     4.0436E+02    10.9695   4.0000    93.2437
131      0.0000     0.0000E+00    0.0000E+00    1.000000E+07  0.05000  8.954E-03    0   0.8524   age070_m72            0.0000     6.3405E+02    13.3348   4.0000    99.7637
132      0.0000     0.0000E+00    0.0000E+00    1.445000E+07  0.05000  6.392E-03    0   0.8262   age078_m72            0.0000     5.1861E+02    12.0375   4.0000    99.5912
133      0.0000     0.0000E+00    0.0000E+00    2.512000E+07  0.05000  4.207E-03    0   0.7902   age090_m72            0.0000     2.1792E+02     6.8310   3.9474    95.9958
134      0.0000     0.0000E+00    0.0000E+00    4.000000E+07  0.05000  3.198E-03    0   0.7618   age104_m72            0.0000     3.5632E+02     7.3467   3.5122   102.1830
135      0.0000     0.0000E+00    0.0000E+00    5.500000E+07  0.05000  2.593E-03    0   0.7432   age110_m72            0.0000     4.3560E+02     8.2469   3.4345   103.7018
136      0.0000     0.0000E+00    0.0000E+00    1.015200E+08  0.05000  1.716E-03    0   0.7092   age116_m72            0.0000     5.9473E+02     9.6457   3.2609   105.6362
137      0.0000     0.0000E+00    0.0000E+00    1.609000E+08  0.05000  1.218E-03    0   0.6876   age120_m72            0.0000     7.6795E+02    11.0241   3.0155   107.6933
138      0.0000     0.0000E+00    0.0000E+00    2.861200E+08  0.05000  7.047E-04    0   0.6618   age125_m72            0.0000     9.1683E+02    12.5049   2.5054   110.7896
139      0.0000     0.0000E+00    0.0000E+00    5.088000E+08  0.05000  3.590E-04    0   0.6356   age130_m72            0.0000     7.6623E+02    11.7870   1.9431   112.8719
140      0.0000     0.0000E+00    0.0000E+00    9.047900E+08  0.05000  1.484E-04    0   0.6088   age135_m72            0.0000     3.8125E+02     9.0601   1.1766   107.3456
141      0.0000     0.0000E+00    0.0000E+00    1.278050E+09  0.05000  9.435E-05    0   0.5924   age138_m72            0.0000     4.1748E+02     9.4940   0.7723   104.5523
142      0.0000     0.0000E+00    0.0000E+00    1.434000E+09  0.05000  7.827E-05    0   0.5847   age139_m72            0.0000     3.9569E+02     9.2270   0.7791   104.1219
143      0.1528     1.2363E-01    1.3867E-01    2.500000E+09  0.05000  3.759E-05    0   0.5583   age150_m72            0.0000     5.2888E+02    10.2549   0.4539   103.4996
144      0.0000     0.0000E+00    0.0000E+00    4.250000E+09  0.05000  1.842E-05    0   0.5374   age158_m72            0.0000     7.4701E+02    11.7002   0.1531   102.6605
145      0.0000     0.0000E+00    0.0000E+00    6.250000E+09  0.05000  1.207E-05    0   0.5242   age166_m72            0.0000     9.7235E+02    13.1727  -0.0701   101.9547
146      0.8074     2.4572E+00    2.5588E+00    7.500000E+09  0.05000  9.993E-06    0   0.5183   age171_m72            0.0000     1.0111E+03    13.3930  -0.1112   101.8280
147      0.5118     2.1349E+00    2.1794E+00    1.000000E+10  0.05000  7.291E-06    0   0.5081   age181_m72            0.0000     1.1847E+03    14.4989  -0.2180   101.2686
148      0.0000     0.0000E+00    0.0000E+00    1.300000E+10  0.05000  5.316E-06    0   0.5018   age193_m72            0.0000     1.4663E+03    16.1628  -0.3793   100.4820
149      0.0000     0.0000E+00    0.0000E+00    1.500000E+10  0.05000  4.497E-06    0   0.4972   age201_m72            0.0000     1.6112E+03    16.9947  -0.4396   100.3430
150      0.0000     0.0000E+00    0.0000E+00    1.800000E+10  0.05000  3.739E-06    0   0.4924   age213_m72            0.0000     1.7970E+03    18.0354  -0.5279    99.9746


## Synthesis Results - Average & Chains ##

# j      x_j: min, <> & last-chain-values for 1 ...  7 chains
  1      0.0000      0.5571      0.4930      0.5208      0.4806      0.5607      0.6694      0.7261      0.5041
  2      2.5581      1.3590      1.4545      1.3287      1.5069      1.5920      1.5639      1.5106      1.5021
  3     17.6021     16.3583     16.6326     16.7719     16.9741     16.7388     16.4623     16.3429     16.7618
  4      0.0000      0.0174      0.0000      0.0000      0.0000      0.0000      0.0000      0.0000      0.0005
  5      0.0000      0.0193      0.0000      0.0000      0.0000      0.0000      0.0000      0.0000      0.0291
  6      0.0000      0.0143      0.0223      0.0000      0.0000      0.0000      0.0000      0.0610      0.0000
  7      0.0000      0.0357      0.0000      0.0000      0.0000      0.0000      0.0000      0.0000      0.0000
  8      0.0000      0.0215      0.0706      0.1163      0.0000      0.0000      0.0000      0.0000      0.0000
  9      0.0000      0.0120      0.0000      0.0000      0.0189      0.0000      0.0000      0.0000      0.0811
 10      0.0000      0.0153      0.0000      0.0000      0.0000      0.1533      0.0000      0.0141      0.0000
 11      0.0000      0.0117      0.0741      0.0000      0.0000      0.0000      0.0000      0.0000      0.0564
 12      0.0000      0.0129      0.0000      0.0000      0.0000      0.0000      0.0000      0.0000      0.0000
 13      0.0000      0.0062      0.0000      0.0000      0.0000      0.0000      0.0000      0.0000      0.0000
 14      0.0000      0.0053      0.0000      0.0000      0.0000      0.0205      0.0000      0.0000      0.0000
 15      0.0000      0.0047      0.0000      0.0000      0.0000      0.0000      0.0000      0.0000      0.0000
 16      0.0000      0.0089      0.0000      0.0000      0.0816      0.0000      0.0000      0.0000      0.0000
 17      0.0000      0.0123      0.0091      0.0000      0.0000      0.0000      0.0000      0.0000      0.0000
 18      0.0000      0.0157      0.0067      0.0275      0.0000      0.0000      0.0000      0.0013      0.0269
 19      0.0000      0.0325      0.0000      0.0000      0.0000      0.0000      0.0000      0.0000      0.0000
 20      0.0000      0.0499      0.0449      0.0134      0.0604      0.0000      0.0328      0.0094      0.0372
 21      0.0000      0.0953      0.1456      0.0000      0.0000      0.0261      0.0000      0.1425      0.0000
 22      0.0000      0.0543      0.0000      0.0000      0.0806      0.0306      0.1775      0.0000      0.0000
 23      0.0000      0.0739      0.0000      0.0000      0.1745      0.0000      0.0334      0.0000      0.0140
 24      0.0000      0.1068      0.0699      0.0000      0.0000      0.2904      0.0000      0.0001      0.0115
 25      0.0064      0.1445      0.0038      0.6122      0.0323      0.6488      0.2064      0.2006      0.2496
 26      0.0000      0.0193      0.0000      0.0000      0.0000      0.0000      0.0000      0.0000      0.0063
 27      0.0000      0.0194      0.0000      0.0000      0.0000      0.0000      0.0000      0.0000      0.0000
 28      0.0000      0.0181      0.0000      0.0000      0.0000      0.0000      0.0000      0.0076      0.0064
 29      0.0000      0.0159      0.0849      0.0401      0.0000      0.0000      0.0541      0.0000      0.0000
 30      0.0000      0.0131      0.0000      0.0000      0.0000      0.0661      0.0000      0.0000      0.0000
 31      0.0000      0.0200      0.0000      0.0000      0.0000      0.0000      0.0000      0.0518      0.0000
 32      0.0000      0.0244      0.0000      0.0000      0.0000      0.0000      0.0000      0.0000      0.0000
 33      0.0000      0.0115      0.0000      0.0764      0.0000      0.0000      0.0000      0.0723      0.0000
 34      0.0000      0.0220      0.0415      0.0085      0.0000      0.0099      0.0045      0.0000      0.0000
 35      0.0000      0.0124      0.0048      0.0000      0.0096      0.0000      0.0000      0.0000      0.0000
 36      0.0000      0.0087      0.0000      0.0000      0.0000      0.0000      0.0000      0.0795      0.0000
 37      0.0000      0.0080      0.0000      0.0000      0.0000      0.0000      0.0000      0.0000      0.0000
 38      0.0000      0.0055      0.0000      0.0067      0.0000      0.0000      0.0000      0.0000      0.0000
 39      0.0000      0.0060      0.0000      0.0000      0.0000      0.0000      0.0044      0.0000      0.0000
 40      0.0000      0.0088      0.0000      0.0000      0.0000      0.0000      0.0000      0.0000      0.0000
 41      0.0000      0.0157      0.0000      0.0000      0.0000      0.0710      0.0000      0.0000      0.0000
 42      0.0000      0.0147      0.0000      0.0000      0.0000      0.0000      0.0000      0.0000      0.0000
 43      0.0000      0.0345      0.0817      0.1046      0.0000      0.0724      0.0000      0.0803      0.0000
 44      0.0000      0.1269      0.1029      0.2147      0.0929      0.0979      0.0000      0.4095      0.0000
 45     10.9244      9.6402      9.9349      9.6144      9.6763      9.6418     10.1622      9.8325      9.9291
 46     18.0947     17.6526     17.6902     17.8191     18.1323     17.2794     17.7969     17.7048     17.7544
 47     16.7197     18.4350     18.7940     18.4364     18.0197     18.6117     18.1396     18.2258     18.3604
 48      0.0017      0.1781      0.2949      0.1745      0.1832      0.0860      0.6388      0.1985      0.5584
 49      0.0000      0.1685      0.1488      0.1934      0.1095      0.0858      0.0000      0.1693      0.0000
 50      0.0079      0.1282      0.0000      0.0000      0.5356      0.0820      0.0302      0.1923      0.2018
 51      0.0000      0.0155      0.0000      0.0000      0.0137      0.0576      0.0000      0.0000      0.0000
 52      0.0000      0.0218      0.0000      0.0000      0.0000      0.0043      0.0028      0.0000      0.0840
 53      0.0000      0.0170      0.0114      0.0000      0.0000      0.0000      0.0103      0.0000      0.0000
 54      0.0000      0.0196      0.0000      0.0000      0.0171      0.0000      0.0000      0.0000      0.0000
 55      0.0000      0.0209      0.0202      0.0000      0.0000      0.0000      0.0000      0.0000      0.0162
 56      0.0000      0.0199      0.0312      0.0000      0.0428      0.0471      0.0023      0.0000      0.0000
 57      0.0000      0.0137      0.0000      0.0000      0.1032      0.0000      0.0000      0.0000      0.0000
 58      0.0000      0.0367      0.0461      0.0571      0.0000      0.1514      0.0000      0.1147      0.0000
 59      0.0000      0.0137      0.0000      0.0000      0.0000      0.0000      0.0093      0.0320      0.0207
 60      0.0000      0.0090      0.0044      0.0000      0.0000      0.0000      0.0267      0.0000      0.0000
 61      0.0000      0.0103      0.0000      0.0000      0.0000      0.0000      0.0000      0.0000      0.0000
 62      0.0000      0.0090      0.0034      0.0000      0.0000      0.0000      0.0000      0.0000      0.0453
 63      0.0000      0.0073      0.0000      0.0000      0.0000      0.0000      0.0459      0.0000      0.0000
 64      0.0000      0.0083      0.0000      0.0000      0.0093      0.0000      0.0000      0.0038      0.0000
 65      0.0000      0.0196      0.0429      0.0666      0.0000      0.0720      0.0000      0.0000      0.0000
 66      0.0029      0.0669      0.1394      0.2836      0.0000      0.0000      0.1117      0.1915      0.2069
 67      0.0000      0.0415      0.0000      0.0000      0.0000      0.0268      0.0000      0.0000      0.0000
 68      0.0000      0.1154      0.0000      0.2363      0.4023      0.1212      0.0055      0.0000      0.0000
 69      1.8015      0.5343      0.4829      0.2596      0.1706      0.6191      0.8336      0.8462      0.6192
 70      0.0000      0.2152      0.0000      0.1633      0.1595      0.3592      0.1556      0.0000      0.1748
 71      2.5436      2.5358      2.5260      2.5298      1.9816      2.5765      2.6800      2.4562      2.5146
 72      4.9047      5.0018      4.9413      4.8546      5.0371      4.7338      4.9916      4.9616      4.8154
 73      3.8940      3.8727      4.0205      3.9563      4.0264      3.8221      4.0625      3.8132      4.0297
 74      6.7578      6.1288      6.0318      6.1697      6.3415      5.9354      6.1720      6.5457      6.1081
 75      3.7746      3.5955      3.8319      3.6306      3.8319      3.6165      3.6386      3.5325      3.8253
 76      0.0000      0.0147      0.0000      0.0000      0.0000      0.0000      0.0000      0.0000      0.0000
 77      0.0000      0.0131      0.0000      0.0000      0.0000      0.0123      0.0000      0.0000      0.0000
 78      0.0000      0.0096      0.0000      0.0000      0.0000      0.0000      0.0000      0.0000      0.0000
 79      0.0000      0.0174      0.0000      0.0000      0.0000      0.0000      0.0000      0.0000      0.0000
 80      0.0000      0.0125      0.0000      0.0403      0.0000      0.0000      0.0000      0.0000      0.0000
 81      0.0000      0.0098      0.0000      0.0000      0.0000      0.0419      0.0000      0.0000      0.0678
 82      0.0000      0.0073      0.0000      0.0000      0.0000      0.0000      0.0000      0.0164      0.0000
 83      0.0000      0.0094      0.0000      0.0221      0.0000      0.0000      0.0092      0.0000      0.0000
 84      0.0000      0.0107      0.0000      0.0000      0.0000      0.0000      0.0000      0.0000      0.0055
 85      0.0000      0.0092      0.0000      0.0000      0.0000      0.0000      0.0000      0.0000      0.0517
 86      0.0000      0.0082      0.0000      0.0000      0.0000      0.0000      0.0000      0.0000      0.0000
 87      0.0000      0.0099      0.0385      0.0000      0.0000      0.0000      0.0000      0.0000      0.0000
 88      0.0000      0.0079      0.0000      0.0000      0.0000      0.0000      0.0000      0.0745      0.0207
 89      0.0000      0.0063      0.0000      0.0000      0.0000      0.0000      0.0000      0.0092      0.0304
 90      0.0000      0.0092      0.0074      0.0279      0.0000      0.0000      0.0000      0.0000      0.0000
 91      0.0000      0.0184      0.0000      0.0000      0.0000      0.0000      0.0000      0.0000      0.0000
 92      0.0000      0.0183      0.0000      0.0000      0.0000      0.0000      0.0000      0.0000      0.0000
 93      0.0000      0.0453      0.0900      0.0000      0.0000      0.0158      0.0149      0.0000      0.0066
 94      0.0000      0.0635      0.1691      0.0000      0.0694      0.0000      0.0000      0.1075      0.0187
 95      0.0000      0.0821      0.0404      0.1200      0.0000      0.0332      0.0000      0.0000      0.1418
 96      0.0000      0.0434      0.0000      0.0000      0.1276      0.0000      0.0000      0.0000      0.0000
 97      0.0000      0.0364      0.0000      0.0000      0.0398      0.0000      0.0000      0.0000      0.0000
 98      0.0000      0.0424      0.0000      0.0380      0.0000      0.0000      0.0000      0.0000      0.1369
 99      0.0000      0.0425      0.0000      0.0156      0.0141      0.0096      0.0000      0.2371      0.0000
100      0.0000      0.1092      0.1748      0.1616      0.0000      0.1134      0.0000      0.0000      0.0437
101      0.0000      0.0124      0.0000      0.0000      0.0000      0.0000      0.0000      0.0000      0.0000
102      0.0000      0.0165      0.0000      0.0000      0.0000      0.0000      0.0961      0.0000      0.0576
103      0.0000      0.0093      0.0000      0.0000      0.0000      0.0000      0.0000      0.0000      0.0000
104      0.0000      0.0167      0.0509      0.0000      0.0165      0.0000      0.1166      0.0000      0.0000
105      0.0000      0.0164      0.0000      0.0009      0.0000      0.0000      0.0000      0.0000      0.0233
106      0.0000      0.0208      0.0147      0.1837      0.0000      0.0000      0.0000      0.0000      0.0000
107      0.0000      0.0208      0.0000      0.0000      0.0000      0.0000      0.0000      0.0000      0.0000
108      0.0000      0.0074      0.0000      0.0000      0.0000      0.0000      0.0000      0.0000      0.0000
109      0.0000      0.0099      0.0000      0.0000      0.0000      0.0000      0.0106      0.0000      0.0000
110      0.0000      0.0077      0.0000      0.0225      0.0000      0.0000      0.0000      0.0000      0.0000
111      0.0000      0.0075      0.0000      0.0000      0.0548      0.0000      0.0000      0.0000      0.0000
112      0.0000      0.0063      0.0427      0.0000      0.0000      0.0000      0.0000      0.0000      0.0248
113      0.0000      0.0059      0.0000      0.0000      0.0000      0.0175      0.0767      0.0000      0.0000
114      0.0000      0.0065      0.0000      0.0000      0.0269      0.0000      0.0000      0.0000      0.0000
115      0.0000      0.0099      0.0000      0.0000      0.0000      0.0000      0.0000      0.0000      0.0000
116      0.0000      0.0154      0.0000      0.0000      0.0000      0.0000      0.0000      0.0000      0.0000
117      0.0000      0.0196      0.0000      0.0000      0.0000      0.0000      0.0000      0.0000      0.0000
118      0.0000      0.0361      0.0000      0.0675      0.0043      0.0284      0.0000      0.0107      0.0000
119      0.0000      0.0350      0.0000      0.0000      0.0000      0.0000      0.0000      0.0000      0.0000
120      0.0000      0.0289      0.0000      0.1380      0.0000      0.0905      0.0000      0.0000      0.0000
121      0.0000      0.0272      0.0040      0.0000      0.0000      0.0615      0.0000      0.0000      0.0087
122      0.0000      0.0216      0.0006      0.0000      0.0000      0.0000      0.0000      0.0000      0.0188
123      0.1022      0.4655      0.4055      0.5408      0.5939      0.5152      0.4930      0.4538      0.3912
124      1.4041      1.5940      1.8887      1.4597      1.7210      1.6146      1.5660      1.5626      1.3528
125      5.7844      6.0911      6.0377      6.1252      6.0260      6.0049      6.2258      6.1805      6.1748
126      0.0000      0.0066      0.0000      0.0000      0.0000      0.0000      0.0000      0.0000      0.0000
127      0.0000      0.0094      0.0000      0.0000      0.0055      0.0000      0.0000      0.0000      0.0000
128      0.0000      0.0148      0.0550      0.0182      0.0000      0.0000      0.0000      0.0000      0.0000
129      0.0000      0.0143      0.0616      0.0000      0.0467      0.0000      0.0000      0.0000      0.0000
130      0.0000      0.0136      0.0000      0.0071      0.0326      0.0000      0.0172      0.0576      0.0000
131      0.0000      0.0123      0.0000      0.0000      0.0000      0.0000      0.0000      0.0810      0.0000
132      0.0000      0.0074      0.0000      0.0000      0.0000      0.0351      0.0000      0.0000      0.0000
133      0.0000      0.0080      0.0000      0.0000      0.0265      0.0000      0.0000      0.0000      0.0000
134      0.0000      0.0072      0.0000      0.0000      0.0000      0.0000      0.0000      0.0061      0.0034
135      0.0000      0.0046      0.0000      0.0000      0.0000      0.0000      0.0000      0.0272      0.0000
136      0.0000      0.0081      0.0000      0.0000      0.0000      0.0353      0.0454      0.0000      0.0000
137      0.0000      0.0043      0.0000      0.0000      0.0000      0.0000      0.0000      0.0000      0.0000
138      0.0000      0.0056      0.0000      0.0000      0.0000      0.0049      0.0000      0.0000      0.0000
139      0.0000      0.0071      0.0000      0.0000      0.0000      0.0000      0.0000      0.0000      0.0000
140      0.0000      0.0202      0.0772      0.0000      0.0000      0.0000      0.0000      0.0409      0.0000
141      0.0000      0.0254      0.0000      0.0000      0.0000      0.0000      0.0000      0.0000      0.0000
142      0.0000      0.0290      0.0000      0.0000      0.0300      0.0000      0.0000      0.0000      0.0000
143      0.1528      0.0965      0.0000      0.0000      0.4337      0.3513      0.0000      0.0546      0.2208
144      0.0000      0.1892      0.2050      0.2176      0.1545      0.4514      0.0805      0.2905      0.1705
145      0.0000      0.1485      0.0874      0.1390      0.1685      0.2731      0.2840      0.1512      0.0032
146      0.8074      0.2246      0.2803      0.3346      0.1828      0.1370      0.2507      0.2588      0.2520
147      0.5118      0.2454      0.2639      0.3234      0.2474      0.1801      0.2230      0.2867      0.2366
148      0.0000      0.0420      0.0584      0.0450      0.0132      0.0000      0.0668      0.0000      0.0672
149      0.0000      0.0627      0.0508      0.0000      0.0000      0.0000      0.0000      0.0000      0.1606
150      0.0000      0.0676      0.0000      0.0553      0.0371      0.0670      0.0723      0.0000      0.1310

# j      m_j: min, <> & last-chain-values for 1 ...  7 chains
  1  1.8274E-07  4.0648E-03  3.5911E-03  3.7946E-03  3.5109E-03  4.1288E-03  4.8756E-03  5.3240E-03  3.6578E-03
  2  3.2842E-03  1.7003E-03  1.8169E-03  1.6600E-03  1.8875E-03  2.0101E-03  1.9530E-03  1.8991E-03  1.8690E-03
  3  5.3339E-02  4.8306E-02  4.9037E-02  4.9458E-02  5.0184E-02  4.9883E-02  4.8524E-02  4.8496E-02  4.9226E-02
  4  0.0000E+00  9.6361E-05  0.0000E+00  0.0000E+00  0.0000E+00  0.0000E+00  0.0000E+00  0.0000E+00  2.7209E-06
  5  0.0000E+00  1.3477E-04  0.0000E+00  0.0000E+00  0.0000E+00  0.0000E+00  0.0000E+00  0.0000E+00  2.0234E-04
  6  0.0000E+00  1.1921E-04  1.8499E-04  0.0000E+00  0.0000E+00  0.0000E+00  0.0000E+00  5.0965E-04  0.0000E+00
  7  0.0000E+00  3.7412E-04  0.0000E+00  0.0000E+00  0.0000E+00  0.0000E+00  0.0000E+00  0.0000E+00  0.0000E+00
  8  0.0000E+00  2.5541E-04  8.3559E-04  1.3772E-03  0.0000E+00  0.0000E+00  0.0000E+00  0.0000E+00  0.0000E+00
  9  0.0000E+00  1.5335E-04  0.0000E+00  0.0000E+00  2.4111E-04  0.0000E+00  0.0000E+00  0.0000E+00  1.0289E-03
 10  0.0000E+00  2.2440E-04  0.0000E+00  0.0000E+00  0.0000E+00  2.2628E-03  0.0000E+00  2.0772E-04  0.0000E+00
 11  0.0000E+00  2.0371E-04  1.2936E-03  0.0000E+00  0.0000E+00  0.0000E+00  0.0000E+00  0.0000E+00  9.8023E-04
 12  0.0000E+00  3.9339E-04  0.0000E+00  0.0000E+00  0.0000E+00  0.0000E+00  0.0000E+00  0.0000E+00  0.0000E+00
 13  0.0000E+00  2.2155E-04  0.0000E+00  0.0000E+00  0.0000E+00  0.0000E+00  0.0000E+00  0.0000E+00  0.0000E+00
 14  0.0000E+00  2.6579E-04  0.0000E+00  0.0000E+00  0.0000E+00  1.0416E-03  0.0000E+00  0.0000E+00  0.0000E+00
 15  0.0000E+00  3.5995E-04  0.0000E+00  0.0000E+00  0.0000E+00  0.0000E+00  0.0000E+00  0.0000E+00  0.0000E+00
 16  0.0000E+00  9.8005E-04  0.0000E+00  0.0000E+00  9.0109E-03  0.0000E+00  0.0000E+00  0.0000E+00  0.0000E+00
 17  0.0000E+00  1.5057E-03  1.1137E-03  0.0000E+00  0.0000E+00  0.0000E+00  0.0000E+00  0.0000E+00  0.0000E+00
 18  0.0000E+00  3.1379E-03  1.3330E-03  5.4747E-03  0.0000E+00  0.0000E+00  0.0000E+00  2.5321E-04  5.3378E-03
 19  0.0000E+00  9.8268E-03  0.0000E+00  0.0000E+00  0.0000E+00  0.0000E+00  0.0000E+00  0.0000E+00  0.0000E+00
 20  0.0000E+00  2.1558E-02  1.9361E-02  5.7829E-03  2.6119E-02  0.0000E+00  1.4142E-02  4.0705E-03  1.6002E-02
 21  0.0000E+00  4.7623E-02  7.2692E-02  0.0000E+00  0.0000E+00  1.3185E-02  0.0000E+00  7.1601E-02  0.0000E+00
 22  0.0000E+00  3.4995E-02  0.0000E+00  0.0000E+00  5.2037E-02  1.9927E-02  1.1428E-01  0.0000E+00  0.0000E+00
 23  0.0000E+00  6.0425E-02  0.0000E+00  0.0000E+00  1.4283E-01  0.0000E+00  2.7291E-02  0.0000E+00  1.1365E-02
 24  0.0000E+00  9.9848E-02  6.5291E-02  0.0000E+00  0.0000E+00  2.7403E-01  0.0000E+00  6.4489E-05  1.0713E-02
 25  7.3680E-03  1.6235E-01  4.2605E-03  6.8669E-01  3.6357E-02  7.3537E-01  2.3140E-01  2.2642E-01  2.7885E-01
 26  0.0000E+00  1.3581E-04  0.0000E+00  0.0000E+00  0.0000E+00  0.0000E+00  0.0000E+00  0.0000E+00  4.4299E-05
 27  0.0000E+00  2.9102E-05  0.0000E+00  0.0000E+00  0.0000E+00  0.0000E+00  0.0000E+00  0.0000E+00  0.0000E+00
 28  0.0000E+00  5.3015E-05  0.0000E+00  0.0000E+00  0.0000E+00  0.0000E+00  0.0000E+00  2.2259E-05  1.8623E-05
 29  0.0000E+00  7.2479E-05  3.8736E-04  1.8310E-04  0.0000E+00  0.0000E+00  2.4702E-04  0.0000E+00  0.0000E+00
 30  0.0000E+00  7.4276E-05  0.0000E+00  0.0000E+00  0.0000E+00  3.7910E-04  0.0000E+00  0.0000E+00  0.0000E+00
 31  0.0000E+00  1.3120E-04  0.0000E+00  0.0000E+00  0.0000E+00  0.0000E+00  0.0000E+00  3.4182E-04  0.0000E+00
 32  0.0000E+00  1.7746E-04  0.0000E+00  0.0000E+00  0.0000E+00  0.0000E+00  0.0000E+00  0.0000E+00  0.0000E+00
 33  0.0000E+00  1.1927E-04  0.0000E+00  7.8767E-04  0.0000E+00  0.0000E+00  0.0000E+00  7.5032E-04  0.0000E+00
 34  0.0000E+00  2.7602E-04  5.2027E-04  1.0625E-04  0.0000E+00  1.2483E-04  5.6071E-05  0.0000E+00  0.0000E+00
 35  0.0000E+00  1.8764E-04  7.2442E-05  0.0000E+00  1.4609E-04  0.0000E+00  0.0000E+00  0.0000E+00  0.0000E+00
 36  0.0000E+00  1.6862E-04  0.0000E+00  0.0000E+00  0.0000E+00  0.0000E+00  0.0000E+00  1.5529E-03  0.0000E+00
 37  0.0000E+00  1.9363E-04  0.0000E+00  0.0000E+00  0.0000E+00  0.0000E+00  0.0000E+00  0.0000E+00  0.0000E+00
 38  0.0000E+00  1.8584E-04  0.0000E+00  2.2508E-04  0.0000E+00  0.0000E+00  0.0000E+00  0.0000E+00  0.0000E+00
 39  0.0000E+00  3.0227E-04  0.0000E+00  0.0000E+00  0.0000E+00  0.0000E+00  2.2118E-04  0.0000E+00  0.0000E+00
 40  0.0000E+00  7.8096E-04  0.0000E+00  0.0000E+00  0.0000E+00  0.0000E+00  0.0000E+00  0.0000E+00  0.0000E+00
 41  0.0000E+00  1.8636E-03  0.0000E+00  0.0000E+00  0.0000E+00  8.4999E-03  0.0000E+00  0.0000E+00  0.0000E+00
 42  0.0000E+00  1.9443E-03  0.0000E+00  0.0000E+00  0.0000E+00  0.0000E+00  0.0000E+00  0.0000E+00  0.0000E+00
 43  0.0000E+00  7.4401E-03  1.7569E-02  2.2506E-02  0.0000E+00  1.5738E-02  0.0000E+00  1.7381E-02  0.0000E+00
 44  0.0000E+00  4.3239E-02  3.5017E-02  7.3080E-02  3.1719E-02  3.3660E-02  0.0000E+00  1.4026E-01  0.0000E+00
 45  5.3254E+00  4.5796E+00  4.7120E+00  4.5609E+00  4.6022E+00  4.6224E+00  4.8187E+00  4.6938E+00  4.6910E+00
 46  1.0508E+01  9.9897E+00  9.9951E+00  1.0070E+01  1.0273E+01  9.8683E+00  1.0053E+01  1.0068E+01  9.9923E+00
 47  1.2726E+01  1.3673E+01  1.3917E+01  1.3655E+01  1.3381E+01  1.3931E+01  1.3430E+01  1.3584E+01  1.3543E+01
 48  1.5428E-03  1.5728E-01  2.6002E-01  1.5390E-01  1.6196E-01  7.6679E-02  5.6315E-01  1.7617E-01  4.9048E-01
 49  0.0000E+00  1.6649E-01  1.4674E-01  1.9087E-01  1.0832E-01  8.5586E-02  0.0000E+00  1.6810E-01  0.0000E+00
 50  9.3759E-03  1.4900E-01  0.0000E+00  0.0000E+00  6.2318E-01  9.6176E-02  3.4986E-02  2.2460E-01  2.3325E-01
 51  0.0000E+00  8.2670E-05  0.0000E+00  0.0000E+00  7.3459E-05  3.1064E-04  0.0000E+00  0.0000E+00  0.0000E+00
 52  0.0000E+00  3.1866E-05  0.0000E+00  0.0000E+00  0.0000E+00  6.3167E-06  4.1542E-06  0.0000E+00  1.2206E-04
 53  0.0000E+00  3.8000E-05  2.5483E-05  0.0000E+00  0.0000E+00  0.0000E+00  2.2953E-05  0.0000E+00  0.0000E+00
 54  0.0000E+00  4.1623E-05  0.0000E+00  0.0000E+00  3.6368E-05  0.0000E+00  0.0000E+00  0.0000E+00  0.0000E+00
 55  0.0000E+00  6.5609E-05  6.3306E-05  0.0000E+00  0.0000E+00  0.0000E+00  0.0000E+00  0.0000E+00  5.0374E-05
 56  0.0000E+00  8.2697E-05  1.2949E-04  0.0000E+00  1.7802E-04  1.9731E-04  9.3393E-06  0.0000E+00  0.0000E+00
 57  0.0000E+00  9.1508E-05  0.0000E+00  0.0000E+00  6.8789E-04  0.0000E+00  0.0000E+00  0.0000E+00  0.0000E+00
 58  0.0000E+00  3.5242E-04  4.4210E-04  5.4743E-04  0.0000E+00  1.4668E-03  0.0000E+00  1.1062E-03  0.0000E+00
 59  0.0000E+00  1.8248E-04  0.0000E+00  0.0000E+00  0.0000E+00  0.0000E+00  1.2327E-04  4.2830E-04  2.7481E-04
 60  0.0000E+00  1.3363E-04  6.5904E-05  0.0000E+00  0.0000E+00  0.0000E+00  3.9646E-04  0.0000E+00  0.0000E+00
 61  0.0000E+00  1.9447E-04  0.0000E+00  0.0000E+00  0.0000E+00  0.0000E+00  0.0000E+00  0.0000E+00  0.0000E+00
 62  0.0000E+00  2.1657E-04  8.0967E-05  0.0000E+00  0.0000E+00  0.0000E+00  0.0000E+00  0.0000E+00  1.0798E-03
 63  0.0000E+00  2.6483E-04  0.0000E+00  0.0000E+00  0.0000E+00  0.0000E+00  1.6727E-03  0.0000E+00  0.0000E+00
 64  0.0000E+00  5.0089E-04  0.0000E+00  0.0000E+00  5.5993E-04  0.0000E+00  0.0000E+00  2.3157E-04  0.0000E+00
 65  0.0000E+00  1.9855E-03  4.3418E-03  6.7489E-03  0.0000E+00  7.3708E-03  0.0000E+00  0.0000E+00  0.0000E+00
 66  3.8924E-04  8.6858E-03  1.8068E-02  3.6760E-02  0.0000E+00  0.0000E+00  1.4480E-02  2.4976E-02  2.6718E-02
 67  0.0000E+00  7.4032E-03  0.0000E+00  0.0000E+00  0.0000E+00  4.8250E-03  0.0000E+00  0.0000E+00  0.0000E+00
 68  0.0000E+00  3.8216E-02  0.0000E+00  7.8167E-02  1.3343E-01  4.0511E-02  1.8273E-03  0.0000E+00  0.0000E+00
 69  1.0562E+00  3.0524E-01  2.7548E-01  1.4810E-01  9.7558E-02  3.5696E-01  4.7540E-01  4.8581E-01  3.5182E-01
 70  0.0000E+00  1.7109E-01  0.0000E+00  1.2966E-01  1.2694E-01  2.8828E-01  1.2350E-01  0.0000E+00  1.3823E-01
 71  2.4488E+00  2.3790E+00  2.3661E+00  2.3701E+00  1.8613E+00  2.4394E+00  2.5097E+00  2.3156E+00  2.3462E+00
 72  6.2159E+00  6.1772E+00  6.0928E+00  5.9871E+00  6.2283E+00  5.9000E+00  6.1535E+00  6.1576E+00  5.9145E+00
 73  6.2253E+00  6.0334E+00  6.2536E+00  6.1550E+00  6.2803E+00  6.0091E+00  6.3174E+00  5.9697E+00  6.2435E+00
 74  1.2053E+01  1.0653E+01  1.0467E+01  1.0709E+01  1.1036E+01  1.0411E+01  1.0708E+01  1.1433E+01  1.0559E+01
 75  7.7413E+00  7.1860E+00  7.6462E+00  7.2461E+00  7.6676E+00  7.2944E+00  7.2588E+00  7.0947E+00  7.6035E+00
 76  0.0000E+00  6.7866E-05  0.0000E+00  0.0000E+00  0.0000E+00  0.0000E+00  0.0000E+00  0.0000E+00  0.0000E+00
 77  0.0000E+00  2.4701E-05  0.0000E+00  0.0000E+00  0.0000E+00  2.3471E-05  0.0000E+00  0.0000E+00  0.0000E+00
 78  0.0000E+00  2.0305E-05  0.0000E+00  0.0000E+00  0.0000E+00  0.0000E+00  0.0000E+00  0.0000E+00  0.0000E+00
 79  0.0000E+00  4.4257E-05  0.0000E+00  0.0000E+00  0.0000E+00  0.0000E+00  0.0000E+00  0.0000E+00  0.0000E+00
 80  0.0000E+00  4.0990E-05  0.0000E+00  1.3162E-04  0.0000E+00  0.0000E+00  0.0000E+00  0.0000E+00  0.0000E+00
 81  0.0000E+00  4.2382E-05  0.0000E+00  0.0000E+00  0.0000E+00  1.8281E-04  0.0000E+00  0.0000E+00  2.9165E-04
 82  0.0000E+00  4.2730E-05  0.0000E+00  0.0000E+00  0.0000E+00  0.0000E+00  0.0000E+00  9.5760E-05  0.0000E+00
 83  0.0000E+00  8.0467E-05  0.0000E+00  1.8858E-04  0.0000E+00  0.0000E+00  7.8909E-05  0.0000E+00  0.0000E+00
 84  0.0000E+00  1.2699E-04  0.0000E+00  0.0000E+00  0.0000E+00  0.0000E+00  0.0000E+00  0.0000E+00  6.5023E-05
 85  0.0000E+00  1.3300E-04  0.0000E+00  0.0000E+00  0.0000E+00  0.0000E+00  0.0000E+00  0.0000E+00  7.4069E-04
 86  0.0000E+00  1.6087E-04  0.0000E+00  0.0000E+00  0.0000E+00  0.0000E+00  0.0000E+00  0.0000E+00  0.0000E+00
 87  0.0000E+00  2.5712E-04  9.9810E-04  0.0000E+00  0.0000E+00  0.0000E+00  0.0000E+00  0.0000E+00  0.0000E+00
 88  0.0000E+00  3.1407E-04  0.0000E+00  0.0000E+00  0.0000E+00  0.0000E+00  0.0000E+00  2.9633E-03  8.1616E-04
 89  0.0000E+00  4.1424E-04  0.0000E+00  0.0000E+00  0.0000E+00  0.0000E+00  0.0000E+00  6.1262E-04  1.9903E-03
 90  0.0000E+00  1.1276E-03  9.0484E-04  3.3973E-03  0.0000E+00  0.0000E+00  0.0000E+00  0.0000E+00  0.0000E+00
 91  0.0000E+00  2.8810E-03  0.0000E+00  0.0000E+00  0.0000E+00  0.0000E+00  0.0000E+00  0.0000E+00  0.0000E+00
 92  0.0000E+00  3.8395E-03  0.0000E+00  0.0000E+00  0.0000E+00  0.0000E+00  0.0000E+00  0.0000E+00  0.0000E+00
 93  0.0000E+00  1.9260E-02  3.8233E-02  0.0000E+00  0.0000E+00  6.7946E-03  6.3317E-03  0.0000E+00  2.8100E-03
 94  0.0000E+00  4.8419E-02  1.2882E-01  0.0000E+00  5.3041E-02  0.0000E+00  0.0000E+00  8.2449E-02  1.4207E-02
 95  0.0000E+00  8.4366E-02  4.1489E-02  1.2321E-01  0.0000E+00  3.4482E-02  0.0000E+00  0.0000E+00  1.4494E-01
 96  0.0000E+00  5.3784E-02  0.0000E+00  0.0000E+00  1.5844E-01  0.0000E+00  0.0000E+00  0.0000E+00  0.0000E+00
 97  0.0000E+00  5.8906E-02  0.0000E+00  0.0000E+00  6.4328E-02  0.0000E+00  0.0000E+00  0.0000E+00  0.0000E+00
 98  0.0000E+00  8.7964E-02  0.0000E+00  7.8716E-02  0.0000E+00  0.0000E+00  0.0000E+00  0.0000E+00  2.8210E-01
 99  0.0000E+00  1.0039E-01  0.0000E+00  3.6738E-02  3.3354E-02  2.2822E-02  0.0000E+00  5.6283E-01  0.0000E+00
100  0.0000E+00  2.9713E-01  4.7469E-01  4.3904E-01  0.0000E+00  3.1128E-01  0.0000E+00  0.0000E+00  1.1812E-01
101  0.0000E+00  3.7154E-05  0.0000E+00  0.0000E+00  0.0000E+00  0.0000E+00  0.0000E+00  0.0000E+00  0.0000E+00
102  0.0000E+00  2.5675E-05  0.0000E+00  0.0000E+00  0.0000E+00  0.0000E+00  1.4925E-04  0.0000E+00  8.9195E-05
103  0.0000E+00  1.6027E-05  0.0000E+00  5.3355E-08  0.0000E+00  0.0000E+00  0.0000E+00  0.0000E+00  0.0000E+00
104  0.0000E+00  3.7953E-05  1.1517E-04  0.0000E+00  3.7411E-05  0.0000E+00  2.6381E-04  0.0000E+00  0.0000E+00
105  0.0000E+00  7.8417E-05  0.0000E+00  4.4461E-06  0.0000E+00  0.0000E+00  0.0000E+00  0.0000E+00  1.1088E-04
106  0.0000E+00  1.0699E-04  7.5628E-05  9.4556E-04  0.0000E+00  0.0000E+00  0.0000E+00  0.0000E+00  0.0000E+00
107  0.0000E+00  1.4316E-04  0.0000E+00  0.0000E+00  0.0000E+00  0.0000E+00  0.0000E+00  0.0000E+00  0.0000E+00
108  0.0000E+00  8.4306E-05  0.0000E+00  0.0000E+00  0.0000E+00  0.0000E+00  0.0000E+00  0.0000E+00  0.0000E+00
109  0.0000E+00  1.3663E-04  0.0000E+00  0.0000E+00  0.0000E+00  0.0000E+00  1.4629E-04  0.0000E+00  0.0000E+00
110  0.0000E+00  1.2623E-04  0.0000E+00  3.6976E-04  0.0000E+00  0.0000E+00  0.0000E+00  0.0000E+00  0.0000E+00
111  0.0000E+00  1.7214E-04  0.0000E+00  0.0000E+00  1.2562E-03  0.0000E+00  0.0000E+00  0.0000E+00  0.0000E+00
112  0.0000E+00  1.9106E-04  1.2841E-03  0.0000E+00  0.0000E+00  0.0000E+00  0.0000E+00  0.0000E+00  7.4219E-04
113  0.0000E+00  2.6718E-04  0.0000E+00  0.0000E+00  0.0000E+00  7.9429E-04  3.4418E-03  0.0000E+00  0.0000E+00
114  0.0000E+00  5.1283E-04  0.0000E+00  0.0000E+00  2.1322E-03  0.0000E+00  0.0000E+00  0.0000E+00  0.0000E+00
115  0.0000E+00  1.5659E-03  0.0000E+00  0.0000E+00  0.0000E+00  0.0000E+00  0.0000E+00  0.0000E+00  0.0000E+00
116  0.0000E+00  3.9244E-03  0.0000E+00  0.0000E+00  0.0000E+00  0.0000E+00  0.0000E+00  0.0000E+00  0.0000E+00
117  0.0000E+00  5.8542E-03  0.0000E+00  0.0000E+00  0.0000E+00  0.0000E+00  0.0000E+00  0.0000E+00  0.0000E+00
118  0.0000E+00  2.1895E-02  0.0000E+00  4.0895E-02  2.6097E-03  1.7386E-02  0.0000E+00  6.5292E-03  0.0000E+00
119  0.0000E+00  3.6719E-02  0.0000E+00  0.0000E+00  0.0000E+00  0.0000E+00  0.0000E+00  0.0000E+00  0.0000E+00
120  0.0000E+00  4.3226E-02  0.0000E+00  2.0574E-01  0.0000E+00  1.3640E-01  0.0000E+00  0.0000E+00  0.0000E+00
121  0.0000E+00  4.7785E-02  7.0262E-03  0.0000E+00  0.0000E+00  1.0912E-01  0.0000E+00  0.0000E+00  1.5262E-02
122  0.0000E+00  5.0720E-02  1.4407E-03  0.0000E+00  0.0000E+00  0.0000E+00  0.0000E+00  0.0000E+00  4.3918E-02
123  3.2507E-01  1.4433E+00  1.2555E+00  1.6745E+00  1.8438E+00  1.6123E+00  1.5259E+00  1.4139E+00  1.2065E+00
124  5.1299E+00  5.6751E+00  6.7135E+00  5.1896E+00  6.1345E+00  5.8012E+00  5.5651E+00  5.5907E+00  4.7902E+00
125  2.5293E+01  2.5955E+01  2.5686E+01  2.6064E+01  2.5708E+01  2.5823E+01  2.6480E+01  2.6464E+01  2.6167E+01
126  0.0000E+00  1.4725E-05  0.0000E+00  0.0000E+00  0.0000E+00  0.0000E+00  0.0000E+00  0.0000E+00  0.0000E+00
127  0.0000E+00  1.1093E-05  0.0000E+00  0.0000E+00  6.4743E-06  0.0000E+00  0.0000E+00  0.0000E+00  0.0000E+00
128  0.0000E+00  2.5909E-05  9.6460E-05  3.1979E-05  0.0000E+00  0.0000E+00  0.0000E+00  0.0000E+00  0.0000E+00
129  0.0000E+00  5.1278E-05  2.2087E-04  0.0000E+00  1.6805E-04  0.0000E+00  0.0000E+00  0.0000E+00  0.0000E+00
130  0.0000E+00  6.6844E-05  0.0000E+00  3.4921E-05  1.6007E-04  0.0000E+00  8.4109E-05  2.8327E-04  0.0000E+00
131  0.0000E+00  6.9462E-05  0.0000E+00  0.0000E+00  0.0000E+00  0.0000E+00  0.0000E+00  4.6163E-04  0.0000E+00
132  0.0000E+00  5.7086E-05  0.0000E+00  0.0000E+00  0.0000E+00  2.7286E-04  0.0000E+00  0.0000E+00  0.0000E+00
133  0.0000E+00  8.9011E-05  0.0000E+00  0.0000E+00  2.9692E-04  0.0000E+00  0.0000E+00  0.0000E+00  0.0000E+00
134  0.0000E+00  1.0263E-04  0.0000E+00  0.0000E+00  0.0000E+00  0.0000E+00  0.0000E+00  8.7224E-05  4.7969E-05
135  0.0000E+00  7.8143E-05  0.0000E+00  0.0000E+00  0.0000E+00  0.0000E+00  0.0000E+00  4.6648E-04  0.0000E+00
136  0.0000E+00  1.9991E-04  0.0000E+00  0.0000E+00  0.0000E+00  8.7599E-04  1.1150E-03  0.0000E+00  0.0000E+00
137  0.0000E+00  1.4315E-04  0.0000E+00  0.0000E+00  0.0000E+00  0.0000E+00  0.0000E+00  0.0000E+00  0.0000E+00
138  0.0000E+00  3.1072E-04  0.0000E+00  0.0000E+00  0.0000E+00  2.7913E-04  0.0000E+00  0.0000E+00  0.0000E+00
139  0.0000E+00  7.4317E-04  0.0000E+00  0.0000E+00  0.0000E+00  0.0000E+00  0.0000E+00  0.0000E+00  0.0000E+00
140  0.0000E+00  4.9312E-03  1.8822E-02  0.0000E+00  0.0000E+00  0.0000E+00  0.0000E+00  1.0032E-02  0.0000E+00
141  0.0000E+00  9.4771E-03  0.0000E+00  0.0000E+00  0.0000E+00  0.0000E+00  0.0000E+00  0.0000E+00  0.0000E+00
142  0.0000E+00  1.2909E-02  0.0000E+00  0.0000E+00  1.3343E-02  0.0000E+00  0.0000E+00  0.0000E+00  0.0000E+00
143  1.3867E-01  8.5326E-02  0.0000E+00  0.0000E+00  3.8400E-01  3.1349E-01  0.0000E+00  4.8522E-02  1.9417E-01
144  0.0000E+00  3.2871E-01  3.5551E-01  3.7750E-01  2.6871E-01  7.9123E-01  1.3959E-01  5.0706E-01  2.9448E-01
145  0.0000E+00  3.8390E-01  2.2572E-01  3.5884E-01  4.3628E-01  7.1265E-01  7.3291E-01  3.9294E-01  8.3170E-03
146  2.5588E+00  6.9347E-01  8.6410E-01  1.0319E+00  5.6508E-01  4.2688E-01  7.7292E-01  8.0300E-01  7.7400E-01
147  2.1794E+00  1.0181E+00  1.0931E+00  1.3399E+00  1.0276E+00  7.5434E-01  9.2349E-01  1.1953E+00  9.7632E-01
148  0.0000E+00  2.3608E-01  3.2743E-01  2.5249E-01  7.4217E-02  0.0000E+00  3.7490E-01  0.0000E+00  3.7563E-01
149  0.0000E+00  4.1270E-01  3.3414E-01  0.0000E+00  0.0000E+00  0.0000E+00  0.0000E+00  0.0000E+00  1.0511E+00
150  0.0000E+00  5.3037E-01  0.0000E+00  4.3276E-01  2.9099E-01  5.2997E-01  5.6608E-01  0.0000E+00  1.0213E+00

# AV, chi2 & Mass for <> & i_chain = 1 ...  7 solutions
AV       1.4034      1.3962      1.3950      1.3956      1.3963      1.4002      1.3958      1.3982      1.3963
chi2 2.8772E+00  2.9453E+00  2.9362E+00  2.9311E+00  2.9300E+00  2.9293E+00  2.9254E+00  2.9336E+00  2.9239E+00
Mass 4.6895E-10  4.7661E-10  4.7659E-10  4.7690E-10  4.7610E-10  4.7484E-10  4.7722E-10  4.7557E-10  4.7928E-10
 -22.35                                  [v0_min (km/s) before EX0s...]
   0.37                                  [vd_min (km/s) before EX0s...]


## Synthetic spectrum (Best Model) ##l_obs f_obs f_syn wei
 3070    [Nl_obs]
 3359.00    0.00000   0.44537   -2.000
 3360.00    0.09619   0.42902   -1.000
 3361.00    0.24693   0.44005   -1.000
 3362.00    0.31239   0.46832   -1.000
 3363.00    0.36019   0.50179   -1.000
 3364.00    0.35750   0.52029   -1.000
 3365.00    0.34773   0.51669   -1.000
 3366.00    0.39063   0.50475   -1.000
 3367.00    0.36396   0.49077   -1.000
 3368.00    0.36215   0.47747   -1.000
 3369.00    0.41520   0.46692   -1.000
 3370.00    0.38647   0.45010   -1.000
 3371.00    0.35018   0.44054   -1.000
 3372.00    0.35225   0.44618   -1.000
 3373.00    0.34655   0.46813   -1.000
 3374.00    0.36732   0.49656   -1.000
 3375.00    0.43248   0.52413   -1.000
 3376.00    0.48558   0.53503   -1.000
 3377.00    0.45689   0.52634   -1.000
 3378.00    0.38853   0.50881   -1.000
 3379.00    0.39747   0.49588   -1.000
 3380.00    0.41412   0.49495   -1.000
 3381.00    0.37710   0.50246   -1.000
 3382.00    0.37266   0.51254   -1.000
 3383.00    0.40480   0.52001   -1.000
 3384.00    0.41659   0.52596   -1.000
 3385.00    0.41337   0.53392   -1.000
 3386.00    0.44044   0.53160   -1.000
 3387.00    0.48299   0.52222   60.026
 3388.00    0.46849   0.51683   59.672
 3389.00    0.45801   0.52217   -1.000
 3390.00    0.50170   0.52955   57.356
 3391.00    0.47421   0.53102   -1.000
 3392.00    0.44936   0.52057   -1.000
 3393.00    0.45170   0.51459   -1.000
 3394.00    0.45339   0.52439   -1.000
 3395.00    0.46809   0.54049   -1.000
 3396.00    0.47601   0.55674   -1.000
 3397.00    0.48820   0.56929   -1.000
 3398.00    0.48443   0.57715   -1.000
 3399.00    0.52086   0.57624   47.013
 3400.00    0.55629   0.56930   45.787
 3401.00    0.53830   0.55764   45.672
 3402.00    0.50422   0.53896   46.833
 3403.00    0.47248   0.52892   48.177
 3404.00    0.47759   0.52489   48.820
 3405.00    0.47703   0.52827   49.699
 3406.00    0.48268   0.52628   50.561
 3407.00    0.50405   0.51966   51.105
 3408.00    0.48256   0.51489   51.607
 3409.00    0.44712   0.52079   -1.000
 3410.00    0.47782   0.53221   52.177
 3411.00    0.49562   0.52826   51.243
 3412.00    0.42986   0.51705   -1.000
 3413.00    0.41383   0.50471   -1.000
 3414.00    0.47054   0.50488   52.679
 3415.00    0.47980   0.51980   53.120
 3416.00    0.46967   0.53623   -1.000
 3417.00    0.50903   0.54918   50.640
 3418.00    0.53809   0.55933   48.346
 3419.00    0.53027   0.56889   45.980
 3420.00    0.52875   0.57485   44.656
 3421.00    0.52287   0.57119   44.436
 3422.00    0.51935   0.55547   44.398
 3423.00    0.52748   0.54073   45.154
 3424.00    0.51645   0.53719   46.353
 3425.00    0.52656   0.54262   46.270
 3426.00    0.59372   0.55014   44.970
 3427.00    0.60815   0.56201   44.228
 3428.00    0.53233   0.58139   -1.000
 3429.00    0.50850   0.59632   -1.000
 3430.00    0.53057   0.59601   -1.000
 3431.00    0.53571   0.57675   -1.000
 3432.00    0.56392   0.55658  363.685
 3433.00    0.58727   0.54980   -1.000
 3434.00    0.56938   0.56151   44.151
 3435.00    0.52390   0.57681   -1.000
 3436.00    0.51472   0.57663   -1.000
 3437.00    0.53584   0.56295   85.809
 3438.00    0.53295   0.54260   44.901
 3439.00    0.53705   0.52013   47.289
 3440.00    0.52565   0.49718   50.555
 3441.00    0.49687   0.48100   53.694
 3442.00    0.48646   0.47936   54.887
 3443.00    0.48176   0.48771   54.814
 3444.00    0.50001   0.49971   53.662
 3445.00    0.51611   0.51222   51.133
 3446.00    0.51592   0.53226   48.313
 3447.00    0.53673   0.55632   46.105
 3448.00    0.55166   0.57669   76.204
 3449.00    0.57320   0.58517   -1.000
 3450.00    0.60746   0.57299   -1.000
 3451.00    0.60063   0.55191   -1.000
 3452.00    0.55937   0.53680   -1.000
 3453.00    0.55059   0.53661   -1.000
 3454.00    0.56882   0.54756   -1.000
 3455.00    0.58941   0.55873   -1.000
 3456.00    0.60516   0.56021   -1.000
 3457.00    0.58046   0.55141   -1.000
 3458.00    0.56751   0.53961   -1.000
 3459.00    0.58558   0.52837   -1.000
 3460.00    0.59577   0.51674   -1.000
 3461.00    0.55997   0.51642   44.567
 3462.00    0.54067   0.53364   74.685
 3463.00    0.55253   0.55033  363.685
 3464.00    0.54468   0.55230  363.685
 3465.00    0.56108   0.54683   -1.000
 3466.00    0.58117   0.54735   -1.000
 3467.00    0.56573   0.55918  363.685
 3468.00    0.57648   0.57521  363.685
 3469.00    0.60610   0.58770   -1.000
 3470.00    0.60139   0.58924   -1.000
 3471.00    0.58679   0.57881  363.685
 3472.00    0.56944   0.56399  363.685
 3473.00    0.55095   0.54254   -1.000
 3474.00    0.52868   0.52146  363.685
 3475.00    0.53306   0.51043   87.524
 3476.00    0.54060   0.51436   45.217
 3477.00    0.53286   0.53164   45.686
 3478.00    0.54400   0.54983   75.344
 3479.00    0.60114   0.56475   -1.000
 3480.00    0.61343   0.57550   -1.000
 3481.00    0.56889   0.57625   -1.000
 3482.00    0.56718   0.56880  363.685
 3483.00    0.58909   0.56092   -1.000
 3484.00    0.61337   0.56055   -1.000
 3485.00    0.62575   0.57244   -1.000
 3486.00    0.62099   0.58697   -1.000
 3487.00    0.61805   0.58954   -1.000
 3488.00    0.63045   0.57784   -1.000
 3489.00    0.59352   0.55665   -1.000
 3490.00    0.56851   0.54121   -1.000
 3491.00    0.58159   0.54402   -1.000
 3492.00    0.57171   0.55547   -1.000
 3493.00    0.58809   0.56135   -1.000
 3494.00    0.59012   0.56003   -1.000
 3495.00    0.60053   0.55080   -1.000
 3496.00    0.61145   0.54200   -1.000
 3497.00    0.58838   0.54582   -1.000
 3498.00    0.58681   0.55786   -1.000
 3499.00    0.60330   0.57057   -1.000
 3500.00    0.61521   0.57290   -1.000
 3501.00    0.64029   0.57360   -1.000
 3502.00    0.65107   0.58138   -1.000
 3503.00    0.64660   0.58736   -1.000
 3504.00    0.63214   0.58481   -1.000
 3505.00    0.61027   0.57357   -1.000
 3506.00    0.58263   0.56449   -1.000
 3507.00    0.57778   0.56186   -1.000
 3508.00    0.59146   0.56132   -1.000
 3509.00    0.60906   0.56086   -1.000
 3510.00    0.62914   0.55662   -1.000
 3511.00    0.62815   0.55120   -1.000
 3512.00    0.59216   0.54294   -1.000
 3513.00    0.55854   0.53311   -1.000
 3514.00    0.54249   0.53477  363.685
 3515.00    0.58362   0.55191   -1.000
 3516.00    0.60518   0.58144   -1.000
 3517.00    0.60903   0.60245  363.685
 3518.00    0.60429   0.60290  351.782
 3519.00    0.61493   0.58475   -1.000
 3520.00    0.60758   0.56337   -1.000
 3521.00    0.58371   0.54768   -1.000
 3522.00    0.56638   0.53720   -1.000
 3523.00    0.54872   0.52511   -1.000
 3524.00    0.54555   0.51235   -1.000
 3525.00    0.52090   0.50651   44.780
 3526.00    0.51930   0.51802   45.545
 3527.00    0.54353   0.53935   74.978
 3528.00    0.56433   0.56414  363.685
 3529.00    0.60090   0.58204   -1.000
 3530.00    0.60179   0.59015   -1.000
 3531.00    0.58914   0.59118  363.685
 3532.00    0.59582   0.58466   -1.000
 3533.00    0.59930   0.57373   -1.000
 3534.00    0.62460   0.57058   -1.000
 3535.00    0.60541   0.57596   -1.000
 3536.00    0.58667   0.59037  355.607
 3537.00    0.61229   0.60554  353.495
 3538.00    0.61468   0.61594  352.940
 3539.00    0.60717   0.62109   -1.000
 3540.00    0.61277   0.61718  347.578
 3541.00    0.60537   0.61090  352.268
 3542.00    0.61445   0.61216  357.386
 3543.00    0.63465   0.61993   -1.000
 3544.00    0.65680   0.62655   -1.000
 3545.00    0.64483   0.62480   -1.000
 3546.00    0.63606   0.61760   -1.000
 3547.00    0.63044   0.61180   -1.000
 3548.00    0.60935   0.61108  363.685
 3549.00    0.59940   0.61458   -1.000
 3550.00    0.58121   0.61910   -1.000
 3551.00    0.58859   0.62029   -1.000
 3552.00    0.60575   0.61102  363.685
 3553.00    0.61220   0.59736   -1.000
 3554.00    0.60730   0.59037   -1.000
 3555.00    0.60615   0.59371   -1.000
 3556.00    0.62493   0.60200   -1.000
 3557.00    0.64261   0.60938   -1.000
 3558.00    0.61927   0.61107  363.685
 3559.00    0.59590   0.61041   -1.000
 3560.00    0.61476   0.61378  363.685
 3561.00    0.62018   0.62054  363.685
 3562.00    0.61930   0.62037  363.685
 3563.00    0.59725   0.60538   -1.000
 3564.00    0.55559   0.57639   -1.000
 3565.00    0.54123   0.55162   89.524
 3566.00    0.54114   0.54406   45.318
 3567.00    0.50982   0.54538   46.124
 3568.00    0.49572   0.54556   45.698
 3569.00    0.51726   0.53520   46.233
 3570.00    0.50646   0.52120   47.511
 3571.00    0.50720   0.51973   47.320
 3572.00    0.51827   0.52894   45.533
 3573.00    0.54633   0.53875   72.709
 3574.00    0.56820   0.54599   -1.000
 3575.00    0.55290   0.55255  363.685
 3576.00    0.55039   0.55810  363.685
 3577.00    0.55343   0.55932  363.685
 3578.00    0.55163   0.55389  363.685
 3579.00    0.50830   0.53827   93.167
 3580.00    0.49289   0.52094   47.562
 3581.00    0.49997   0.50803   50.865
 3582.00    0.48540   0.50523   52.571
 3583.00    0.48612   0.51148   52.841
 3584.00    0.49258   0.50881   53.543
 3585.00    0.47416   0.49413   55.087
 3586.00    0.45438   0.48038   56.457
 3587.00    0.45660   0.48081   55.599
 3588.00    0.47998   0.49996   52.693
 3589.00    0.50831   0.52931   50.002
 3590.00    0.52790   0.55694   46.635
 3591.00    0.55826   0.57301   71.988
 3592.00    0.58106   0.57503  363.685
 3593.00    0.56718   0.57463   -1.000
 3594.00    0.55864   0.58103   -1.000
 3595.00    0.58379   0.59652   -1.000
 3596.00    0.59489   0.61033   -1.000
 3597.00    0.59689   0.61788   -1.000
 3598.00    0.61891   0.62357  341.187
 3599.00    0.61385   0.62732   -1.000
 3600.00    0.61373   0.62370   -1.000
 3601.00    0.60464   0.60639  341.627
 3602.00    0.57034   0.58690   -1.000
 3603.00    0.55891   0.57316   -1.000
 3604.00    0.55209   0.57210   -1.000
 3605.00    0.53591   0.57546   -1.000
 3606.00    0.53891   0.57253   -1.000
 3607.00    0.54434   0.56396   -1.000
 3608.00    0.53938   0.55428   -1.000
 3609.00    0.54656   0.55092  363.685
 3610.00    0.56289   0.55681  363.685
 3611.00    0.56658   0.56690  363.685
 3612.00    0.56655   0.57762   -1.000
 3613.00    0.56745   0.58721   -1.000
 3614.00    0.55439   0.59887   -1.000
 3615.00    0.55925   0.61188   -1.000
 3616.00    0.56533   0.60706   -1.000
 3617.00    0.55517   0.58157   -1.000
 3618.00    0.53965   0.55547   -1.000
 3619.00    0.52253   0.54899   90.245
 3620.00    0.52619   0.56525   70.952
 3621.00    0.55721   0.59006   -1.000
 3622.00    0.58468   0.60866   -1.000
 3623.00    0.59368   0.61873   -1.000
 3624.00    0.60631   0.62927   -1.000
 3625.00    0.63246   0.64964   -1.000
 3626.00    0.65023   0.67302   -1.000
 3627.00    0.65267   0.68773   -1.000
 3628.00    0.64220   0.67535   -1.000
 3629.00    0.60500   0.63725   -1.000
 3630.00    0.57295   0.59254   -1.000
 3631.00    0.53625   0.56853   -1.000
 3632.00    0.51676   0.57149   -1.000
 3633.00    0.55542   0.58973   -1.000
 3634.00    0.60558   0.60355  363.685
 3635.00    0.59574   0.60673   -1.000
 3636.00    0.59152   0.60939   -1.000
 3637.00    0.60099   0.62465   -1.000
 3638.00    0.62400   0.64321   -1.000
 3639.00    0.65068   0.65653  324.840
 3640.00    0.64475   0.66011   -1.000
 3641.00    0.63052   0.65131   -1.000
 3642.00    0.61097   0.63393   -1.000
 3643.00    0.60645   0.61583   -1.000
 3644.00    0.60645   0.60269  360.553
 3645.00    0.56759   0.59528   -1.000
 3646.00    0.56401   0.58806   -1.000
 3647.00    0.59162   0.58358  363.685
 3648.00    0.58198   0.58488  363.685
 3649.00    0.57585   0.58997   -1.000
 3650.00    0.57961   0.60068   -1.000
 3651.00    0.58841   0.61684   -1.000
 3652.00    0.61354   0.63587   -1.000
 3653.00    0.63386   0.64993   -1.000
 3654.00    0.65467   0.66141   -1.000
 3655.00    0.64934   0.67209   -1.000
 3656.00    0.65272   0.68221   -1.000
 3657.00    0.67189   0.68820   -1.000
 3658.00    0.68243   0.68916   -1.000
 3659.00    0.67528   0.68923   -1.000
 3660.00    0.67114   0.68601   -1.000
 3661.00    0.66197   0.67701   -1.000
 3662.00    0.64923   0.66614   -1.000
 3663.00    0.65327   0.65865  311.591
 3664.00    0.65783   0.65924  315.707
 3665.00    0.65397   0.66410   -1.000
 3666.00    0.65769   0.66591   -1.000
 3667.00    0.65498   0.66158  316.173
 3668.00    0.63419   0.64987   -1.000
 3669.00    0.61001   0.64137   -1.000
 3670.00    0.60397   0.64434   -1.000
 3671.00    0.62671   0.65644   -1.000
 3672.00    0.66403   0.66900  314.112
 3673.00    0.66094   0.67450   -1.000
 3674.00    0.65989   0.67131   -1.000
 3675.00    0.66072   0.66132  309.777
 3676.00    0.63053   0.64542   -1.000
 3677.00    0.63054   0.62691  324.164
 3678.00    0.61914   0.61253  334.151
 3679.00    0.60337   0.60933  343.601
 3680.00    0.61002   0.61353  348.190
 3681.00    0.60105   0.62227   -1.000
 3682.00    0.60832   0.63232   -1.000
 3683.00    0.62065   0.63622   -1.000
 3684.00    0.61077   0.63144   -1.000
 3685.00    0.60784   0.61666   -1.000
 3686.00    0.61212   0.60329  353.413
 3687.00    0.60045   0.60278  363.685
 3688.00    0.60904   0.61874   -1.000
 3689.00    0.61654   0.64497   -1.000
 3690.00    0.62104   0.66649   -1.000
 3691.00    0.63476   0.67557   -1.000
 3692.00    0.65427   0.67120   -1.000
 3693.00    0.67440   0.66324  308.275
 3694.00    0.65317   0.65956  315.110
 3695.00    0.65744   0.66031  316.936
 3696.00    0.66397   0.66110  314.858
 3697.00    0.65845   0.66559  311.585
 3698.00    0.67617   0.68020  304.968
 3699.00    0.68971   0.69855   -1.000
 3700.00    0.69956   0.71109   -1.000
 3701.00    0.70763   0.69895  290.005
 3702.00    0.67885   0.66124   -1.000
 3703.00    0.63555   0.61539   -1.000
 3704.00    0.60331   0.57975   -1.000
 3705.00    0.58356   0.56515   -1.000
 3706.00    0.59814   0.57170   -1.000
 3707.00    0.60184   0.58383   -1.000
 3708.00    0.58609   0.59558   -1.000
 3709.00    0.59988   0.60222  363.685
 3710.00    0.61199   0.60596  351.329
 3711.00    0.63554   0.61415   -1.000
 3712.00    0.65805   0.63336   -1.000
 3713.00    0.66850   0.66061  301.502
 3714.00    0.68870   0.68653  290.071
 3715.00    0.69104   0.70104   -1.000
 3716.00    0.69284   0.69728  288.328
 3717.00    0.69364   0.67696   -1.000
 3718.00    0.66099   0.63994   -1.000
 3719.00    0.59833   0.58385   -1.000
 3720.00    0.53786   0.52944   -1.000
 3721.00    0.51387   0.50984   94.741
 3722.00    0.54164   0.52853   70.707
 3723.00    0.57093   0.57407  363.685
 3724.00    0.59006   0.62560   -1.000
 3725.00    0.59302   0.65529   -1.000
 3726.00    0.58561   0.65883   -1.000
 3727.00    0.58754   0.65723   -1.000
 3728.00    0.57771   0.66053   -1.000
 3729.00    0.60124   0.66486   -1.000
 3730.00    0.65320   0.65937  329.887
 3731.00    0.63573   0.62737   -1.000
 3732.00    0.60483   0.57042   -1.000
 3733.00    0.56117   0.51595   -1.000
 3734.00    0.50967   0.47583   45.977
 3735.00    0.49197   0.46841   50.008
 3736.00    0.48814   0.49690   49.996
 3737.00    0.51899   0.54775   46.502
 3738.00    0.57085   0.60205   68.852
 3739.00    0.62403   0.65247   -1.000
 3740.00    0.66754   0.67957   -1.000
 3741.00    0.69177   0.68039   -1.000
 3742.00    0.67922   0.65939   -1.000
 3743.00    0.66232   0.63120   -1.000
 3744.00    0.62018   0.60581   -1.000
 3745.00    0.57909   0.58745  363.685
 3746.00    0.56401   0.56795  363.685
 3747.00    0.53439   0.53976   94.965
 3748.00    0.49831   0.51000   45.700
 3749.00    0.49162   0.49187   47.666
 3750.00    0.52876   0.50462   75.130
 3751.00    0.59487   0.54792   -1.000
 3752.00    0.65940   0.60420   -1.000
 3753.00    0.69338   0.65953   -1.000
 3754.00    0.71288   0.69637   -1.000
 3755.00    0.73414   0.70600   -1.000
 3756.00    0.71152   0.68906   -1.000
 3757.00    0.64916   0.65460  325.183
 3758.00    0.59602   0.62422   -1.000
 3759.00    0.61041   0.61647  363.685
 3760.00    0.64594   0.62697   -1.000
 3761.00    0.66310   0.64353   -1.000
 3762.00    0.67978   0.65437   -1.000
 3763.00    0.68271   0.65797   -1.000
 3764.00    0.68544   0.65527   -1.000
 3765.00    0.68121   0.64704   -1.000
 3766.00    0.65803   0.63425   -1.000
 3767.00    0.64416   0.61793   -1.000
 3768.00    0.63884   0.59559   -1.000
 3769.00    0.62656   0.57458   -1.000
 3770.00    0.64142   0.56456   -1.000
 3771.00    0.64395   0.57968   -1.000
 3772.00    0.65674   0.61680   -1.000
 3773.00    0.70353   0.65707   -1.000
 3774.00    0.72807   0.68007   -1.000
 3775.00    0.72836   0.68909   -1.000
 3776.00    0.71395   0.69487   -1.000
 3777.00    0.72396   0.70713   -1.000
 3778.00    0.74788   0.72679   -1.000
 3779.00    0.75960   0.74559   -1.000
 3780.00    0.77159   0.76046   -1.000
 3781.00    0.78298   0.76627   -1.000
 3782.00    0.77279   0.76587  279.052
 3783.00    0.76227   0.76068  278.120
 3784.00    0.76383   0.74882   -1.000
 3785.00    0.73014   0.72825  290.862
 3786.00    0.69297   0.70509   -1.000
 3787.00    0.69334   0.68256   -1.000
 3788.00    0.68602   0.67101   -1.000
 3789.00    0.68864   0.67294   -1.000
 3790.00    0.68550   0.67887  342.274
 3791.00    0.67198   0.68098  337.142
 3792.00    0.67616   0.67282  337.244
 3793.00    0.66408   0.65104   -1.000
 3794.00    0.62971   0.62168   -1.000
 3795.00    0.61018   0.58800   -1.000
 3796.00    0.58853   0.55319   -1.000
 3797.00    0.56395   0.51992   -1.000
 3798.00    0.53925   0.51047   -1.000
 3799.00    0.56772   0.54216   -1.000
 3800.00    0.62798   0.60489   -1.000
 3801.00    0.66804   0.66482  349.057
 3802.00    0.69534   0.70674   -1.000
 3803.00    0.71877   0.72410  315.161
 3804.00    0.73550   0.72805  310.393
 3805.00    0.72768   0.72092  311.347
 3806.00    0.71582   0.71024  319.095
 3807.00    0.70954   0.71239  329.021
 3808.00    0.71696   0.72862   -1.000
 3809.00    0.75003   0.74867  318.530
 3810.00    0.78033   0.75974   -1.000
 3811.00    0.77104   0.74993   -1.000
 3812.00    0.73466   0.72211   -1.000
 3813.00    0.70152   0.69037   -1.000
 3814.00    0.67109   0.66459   -1.000
 3815.00    0.64584   0.65906   -1.000
 3816.00    0.66313   0.67175  363.685
 3817.00    0.69871   0.68437   -1.000
 3818.00    0.69233   0.67979   -1.000
 3819.00    0.66219   0.65716  363.685
 3820.00    0.64287   0.63815  363.685
 3821.00    0.64886   0.63961   -1.000
 3822.00    0.66293   0.65547   -1.000
 3823.00    0.65585   0.65712  363.685
 3824.00    0.61124   0.63620   -1.000
 3825.00    0.58881   0.61351  100.293
 3826.00    0.59168   0.60033   46.451
 3827.00    0.56558   0.59612   46.874
 3828.00    0.55613   0.59617   46.305
 3829.00    0.57686   0.59208   45.546
 3830.00    0.58701   0.58249   45.325
 3831.00    0.57311   0.56261   46.506
 3832.00    0.54714   0.53050   49.287
 3833.00    0.52049   0.49042   52.312
 3834.00    0.51043   0.46206   52.800
 3835.00    0.50776   0.45790   51.264
 3836.00    0.51902   0.47189   49.559
 3837.00    0.53875   0.49424   49.342
 3838.00    0.53256   0.51781   50.489
 3839.00    0.52223   0.54282   50.852
 3840.00    0.54742   0.57333   49.077
 3841.00    0.60228   0.61277   72.748
 3842.00    0.65701   0.65359  363.685
 3843.00    0.68593   0.69098  363.685
 3844.00    0.70875   0.71242  360.916
 3845.00    0.73431   0.72165   -1.000
 3846.00    0.73100   0.72923  357.127
 3847.00    0.73576   0.73572  357.271
 3848.00    0.73919   0.73361  361.154
 3849.00    0.70929   0.72518   -1.000
 3850.00    0.70585   0.72057   -1.000
 3851.00    0.71431   0.72991   -1.000
 3852.00    0.71492   0.74535   -1.000
 3853.00    0.71857   0.75313   -1.000
 3854.00    0.70017   0.74366   -1.000
 3855.00    0.68806   0.72754   -1.000
 3856.00    0.68425   0.71040   -1.000
 3857.00    0.65807   0.69236   -1.000
 3858.00    0.64019   0.67622   -1.000
 3859.00    0.64300   0.67109   44.671
 3860.00    0.63125   0.68255   45.973
 3861.00    0.65555   0.70911   -1.000
 3862.00    0.70183   0.73808   -1.000
 3863.00    0.73368   0.75111   -1.000
 3864.00    0.76092   0.74802   -1.000
 3865.00    0.75189   0.74270   -1.000
 3866.00    0.72358   0.74115   -1.000
 3867.00    0.71288   0.74439   -1.000
 3868.00    0.71296   0.74730   -1.000
 3869.00    0.70782   0.73978   -1.000
 3870.00    0.68538   0.72135   -1.000
 3871.00    0.64885   0.70054   -1.000
 3872.00    0.63868   0.68619   67.740
 3873.00    0.66552   0.68882   -1.000
 3874.00    0.69975   0.70755  363.685
 3875.00    0.70092   0.72324   -1.000
 3876.00    0.70597   0.71656  343.940
 3877.00    0.68752   0.69494  362.075
 3878.00    0.66054   0.67836   -1.000
 3879.00    0.66345   0.67671   -1.000
 3880.00    0.67219   0.68730   -1.000
 3881.00    0.65312   0.69227   -1.000
 3882.00    0.63390   0.68665   -1.000
 3883.00    0.65741   0.67983   -1.000
 3884.00    0.66486   0.66471  362.769
 3885.00    0.63634   0.63043  352.345
 3886.00    0.61495   0.58250   -1.000
 3887.00    0.58691   0.53796   -1.000
 3888.00    0.56447   0.51762   -1.000
 3889.00    0.57663   0.53237   -1.000
 3890.00    0.62201   0.57814   -1.000
 3891.00    0.66616   0.63693   -1.000
 3892.00    0.69624   0.67974   -1.000
 3893.00    0.71761   0.69371   -1.000
 3894.00    0.72285   0.69619   -1.000
 3895.00    0.70956   0.70334  302.975
 3896.00    0.72480   0.71680  299.261
 3897.00    0.75844   0.73033   -1.000
 3898.00    0.75392   0.73514   -1.000
 3899.00    0.74843   0.73386   -1.000
 3900.00    0.74877   0.73912  293.985
 3901.00    0.76137   0.74670   -1.000
 3902.00    0.77254   0.74704   -1.000
 3903.00    0.75763   0.73890   -1.000
 3904.00    0.74218   0.72661   -1.000
 3905.00    0.72565   0.72350  315.247
 3906.00    0.72392   0.73252  320.061
 3907.00    0.74366   0.75651   -1.000
 3908.00    0.77159   0.78741   -1.000
 3909.00    0.78961   0.80970   -1.000
 3910.00    0.80918   0.81881  271.572
 3911.00    0.84395   0.82405   -1.000
 3912.00    0.83861   0.82578   -1.000
 3913.00    0.82170   0.81957  267.221
 3914.00    0.82114   0.80807   -1.000
 3915.00    0.82032   0.79961   -1.000
 3916.00    0.78650   0.79471  282.781
 3917.00    0.78617   0.78619  286.389
 3918.00    0.79758   0.77046   -1.000
 3919.00    0.76593   0.75277   -1.000
 3920.00    0.73929   0.73865  316.255
 3921.00    0.72516   0.73167  328.114
 3922.00    0.72813   0.73527  330.890
 3923.00    0.74306   0.74270  326.493
 3924.00    0.74406   0.74300  323.737
 3925.00    0.72150   0.73162  331.636
 3926.00    0.68966   0.70335   -1.000
 3927.00    0.64075   0.66372   -1.000
 3928.00    0.56606   0.61508   -1.000
 3929.00    0.51152   0.56234   51.652
 3930.00    0.44263   0.49832   60.522
 3931.00    0.37793   0.42001   71.086
 3932.00    0.33368   0.34329   83.806
 3933.00    0.30864   0.29590   95.664
 3934.00    0.30098   0.30968   99.371
 3935.00    0.33447   0.37427   -1.000
 3936.00    0.39287   0.45645   -1.000
 3937.00    0.46353   0.53506   -1.000
 3938.00    0.54822   0.60784   -1.000
 3939.00    0.60159   0.65974   -1.000
 3940.00    0.62876   0.69584   -1.000
 3941.00    0.65654   0.71445   -1.000
 3942.00    0.68398   0.71940   -1.000
 3943.00    0.68912   0.71845   -1.000
 3944.00    0.69729   0.72559   -1.000
 3945.00    0.72517   0.74338   -1.000
 3946.00    0.75893   0.76398  314.619
 3947.00    0.75751   0.77530   -1.000
 3948.00    0.75797   0.77741   -1.000
 3949.00    0.78722   0.78080  293.933
 3950.00    0.80408   0.78543   -1.000
 3951.00    0.82169   0.78490   -1.000
 3952.00    0.80991   0.78641   -1.000
 3953.00    0.80173   0.79497  281.417
 3954.00    0.83045   0.80101   -1.000
 3955.00    0.82300   0.79599   -1.000
 3956.00    0.77671   0.78299  278.092
 3957.00    0.76234   0.77465   -1.000
 3958.00    0.78470   0.77504  287.084
 3959.00    0.78429   0.76603   -1.000
 3960.00    0.74269   0.73513   -1.000
 3961.00    0.69719   0.69615  337.104
 3962.00    0.65634   0.65851  363.685
 3963.00    0.61192   0.62833   -1.000
 3964.00    0.56209   0.59239  104.027
 3965.00    0.50539   0.52962   48.578
 3966.00    0.42751   0.44352   58.018
 3967.00    0.34792   0.35205   71.441
 3968.00    0.29843   0.29685   84.377
 3969.00    0.30832   0.29878   87.235
 3970.00    0.35173   0.35399   77.019
 3971.00    0.40620   0.43629   63.331
 3972.00    0.49839   0.52317   52.430
 3973.00    0.57099   0.59488   70.071
 3974.00    0.61629   0.65561   -1.000
 3975.00    0.65886   0.70349   -1.000
 3976.00    0.71923   0.74349   -1.000
 3977.00    0.77357   0.77596  291.274
 3978.00    0.79788   0.80474  274.935
 3979.00    0.84757   0.82702   -1.000
 3980.00    0.86506   0.83372   -1.000
 3981.00    0.84669   0.83145   -1.000
 3982.00    0.84583   0.82868   -1.000
 3983.00    0.85031   0.83242   -1.000
 3984.00    0.85482   0.84629  251.568
 3985.00    0.86671   0.86042  246.363
 3986.00    0.88866   0.87061   -1.000
 3987.00    0.89385   0.88197  237.664
 3988.00    0.89971   0.89279  233.953
 3989.00    0.90827   0.89531  232.926
 3990.00    0.91883   0.89765   -1.000
 3991.00    0.93524   0.90574   -1.000
 3992.00    0.93785   0.91722   -1.000
 3993.00    0.93822   0.92301   -1.000
 3994.00    0.95918   0.91652   -1.000
 3995.00    0.95555   0.90017   -1.000
 3996.00    0.90970   0.88145   -1.000
 3997.00    0.88254   0.87533  239.834
 3998.00    0.89627   0.88394  238.948
 3999.00    0.92817   0.90241   -1.000
 4000.00    0.96092   0.92160   -1.000
 4001.00    0.96615   0.93564   -1.000
 4002.00    0.96976   0.93827   -1.000
 4003.00    0.96727   0.92592   -1.000
 4004.00    0.93435   0.89939   -1.000
 4005.00    0.90168   0.87617   -1.000
 4006.00    0.90560   0.87928   -1.000
 4007.00    0.93463   0.90328   -1.000
 4008.00    0.95762   0.93153   -1.000
 4009.00    0.96117   0.94665  215.370
 4010.00    0.97237   0.95234   -1.000
 4011.00    1.02762   0.95503   -1.000
 4012.00    1.01327   0.95586   -1.000
 4013.00    0.98846   0.95687   -1.000
 4014.00    0.99380   0.96046   -1.000
 4015.00    0.99253   0.96500   -1.000
 4016.00    1.00802   0.96605   -1.000
 4017.00    1.00598   0.96681   -1.000
 4018.00    0.99173   0.97289   -1.000
 4019.00    0.98846   0.97918  210.931
 4020.00    1.01221   0.98228   -1.000
 4021.00    1.03431   0.97760   -1.000
 4022.00    1.01982   0.97175   -1.000
 4023.00    0.99674   0.96463   -1.000
 4024.00    0.98721   0.95730   -1.000
 4025.00    0.98789   0.95865   -1.000
 4026.00    1.02146   0.97362   -1.000
 4027.00    1.05601   0.99332   -1.000
 4028.00    1.05125   0.99363   -1.000
 4029.00    1.01746   0.96955   -1.000
 4030.00    0.96056   0.93400   -1.000
 4031.00    0.93476   0.90630   -1.000
 4032.00    0.93681   0.89592   -1.000
 4033.00    0.94292   0.90170   -1.000
 4034.00    0.96703   0.92148   -1.000
 4035.00    1.01568   0.95206   -1.000
 4036.00    1.04421   0.98776   -1.000
 4037.00    1.05620   1.01838   -1.000
 4038.00    1.05157   1.02655   -1.000
 4039.00    1.03206   1.01651  197.790
 4040.00    1.03041   1.00420   -1.000
 4041.00    1.03213   0.99675   -1.000
 4042.00    1.02300   0.98533   -1.000
 4043.00    0.99272   0.95454   -1.000
 4044.00    0.93594   0.90662   -1.000
 4045.00    0.89876   0.87559   -1.000
 4046.00    0.92006   0.88343   -1.000
 4047.00    0.97300   0.92603   -1.000
 4048.00    0.99991   0.97338   -1.000
 4049.00    1.00295   1.00452  207.879
 4050.00    1.03521   1.01395   -1.000
 4051.00    1.05401   1.01346   -1.000
 4052.00    1.03920   1.00371   -1.000
 4053.00    1.00655   0.98956   -1.000
 4054.00    0.98876   0.98014  215.813
 4055.00    0.99896   0.97425   -1.000
 4056.00    1.00000   0.96872   -1.000
 4057.00    0.99029   0.96668   -1.000
 4058.00    0.98068   0.97523  222.423
 4059.00    0.98374   0.99285  217.616
 4060.00    1.01937   1.00061   -1.000
 4061.00    1.03258   0.98039   -1.000
 4062.00    0.99153   0.94009   -1.000
 4063.00    0.93828   0.90797   -1.000
 4064.00    0.94910   0.89760   -1.000
 4065.00    0.97465   0.90803   -1.000
 4066.00    0.98327   0.93148   -1.000
 4067.00    0.98520   0.95044   -1.000
 4068.00    1.01399   0.96169   -1.000
 4069.00    1.06071   0.96151   -1.000
 4070.00    1.04545   0.94372   -1.000
 4071.00    0.98586   0.92107   -1.000
 4072.00    0.94692   0.91884   -1.000
 4073.00    0.99352   0.93472   -1.000
 4074.00    1.02116   0.94558   -1.000
 4075.00    0.96596   0.93236   -1.000
 4076.00    0.88166   0.90430   -1.000
 4077.00    0.84972   0.88609   -1.000
 4078.00    0.85778   0.89258   -1.000
 4079.00    0.91659   0.92617  235.993
 4080.00    0.99210   0.96634   -1.000
 4081.00    1.03909   0.98831   -1.000
 4082.00    1.03088   0.98495   -1.000
 4083.00    1.00158   0.96806   -1.000
 4084.00    0.97129   0.95600   -1.000
 4085.00    0.97136   0.96093  216.638
 4086.00    0.99507   0.98098  211.730
 4087.00    1.04664   1.00527   -1.000
 4088.00    1.08141   1.02069   -1.000
 4089.00    1.08581   1.02018   -1.000
 4090.00    1.07802   1.00977   -1.000
 4091.00    1.04863   1.00019   -1.000
 4092.00    1.03143   0.99448   -1.000
 4093.00    1.03422   0.98352   -1.000
 4094.00    1.03885   0.96699   -1.000
 4095.00    1.02147   0.94107   -1.000
 4096.00    0.97636   0.91476   -1.000
 4097.00    0.94808   0.89026   -1.000
 4098.00    0.92117   0.85753   -1.000
 4099.00    0.86600   0.80774   -1.000
 4100.00    0.78174   0.74216   -1.000
 4101.00    0.71463   0.69821   -1.000
 4102.00    0.73030   0.70278   -1.000
 4103.00    0.79493   0.76107   -1.000
 4104.00    0.87096   0.83754   -1.000
 4105.00    0.92538   0.89923   -1.000
 4106.00    0.94770   0.93067   -1.000
 4107.00    0.96514   0.94653   -1.000
 4108.00    0.96910   0.95151   -1.000
 4109.00    0.95317   0.95096  217.809
 4110.00    0.95264   0.95471  221.767
 4111.00    0.96902   0.96315  222.823
 4112.00    0.99115   0.97613  219.070
 4113.00    1.00285   0.99155  214.486
 4114.00    1.01982   1.00830  210.970
 4115.00    1.04506   1.01916   -1.000
 4116.00    1.02626   1.01699  207.261
 4117.00    1.00735   1.00458  209.577
 4118.00    1.00225   0.98928  215.089
 4119.00    0.98732   0.97876  220.759
 4120.00    0.98423   0.98214  221.281
 4121.00    0.99383   0.99061  218.555
 4122.00    1.00991   0.99744  217.199
 4123.00    1.02249   1.00373   -1.000
 4124.00    1.01774   1.01234  213.603
 4125.00    1.04071   1.01998   -1.000
 4126.00    1.05232   1.01845   -1.000
 4127.00    1.02481   1.01028  215.072
 4128.00    1.00385   1.00472  218.753
 4129.00    1.00634   1.00246  220.239
 4130.00    1.00900   0.99128   -1.000
 4131.00    1.00177   0.97101   -1.000
 4132.00    0.96884   0.95398   -1.000
 4133.00    0.96518   0.95591  238.527
 4134.00    0.97815   0.97745  235.884
 4135.00    1.01493   1.00513  226.362
 4136.00    1.05723   1.03090   -1.000
 4137.00    1.05894   1.04922  210.615
 4138.00    1.05993   1.06250  207.333
 4139.00    1.08246   1.06764  204.961
 4140.00    1.07736   1.05341   -1.000
 4141.00    1.03385   1.02039  212.658
 4142.00    0.97400   0.98182  226.425
 4143.00    0.94301   0.95662   -1.000
 4144.00    0.96333   0.96339  248.106
 4145.00    1.00678   0.99353  236.340
 4146.00    1.03784   1.02226   -1.000
 4147.00    1.06139   1.03088   -1.000
 4148.00    1.05597   1.02707   -1.000
 4149.00    1.03809   1.02498  223.006
 4150.00    1.03614   1.02798  228.102
 4151.00    1.02729   1.02968  229.242
 4152.00    1.01363   1.02362  227.584
 4153.00    1.01812   1.01212  227.503
 4154.00    1.11101   1.00325   -1.000
 4155.00    1.32821   1.00436   -1.000
 4156.00    1.17320   1.01497   -1.000
 4157.00    0.69700   1.02935   -1.000
 4158.00    0.87176   1.04611   -1.000
 4159.00    1.12369   1.05907   -1.000
 4160.00    1.08365   1.06662   -1.000
 4161.00    1.07314   1.07127  216.194
 4162.00    1.08502   1.07627  210.924
 4163.00    1.07276   1.08179  209.967
 4164.00    1.06191   1.08232   -1.000
 4165.00    1.05304   1.07323   -1.000
 4166.00    1.04503   1.05711  219.339
 4167.00    1.03544   1.04762  223.794
 4168.00    1.04086   1.04696  225.360
 4169.00    1.05757   1.04899  222.719
 4170.00    1.04222   1.03791  220.955
 4171.00    1.00888   1.00920  227.166
 4172.00    0.96814   0.98174   -1.000
 4173.00    0.93768   0.97475   -1.000
 4174.00    0.96378   0.98905   -1.000
 4175.00    0.98856   1.01001   -1.000
 4176.00    1.00144   1.01907   -1.000
 4177.00    0.98690   1.02472   -1.000
 4178.00    0.98906   1.03343   -1.000
 4179.00    1.01054   1.04373   -1.000
 4180.00    1.03244   1.04797   -1.000
 4181.00    1.03655   1.03950  227.568
 4182.00    1.03012   1.03562  226.881
 4183.00    1.03347   1.04559   -1.000
 4184.00    1.04888   1.05431  219.234
 4185.00    1.05657   1.04999  216.842
 4186.00    1.03973   1.03317  219.709
 4187.00    1.00128   1.01904   -1.000
 4188.00    1.00743   1.02019   -1.000
 4189.00    1.04191   1.03132  227.044
 4190.00    1.04448   1.04107  223.123
 4191.00    1.04616   1.04688  221.300
 4192.00    1.04934   1.05442  217.633
 4193.00    1.06345   1.06345  213.498
 4194.00    1.06183   1.06161  213.850
 4195.00    1.03790   1.04054  222.112
 4196.00    1.01556   1.01323  232.530
 4197.00    1.00777   0.99089   -1.000
 4198.00    0.97235   0.97685  241.657
 4199.00    0.96733   0.97032  240.954
 4200.00    0.99190   0.97489   -1.000
 4201.00    1.00029   0.98317   -1.000
 4202.00    0.99858   0.99173  234.179
 4203.00    0.99139   1.00789   -1.000
 4204.00    1.00282   1.02958   -1.000
 4205.00    1.01061   1.04664   -1.000
 4206.00    1.03790   1.05981   -1.000
 4207.00    1.06933   1.06951  216.157
 4208.00    1.08737   1.07233  213.086
 4209.00    1.07611   1.07021  212.802
 4210.00    1.05822   1.06937  213.281
 4211.00    1.05914   1.07561   -1.000
 4212.00    1.07300   1.08187  211.832
 4213.00    1.06409   1.06990  215.121
 4214.00    1.03571   1.04491  223.364
 4215.00    1.01752   1.02663  232.346
 4216.00    1.01606   1.02376  233.544
 4217.00    1.03975   1.04499  222.659
 4218.00    1.08141   1.07236  209.792
 4219.00    1.08949   1.09087  201.842
 4220.00    1.11456   1.09703  197.522
 4221.00    1.12576   1.09007   -1.000
 4222.00    1.09155   1.06645   -1.000
 4223.00    1.03883   1.02022   -1.000
 4224.00    0.97423   0.95713   -1.000
 4225.00    0.91936   0.90183   -1.000
 4226.00    0.85949   0.87430   -1.000
 4227.00    0.86145   0.90036   -1.000
 4228.00    0.92887   0.97001   -1.000
 4229.00    1.01869   1.03980   -1.000
 4230.00    1.08516   1.07215  212.323
 4231.00    1.11072   1.07329   -1.000
 4232.00    1.08010   1.06109   -1.000
 4233.00    1.05644   1.04449  210.735
 4234.00    1.04791   1.03060   -1.000
 4235.00    1.02756   1.02736  218.136
 4236.00    1.01338   1.02826   -1.000
 4237.00    1.02068   1.03412   -1.000
 4238.00    1.02599   1.04816   -1.000
 4239.00    1.01921   1.06229   -1.000
 4240.00    1.04331   1.07733   -1.000
 4241.00    1.07858   1.09183   -1.000
 4242.00    1.08153   1.10241   -1.000
 4243.00    1.07570   1.11069   -1.000
 4244.00    1.08489   1.11546   -1.000
 4245.00    1.08738   1.10918   -1.000
 4246.00    1.05988   1.08434   -1.000
 4247.00    1.02910   1.05335   -1.000
 4248.00    1.02365   1.03108  221.324
 4249.00    1.03312   1.02426  225.637
 4250.00    1.04514   1.03073   -1.000
 4251.00    1.03936   1.04597  224.228
 4252.00    1.05312   1.05696  217.591
 4253.00    1.04230   1.05328  213.984
 4254.00    1.03631   1.04373  217.043
 4255.00    1.03625   1.05065   -1.000
 4256.00    1.04734   1.07330   -1.000
 4257.00    1.08029   1.08372  208.599
 4258.00    1.07387   1.06488  210.392
 4259.00    1.01350   1.03401   -1.000
 4260.00    0.97837   1.02226   -1.000
 4261.00    1.00312   1.04268   -1.000
 4262.00    1.05083   1.08145   -1.000
 4263.00    1.09392   1.11519   -1.000
 4264.00    1.12928   1.13159  198.980
 4265.00    1.13798   1.13067  195.913
 4266.00    1.11669   1.12316  196.825
 4267.00    1.09837   1.10870  201.312
 4268.00    1.08351   1.08483  207.958
 4269.00    1.05720   1.05166  214.820
 4270.00    1.00694   1.01371  225.136
 4271.00    0.96054   0.98476   -1.000
 4272.00    0.95030   0.97294   -1.000
 4273.00    0.96100   0.98246   -1.000
 4274.00    0.97127   1.00411   -1.000
 4275.00    1.00154   1.03302   -1.000
 4276.00    1.04263   1.07260   -1.000
 4277.00    1.07030   1.10838   -1.000
 4278.00    1.08324   1.11675   -1.000
 4279.00    1.06822   1.10184   -1.000
 4280.00    1.04329   1.07987   -1.000
 4281.00    1.03038   1.07112   -1.000
 4282.00    1.03458   1.07568   -1.000
 4283.00    1.05411   1.07778   -1.000
 4284.00    1.04738   1.07431   -1.000
 4285.00    1.03205   1.06559   -1.000
 4286.00    1.01571   1.05144   -1.000
 4287.00    0.99664   1.03179   -1.000
 4288.00    0.98485   1.00461   -1.000
 4289.00    0.95474   0.97530   -1.000
 4290.00    0.94841   0.96883   -1.000
 4291.00    0.95914   0.99120   -1.000
 4292.00    0.98160   1.02357   -1.000
 4293.00    1.02314   1.04079   -1.000
 4294.00    1.03853   1.03659  224.123
 4295.00    1.02214   1.02706  226.974
 4296.00    0.99342   1.01188   -1.000
 4297.00    0.95785   0.98301   -1.000
 4298.00    0.90743   0.94394   -1.000
 4299.00    0.84804   0.90633   -1.000
 4300.00    0.82200   0.88685   -1.000
 4301.00    0.82753   0.88766   -1.000
 4302.00    0.84144   0.89952   -1.000
 4303.00    0.85002   0.91352   -1.000
 4304.00    0.86415   0.92619   -1.000
 4305.00    0.85709   0.92513   -1.000
 4306.00    0.85923   0.90645   -1.000
 4307.00    0.84560   0.88343   -1.000
 4308.00    0.81099   0.87074   -1.000
 4309.00    0.81739   0.88214   -1.000
 4310.00    0.84865   0.91022   -1.000
 4311.00    0.88017   0.94294   -1.000
 4312.00    0.90502   0.97240   -1.000
 4313.00    0.93999   1.00710   -1.000
 4314.00    0.98623   1.05137   -1.000
 4315.00    1.05658   1.10569   -1.000
 4316.00    1.14626   1.16161   -1.000
 4317.00    1.19992   1.19350  188.335
 4318.00    1.20501   1.19762  184.189
 4319.00    1.19411   1.18603  185.383
 4320.00    1.18905   1.16876   -1.000
 4321.00    1.14726   1.14172  193.884
 4322.00    1.08532   1.10017  201.543
 4323.00    1.04849   1.04884  213.236
 4324.00    0.99029   1.00466   -1.000
 4325.00    0.94680   0.99232   -1.000
 4326.00    0.95256   1.02488   -1.000
 4327.00    1.02676   1.08603   -1.000
 4328.00    1.09524   1.13942   -1.000
 4329.00    1.12342   1.16059   -1.000
 4330.00    1.14246   1.16021   -1.000
 4331.00    1.14508   1.15897   -1.000
 4332.00    1.15130   1.16466   -1.000
 4333.00    1.15451   1.16691  188.456
 4334.00    1.14794   1.15663  187.101
 4335.00    1.13691   1.12539  187.955
 4336.00    1.08317   1.06742  194.212
 4337.00    1.00979   0.98245   -1.000
 4338.00    0.92507   0.89179   -1.000
 4339.00    0.83135   0.83136  250.208
 4340.00    0.77732   0.81732   -1.000
 4341.00    0.83625   0.86301   -1.000
 4342.00    0.95145   0.95003  240.071
 4343.00    1.02787   1.03251  219.214
 4344.00    1.05991   1.08299   -1.000
 4345.00    1.09769   1.11576   -1.000
 4346.00    1.10791   1.13949   -1.000
 4347.00    1.12894   1.16203   -1.000
 4348.00    1.14923   1.17580   -1.000
 4349.00    1.14197   1.16489   -1.000
 4350.00    1.11624   1.12826  194.188
 4351.00    1.06836   1.09191   -1.000
 4352.00    1.04494   1.07901   -1.000
 4353.00    1.07861   1.10112   -1.000
 4354.00    1.13282   1.14047  207.026
 4355.00    1.16012   1.17055  198.621
 4356.00    1.16943   1.18333   -1.000
 4357.00    1.15393   1.18536   -1.000
 4358.00    1.14679   1.18031   -1.000
 4359.00    1.15175   1.17673   -1.000
 4360.00    1.16869   1.18506   -1.000
 4361.00    1.18566   1.20168   -1.000
 4362.00    1.19477   1.21724   -1.000
 4363.00    1.21484   1.22686  185.372
 4364.00    1.22144   1.23251  184.221
 4365.00    1.21795   1.22851  182.708
 4366.00    1.20014   1.21065  184.535
 4367.00    1.17035   1.18961   -1.000
 4368.00    1.14805   1.17728   -1.000
 4369.00    1.14539   1.17104   -1.000
 4370.00    1.17162   1.16749  195.042
 4371.00    1.16750   1.16095  194.219
 4372.00    1.14644   1.14550  194.787
 4373.00    1.12713   1.12248  198.783
 4374.00    1.09248   1.09851  207.174
 4375.00    1.07645   1.09603   -1.000
 4376.00    1.10275   1.12302   -1.000
 4377.00    1.14903   1.16161  199.794
 4378.00    1.19436   1.18483  191.830
 4379.00    1.21055   1.18384   -1.000
 4380.00    1.19182   1.16035   -1.000
 4381.00    1.14686   1.11182   -1.000
 4382.00    1.07963   1.04795   -1.000
 4383.00    1.00941   0.99778  235.559
 4384.00    0.96931   0.99404   -1.000
 4385.00    1.01059   1.03761   -1.000
 4386.00    1.07065   1.09240   -1.000
 4387.00    1.11456   1.12238  206.422
 4388.00    1.13002   1.12996  202.510
 4389.00    1.13568   1.13060  203.605
 4390.00    1.13536   1.13336  205.411
 4391.00    1.12845   1.14306   -1.000
 4392.00    1.14533   1.15548  200.051
 4393.00    1.16093   1.15683  197.420
 4394.00    1.14754   1.14740  200.035
 4395.00    1.14321   1.15043  202.945
 4396.00    1.16333   1.17249  199.047
 4397.00    1.18779   1.19094  190.637
 4398.00    1.19028   1.18928  187.914
 4399.00    1.16556   1.17219  192.337
 4400.00    1.14934   1.15749  199.247
 4401.00    1.15715   1.15353  202.382
 4402.00    1.16246   1.15040  199.188
 4403.00    1.14632   1.13268  198.909
 4404.00    1.11426   1.10727  207.949
 4405.00    1.09967   1.09911  217.025
 4406.00    1.11947   1.11371  215.245
 4407.00    1.12315   1.13479  208.946
 4408.00    1.13262   1.15246   -1.000
 4409.00    1.16555   1.17946   -1.000
 4410.00    1.19342   1.21789   -1.000
 4411.00    1.23490   1.24300  186.515
 4412.00    1.26301   1.23885   -1.000
 4413.00    1.24016   1.21171   -1.000
 4414.00    1.19016   1.17248  188.956
 4415.00    1.15426   1.14029  198.912
 4416.00    1.13607   1.14299  203.166
 4417.00    1.16235   1.17613   -1.000
 4418.00    1.19696   1.21823   -1.000
 4419.00    1.22639   1.24784   -1.000
 4420.00    1.24671   1.25395  181.676
 4421.00    1.22537   1.23970   -1.000
 4422.00    1.20320   1.22370   -1.000
 4423.00    1.20361   1.21724   -1.000
 4424.00    1.21251   1.21711  189.457
 4425.00    1.19534   1.21323   -1.000
 4426.00    1.18382   1.20728   -1.000
 4427.00    1.19158   1.21098   -1.000
 4428.00    1.20128   1.22027   -1.000
 4429.00    1.19958   1.22828   -1.000
 4430.00    1.19375   1.23277   -1.000
 4431.00    1.19259   1.23476   -1.000
 4432.00    1.18568   1.23136   -1.000
 4433.00    1.18268   1.21181   -1.000
 4434.00    1.15176   1.18265   -1.000
 4435.00    1.12715   1.17007   -1.000
 4436.00    1.16532   1.19466   -1.000
 4437.00    1.23262   1.24430  192.621
 4438.00    1.25899   1.28238   -1.000
 4439.00    1.27176   1.29140   -1.000
 4440.00    1.25511   1.26651  178.344
 4441.00    1.21410   1.22752  185.243
 4442.00    1.17203   1.19806   -1.000
 4443.00    1.16088   1.19979   -1.000
 4444.00    1.17360   1.22936   -1.000
 4445.00    1.20391   1.26439   -1.000
 4446.00    1.25292   1.28628   -1.000
 4447.00    1.26868   1.29008   -1.000
 4448.00    1.27114   1.28987   -1.000
 4449.00    1.26447   1.28992   -1.000
 4450.00    1.24654   1.28710   -1.000
 4451.00    1.23396   1.28052   -1.000
 4452.00    1.24103   1.26734   -1.000
 4453.00    1.22675   1.23822  186.886
 4454.00    1.19631   1.20124  194.645
 4455.00    1.16580   1.18231   -1.000
 4456.00    1.15725   1.18872   -1.000
 4457.00    1.18776   1.20813   -1.000
 4458.00    1.20192   1.21820   -1.000
 4459.00    1.18653   1.21826   -1.000
 4460.00    1.17975   1.21711   -1.000
 4461.00    1.16809   1.22091   -1.000
 4462.00    1.18464   1.23391   -1.000
 4463.00    1.24033   1.25423   -1.000
 4464.00    1.26096   1.27085  188.928
 4465.00    1.25170   1.27539   -1.000
 4466.00    1.24797   1.26797   -1.000
 4467.00    1.24224   1.25476  186.764
 4468.00    1.24238   1.24363  189.466
 4469.00    1.21640   1.24125   -1.000
 4470.00    1.21260   1.25633   -1.000
 4471.00    1.24236   1.28679   -1.000
 4472.00    1.26725   1.31693   -1.000
 4473.00    1.30839   1.33653   -1.000
 4474.00    1.33608   1.34081  172.424
 4475.00    1.33405   1.34090  171.676
 4476.00    1.33005   1.34276  171.503
 4477.00    1.34599   1.34540  170.059
 4478.00    1.35559   1.33784  169.882
 4479.00    1.33439   1.31089   -1.000
 4480.00    1.28169   1.27659  180.139
 4481.00    1.24226   1.25812   -1.000
 4482.00    1.23621   1.26620   -1.000
 4483.00    1.26303   1.29808   -1.000
 4484.00    1.31235   1.33652   -1.000
 4485.00    1.36234   1.36320  172.266
 4486.00    1.38081   1.36633  169.939
 4487.00    1.35631   1.34892  171.494
 4488.00    1.30421   1.32279   -1.000
 4489.00    1.27087   1.30622   -1.000
 4490.00    1.29096   1.30893   -1.000
 4491.00    1.31722   1.32716  181.417
 4492.00    1.32891   1.33876  177.032
 4493.00    1.33323   1.32847  175.994
 4494.00    1.30129   1.30908  179.757
 4495.00    1.25840   1.30058   -1.000
 4496.00    1.26089   1.30916   -1.000
 4497.00    1.29621   1.32595   -1.000
 4498.00    1.33321   1.33995  177.062
 4499.00    1.35902   1.34458  173.128
 4500.00    1.34235   1.33803  172.691
 4501.00    1.31897   1.33775   -1.000
 4502.00    1.33472   1.35317   -1.000
 4503.00    1.35232   1.37904   -1.000
 4504.00    1.37143   1.40054   -1.000
 4505.00    1.39612   1.40575  162.006
 4506.00    1.39790   1.39849  163.976
 4507.00    1.38483   1.38849  166.923
 4508.00    1.37484   1.38582  168.005
 4509.00    1.38026   1.38974  167.629
 4510.00    1.39799   1.39403  166.309
 4511.00    1.39202   1.38970  165.942
 4512.00    1.38479   1.37863  168.056
 4513.00    1.37693   1.36861  171.390
 4514.00    1.35945   1.36131  173.825
 4515.00    1.35029   1.35832  174.211
 4516.00    1.34423   1.35807   -1.000
 4517.00    1.34246   1.35458  174.079
 4518.00    1.32475   1.34882   -1.000
 4519.00    1.32327   1.35176   -1.000
 4520.00    1.35537   1.36215  172.383
 4521.00    1.36229   1.36733  170.151
 4522.00    1.34047   1.35927   -1.000
 4523.00    1.32059   1.34251   -1.000
 4524.00    1.31244   1.32976   -1.000
 4525.00    1.29889   1.31838   -1.000
 4526.00    1.27991   1.29874   -1.000
 4527.00    1.27079   1.27314  190.334
 4528.00    1.24757   1.25451  194.753
 4529.00    1.22720   1.25469   -1.000
 4530.00    1.24912   1.26656   -1.000
 4531.00    1.28291   1.28032  190.037
 4532.00    1.29027   1.28012  187.330
 4533.00    1.26054   1.26347  188.368
 4534.00    1.23190   1.24781   -1.000
 4535.00    1.22352   1.25407   -1.000
 4536.00    1.25306   1.28800   -1.000
 4537.00    1.32648   1.33624  180.960
 4538.00    1.36530   1.37396  172.044
 4539.00    1.37373   1.38271  169.548
 4540.00    1.35601   1.37308   -1.000
 4541.00    1.33815   1.36333   -1.000
 4542.00    1.34613   1.36387   -1.000
 4543.00    1.08411   1.36796   -1.000
 4544.00    0.27553   1.36400   -1.000
 4545.00    0.04494   1.35460   -2.000
 4546.00    0.40298   1.34861   -2.000
 4547.00    1.04213   1.34087   -2.000
 4548.00    0.62748   1.32326   -1.000
 4549.00    1.00989   1.30597   -1.000
 4550.00    1.33423   1.30902   94.444
 4551.00    1.29600   1.33028   -1.000
 4552.00    1.30495   1.34033   -1.000
 4553.00    1.28053   1.33024   -1.000
 4554.00    1.27168   1.31736   -1.000
 4555.00    1.27682   1.31827   -1.000
 4556.00    1.31152   1.34252   -1.000
 4557.00    1.36470   1.37822   -1.000
 4558.00    1.39198   1.40462  168.039
 4559.00    1.40721   1.41719  166.409
 4560.00    1.40451   1.42236   -1.000
 4561.00    1.39567   1.41957   -1.000
 4562.00    1.38543   1.40636   -1.000
 4563.00    1.35588   1.38594   -1.000
 4564.00    1.35345   1.37044   -1.000
 4565.00    1.36615   1.37101  177.879
 4566.00    1.36586   1.38804   -1.000
 4567.00    1.39028   1.41003   -1.000
 4568.00    1.41616   1.42168  166.638
 4569.00    1.41139   1.41502  166.115
 4570.00    1.39454   1.39445  168.799
 4571.00    1.36310   1.37232  173.250
 4572.00    1.34143   1.36756   -1.000
 4573.00    1.36607   1.38844   -1.000
 4574.00    1.39950   1.41234  168.750
 4575.00    1.40623   1.42126   -1.000
 4576.00    1.40106   1.41864   -1.000
 4577.00    1.40000   1.41102  168.461
 4578.00    1.37947   1.39644   -1.000
 4579.00    1.34958   1.37416   -1.000
 4580.00    1.32711   1.35398   -1.000
 4581.00    1.31999   1.34550   -1.000
 4582.00    1.33716   1.34909  179.587
 4583.00    1.34566   1.35620  177.319
 4584.00    1.35393   1.36053  176.600
 4585.00    1.36853   1.36214  177.378
 4586.00    1.36172   1.36881  177.471
 4587.00    1.36735   1.38415   -1.000
 4588.00    1.38927   1.40208  169.789
 4589.00    1.39376   1.41104   -1.000
 4590.00    1.39288   1.40945   -1.000
 4591.00    1.38625   1.39904  170.645
 4592.00    1.36903   1.38477   -1.000
 4593.00    1.34171   1.38014   -1.000
 4594.00    1.35077   1.38484   -1.000
 4595.00    1.36909   1.39205   -1.000
 4596.00    1.38227   1.39969   -1.000
 4597.00    1.38609   1.40557   -1.000
 4598.00    1.39001   1.40629   -1.000
 4599.00    1.38183   1.40127   -1.000
 4600.00    1.37727   1.39179   -1.000
 4601.00    1.37548   1.38348  175.204
 4602.00    1.36478   1.38260   -1.000
 4603.00    1.37859   1.38758  172.973
 4604.00    1.38502   1.39493  171.668
 4605.00    1.39489   1.40055  171.887
 4606.00    1.39545   1.40728  171.111
 4607.00    1.41219   1.42039  168.733
 4608.00    1.42917   1.43650  165.249
 4609.00    1.45514   1.45250  162.156
 4610.00    1.45740   1.45519  161.068
 4611.00    1.44644   1.44362  162.331
 4612.00    1.42779   1.43408  164.515
 4613.00    1.40392   1.42991   -1.000
 4614.00    1.41873   1.43240  166.601
 4615.00    1.43968   1.43694  165.503
 4616.00    1.42661   1.43841  164.233
 4617.00    1.41710   1.43703   -1.000
 4618.00    1.43416   1.43449  165.326
 4619.00    1.44565   1.43437  166.163
 4620.00    1.44275   1.44152  165.530
 4621.00    1.45206   1.45418  163.580
 4622.00    1.45165   1.46202  161.658
 4623.00    1.44402   1.45912  161.855
 4624.00    1.44345   1.45144  162.255
 4625.00    1.44002   1.44686  162.904
 4626.00    1.42703   1.44262   -1.000
 4627.00    1.43540   1.44306  164.357
 4628.00    1.44741   1.44519  164.578
 4629.00    1.44086   1.44538  165.496
 4630.00    1.43936   1.44852  165.477
 4631.00    1.44137   1.45626   -1.000
 4632.00    1.43303   1.45825   -1.000
 4633.00    1.42670   1.45097   -1.000
 4634.00    1.42659   1.44332   -1.000
 4635.00    1.42232   1.44093   -1.000
 4636.00    1.41812   1.43763   -1.000
 4637.00    1.41682   1.42945  169.831
 4638.00    1.41923   1.42227  171.689
 4639.00    1.41457   1.42219  172.051
 4640.00    1.42070   1.43278  171.000
 4641.00    1.44199   1.44836  167.606
 4642.00    1.45470   1.46122  163.952
 4643.00    1.45599   1.46305  162.605
 4644.00    1.44442   1.44988  164.061
 4645.00    1.41995   1.43048  167.671
 4646.00    1.39197   1.40669   -1.000
 4647.00    1.37689   1.39317   -1.000
 4648.00    1.38534   1.40206   -1.000
 4649.00    1.40607   1.42403   -1.000
 4650.00    1.42165   1.44441   -1.000
 4651.00    1.44888   1.45446  166.732
 4652.00    1.44936   1.45386  166.515
 4653.00    1.42856   1.44720   -1.000
 4654.00    1.39833   1.43553   -1.000
 4655.00    1.37603   1.42765   -1.000
 4656.00    1.37822   1.43112   -1.000
 4657.00    1.42261   1.44870   -1.000
 4658.00    1.46810   1.47917  165.077
 4659.00    1.50698   1.50812  159.438
 4660.00    1.52685   1.51856  156.931
 4661.00    1.48804   1.50928   -1.000
 4662.00    1.47726   1.49132  160.095
 4663.00    1.45072   1.47414   -1.000
 4664.00    1.44227   1.45780  166.313
 4665.00    1.42703   1.43811  167.216
 4666.00    1.39600   1.40965  171.294
 4667.00    1.35724   1.38091   -1.000
 4668.00    1.33940   1.37356   -1.000
 4669.00    1.35574   1.39378   -1.000
 4670.00    1.40253   1.42588   -1.000
 4671.00    1.44047   1.45132  169.279
 4672.00    1.46426   1.46207  165.813
 4673.00    1.46069   1.46307  165.296
 4674.00    1.45029   1.46552   -1.000
 4675.00    1.46225   1.47382  164.641
 4676.00    1.48765   1.48329  162.309
 4677.00    1.49301   1.47933  160.748
 4678.00    1.48976   1.46197   -1.000
 4679.00    1.45448   1.44274  166.029
 4680.00    1.42207   1.42819  169.147
 4681.00    1.40703   1.42223   -1.000
 4682.00    1.42306   1.42706  172.148
 4683.00    1.44814   1.44091  169.206
 4684.00    1.45921   1.45469  165.401
 4685.00    1.47604   1.46017  164.081
 4686.00    1.45834   1.45933  164.630
 4687.00    1.44119   1.45718   -1.000
 4688.00    1.45592   1.45706  165.639
 4689.00    1.45010   1.45884  165.603
 4690.00    1.44716   1.45949  165.945
 4691.00    1.45565   1.45773  166.968
 4692.00    1.47092   1.46075  166.626
 4693.00    1.49543   1.46897   -1.000
 4694.00    1.51090   1.47604   -1.000
 4695.00    1.52342   1.48149   -1.000
 4696.00    1.52376   1.48392   -1.000
 4697.00    1.50550   1.47400   -1.000
 4698.00    1.48579   1.45446   -1.000
 4699.00    1.46165   1.43766   -1.000
 4700.00    1.44512   1.42757  168.975
 4701.00    1.46312   1.41984   -1.000
 4702.00    1.44339   1.40906   -1.000
 4703.00    1.41874   1.40462  172.560
 4704.00    1.44387   1.41763   -1.000
 4705.00    1.46004   1.43446   -1.000
 4706.00    1.44685   1.43607  167.791
 4707.00    1.43364   1.42383  170.646
 4708.00    1.41674   1.41293  173.646
 4709.00    1.40693   1.41739  174.529
 4710.00    1.42269   1.43412  172.320
 4711.00    1.45738   1.45276  167.143
 4712.00    1.48613   1.46482   -1.000
 4713.00    1.49175   1.46130   -1.000
 4714.00    1.48501   1.45144   -1.000
 4715.00    1.47570   1.45276   -1.000
 4716.00    1.46163   1.46864  166.170
 4717.00    1.47420   1.48875  162.745
 4718.00    1.50368   1.50148  160.199
 4719.00    1.52167   1.50820  159.423
 4720.00    1.50909   1.51026  158.879
 4721.00    1.49499   1.50793  158.845
 4722.00    1.48594   1.50393   -1.000
 4723.00    1.49396   1.50577  160.798
 4724.00    1.50385   1.51248  159.538
 4725.00    1.52572   1.51260  158.301
 4726.00    1.51077   1.50007  159.596
 4727.00    1.44840   1.47531   -1.000
 4728.00    1.43295   1.45118   -1.000
 4729.00    1.44731   1.44392  172.420
 4730.00    1.44870   1.44707  171.272
 4731.00    1.45860   1.45406  169.581
 4732.00    1.49140   1.46667   -1.000
 4733.00    1.49111   1.47803  166.165
 4734.00    1.47772   1.48152  164.886
 4735.00    1.48425   1.47937  163.976
 4736.00    1.47774   1.47581  163.774
 4737.00    1.45071   1.47445   -1.000
 4738.00    1.46454   1.47979  164.752
 4739.00    1.49462   1.48904  163.093
 4740.00    1.49270   1.49212  163.508
 4741.00    1.49166   1.49072  164.306
 4742.00    1.49528   1.49528  164.074
 4743.00    1.51397   1.50345  162.556
 4744.00    1.51554   1.50928  161.316
 4745.00    1.49007   1.51231   -1.000
 4746.00    1.50029   1.51528  161.466
 4747.00    1.52700   1.52448  160.078
 4748.00    1.52865   1.53372  158.777
 4749.00    1.52564   1.53701  158.658
 4750.00    1.53484   1.53978  158.891
 4751.00    1.53216   1.53964  159.266
 4752.00    1.51693   1.53204  160.650
 4753.00    1.50852   1.51810  162.383
 4754.00    1.50499   1.50716  163.656
 4755.00    1.50354   1.50521  164.394
 4756.00    1.49235   1.50867   -1.000
 4757.00    1.47626   1.51418   -1.000
 4758.00    1.47627   1.52064   -1.000
 4759.00    1.48944   1.52535   -1.000
 4760.00    1.49593   1.52439   -1.000
 4761.00    1.48146   1.51307   -1.000
 4762.00    1.45960   1.49195   -1.000
 4763.00    1.42101   1.47205   -1.000
 4764.00    1.41246   1.46434   -1.000
 4765.00    1.42436   1.46423   -1.000
 4766.00    1.42836   1.46908   -1.000
 4767.00    1.45232   1.48182   -1.000
 4768.00    1.47937   1.50415   -1.000
 4769.00    1.50348   1.52575   -1.000
 4770.00    1.50844   1.53452   -1.000
 4771.00    1.49663   1.52793   -1.000
 4772.00    1.48644   1.51957   -1.000
 4773.00    1.50076   1.52337   -1.000
 4774.00    1.53887   1.53921  163.782
 4775.00    1.52758   1.55207   -1.000
 4776.00    1.50854   1.55469   -1.000
 4777.00    1.51891   1.55199   -1.000
 4778.00    1.53791   1.54686  161.061
 4779.00    1.52176   1.53928   -1.000
 4780.00    1.48958   1.53232   -1.000
 4781.00    1.48322   1.52960   -1.000
 4782.00    1.49004   1.52433   -1.000
 4783.00    1.49051   1.51583   -1.000
 4784.00    1.48951   1.51136   -1.000
 4785.00    1.48679   1.51009   -1.000
 4786.00    1.47735   1.50745   -1.000
 4787.00    1.47691   1.50488   -1.000
 4788.00    1.48002   1.50634   -1.000
 4789.00    1.48130   1.51133   -1.000
 4790.00    1.48654   1.51987   -1.000
 4791.00    1.48492   1.53485   -1.000
 4792.00    1.49659   1.55313   -1.000
 4793.00    1.52457   1.57002   -1.000
 4794.00    1.54929   1.58641   -1.000
 4795.00    1.55879   1.59557   -1.000
 4796.00    1.54928   1.59172   -1.000
 4797.00    1.53452   1.57848   -1.000
 4798.00    1.51628   1.56171   -1.000
 4799.00    1.49121   1.54951   -1.000
 4800.00    1.49433   1.55125   -1.000
 4801.00    1.52729   1.56581   -1.000
 4802.00    1.54800   1.58265   -1.000
 4803.00    1.54879   1.58848   -1.000
 4804.00    1.53443   1.57713   -1.000
 4805.00    1.51411   1.56268   -1.000
 4806.00    1.51621   1.55472   -1.000
 4807.00    1.52290   1.55292   -1.000
 4808.00    1.50162   1.55645   -1.000
 4809.00    1.50571   1.56383   -1.000
 4810.00    1.52522   1.57067   -1.000
 4811.00    1.52768   1.57563   -1.000
 4812.00    1.52637   1.57892   -1.000
 4813.00    1.53784   1.58306   -1.000
 4814.00    1.53871   1.58931   -1.000
 4815.00    1.53275   1.59650   -1.000
 4816.00    1.53586   1.60410   -1.000
 4817.00    1.54236   1.60959   -1.000
 4818.00    1.54737   1.61130   -1.000
 4819.00    1.56619   1.61128   -1.000
 4820.00    1.56971   1.61041   -1.000
 4821.00    1.55595   1.60267   -1.000
 4822.00    1.53707   1.58294   -1.000
 4823.00    1.52090   1.55643   -1.000
 4824.00    1.50136   1.54204   -1.000
 4825.00    1.51641   1.55173   -1.000
 4826.00    1.53272   1.57085   -1.000
 4827.00    1.54043   1.58029   -1.000
 4828.00    1.55463   1.57706   -1.000
 4829.00    1.54094   1.56987   -1.000
 4830.00    1.53387   1.56704   -1.000
 4831.00    1.53391   1.56125   -1.000
 4832.00    1.51286   1.55370   -1.000
 4833.00    1.51210   1.55614   -1.000
 4834.00    1.53815   1.56601   -1.000
 4835.00    1.56125   1.57820   -1.000
 4836.00    1.56340   1.58240   -1.000
 4837.00    1.56214   1.58050   -1.000
 4838.00    1.53789   1.57467   -1.000
 4839.00    1.51446   1.56323   -1.000
 4840.00    1.49795   1.55345   -1.000
 4841.00    1.51134   1.55036   -1.000
 4842.00    1.53270   1.55126   -1.000
 4843.00    1.53079   1.55276   -1.000
 4844.00    1.54929   1.55727  163.150
 4845.00    1.57112   1.56965  161.268
 4846.00    1.56992   1.58209  159.112
 4847.00    1.55119   1.57799   -1.000
 4848.00    1.53523   1.56398   -1.000
 4849.00    1.52248   1.55858   -1.000
 4850.00    1.51865   1.56276   -1.000
 4851.00    1.52266   1.56609   -1.000
 4852.00    1.51055   1.56272   -1.000
 4853.00    1.49916   1.54917   -1.000
 4854.00    1.48274   1.52010   -1.000
 4855.00    1.45389   1.48544   -1.000
 4856.00    1.43419   1.46538   -1.000
 4857.00    1.43402   1.45530   -1.000
 4858.00    1.41407   1.42485  172.478
 4859.00    1.30715   1.33379   -1.000
 4860.00    1.12466   1.19819   -1.000
 4861.00    1.00536   1.10434   -1.000
 4862.00    1.08024   1.11727   -1.000
 4863.00    1.27066   1.23283   -1.000
 4864.00    1.38985   1.35156   -1.000
 4865.00    1.41543   1.42993   -1.000
 4866.00    1.42657   1.47346   -1.000
 4867.00    1.45603   1.50198   -1.000
 4868.00    1.45874   1.51988   -1.000
 4869.00    1.46640   1.52016   -1.000
 4870.00    1.44305   1.49569   -1.000
 4871.00    1.42941   1.45820   -1.000
 4872.00    1.41602   1.44153   -1.000
 4873.00    1.44316   1.46841   -1.000
 4874.00    1.45429   1.51142   -1.000
 4875.00    1.46605   1.53905   -1.000
 4876.00    1.48273   1.54689   -1.000
 4877.00    1.48696   1.54850   -1.000
 4878.00    1.49250   1.55836   -1.000
 4879.00    1.50612   1.57709   -1.000
 4880.00    1.53805   1.59404   -1.000
 4881.00    1.52435   1.59316   -1.000
 4882.00    1.49029   1.57803   -1.000
 4883.00    1.48863   1.57120   -1.000
 4884.00    1.49248   1.56614   -1.000
 4885.00    1.47779   1.55627   -1.000
 4886.00    1.48002   1.54700   -1.000
 4887.00    1.47897   1.54469   -1.000
 4888.00    1.48387   1.54357   -1.000
 4889.00    1.48380   1.53023   -1.000
 4890.00    1.46306   1.50446   -1.000
 4891.00    1.45550   1.48851   -1.000
 4892.00    1.49380   1.51146   -1.000
 4893.00    1.55042   1.56956   -1.000
 4894.00    1.58776   1.62747   -1.000
 4895.00    1.61775   1.66052   -1.000
 4896.00    1.64509   1.67300   -1.000
 4897.00    1.64843   1.67276   -1.000
 4898.00    1.62596   1.66381   -1.000
 4899.00    1.59884   1.64692   -1.000
 4900.00    1.56663   1.63192   -1.000
 4901.00    1.55011   1.62551   -1.000
 4902.00    1.56554   1.62104   -1.000
 4903.00    1.57091   1.61023   -1.000
 4904.00    1.57259   1.60722   -1.000
 4905.00    1.58602   1.62789   -1.000
 4906.00    1.60245   1.65296   -1.000
 4907.00    1.61764   1.65488   -1.000
 4908.00    1.61165   1.63797   -1.000
 4909.00    1.56365   1.61274   -1.000
 4910.00    1.52919   1.59163   -1.000
 4911.00    1.51819   1.58566   -1.000
 4912.00    1.52885   1.59910   -1.000
 4913.00    1.56316   1.61870   -1.000
 4914.00    1.59507   1.63482   -1.000
 4915.00    1.61584   1.64760   -1.000
 4916.00    1.62814   1.64624   -1.000
 4917.00    1.59043   1.61548   -1.000
 4918.00    1.51391   1.55625   -1.000
 4919.00    1.46898   1.49212   -1.000
 4920.00    1.43863   1.45327  181.531
 4921.00    1.43667   1.46229   -1.000
 4922.00    1.48631   1.50404   -1.000
 4923.00    1.51250   1.54053   -1.000
 4924.00    1.53368   1.55597   -1.000
 4925.00    1.52606   1.57172   -1.000
 4926.00    1.56783   1.60041   -1.000
 4927.00    1.59954   1.63198   -1.000
 4928.00    1.60771   1.65631   -1.000
 4929.00    1.62828   1.67222   -1.000
 4930.00    1.64359   1.67954   -1.000
 4931.00    1.64079   1.67171   -1.000
 4932.00    1.60746   1.64348   -1.000
 4933.00    1.54932   1.60398   -1.000
 4934.00    1.52679   1.57959   -1.000
 4935.00    1.54158   1.58601   -1.000
 4936.00    1.56160   1.60075   -1.000
 4937.00    1.54511   1.58885   -1.000
 4938.00    1.52617   1.55632   -1.000
 4939.00    1.52245   1.54279   -1.000
 4940.00    1.53133   1.56518   -1.000
 4941.00    1.57236   1.61197   -1.000
 4942.00    1.61046   1.65424   -1.000
 4943.00    1.62326   1.67302   -1.000
 4944.00    1.62925   1.67572   -1.000
 4945.00    1.62039   1.66844   -1.000
 4946.00    1.60826   1.66253   -1.000
 4947.00    1.62119   1.66605   -1.000
 4948.00    1.64368   1.68044   -1.000
 4949.00    1.65709   1.69453   -1.000
 4950.00    1.66128   1.69830   -1.000
 4951.00    1.65436   1.69513   -1.000
 4952.00    1.64703   1.68882   -1.000
 4953.00    1.64859   1.68093   -1.000
 4954.00    1.64528   1.66968   -1.000
 4955.00    1.61959   1.63988   -1.000
 4956.00    1.55605   1.57740   -1.000
 4957.00    1.49574   1.51131   -1.000
 4958.00    1.47479   1.50005   -1.000
 4959.00    1.53296   1.55133   -1.000
 4960.00    1.58735   1.62021   -1.000
 4961.00    1.59914   1.66196   -1.000
 4962.00    1.60420   1.67207   -1.000
 4963.00    1.60273   1.66838   -1.000
 4964.00    1.61032   1.65511   -1.000
 4965.00    1.58153   1.63403   -1.000
 4966.00    1.55798   1.61587   -1.000
 4967.00    1.55664   1.61051   -1.000
 4968.00    1.57836   1.61237   -1.000
 4969.00    1.59312   1.61912   -1.000
 4970.00    1.61430   1.63178   -1.000
 4971.00    1.61743   1.64754   -1.000
 4972.00    1.61557   1.66234   -1.000
 4973.00    1.64394   1.67461   -1.000
 4974.00    1.65434   1.67968   -1.000
 4975.00    1.64572   1.67664   -1.000
 4976.00    1.64065   1.66953   -1.000
 4977.00    1.62972   1.65672   -1.000
 4978.00    1.61257   1.64257   -1.000
 4979.00    1.57109   1.63068   -1.000
 4980.00    1.54439   1.61128   -1.000
 4981.00    1.51527   1.57633   -1.000
 4982.00    1.49004   1.53304   -1.000
 4983.00    1.49670   1.50499  182.029
 4984.00    1.51046   1.51152  181.126
 4985.00    1.52069   1.54488   -1.000
 4986.00    1.54305   1.58573   -1.000
 4987.00    1.56669   1.62256   -1.000
 4988.00    1.57274   1.64469   -1.000
 4989.00    1.57019   1.63938   -1.000
 4990.00    1.56780   1.62100   -1.000
 4991.00    1.56712   1.60971   -1.000
 4992.00    1.57703   1.61463   -1.000
 4993.00    1.59191   1.62524   -1.000
 4994.00    1.60211   1.63227   -1.000
 4995.00    1.60153   1.64052   -1.000
 4996.00    1.60421   1.65119   -1.000
 4997.00    1.61192   1.65321   -1.000
 4998.00    1.59884   1.63558   -1.000
 4999.00    1.57059   1.59789   -1.000
 5000.00    1.54214   1.56358   -1.000
 5001.00    1.54331   1.56118   -1.000
 5002.00    1.54916   1.57493   -1.000
 5003.00    1.55481   1.58885   -1.000
 5004.00    1.55362   1.58684   -1.000
 5005.00    1.52771   1.56148   -1.000
 5006.00    1.51260   1.53232   -1.000
 5007.00    1.53147   1.53525  177.197
 5008.00    1.55945   1.57126  172.486
 5009.00    1.60452   1.60604  167.929
 5010.00    1.60340   1.61720  167.065
 5011.00    1.55860   1.59731   -1.000
 5012.00    1.50790   1.56068   -1.000
 5013.00    1.48530   1.52832   -1.000
 5014.00    1.47366   1.51742   -1.000
 5015.00    1.48645   1.52831   -1.000
 5016.00    1.50660   1.54523   -1.000
 5017.00    1.52805   1.55319   -1.000
 5018.00    1.52934   1.55411   -1.000
 5019.00    1.54472   1.56704   -1.000
 5020.00    1.56411   1.58726   -1.000
 5021.00    1.57565   1.59536   -1.000
 5022.00    1.57042   1.59320   -1.000
 5023.00    1.55961   1.59546   -1.000
 5024.00    1.57236   1.61452   -1.000
 5025.00    1.60752   1.63433   -1.000
 5026.00    1.61557   1.63421   -1.000
 5027.00    1.57847   1.62292   -1.000
 5028.00    1.59785   1.61929   -1.000
 5029.00    1.61585   1.62813  168.362
 5030.00    1.61670   1.64549   -1.000
 5031.00    1.62378   1.66509   -1.000
 5032.00    1.64496   1.68343   -1.000
 5033.00    1.65741   1.69109   -1.000
 5034.00    1.63346   1.67568   -1.000
 5035.00    1.59127   1.64035   -1.000
 5036.00    1.57574   1.61101   -1.000
 5037.00    1.57608   1.60368   -1.000
 5038.00    1.55332   1.60077   -1.000
 5039.00    1.52438   1.57250   -1.000
 5040.00    1.47704   1.52323   -1.000
 5041.00    1.43846   1.49504   -1.000
 5042.00    1.46749   1.51911   -1.000
 5043.00    1.56114   1.58174   -1.000
 5044.00    1.59686   1.64613   -1.000
 5045.00    1.03291   1.68832   -1.000
 5046.00    0.11253   1.70775   -1.000
 5047.00    0.04279   1.70144   -1.000
 5048.00    0.55772   1.67073   -1.000
 5049.00    1.51928   1.62995   -1.000
 5050.00    1.58813   1.60127   -1.000
 5051.00    1.57189   1.59390   -1.000
 5052.00    1.59473   1.61056   -1.000
 5053.00    1.62913   1.64481  166.812
 5054.00    1.66933   1.67924  162.828
 5055.00    1.67830   1.69616   -1.000
 5056.00    1.69288   1.70408  158.915
 5057.00    1.70993   1.70899  158.598
 5058.00    1.70912   1.71281  158.914
 5059.00    1.68742   1.71772   -1.000
 5060.00    1.69156   1.72201   -1.000
 5061.00    1.70771   1.72636   -1.000
 5062.00    1.68945   1.72345   -1.000
 5063.00    1.66653   1.69848   -1.000
 5064.00    1.61788   1.65912   -1.000
 5065.00    1.58767   1.63205   -1.000
 5066.00    1.60807   1.62934   -1.000
 5067.00    1.62540   1.64000  170.068
 5068.00    1.61888   1.64613   -1.000
 5069.00    1.63193   1.65018   -1.000
 5070.00    1.64559   1.65869  166.498
 5071.00    1.64825   1.66226  165.889
 5072.00    1.65325   1.65349  167.309
 5073.00    1.65017   1.64648  167.930
 5074.00    1.63510   1.65127  165.906
 5075.00    1.64994   1.65999  164.855
 5076.00    1.66872   1.66320  164.687
 5077.00    1.65401   1.65367  164.912
 5078.00    1.61282   1.62496  167.409
 5079.00    1.56927   1.58506  173.835
 5080.00    1.53781   1.56520   -1.000
 5081.00    1.54049   1.57503   -1.000
 5082.00    1.57751   1.59254  177.572
 5083.00    1.60248   1.60673  174.068
 5084.00    1.63028   1.62493  171.578
 5085.00    1.65901   1.65225  168.361
 5086.00    1.66708   1.67541  165.830
 5087.00    1.68578   1.68588  164.896
 5088.00    1.68919   1.68849  164.577
 5089.00    1.68408   1.69176  163.651
 5090.00    1.69468   1.69619  162.511
 5091.00    1.69093   1.70199  161.636
 5092.00    1.70191   1.71369  160.589
 5093.00    1.73506   1.72746  158.780
 5094.00    1.71679   1.73125  157.947
 5095.00    1.71833   1.71642  159.867
 5096.00    1.69420   1.68567  163.304
 5097.00    1.66941   1.65339  166.926
 5098.00    1.64301   1.62801  170.884
 5099.00    1.60641   1.61960  173.837
 5100.00    1.62264   1.63740  173.288
 5101.00    1.66786   1.66924  168.702
 5102.00    1.68604   1.69164  164.473
 5103.00    1.69186   1.69372  163.635
 5104.00    1.68442   1.68564  164.922
 5105.00    1.65691   1.67299  167.128
 5106.00    1.64048   1.65305  169.226
 5107.00    1.61829   1.63049  171.307
 5108.00    1.60790   1.61976  172.977
 5109.00    1.62606   1.62115  172.453
 5110.00    1.62700   1.63259  171.290
 5111.00    1.63611   1.65439   -1.000
 5112.00    1.66587   1.68071  167.387
 5113.00    1.68440   1.69917  165.352
 5114.00    1.70067   1.71158  163.442
 5115.00    1.70622   1.72195  162.108
 5116.00    1.71862   1.73284  161.091
 5117.00    1.73278   1.74087  159.425
 5118.00    1.72050   1.74306   -1.000
 5119.00    1.72687   1.73708  159.322
 5120.00    1.72406   1.72198  161.536
 5121.00    1.70574   1.70101  164.028
 5122.00    1.67298   1.67652  167.047
 5123.00    1.62238   1.64916   -1.000
 5124.00    1.60769   1.62851   -1.000
 5125.00    1.61952   1.62618  176.498
 5126.00    1.62084   1.63356  174.964
 5127.00    1.61527   1.63807   -1.000
 5128.00    1.61473   1.63736   -1.000
 5129.00    1.61704   1.63895   -1.000
 5130.00    1.63229   1.64796  172.934
 5131.00    1.66119   1.66429  170.453
 5132.00    1.67534   1.68061  167.818
 5133.00    1.68269   1.69191  166.468
 5134.00    1.71134   1.69930  164.893
 5135.00    1.72753   1.70351   -1.000
 5136.00    1.72141   1.69820   -1.000
 5137.00    1.69398   1.67626   -1.000
 5138.00    1.63823   1.64833  171.075
 5139.00    1.62509   1.63229  173.255
 5140.00    1.62325   1.63481  173.036
 5141.00    1.62067   1.64368   -1.000
 5142.00    1.61870   1.64530   -1.000
 5143.00    1.61875   1.64728   -1.000
 5144.00    1.63216   1.65935   -1.000
 5145.00    1.66535   1.67020  171.673
 5146.00    1.66854   1.66456  171.606
 5147.00    1.66704   1.65400  173.076
 5148.00    1.66309   1.65689  172.947
 5149.00    1.67746   1.66667  170.938
 5150.00    1.66817   1.66237  170.624
 5151.00    1.62897   1.64648  173.068
 5152.00    1.61458   1.63437   -1.000
 5153.00    1.62531   1.63335  176.557
 5154.00    1.64204   1.64160  175.085
 5155.00    1.67978   1.66322  171.413
 5156.00    1.71019   1.69619  167.008
 5157.00    1.74425   1.72479   -1.000
 5158.00    1.74982   1.74151  160.338
 5159.00    1.75219   1.74764  159.457
 5160.00    1.76264   1.74682  159.587
 5161.00    1.75557   1.73814  160.219
 5162.00    1.73015   1.72120  161.329
 5163.00    1.72555   1.69961   -1.000
 5164.00    1.70822   1.66813   -1.000
 5165.00    1.62563   1.60297   -1.000
 5166.00    1.50276   1.49672  189.988
 5167.00    1.40341   1.39832  208.814
 5168.00    1.37258   1.37509  218.937
 5169.00    1.42266   1.42855  212.057
 5170.00    1.48792   1.47443  201.318
 5171.00    1.46104   1.44518   -1.000
 5172.00    1.37635   1.38493  215.826
 5173.00    1.36021   1.37875   -1.000
 5174.00    1.46220   1.46480  212.386
 5175.00    1.58690   1.58138  189.874
 5176.00    1.67856   1.65413   -1.000
 5177.00    1.70153   1.68381  170.721
 5178.00    1.70417   1.69103  169.264
 5179.00    1.70355   1.68679  169.368
 5180.00    1.67381   1.65999  171.935
 5181.00    1.62055   1.59040   -1.000
 5182.00    1.50565   1.48302   -1.000
 5183.00    1.39520   1.38907  215.816
 5184.00    1.37371   1.37832  227.019
 5185.00    1.47220   1.46620  212.162
 5186.00    1.57670   1.58186  188.900
 5187.00    1.65966   1.65394  174.843
 5188.00    1.68161   1.67530  170.526
 5189.00    1.68025   1.68147  169.343
 5190.00    1.67857   1.67700  169.148
 5191.00    1.66053   1.64853  171.754
 5192.00    1.62357   1.61487  177.278
 5193.00    1.61239   1.60706  180.951
 5194.00    1.63124   1.62313  178.937
 5195.00    1.64934   1.64408  175.862
 5196.00    1.67209   1.66418  173.293
 5197.00    1.70903   1.68813   -1.000
 5198.00    1.75855   1.71348   -1.000
 5199.00    1.81228   1.73272   -1.000
 5200.00    1.84480   1.74079   -1.000
 5201.00    1.84114   1.73560   -1.000
 5202.00    1.80165   1.71342   -1.000
 5203.00    1.73660   1.67542   -1.000
 5204.00    1.66999   1.62541   -1.000
 5205.00    1.63004   1.58093   -1.000
 5206.00    1.61585   1.55906   -1.000
 5207.00    1.60588   1.55740   -1.000
 5208.00    1.58853   1.55825   -1.000
 5209.00    1.59982   1.56777   -1.000
 5210.00    1.62806   1.60574   -1.000
 5211.00    1.67247   1.66539  175.006
 5212.00    1.73849   1.72272  167.933
 5213.00    1.77141   1.75610  161.960
 5214.00    1.77649   1.75206   -1.000
 5215.00    1.75248   1.72310   -1.000
 5216.00    1.72334   1.69860   -1.000
 5217.00    1.72193   1.70337   -1.000
 5218.00    1.74598   1.73553  165.015
 5219.00    1.78372   1.77169  161.534
 5220.00    1.80475   1.79542  159.370
 5221.00    1.81304   1.80631  158.315
 5222.00    1.81594   1.80169  158.200
 5223.00    1.79724   1.77843   -1.000
 5224.00    1.72437   1.73338  166.294
 5225.00    1.66467   1.66494  173.434
 5226.00    1.61994   1.60097   -1.000
 5227.00    1.61483   1.58537   -1.000
 5228.00    1.64940   1.63179   -1.000
 5229.00    1.72557   1.70603   -1.000
 5230.00    1.77669   1.75319   -1.000
 5231.00    1.80037   1.75573   -1.000
 5232.00    1.77731   1.72999   -1.000
 5233.00    1.75935   1.70133   -1.000
 5234.00    1.74160   1.70105   -1.000
 5235.00    1.73827   1.73311  165.591
 5236.00    1.77131   1.77547  161.580
 5237.00    1.80799   1.80868  158.094
 5238.00    1.81879   1.82154  156.727
 5239.00    1.82398   1.82023  156.788
 5240.00    1.83402   1.81649  157.178
 5241.00    1.83790   1.81228   -1.000
 5242.00    1.83908   1.80864   -1.000
 5243.00    1.82646   1.81153  156.188
 5244.00    1.83912   1.81966   -1.000
 5245.00    1.83036   1.81656  156.209
 5246.00    1.80440   1.79147  159.865
 5247.00    1.76599   1.75946  164.760
 5248.00    1.73389   1.74190  167.893
 5249.00    1.74032   1.73918  168.104
 5250.00    1.74682   1.73737  168.559
 5251.00    1.73489   1.73989  169.347
 5252.00    1.74805   1.75163  168.147
 5253.00    1.77333   1.76061  165.848
 5254.00    1.77089   1.76141  164.551
 5255.00    1.76758   1.76585  164.452
 5256.00    1.78486   1.78757  162.703
 5257.00    1.83189   1.82015  158.636
 5258.00    1.87586   1.84244   -1.000
 5259.00    1.87441   1.84156   -1.000
 5260.00    1.83928   1.81497   -1.000
 5261.00    1.77507   1.76639  161.112
 5262.00    1.70596   1.70879  168.249
 5263.00    1.65807   1.65643  175.933
 5264.00    1.61543   1.61618  181.452
 5265.00    1.60378   1.59944  184.470
 5266.00    1.62750   1.60801   -1.000
 5267.00    1.65768   1.62298   -1.000
 5268.00    1.66299   1.60939   -1.000
 5269.00    1.61500   1.56311   -1.000
 5270.00    1.58988   1.53838   -1.000
 5271.00    1.62718   1.58682   -1.000
 5272.00    1.69284   1.67048   -1.000
 5273.00    1.74738   1.71989   -1.000
 5274.00    1.75519   1.73325   -1.000
 5275.00    1.75057   1.73961  165.965
 5276.00    1.78017   1.75964   -1.000
 5277.00    1.81760   1.79789   -1.000
 5278.00    1.87493   1.83499   -1.000
 5279.00    1.89311   1.84480   -1.000
 5280.00    1.84751   1.82058   -1.000
 5281.00    1.80768   1.78338   -1.000
 5282.00    1.79279   1.75079   -1.000
 5283.00    1.76311   1.73426   -1.000
 5284.00    1.72467   1.74905   -1.000
 5285.00    1.79583   1.79422  162.091
 5286.00    1.89088   1.84624   -1.000
 5287.00    1.91255   1.87503   -1.000
 5288.00    1.90652   1.88082   -1.000
 5289.00    1.90004   1.88205  152.909
 5290.00    1.88587   1.88382  152.674
 5291.00    1.87382   1.88147  151.828
 5292.00    1.88273   1.87669  151.756
 5293.00    1.89079   1.87300  152.817
 5294.00    1.87469   1.86435  154.398
 5295.00    1.84149   1.84086  156.853
 5296.00    1.79489   1.79744  161.560
 5297.00    1.75581   1.75064  167.577
 5298.00    1.74332   1.73137  170.974
 5299.00    1.76578   1.74934  168.983
 5300.00    1.79920   1.77973   -1.000
 5301.00    1.81573   1.79922  162.077
 5302.00    1.83794   1.81152   -1.000
 5303.00    1.86163   1.83513   -1.000
 5304.00    1.89322   1.86666   -1.000
 5305.00    1.89818   1.88384  152.020
 5306.00    1.90177   1.88045   -1.000
 5307.00    1.88902   1.86962   -1.000
 5308.00    1.89298   1.86835   -1.000
 5309.00    1.90470   1.88222   -1.000
 5310.00    1.91659   1.89745   -1.000
 5311.00    1.91094   1.90166  151.048
 5312.00    1.91792   1.89629   -1.000
 5313.00    1.90367   1.88678  152.249
 5314.00    1.90767   1.87442   -1.000
 5315.00    1.90172   1.85792   -1.000
 5316.00    1.88720   1.84088   -1.000
 5317.00    1.89449   1.83715   -1.000
 5318.00    1.88474   1.85048   -1.000
 5319.00    1.89530   1.86673   -1.000
 5320.00    1.88380   1.87100  155.038
 5321.00    1.88076   1.86226   -1.000
 5322.00    1.87789   1.84174   -1.000
 5323.00    1.85090   1.81036   -1.000
 5324.00    1.84188   1.78364   -1.000
 5325.00    1.82714   1.76765   -1.000
 5326.00    1.80146   1.73830   -1.000
 5327.00    1.74670   1.67616   -1.000
 5328.00    1.68032   1.62281   -1.000
 5329.00    1.67543   1.63600   -1.000
 5330.00    1.74709   1.71379   -1.000
 5331.00    1.83121   1.79171   -1.000
 5332.00    1.86813   1.82723   -1.000
 5333.00    1.87790   1.83811   -1.000
 5334.00    1.88350   1.85125   -1.000
 5335.00    1.89741   1.86399   -1.000
 5336.00    1.89214   1.86591   -1.000
 5337.00    1.88409   1.85796   -1.000
 5338.00    1.88302   1.84085   -1.000
 5339.00    1.86270   1.80935   -1.000
 5340.00    1.82901   1.77517   -1.000
 5341.00    1.80602   1.76813   -1.000
 5342.00    1.84983   1.79869   -1.000
 5343.00    1.89180   1.83621   -1.000
 5344.00    1.89960   1.85089   -1.000
 5345.00    1.88684   1.84392   -1.000
 5346.00    1.88144   1.82973   -1.000
 5347.00    1.89591   1.81846   -1.000
 5348.00    1.87492   1.81110   -1.000
 5349.00    1.85267   1.80942   -1.000
 5350.00    1.86364   1.82478   -1.000
 5351.00    1.90944   1.85327   -1.000
 5352.00    1.92093   1.87963   -1.000
 5353.00    1.93086   1.89253   -1.000
 5354.00    1.95123   1.90006   -1.000
 5355.00    1.93739   1.91484   -1.000
 5356.00    1.96441   1.92885   -1.000
 5357.00    1.96803   1.93510   -1.000
 5358.00    1.97251   1.93431   -1.000
 5359.00    1.95939   1.93011   -1.000
 5360.00    1.95444   1.92038   -1.000
 5361.00    1.93352   1.90368   -1.000
 5362.00    1.92232   1.88545   -1.000
 5363.00    1.89761   1.86802   -1.000
 5364.00    1.89306   1.85124   -1.000
 5365.00    1.88029   1.84081   -1.000
 5366.00    1.88100   1.84098   -1.000
 5367.00    1.88487   1.84598   -1.000
 5368.00    1.87010   1.83803   -1.000
 5369.00    1.84665   1.80552   -1.000
 5370.00    1.81900   1.75689   -1.000
 5371.00    1.79785   1.72433   -1.000
 5372.00    1.83597   1.74131   -1.000
 5373.00    1.89756   1.80169   -1.000
 5374.00    1.93841   1.86559   -1.000
 5375.00    1.96576   1.90169   -1.000
 5376.00    1.95706   1.91040   -1.000
 5377.00    1.95985   1.90977   -1.000
 5378.00    1.97270   1.91010   -1.000
 5379.00    1.95554   1.90880   -1.000
 5380.00    1.93369   1.90085   -1.000
 5381.00    1.91328   1.88682   -1.000
 5382.00    1.89351   1.87240   -1.000
 5383.00    1.88872   1.86493   -1.000
 5384.00    1.90395   1.87126   -1.000
 5385.00    1.92764   1.89045   -1.000
 5386.00    1.94565   1.91002   -1.000
 5387.00    1.94167   1.91539   -1.000
 5388.00    1.93709   1.90584   -1.000
 5389.00    1.91858   1.88644   -1.000
 5390.00    1.90786   1.86581   -1.000
 5391.00    1.89050   1.85171   -1.000
 5392.00    1.88682   1.84187   -1.000
 5393.00    1.88145   1.83617   -1.000
 5394.00    1.87852   1.83312   -1.000
 5395.00    1.86423   1.81939   -1.000
 5396.00    1.83006   1.78962   -1.000
 5397.00    1.81514   1.76674   -1.000
 5398.00    1.82830   1.77950   -1.000
 5399.00    1.86694   1.82225   -1.000
 5400.00    1.89981   1.85896   -1.000
 5401.00    1.91815   1.87342   -1.000
 5402.00    1.90628   1.86817   -1.000
 5403.00    1.88414   1.83651   -1.000
 5404.00    1.82410   1.78179   -1.000
 5405.00    1.79068   1.73699   -1.000
 5406.00    1.79371   1.73611   -1.000
 5407.00    1.83857   1.77149   -1.000
 5408.00    1.84967   1.80204   -1.000
 5409.00    1.83608   1.80176   -1.000
 5410.00    1.83384   1.79373   -1.000
 5411.00    1.84370   1.81431   -1.000
 5412.00    1.90162   1.85137   -1.000
 5413.00    1.93994   1.87567   -1.000
 5414.00    1.92139   1.87955   -1.000
 5415.00    1.91494   1.88031   -1.000
 5416.00    1.92664   1.89510   -1.000
 5417.00    1.92935   1.91271   -1.000
 5418.00    1.93428   1.91877  153.803
 5419.00    1.92789   1.91560  154.708
 5420.00    1.91732   1.91047  156.220
 5421.00    1.91678   1.90568  156.851
 5422.00    1.92248   1.89806   -1.000
 5423.00    1.91950   1.88333   -1.000
 5424.00    1.90143   1.87152   -1.000
 5425.00    1.90940   1.88090   -1.000
 5426.00    1.93611   1.90967   -1.000
 5427.00    1.95403   1.92231   -1.000
 5428.00    1.93764   1.89008   -1.000
 5429.00    1.88230   1.83809   -1.000
 5430.00    1.86408   1.81478   -1.000
 5431.00    1.87980   1.83105   -1.000
 5432.00    1.90468   1.85007   -1.000
 5433.00    1.87310   1.83936   -1.000
 5434.00    1.85002   1.81421   -1.000
 5435.00    1.85538   1.80997   -1.000
 5436.00    1.87935   1.83788   -1.000
 5437.00    1.89630   1.88419  161.414
 5438.00    1.94564   1.92511   -1.000
 5439.00    1.96444   1.94792  154.014
 5440.00    2.00009   1.95808   -1.000
 5441.00    1.99648   1.96629   -1.000
 5442.00    1.99287   1.97019   -1.000
 5443.00    1.98067   1.96102   -1.000
 5444.00    1.95584   1.92816   -1.000
 5445.00    1.91337   1.87034   -1.000
 5446.00    1.85549   1.81294   -1.000
 5447.00    1.82292   1.79355   -1.000
 5448.00    1.85795   1.82370   -1.000
 5449.00    1.92530   1.87740   -1.000
 5450.00    1.94439   1.91529   -1.000
 5451.00    1.96027   1.92732   -1.000
 5452.00    1.95030   1.91988   -1.000
 5453.00    1.90767   1.89397  157.845
 5454.00    1.87937   1.84925   -1.000
 5455.00    1.83396   1.80613   -1.000
 5456.00    1.84008   1.80433   -1.000
 5457.00    1.91951   1.85334   -1.000
 5458.00    1.96121   1.91121   -1.000
 5459.00    1.97560   1.93748   -1.000
 5460.00    1.95818   1.93235   -1.000
 5461.00    1.93364   1.91020   -1.000
 5462.00    1.92180   1.88420   -1.000
 5463.00    1.91753   1.86989   -1.000
 5464.00    1.91903   1.87712   -1.000
 5465.00    1.92339   1.89745   -1.000
 5466.00    1.93641   1.91536   -1.000
 5467.00    1.94031   1.92598  158.461
 5468.00    1.94600   1.93267  156.757
 5469.00    1.94526   1.93498  156.527
 5470.00    1.94201   1.92995  158.213
 5471.00    1.95170   1.92047   -1.000
 5472.00    1.94203   1.91174   -1.000
 5473.00    1.92531   1.90262   -1.000
 5474.00    1.89913   1.88515  163.002
 5475.00    1.88868   1.85462   -1.000
 5476.00    1.85844   1.82307   -1.000
 5477.00    1.83834   1.81744   -1.000
 5478.00    1.86186   1.84920  168.496
 5479.00    1.91837   1.88774   -1.000
 5480.00    1.93322   1.90020   -1.000
 5481.00    1.91624   1.88941   -1.000
 5482.00    1.89208   1.88338  164.507
 5483.00    1.90954   1.89896  163.589
 5484.00    1.93134   1.92737  160.437
 5485.00    1.92409   1.94538  157.401
 5486.00    1.95528   1.94136  156.628
 5487.00    1.93414   1.92428  158.512
 5488.00    1.92604   1.91061  160.649
 5489.00    1.91315   1.91012  161.318
 5490.00    1.91901   1.92117  161.104
 5491.00    1.93214   1.93184  159.858
 5492.00    1.92372   1.93773  158.783
 5493.00    1.95774   1.93831   -1.000
 5494.00    1.95833   1.93760   -1.000
 5495.00    1.96206   1.93242   -1.000
 5496.00    1.96003   1.91814   -1.000
 5497.00    1.93806   1.90295   -1.000
 5498.00    1.93318   1.90370   -1.000
 5499.00    1.96500   1.91547   -1.000
 5500.00    1.95520   1.91508   -1.000
 5501.00    1.91982   1.89670   -1.000
 5502.00    1.89477   1.88366  162.507
 5503.00    1.92011   1.89252   -1.000
 5504.00    1.94304   1.90202   -1.000
 5505.00    1.93295   1.89291   -1.000
 5506.00    1.91393   1.87371   -1.000
 5507.00    1.90232   1.86903   -1.000
 5508.00    1.92082   1.89100   -1.000
 5509.00    1.94886   1.91785   -1.000
 5510.00    1.94698   1.92256   -1.000
 5511.00    1.92117   1.90500   -1.000
 5512.00    1.89937   1.88001   -1.000
 5513.00    1.88790   1.86377   -1.000
 5514.00    1.88720   1.86578   -1.000
 5515.00    1.91495   1.88229   -1.000
 5516.00    1.95316   1.90528   -1.000
 5517.00    1.97916   1.92990   -1.000
 5518.00    2.02333   1.95164   -1.000
 5519.00    2.02486   1.96547   -1.000
 5520.00    2.01475   1.96850   -1.000
 5521.00    2.02069   1.96551   -1.000
 5522.00    2.00619   1.96546   -1.000
 5523.00    1.99944   1.96740   -1.000
 5524.00    1.98502   1.96373   -1.000
 5525.00    1.95934   1.94538  157.489
 5526.00    1.92697   1.90950   -1.000
 5527.00    1.90509   1.86908   -1.000
 5528.00    1.89297   1.84794   -1.000
 5529.00    1.90614   1.86587   -1.000
 5530.00    1.97085   1.91083   -1.000
 5531.00    1.98347   1.94686   -1.000
 5532.00    1.98101   1.95459   -1.000
 5533.00    1.96448   1.94496   -1.000
 5534.00    1.95784   1.93293   -1.000
 5535.00    1.95088   1.92831   -1.000
 5536.00    1.96461   1.93529   -1.000
 5537.00    1.99393   1.94705   -1.000
 5538.00    1.99358   1.95558   -1.000
 5539.00    2.00568   1.96229   -1.000
 5540.00    2.00900   1.97219   -1.000
 5541.00    2.00665   1.97833   -1.000
 5542.00    2.00808   1.97235   -1.000
 5543.00    2.00223   1.96021   -1.000
 5544.00    1.97974   1.95396   -1.000
 5545.00    1.98111   1.95750   -1.000
 5546.00    2.00168   1.96345   -1.000
 5547.00    2.00852   1.96987   -1.000
 5548.00    2.01759   1.98345   -1.000
 5549.00    2.02994   1.99756   -1.000
 5550.00    2.03572   2.00221   -1.000
 5551.00    2.03600   1.99888   -1.000
 5552.00    2.02858   1.99031   -1.000
 5553.00    2.01317   1.97941   -1.000
 5554.00    2.00259   1.97143   -1.000
 5555.00    2.01598   1.97107   -1.000
 5556.00    2.02442   1.97492   -1.000
 5557.00    2.02238   1.97755   -1.000
 5558.00    2.02091   1.97907   -1.000
 5559.00    2.01396   1.98305   -1.000
 5560.00    2.02200   1.98493   -1.000
 5561.00    2.00949   1.97732   -1.000
 5562.00    1.99248   1.96388   -1.000
 5563.00    1.98023   1.95507   -1.000
 5564.00    1.96770   1.95221   -1.000
 5565.00    1.97701   1.94974   -1.000
 5566.00    1.97657   1.94444   -1.000
 5567.00    1.97474   1.93981   -1.000
 5568.00    1.98290   1.93640   -1.000
 5569.00    1.97418   1.93450   -1.000
 5570.00    1.97776   1.93589   -1.000
 5571.00    1.98119   1.93310   -1.000
 5572.00    1.97672   1.92671   -1.000
 5573.00    1.95801   1.92568   -1.000
 5574.00    1.88153   1.93541   -1.000
 5575.00    1.60215   1.95034   -1.000
 5576.00    1.15004   1.95826   -1.000
 5577.00    1.55410   1.96395   -1.000
 5578.00    3.65967   1.97384   -1.000
 5579.00    6.26194   1.98235   -1.000
 5580.00    8.09883   1.98292   -1.000
 5581.00    6.23933   1.97813   -1.000
 5582.00    3.33872   1.97486   -1.000
 5583.00    2.16923   1.97470   -1.000
 5584.00    2.03600   1.96957   -1.000
 5585.00    2.00567   1.94550   -1.000
 5586.00    1.95832   1.90106   -1.000
 5587.00    1.91031   1.85852   -1.000
 5588.00    1.88277   1.84065   -1.000
 5589.00    1.90125   1.84871   -1.000
 5590.00    1.92134   1.87592   -1.000
 5591.00    1.95067   1.90712   -1.000
 5592.00    1.97460   1.92404   -1.000
 5593.00    1.97007   1.92549   -1.000
 5594.00    1.94948   1.92592   -1.000
 5595.00    1.96134   1.94005   -1.000
 5596.00    1.98242   1.95709   -1.000
 5597.00    1.97725   1.95331   -1.000
 5598.00    1.96220   1.93194   -1.000
 5599.00    1.94269   1.91559   -1.000
 5600.00    1.93605   1.90673   -1.000
 5601.00    1.93095   1.89420   -1.000
 5602.00    1.91886   1.89107   -1.000
 5603.00    1.91435   1.91174  168.247
 5604.00    1.94808   1.95099  164.878
 5605.00    2.00803   1.99131   -1.000
 5606.00    2.03183   2.01685  156.934
 5607.00    2.06010   2.02719   -1.000
 5608.00    2.07675   2.02890   -1.000
 5609.00    2.06175   2.02797   -1.000
 5610.00    2.05121   2.03047   -1.000
 5611.00    2.06554   2.03477   -1.000
 5612.00    2.04982   2.02983   -1.000
 5613.00    2.03138   2.00199   -1.000
 5614.00    1.98714   1.95010   -1.000
 5615.00    1.93969   1.90136   -1.000
 5616.00    1.95082   1.89395   -1.000
 5617.00    1.96546   1.92755   -1.000
 5618.00    1.99262   1.96388   -1.000
 5619.00    2.00264   1.98016   -1.000
 5620.00    2.01711   1.98765   -1.000
 5621.00    2.02362   1.99516   -1.000
 5622.00    2.01584   1.99514   -1.000
 5623.00    2.00563   1.97882   -1.000
 5624.00    1.97510   1.95588   -1.000
 5625.00    1.96021   1.94703  166.133
 5626.00    1.97604   1.96113  164.752
 5627.00    1.99682   1.98346  161.819
 5628.00    2.01921   2.00134   -1.000
 5629.00    2.01822   2.01418  157.879
 5630.00    2.02472   2.02225  156.872
 5631.00    2.05395   2.02419   -1.000
 5632.00    2.05708   2.02002   -1.000
 5633.00    2.04843   2.01485   -1.000
 5634.00    2.03500   2.00904   -1.000
 5635.00    2.03169   1.99871   -1.000
 5636.00    2.04017   1.98794   -1.000
 5637.00    2.02460   1.98098   -1.000
 5638.00    2.00007   1.98050   -1.000
 5639.00    1.99009   1.98385  161.741
 5640.00    1.98976   1.98324  161.646
 5641.00    1.99512   1.97746   -1.000
 5642.00    2.00706   1.97780   -1.000
 5643.00    2.01349   1.98546   -1.000
 5644.00    2.00840   1.99144   -1.000
 5645.00    2.01893   1.99646   -1.000
 5646.00    2.02633   2.00144   -1.000
 5647.00    2.02042   2.00341   -1.000
 5648.00    2.02785   2.00280   -1.000
 5649.00    2.03996   2.00055   -1.000
 5650.00    2.05557   2.00116   -1.000
 5651.00    2.07002   2.00861   -1.000
 5652.00    2.07764   2.01497   -1.000
 5653.00    2.05838   2.01301   -1.000
 5654.00    2.05062   2.00514   -1.000
 5655.00    2.05329   1.99449   -1.000
 5656.00    2.01401   1.97415   -1.000
 5657.00    1.96748   1.94142   -1.000
 5658.00    1.95004   1.91566   -1.000
 5659.00    1.93832   1.91809   -1.000
 5660.00    1.96105   1.94280   -1.000
 5661.00    1.97276   1.96000  164.725
 5662.00    1.96187   1.96265  164.556
 5663.00    1.97542   1.97212  164.645
 5664.00    2.01190   1.99322   -1.000
 5665.00    2.03146   2.00889   -1.000
 5666.00    2.01780   2.00676  160.074
 5667.00    2.00752   1.99416  161.098
 5668.00    1.99432   1.98761  161.972
 5669.00    2.01175   1.99105   -1.000
 5670.00    2.02037   1.99886   -1.000
 5671.00    2.03177   2.00860   -1.000
 5672.00    2.03406   2.02014  158.838
 5673.00    2.06815   2.03034   -1.000
 5674.00    2.06888   2.03471   -1.000
 5675.00    2.03791   2.03332  156.184
 5676.00    2.07170   2.03333   -1.000
 5677.00    2.06970   2.03666   -1.000
 5678.00    2.06033   2.03704   -1.000
 5679.00    2.05014   2.03073   -1.000
 5680.00    2.03669   2.01982   -1.000
 5681.00    2.02321   2.00370   -1.000
 5682.00    2.01106   1.98422   -1.000
 5683.00    2.01449   1.97256   -1.000
 5684.00    2.01802   1.97751   -1.000
 5685.00    2.01626   1.99002   -1.000
 5686.00    2.01693   1.99394   -1.000
 5687.00    2.02885   1.98660   -1.000
 5688.00    2.02594   1.97940   -1.000
 5689.00    2.00109   1.98246   -1.000
 5690.00    2.02944   1.99861   -1.000
 5691.00    2.07370   2.01934   -1.000
 5692.00    2.08314   2.03484   -1.000
 5693.00    2.06828   2.04154   -1.000
 5694.00    2.07256   2.04209   -1.000
 5695.00    2.08890   2.04043   -1.000
 5696.00    2.05994   2.03701   -1.000
 5697.00    2.05142   2.03153   -1.000
 5698.00    2.04811   2.02046   -1.000
 5699.00    2.03237   2.00663   -1.000
 5700.00    2.02297   1.99403   -1.000
 5701.00    2.01631   1.98548   -1.000
 5702.00    2.01622   1.98782   -1.000
 5703.00    2.01338   1.99961  162.789
 5704.00    2.01807   2.00901  161.191
 5705.00    2.02695   2.00695   -1.000
 5706.00    2.00787   1.99302   -1.000
 5707.00    1.97203   1.97276  165.052
 5708.00    1.93911   1.95104  168.167
 5709.00    1.91802   1.93242  170.528
 5710.00    1.93454   1.92718  171.157
 5711.00    1.95188   1.93796   -1.000
 5712.00    1.99543   1.96256   -1.000
 5713.00    2.02508   1.99463   -1.000
 5714.00    2.03047   2.01952  160.609
 5715.00    2.06512   2.03121   -1.000
 5716.00    2.06748   2.03755   -1.000
 5717.00    2.07752   2.04279   -1.000
 5718.00    2.08271   2.04740   -1.000
 5719.00    2.08397   2.05403   -1.000
 5720.00    2.10654   2.06265   -1.000
 5721.00    2.12571   2.07050   -1.000
 5722.00    2.10715   2.07521   -1.000
 5723.00    2.09281   2.07796  154.299
 5724.00    2.10764   2.07812   -1.000
 5725.00    2.11346   2.06967   -1.000
 5726.00    2.07075   2.05293   -1.000
 5727.00    2.04594   2.04210  157.827
 5728.00    2.06463   2.04439   -1.000
 5729.00    2.07191   2.05207   -1.000
 5730.00    2.08898   2.05510   -1.000
 5731.00    2.08351   2.05186   -1.000
 5732.00    2.06754   2.05063   -1.000
 5733.00    2.06820   2.06043  157.327
 5734.00    2.09665   2.07507   -1.000
 5735.00    2.10811   2.07951   -1.000
 5736.00    2.11225   2.07671   -1.000
 5737.00    2.10558   2.07292   -1.000
 5738.00    2.08498   2.07041  155.926
 5739.00    2.08945   2.07193   -1.000
 5740.00    2.09858   2.07366   -1.000
 5741.00    2.07327   2.07198  156.603
 5742.00    2.06350   2.06812  156.902
 5743.00    2.08549   2.06948   -1.000
 5744.00    2.10540   2.07737   -1.000
 5745.00    2.12694   2.08494   -1.000
 5746.00    2.11971   2.08249   -1.000
 5747.00    2.08827   2.07161   -1.000
 5748.00    2.07295   2.06756  157.040
 5749.00    2.07795   2.07554  157.336
 5750.00    2.07948   2.08157  156.269
 5751.00    2.10296   2.07371   -1.000
 5752.00    2.07357   2.05196   -1.000
 5753.00    2.03625   2.03233  159.528
 5754.00    2.04362   2.03183  160.901
 5755.00    2.07044   2.05232   -1.000
 5756.00    2.09583   2.07887   -1.000
 5757.00    2.11043   2.09685  155.131
 5758.00    2.11173   2.10174  153.687
 5759.00    2.10887   2.09320   -1.000
 5760.00    2.10551   2.07574   -1.000
 5761.00    2.07017   2.05446   -1.000
 5762.00    2.06041   2.03934   -1.000
 5763.00    2.05948   2.04445   -1.000
 5764.00    2.08431   2.06926   -1.000
 5765.00    2.09533   2.09401  155.933
 5766.00    2.11780   2.10505  154.304
 5767.00    2.12684   2.10722   -1.000
 5768.00    2.12368   2.10563   -1.000
 5769.00    2.11619   2.10377  153.655
 5770.00    2.10314   2.10103  154.070
 5771.00    2.09678   2.09656  154.632
 5772.00    2.11320   2.08943   -1.000
 5773.00    2.11700   2.08232   -1.000
 5774.00    2.08740   2.07714  156.758
 5775.00    2.08330   2.07549  156.884
 5776.00    2.09113   2.08132  156.442
 5777.00    2.09619   2.08432  155.665
 5778.00    2.06686   2.07607  155.672
 5779.00    2.04083   2.05786  156.409
 5780.00    2.01081   2.03433  159.046
 5781.00    1.97653   2.01497   -1.000
 5782.00    1.97054   2.00854   -1.000
 5783.00    1.99088   2.01382  163.699
 5784.00    2.01334   2.01935  163.056
 5785.00    2.04351   2.02236   -1.000
 5786.00    2.07619   2.03245   -1.000
 5787.00    2.08633   2.05044   -1.000
 5788.00    2.09640   2.06608   -1.000
 5789.00    2.10874   2.07243   -1.000
 5790.00    2.09715   2.06796   -1.000
 5791.00    2.08200   2.06344   -1.000
 5792.00    2.07779   2.07098  157.331
 5793.00    2.10295   2.08817   -1.000
 5794.00    2.11720   2.10512  154.922
 5795.00    2.10028   2.11357  154.074
 5796.00    2.09132   2.10814  154.168
 5797.00    2.06742   2.09488   -1.000
 5798.00    2.07239   2.09027  156.042
 5799.00    2.11195   2.10139  154.962
 5800.00    2.14530   2.11809   -1.000
 5801.00    2.15279   2.12831   -1.000
 5802.00    2.15020   2.12884   -1.000
 5803.00    2.14077   2.11941   -1.000
 5804.00    2.11763   2.10696  153.508
 5805.00    2.12258   2.10103   -1.000
 5806.00    2.12125   2.10311   -1.000
 5807.00    2.11457   2.11046  154.744
 5808.00    2.12912   2.11516   -1.000
 5809.00    2.12553   2.11692  153.758
 5810.00    2.13953   2.11969   -1.000
 5811.00    2.16329   2.12204   -1.000
 5812.00    2.16859   2.12198   -1.000
 5813.00    2.15958   2.11845   -1.000
 5814.00    2.15501   2.10942   -1.000
 5815.00    2.14409   2.09660   -1.000
 5816.00    2.13377   2.09107   -1.000
 5817.00    2.14692   2.10141   -1.000
 5818.00    2.17365   2.11869   -1.000
 5819.00    2.18700   2.12971   -1.000
 5820.00    2.16275   2.13120   -1.000
 5821.00    2.18085   2.12958   -1.000
 5822.00    2.19095   2.12836   -1.000
 5823.00    2.16997   2.12726   -1.000
 5824.00    2.16203   2.12617   -1.000
 5825.00    2.15492   2.12683   -1.000
 5826.00    2.16038   2.13092   -1.000
 5827.00    2.18274   2.13517   -1.000
 5828.00    2.17556   2.13912   -1.000
 5829.00    2.18350   2.14075   -1.000
 5830.00    2.19114   2.13967   -1.000
 5831.00    2.18827   2.13827   -1.000
 5832.00    2.16363   2.13558   -1.000
 5833.00    2.16968   2.13049   -1.000
 5834.00    2.16371   2.12538   -1.000
 5835.00    2.17929   2.12427   -1.000
 5836.00    2.18134   2.12847   -1.000
 5837.00    2.17500   2.13233   -1.000
 5838.00    2.15981   2.13408   -1.000
 5839.00    2.14179   2.13719  152.299
 5840.00    2.15718   2.14194   -1.000
 5841.00    2.17234   2.14598   -1.000
 5842.00    2.17493   2.14553   -1.000
 5843.00    2.16796   2.14072   -1.000
 5844.00    2.15516   2.13506   -1.000
 5845.00    2.15782   2.12861   -1.000
 5846.00    2.16523   2.12059   -1.000
 5847.00    2.17015   2.11464   -1.000
 5848.00    2.16154   2.11433   -1.000
 5849.00    2.14583   2.11628   -1.000
 5850.00    2.13256   2.11365   -1.000
 5851.00    2.11724   2.10204   -1.000
 5852.00    2.11267   2.08477   -1.000
 5853.00    2.10406   2.07416   -1.000
 5854.00    2.09836   2.07353   -1.000
 5855.00    2.09569   2.07079   -1.000
 5856.00    2.10205   2.05149   -1.000
 5857.00    2.07711   2.02601   -1.000
 5858.00    2.07266   2.02200   -1.000
 5859.00    2.10525   2.04436   -1.000
 5860.00    2.12338   2.07167   -1.000
 5861.00    2.14945   2.08665   -1.000
 5862.00    2.15345   2.09159   -1.000
 5863.00    2.14213   2.09479   -1.000
 5864.00    2.13842   2.09821   -1.000
 5865.00    2.12016   2.09283   -1.000
 5866.00    2.11152   2.08181   -1.000
 5867.00    2.11704   2.07973   -1.000
 5868.00    2.13393   2.09150   -1.000
 5869.00    2.17355   2.10832   -1.000
 5870.00    2.16257   2.12042   -1.000
 5871.00    2.17161   2.12229   -1.000
 5872.00    2.16020   2.11659   -1.000
 5873.00    2.15940   2.11026   -1.000
 5874.00    2.15338   2.10626   -1.000
 5875.00    2.15555   2.10403   -1.000
 5876.00    2.15085   2.10154   -1.000
 5877.00    2.12579   2.09700   -1.000
 5878.00    2.15694   2.08863   -1.000
 5879.00    2.17332   2.07899   -1.000
 5880.00    2.15650   2.07278   -1.000
 5881.00    2.14006   2.07068   -1.000
 5882.00    2.13103   2.06747   -1.000
 5883.00    2.12163   2.05871   -1.000
 5884.00    2.12136   2.04854   -1.000
 5885.00    2.12793   2.04127   -1.000
 5886.00    2.09204   2.02320   -1.000
 5887.00    2.01028   1.96175   -1.000
 5888.00    1.85142   1.84500  167.574
 5889.00    1.61700   1.72534   -1.000
 5890.00    1.50632   1.68775   -1.000
 5891.00    1.62912   1.74800   -1.000
 5892.00    1.93110   1.82892   -1.000
 5893.00    2.07211   1.85788   -1.000
 5894.00    1.96707   1.82501   -1.000
 5895.00    1.78344   1.76832   -1.000
 5896.00    1.65717   1.75720   -1.000
 5897.00    1.74683   1.81554   -1.000
 5898.00    1.96134   1.89313   -1.000
 5899.00    2.10235   1.95061   -1.000
 5900.00    2.11193   1.99231   -1.000
 5901.00    2.08578   2.02688   -1.000
 5902.00    2.09962   2.04969   -1.000
 5903.00    2.11151   2.06174   -1.000
 5904.00    2.10153   2.06669   -1.000
 5905.00    2.10927   2.06918   -1.000
 5906.00    2.12431   2.07272   -1.000
 5907.00    2.11429   2.07708   -1.000
 5908.00    2.11888   2.08221   -1.000
 5909.00    2.12575   2.08813   -1.000
 5910.00    2.13300   2.09288   -1.000
 5911.00    2.13140   2.09267   -1.000
 5912.00    2.13171   2.08424   -1.000
 5913.00    2.10638   2.06653   -1.000
 5914.00    2.09254   2.04904   -1.000
 5915.00    2.08331   2.04285   -1.000
 5916.00    2.07162   2.04757   -1.000
 5917.00    2.11872   2.05966   -1.000
 5918.00    2.11061   2.07562   -1.000
 5919.00    2.11835   2.08628   -1.000
 5920.00    2.13216   2.08912   -1.000
 5921.00    2.11517   2.08799   -1.000
 5922.00    2.09952   2.08604  159.171
 5923.00    2.10398   2.08749   -1.000
 5924.00    2.11666   2.09526   -1.000
 5925.00    2.10265   2.10501  158.066
 5926.00    2.09838   2.11073  157.816
 5927.00    2.13095   2.10797   -1.000
 5928.00    2.15527   2.09464   -1.000
 5929.00    2.13527   2.08048   -1.000
 5930.00    2.12236   2.07867   -1.000
 5931.00    2.13455   2.08969   -1.000
 5932.00    2.13259   2.09993   -1.000
 5933.00    2.11001   2.09939  157.990
 5934.00    2.09771   2.09279  159.427
 5935.00    2.14101   2.09296   -1.000
 5936.00    2.15441   2.10240   -1.000
 5937.00    2.13237   2.11140   -1.000
 5938.00    2.16179   2.11189   -1.000
 5939.00    2.16144   2.10390   -1.000
 5940.00    2.15488   2.09263   -1.000
 5941.00    2.12927   2.08412   -1.000
 5942.00    2.11680   2.08287   -1.000
 5943.00    2.09421   2.09015  160.427
 5944.00    2.10978   2.10158  159.371
 5945.00    2.12339   2.10889   -1.000
 5946.00    2.12157   2.10821  157.975
 5947.00    2.10042   2.09883  158.654
 5948.00    2.10531   2.08969   -1.000
 5949.00    2.10338   2.09219  161.860
 5950.00    2.11416   2.10026  161.914
 5951.00    2.12708   2.10255   -1.000
 5952.00    2.10896   2.09717  160.486
 5953.00    2.09739   2.09256  161.018
 5954.00    2.11292   2.09487   -1.000
 5955.00    2.13781   2.09447   -1.000
 5956.00    2.14871   2.08814   -1.000
 5957.00    2.11786   2.08622   -1.000
 5958.00    2.09919   2.09474  161.416
 5959.00    2.12382   2.11004  160.583
 5960.00    2.14999   2.12379   -1.000
 5961.00    2.17389   2.13123   -1.000
 5962.00    2.17753   2.13263   -1.000
 5963.00    2.17211   2.12935   -1.000
 5964.00    2.16865   2.12182   -1.000
 5965.00    2.14711   2.11352   -1.000
 5966.00    2.14334   2.11116   -1.000
 5967.00    2.14851   2.11693   -1.000
 5968.00    2.13966   2.12397   -1.000
 5969.00    2.14402   2.12985  157.186
 5970.00    2.15833   2.13591   -1.000
 5971.00    2.16414   2.13915   -1.000
 5972.00    2.16907   2.13793   -1.000
 5973.00    2.17870   2.13447   -1.000
 5974.00    2.17734   2.12699   -1.000
 5975.00    2.15708   2.11288   -1.000
 5976.00    2.12807   2.09992   -1.000
 5977.00    2.11282   2.09583   -1.000
 5978.00    2.11872   2.10253   -1.000
 5979.00    2.14927   2.11668   -1.000
 5980.00    2.18799   2.12891   -1.000
 5981.00    2.17030   2.13024   -1.000
 5982.00    2.15685   2.11748   -1.000
 5983.00    2.15641   2.09847   -1.000
 5984.00    2.13541   2.08708   -1.000
 5985.00    2.13684   2.09232   -1.000
 5986.00    2.14076   2.10566   -1.000
 5987.00    2.15557   2.11637   -1.000
 5988.00    2.17571   2.12440   -1.000
 5989.00    2.17373   2.12915   -1.000
 5990.00    2.16684   2.12925   -1.000
 5991.00    2.17898   2.12928   -1.000
 5992.00    2.16631   2.13686   -1.000
 5993.00    2.20311   2.15213   -1.000
 5994.00    2.19751   2.16055   -1.000
 5995.00    2.18160   2.15464   -1.000
 5996.00    2.17478   2.14219   -1.000
 5997.00    2.18015   2.13192   -1.000
 5998.00    2.16974   2.13058   -1.000
 5999.00    2.18827   2.13616   -1.000
 6000.00    2.17748   2.13873   -1.000
 6001.00    2.17045   2.13536   -1.000
 6002.00    2.15238   2.12755   -1.000
 6003.00    2.13888   2.12303   -1.000
 6004.00    2.14996   2.12720   -1.000
 6005.00    2.15343   2.12717   -1.000
 6006.00    2.15480   2.11410   -1.000
 6007.00    2.13210   2.09692   -1.000
 6008.00    2.12930   2.09252   -1.000
 6009.00    2.13926   2.10958   -1.000
 6010.00    2.16012   2.13080   -1.000
 6011.00    2.15511   2.13545   -1.000
 6012.00    2.15916   2.12853   -1.000
 6013.00    2.14035   2.12261   -1.000
 6014.00    2.15334   2.12342   -1.000
 6015.00    2.17967   2.12525   -1.000
 6016.00    2.17203   2.12258   -1.000
 6017.00    2.15924   2.12142   -1.000
 6018.00    2.15537   2.11980   -1.000
 6019.00    2.16791   2.11288   -1.000
 6020.00    2.17415   2.10589   -1.000
 6021.00    2.14893   2.10565   -1.000
 6022.00    2.14262   2.11050   -1.000
 6023.00    2.15533   2.11574   -1.000
 6024.00    2.15911   2.12380   -1.000
 6025.00    2.17438   2.13686   -1.000
 6026.00    2.19640   2.14779   -1.000
 6027.00    2.20483   2.15366   -1.000
 6028.00    2.19863   2.16051   -1.000
 6029.00    2.19744   2.16702   -1.000
 6030.00    2.20758   2.17017   -1.000
 6031.00    2.20155   2.17209   -1.000
 6032.00    2.19985   2.17450   -1.000
 6033.00    2.21158   2.17933   -1.000
 6034.00    2.21916   2.18608   -1.000
 6035.00    2.22003   2.18954   -1.000
 6036.00    2.21981   2.18697   -1.000
 6037.00    2.22256   2.18031   -1.000
 6038.00    2.20792   2.17233   -1.000
 6039.00    2.20494   2.16441   -1.000
 6040.00    2.21098   2.16125   -1.000
 6041.00    2.21344   2.16152   -1.000
 6042.00    2.20328   2.15394   -1.000
 6043.00    2.21566   2.15493   -1.000
 6044.00    2.22228   2.17416   -1.000
 6045.00    2.22302   2.18856   -1.000
 6046.00    2.25670   2.19272   -1.000
 6047.00    2.24695   2.19482   -1.000
 6048.00    2.22485   2.19708   -1.000
 6049.00    2.22338   2.19753   -1.000
 6050.00    2.23336   2.19631   -1.000
 6051.00    2.24115   2.19238   -1.000
 6052.00    2.25708   2.18717   -1.000
 6053.00    2.22123   2.18072   -1.000
 6054.00    2.22471   2.17202   -1.000
 6055.00    2.20756   2.16302   -1.000
 6056.00    2.20788   2.15930   -1.000
 6057.00    2.22061   2.16264   -1.000
 6058.00    2.24212   2.16916   -1.000
 6059.00    2.22832   2.17651   -1.000
 6060.00    2.21449   2.18158   -1.000
 6061.00    2.18672   2.18025  157.671
 6062.00    2.32447   2.16900   -1.000
 6063.00    1.88288   2.14756   -1.000
 6064.00    0.75244   2.12503   -1.000
 6065.00    2.33939   2.11759   -1.000
 6066.00    2.33275   2.13475   -1.000
 6067.00    2.21768   2.16288   48.181
 6068.00    2.30575   2.18335   -1.000
 6069.00    2.04550   2.19330   -1.000
 6070.00    0.47976   2.19844   -1.000
 6071.00    1.91963   2.20115   -1.000
 6072.00    2.32246   2.20315   -1.000
 6073.00    2.21261   2.20469  155.595
 6074.00    2.21955   2.20369   -1.000
 6075.00    2.25532   2.19823   -1.000
 6076.00    2.25849   2.18824   -1.000
 6077.00    2.22331   2.17643   -1.000
 6078.00    2.18088   2.16804   -1.000
 6079.00    2.18123   2.16545   -1.000
 6080.00    2.20543   2.16346   -1.000
 6081.00    2.17843   2.15810   -1.000
 6082.00    2.17517   2.15441   -1.000
 6083.00    2.18805   2.15519   -1.000
 6084.00    2.20571   2.15663   -1.000
 6085.00    2.20568   2.16005   -1.000
 6086.00    2.19480   2.16678   -1.000
 6087.00    2.19840   2.17338   -1.000
 6088.00    2.19915   2.17411   -1.000
 6089.00    2.20511   2.16772   -1.000
 6090.00    2.20253   2.15901   -1.000
 6091.00    2.19860   2.15534   -1.000
 6092.00    2.20039   2.15976   -1.000
 6093.00    2.21689   2.16949   -1.000
 6094.00    2.21578   2.18000   -1.000
 6095.00    2.21413   2.18698   -1.000
 6096.00    2.21791   2.19101   -1.000
 6097.00    2.23428   2.19450   -1.000
 6098.00    2.23835   2.19699   -1.000
 6099.00    2.22350   2.19133   -1.000
 6100.00    2.21090   2.16915   -1.000
 6101.00    2.18385   2.12884   -1.000
 6102.00    2.15639   2.09299   -1.000
 6103.00    2.12672   2.09217   -1.000
 6104.00    2.15914   2.12166   -1.000
 6105.00    2.20713   2.15312   -1.000
 6106.00    2.21715   2.17012   -1.000
 6107.00    2.20066   2.17912   -1.000
 6108.00    2.18542   2.18787  160.835
 6109.00    2.19611   2.19533  161.161
 6110.00    2.21151   2.19542   -1.000
 6111.00    2.21134   2.19207   -1.000
 6112.00    2.20572   2.19282   -1.000
 6113.00    2.22408   2.19828   -1.000
 6114.00    2.22028   2.20332   -1.000
 6115.00    2.23073   2.20255   -1.000
 6116.00    2.22193   2.19916   -1.000
 6117.00    2.20640   2.19814  160.551
 6118.00    2.18388   2.18671  160.664
 6119.00    2.18752   2.16082   -1.000
 6120.00    2.16975   2.12650   -1.000
 6121.00    2.14430   2.08752   -1.000
 6122.00    2.14329   2.07569   -1.000
 6123.00    2.15380   2.10194   -1.000
 6124.00    2.18874   2.13511   -1.000
 6125.00    2.19313   2.15712   -1.000
 6126.00    2.19463   2.16736   -1.000
 6127.00    2.18152   2.16989   -1.000
 6128.00    2.16110   2.17389  163.386
 6129.00    2.18087   2.18498  163.001
 6130.00    2.18753   2.19845  161.517
 6131.00    2.19304   2.20891  160.023
 6132.00    2.20475   2.21324  159.884
 6133.00    2.18270   2.20435  160.300
 6134.00    2.15609   2.17115  162.063
 6135.00    2.12577   2.11372   -1.000
 6136.00    2.07741   2.06221   -1.000
 6137.00    2.05701   2.05590  175.159
 6138.00    2.08782   2.09195  174.968
 6139.00    2.13875   2.12948   -1.000
 6140.00    2.14562   2.13940  165.236
 6141.00    2.14548   2.13919  163.882
 6142.00    2.14474   2.15382  164.416
 6143.00    2.14876   2.17881   -1.000
 6144.00    2.19642   2.19663  162.635
 6145.00    2.19050   2.20058  160.732
 6146.00    2.20961   2.19626   -1.000
 6147.00    2.20584   2.18789   -1.000
 6148.00    2.18013   2.17796  162.688
 6149.00    2.16725   2.16938  163.878
 6150.00    2.13858   2.16563   -1.000
 6151.00    2.15567   2.17040  164.628
 6152.00    2.17466   2.17970  163.934
 6153.00    2.17672   2.18168  162.745
 6154.00    2.15854   2.17239  162.744
 6155.00    2.17901   2.16368   -1.000
 6156.00    2.19264   2.16088   -1.000
 6157.00    2.17717   2.15983   -1.000
 6158.00    2.17173   2.15243   -1.000
 6159.00    2.12565   2.12347  167.854
 6160.00    2.10304   2.06631   -1.000
 6161.00    2.04861   2.00422   -1.000
 6162.00    1.98095   1.97580  181.744
 6163.00    1.98920   1.99288  182.855
 6164.00    2.03042   2.03138  179.501
 6165.00    2.07309   2.06567  174.336
 6166.00    2.08488   2.08537  172.082
 6167.00    2.07109   2.08588  171.604
 6168.00    2.05009   2.06630  172.249
 6169.00    2.02091   2.04943   -1.000
 6170.00    2.03045   2.06100   -1.000
 6171.00    2.05498   2.09102   -1.000
 6172.00    2.11574   2.11521  170.890
 6173.00    2.10471   2.12943   -1.000
 6174.00    2.10238   2.13957   -1.000
 6175.00    2.10961   2.14487   -1.000
 6176.00    2.10216   2.14658   -1.000
 6177.00    2.10789   2.15100   -1.000
 6178.00    2.13897   2.15590  168.050
 6179.00    2.14362   2.15751  167.168
 6180.00    2.14375   2.16140  166.609
 6181.00    2.14189   2.17056   -1.000
 6182.00    2.14366   2.17686   -1.000
 6183.00    2.15161   2.17651   -1.000
 6184.00    2.14468   2.17219   -1.000
 6185.00    2.14035   2.16349   -1.000
 6186.00    2.11086   2.15053   -1.000
 6187.00    2.09213   2.13927   -1.000
 6188.00    2.11363   2.12876  171.080
 6189.00    2.10392   2.10803  172.679
 6190.00    2.07395   2.07944  173.890
 6191.00    2.03087   2.06772   -1.000
 6192.00    2.04977   2.08820   -1.000
 6193.00    2.10556   2.12159  174.667
 6194.00    2.13876   2.14546  170.036
 6195.00    2.14277   2.15900  167.595
 6196.00    2.12900   2.16648   -1.000
 6197.00    2.13116   2.16477   -1.000
 6198.00    2.11043   2.15101   -1.000
 6199.00    2.09147   2.13769   -1.000
 6200.00    2.08899   2.14036   -1.000
 6201.00    2.08024   2.15326   -1.000
 6202.00    2.09640   2.16694   -1.000
 6203.00    2.09923   2.17696   -1.000
 6204.00    2.09569   2.18309   -1.000
 6205.00    2.11932   2.18712   -1.000
 6206.00    2.13403   2.19004   -1.000
 6207.00    2.13945   2.19226   -1.000
 6208.00    2.13893   2.19119   -1.000
 6209.00    2.14153   2.18548   -1.000
 6210.00    2.14836   2.17605   -1.000
 6211.00    2.12953   2.16053   -1.000
 6212.00    2.09536   2.13665   -1.000
 6213.00    2.07255   2.11307   -1.000
 6214.00    2.04834   2.10197   -1.000
 6215.00    2.04406   2.10391   -1.000
 6216.00    2.06245   2.10929   -1.000
 6217.00    2.07003   2.10948   -1.000
 6218.00    2.06093   2.10222   -1.000
 6219.00    2.04613   2.09662   -1.000
 6220.00    2.07364   2.10251   -1.000
 6221.00    2.01040   2.11635   -1.000
 6222.00    1.95547   2.12540   -1.000
 6223.00    2.11772   2.12787  189.682
 6224.00    2.12036   2.13067  179.850
 6225.00    2.10974   2.13404   -1.000
 6226.00    2.09700   2.13568   -1.000
 6227.00    2.09368   2.12918   -1.000
 6228.00    2.09050   2.10677  173.721
 6229.00    2.06992   2.07378  176.311
 6230.00    2.02692   2.04991   -1.000
 6231.00    2.01952   2.05031   -1.000
 6232.00    2.03876   2.07357   -1.000
 6233.00    2.08007   2.10572   -1.000
 6234.00    2.08475   2.13266   -1.000
 6235.00    2.10395   2.14468   -1.000
 6236.00    2.09922   2.14174   -1.000
 6237.00    2.09712   2.13047   -1.000
 6238.00    2.10677   2.11808  173.913
 6239.00    2.08896   2.10945   -1.000
 6240.00    2.06017   2.10518   -1.000
 6241.00    2.06611   2.10210   -1.000
 6242.00    2.07051   2.09375   -1.000
 6243.00    2.05682   2.08223   -1.000
 6244.00    2.02677   2.07287   -1.000
 6245.00    2.04034   2.06963   -1.000
 6246.00    2.06786   2.08120  178.969
 6247.00    2.08098   2.10645   -1.000
 6248.00    2.08569   2.13027   -1.000
 6249.00    2.10605   2.14035   -1.000
 6250.00    2.11087   2.13043  173.150
 6251.00    2.07960   2.10458   -1.000
 6252.00    2.02988   2.07928   -1.000
 6253.00    2.02783   2.06795   -1.000
 6254.00    2.01505   2.06869   -1.000
 6255.00    2.02923   2.07156   -1.000
 6256.00    2.02100   2.06784   -1.000
 6257.00    2.00162   2.06244   -1.000
 6258.00    1.96342   2.06704   -1.000
 6259.00    2.00214   2.08385   -1.000
 6260.00    2.06027   2.10517   -1.000
 6261.00    2.08603   2.12533   -1.000
 6262.00    2.08795   2.14224   -1.000
 6263.00    2.10225   2.14773   -1.000
 6264.00    2.09974   2.14419   -1.000
 6265.00    2.08263   2.14291   -1.000
 6266.00    2.07669   2.15005   -1.000
 6267.00    2.09119   2.15706   -1.000
 6268.00    2.08180   2.15535   -1.000
 6269.00    2.06620   2.15008   -1.000
 6270.00    2.07496   2.14915   -1.000
 6271.00    2.09223   2.15322   -1.000
 6272.00    2.09957   2.15518   -1.000
 6273.00    2.10355   2.14694   -1.000
 6274.00    2.10282   2.12693   -1.000
 6275.00    2.08763   2.10290  175.449
 6276.00    2.04364   2.08281   -1.000
 6277.00    2.01391   2.07126   -1.000
 6278.00    1.97521   2.06661   -1.000
 6279.00    1.92774   2.06522   -1.000
 6280.00    1.90526   2.07169   -1.000
 6281.00    1.91212   2.08917   -1.000
 6282.00    1.92505   2.11358   -1.000
 6283.00    1.92550   2.13765   -1.000
 6284.00    1.95286   2.15453   -1.000
 6285.00    1.95429   2.16347   -1.000
 6286.00    1.98143   2.16907   -1.000
 6287.00    2.01814   2.17338   -1.000
 6288.00    2.05147   2.17214   -1.000
 6289.00    2.06263   2.16341   -1.000
 6290.00    2.08754   2.15369   -1.000
 6291.00    2.08413   2.14822   -1.000
 6292.00    2.08008   2.14629   -1.000
 6293.00    2.08357   2.14587   -1.000
 6294.00    2.07288   2.14460   -1.000
 6295.00    2.05807   2.13552   -1.000
 6296.00    2.06124   2.12093   -1.000
 6297.00    2.08590   2.11185   -1.000
 6298.00    2.28024   2.11395   -1.000
 6299.00    2.57687   2.11824   -1.000
 6300.00    2.97800   2.11213   -1.000
 6301.00    3.92196   2.10425   -1.000
 6302.00    4.85891   2.11006   -1.000
 6303.00    4.80759   2.12877   -1.000
 6304.00    4.07317   2.14834   -1.000
 6305.00    2.98994   2.16157   -1.000
 6306.00    2.32138   2.17193   -1.000
 6307.00    2.16219   2.18016  173.052
 6308.00    2.12245   2.18362   -1.000
 6309.00    2.12299   2.18416   -1.000
 6310.00    2.10028   2.18142   -1.000
 6311.00    2.09370   2.17624   -1.000
 6312.00    2.09694   2.17147   -1.000
 6313.00    2.08302   2.16278   -1.000
 6314.00    2.07547   2.15159   -1.000
 6315.00    2.05245   2.14449   -1.000
 6316.00    2.04617   2.13875   -1.000
 6317.00    2.04906   2.13067   -1.000
 6318.00    2.04332   2.13163   -1.000
 6319.00    2.04311   2.14898   -1.000
 6320.00    2.06175   2.16770   -1.000
 6321.00    2.06665   2.17658   -1.000
 6322.00    2.08233   2.18279   -1.000
 6323.00    2.08574   2.19461   -1.000
 6324.00    2.11449   2.20649   -1.000
 6325.00    2.12918   2.21154   -1.000
 6326.00    2.11611   2.21111   -1.000
 6327.00    2.10916   2.20931   -1.000
 6328.00    2.10078   2.20860   -1.000
 6329.00    2.10674   2.20853   -1.000
 6330.00    2.12776   2.21172   -1.000
 6331.00    2.13111   2.21869   -1.000
 6332.00    2.13114   2.21975   -1.000
 6333.00    2.06395   2.20702   -1.000
 6334.00    2.07498   2.18211   -1.000
 6335.00    2.09666   2.15977   -1.000
 6336.00    2.06362   2.15592   -1.000
 6337.00    2.07310   2.16777   -1.000
 6338.00    2.09981   2.18449   -1.000
 6339.00    2.13868   2.20168   -1.000
 6340.00    2.14736   2.21478   -1.000
 6341.00    2.12598   2.21767   -1.000
 6342.00    2.11834   2.21024   -1.000
 6343.00    2.09881   2.19861   -1.000
 6344.00    2.08283   2.19469   -1.000
 6345.00    2.08502   2.20081   -1.000
 6346.00    2.10303   2.21221   -1.000
 6347.00    2.12141   2.22531   -1.000
 6348.00    2.12374   2.23709   -1.000
 6349.00    2.12031   2.24499   -1.000
 6350.00    2.13595   2.24731   -1.000
 6351.00    2.13532   2.24492   -1.000
 6352.00    2.10607   2.23685   -1.000
 6353.00    2.10105   2.22310   -1.000
 6354.00    2.07806   2.21011   -1.000
 6355.00    2.06781   2.20503   -1.000
 6356.00    2.07014   2.20245   -1.000
 6357.00    2.08597   2.19285   -1.000
 6358.00    2.09365   2.18091   -1.000
 6359.00    2.06875   2.17604   -1.000
 6360.00    2.10664   2.17336   -1.000
 6361.00    2.15764   2.16817  172.821
 6362.00    2.22794   2.16653   -1.000
 6363.00    2.37499   2.17276   -1.000
 6364.00    2.66243   2.18400   -1.000
 6365.00    2.94719   2.19578   -1.000
 6366.00    2.99684   2.20784   -1.000
 6367.00    2.77724   2.21975   -1.000
 6368.00    2.40898   2.22512   -1.000
 6369.00    2.20356   2.22313  166.157
 6370.00    2.15179   2.22165   -1.000
 6371.00    2.10563   2.22609   -1.000
 6372.00    2.07617   2.23509   -1.000
 6373.00    2.08040   2.24208   -1.000
 6374.00    2.10054   2.24360   -1.000
 6375.00    2.10304   2.24155   -1.000
 6376.00    2.09989   2.23691   -1.000
 6377.00    2.08895   2.23037   -1.000
 6378.00    2.06705   2.22385   -1.000
 6379.00    2.05563   2.21757   -1.000
 6380.00    2.03985   2.21264   -1.000
 6381.00    2.03834   2.21092   -1.000
 6382.00    2.04984   2.21177   -1.000
 6383.00    2.03392   2.21324   -1.000
 6384.00    2.02141   2.21629   -1.000
 6385.00    2.02390   2.22255   -1.000
 6386.00    2.02431   2.22851   -1.000
 6387.00    2.00832   2.22976   -1.000
 6388.00    2.02451   2.22894   -1.000
 6389.00    2.04005   2.22808   -1.000
 6390.00    1.99559   2.22107   -1.000
 6391.00    1.97288   2.20223   -1.000
 6392.00    1.94140   2.17938   -1.000
 6393.00    1.92347   2.17215   -1.000
 6394.00    1.91549   2.18788   -1.000
 6395.00    1.93431   2.21214   -1.000
 6396.00    1.95576   2.22794   -1.000
 6397.00    1.94490   2.22228   -1.000
 6398.00    1.91264   2.19577   -1.000
 6399.00    1.87536   2.16954   -1.000
 6400.00    1.84638   2.16937   -1.000
 6401.00    1.87891   2.19453   -1.000
 6402.00    1.88770   2.22432   -1.000
 6403.00    1.89125   2.24567   -1.000
 6404.00    1.91390   2.25299   -1.000
 6405.00    1.88766   2.24435   -1.000
 6406.00    1.87145   2.22704   -1.000
 6407.00    1.86116   2.21114   -1.000
 6408.00    1.82631   2.20727   -1.000
 6409.00    1.80140   2.21738   -1.000
 6410.00    1.79573   2.21997   -1.000
 6411.00    1.79699   2.21377   -1.000
 6412.00    1.76387   2.21588   -1.000
 6413.00    1.74488   2.22438   -1.000
 6414.00    1.75559   2.23214   -1.000
 6415.00    1.76582   2.23747   -1.000
 6416.00    1.73057   2.23975   -1.000
 6417.00    1.71594   2.23615   -1.000
 6418.00    1.69521   2.22289   -1.000
 6419.00    1.66887   2.20289   -1.000
 6420.00    1.64699   2.18945   -1.000
 6421.00    1.62130   2.19630   -1.000
 6422.00    1.61099   2.22048   -1.000
 6423.00    1.61718   2.24388   -1.000
 6424.00    1.62916   2.25801   -1.000
 6425.00    1.60418   2.26672   -1.000
 6426.00    1.58969   2.27245   -1.000
 6427.00    1.56182   2.26913   -1.000
 6428.00    1.53173   2.24968   -1.000
