###################################################################
## OUTPUT of StarlightChains_v04.for    [Cid@UFSC - 01/Apr/2007] ##
###################################################################

## Some input info
NGC6553_a_1.cxt                          [arq_obs]
Base.BC03.S                              [arq_base]
NGC6553_a_1.msk                          [arq_masks]
StCv04.C99.config                        [arq_config]
  150                                    [N_base]
    0                                    [N_YAV_components = # of components with extra extinction!]
    0                                    [i_FitPowerLaw (1/0 = Yes/No)]
-9.99                                    [alpha_PowerLaw]
CCM                                      [red_law_option]
 1.458241                                [q_norm = A(l_norm)/A(V)]

## (Re)Sampling Parameters
 3359.00                                 [l_ini (A)]
 6428.00                                 [l_fin (A)]
    1.00                                 [dl    (A)]     (OBS: dl_cushion =    50.00 A)

## Normalization info
 4020.00                                 [l_norm (A) - for base]
 4010.00                                 [llow_norm (A) - window for f_obs]
 4060.00                                 [lupp_norm (A) - window for f_obs]
3.120735E-15                             [fobs_norm (in input units)]

## S/N
 4730.00                                 [llow_SN (A) - window for S/N]
 4780.00                                 [lupp_SN (A) - window for S/N]
  23.083                                 [S/N in S/N window]
  11.394                                 [S/N in norm. window]
 239.013                                 [S/N_err in S/N window]
 117.980                                 [S/N_err in norm. window]
  1.0000                                 [fscale_chi2]

## etc...
  2147483599                             [idum_orig]
  3063                                   [NOl_eff]
  1766                                   [Nl_eff]
  1297    NSIGMA                         [Ntot_cliped & clip_method]
  5389300                                [Nglobal_steps]
   7                                     [N_chains]
  35                                     [NEX0s_base = N_base in EX0s-fits]
 0   0   1       98   2.0   2.804E+02    [Clip-Bug, RC-Crash & Burn-In warning-flags, n_censored_weights, wei_nsig_threshold & wei_limit]
   234    234.017    234.001      0.016  [idt_all, wdt_TotTime, wdt_UsrTime & wdt_SysTime (sec)]

## Synthesis Results - Best model ##

 2.34300E+00                             [chi2/Nl_eff]
     2.18850                             [adev (%)]

    95.97547                             [sum-of-x (%)]
 8.70255E-14                             [Flux_tot (units of input spectrum!)]
 5.94401E-09                             [Mini_tot (???)]
 2.97416E-09                             [Mcor_tot (???)]

 -23.35                                  [v0_min  (km/s)]
   1.18                                  [vd_min  (km/s)]
 2.5086                                  [AV_min  (mag)]
 0.0000                                  [YAV_min (mag)]

# j     x_j(%)      Mini_j(%)     Mcor_j(%)     age_j(yr)     Z_j      (L/M)_j    YAV?  Mstars   component_j        a/Fe...       SSP_chi2r SSP_adev(%)   SSP_AV   SSP_x(%)
  1      0.7205     1.3469E-03    2.6919E-03    1.000000E+06  0.00010  8.160E-03    0   1.0000   age020_m22            0.0000     2.2478E+03    48.1747   4.0000   114.7616
  2      6.8707     2.2024E-03    4.4016E-03    3.160000E+06  0.00010  4.759E-02    0   1.0000   age045_m22            0.0000     1.5728E+02    10.0477   4.0000   102.9123
  3     20.4472     1.6145E-02    3.0917E-02    5.010000E+06  0.00010  1.932E-02    0   0.9582   age055_m22            0.0000     2.5046E+02    12.7880   4.0000    99.1850
  4      1.5184     2.3225E-03    4.3154E-03    6.610000E+06  0.00010  9.973E-03    0   0.9297   age061_m22            0.0000     2.2713E+03    47.4875   4.0000   118.3886
  5      1.9805     3.9287E-03    7.0901E-03    8.710000E+06  0.00010  7.690E-03    0   0.9030   age067_m22            0.0000     2.2379E+03    47.2875   4.0000   118.8120
  6      4.5043     1.0778E-02    1.9176E-02    1.000000E+07  0.00010  6.375E-03    0   0.8902   age070_m22            0.0000     2.2456E+03    47.4530   4.0000   119.0152
  7      2.2394     7.0089E-03    1.2031E-02    1.445000E+07  0.00010  4.874E-03    0   0.8589   age078_m22            0.0000     1.8508E+03    43.9616   4.0000   120.8755
  8      0.0000     0.0000E+00    0.0000E+00    2.512000E+07  0.00010  4.103E-03    0   0.8174   age090_m22            0.0000     1.1844E+03    36.0998   4.0000   122.9281
  9      0.0000     0.0000E+00    0.0000E+00    4.000000E+07  0.00010  3.654E-03    0   0.7830   age104_m22            0.0000     8.6594E+02    30.3125   4.0000   122.8232
 10      0.0000     0.0000E+00    0.0000E+00    5.500000E+07  0.00010  3.093E-03    0   0.7597   age110_m22            0.0000     7.6970E+02    28.3539   4.0000   122.3886
 11      0.0000     0.0000E+00    0.0000E+00    1.015200E+08  0.00010  2.431E-03    0   0.7138   age116_m22            0.0000     5.3063E+02    22.7667   4.0000   118.4586
 12      0.0000     0.0000E+00    0.0000E+00    1.609000E+08  0.00010  1.319E-03    0   0.6775   age120_m22            0.0000     2.9939E+02    15.8151   4.0000   110.2176
 13      0.0000     0.0000E+00    0.0000E+00    2.861200E+08  0.00010  1.075E-03    0   0.6412   age125_m22            0.0000     4.4832E+02    19.8026   4.0000   113.8967
 14      0.0000     0.0000E+00    0.0000E+00    5.088000E+08  0.00010  7.183E-04    0   0.6083   age130_m22            0.0000     4.2701E+02    17.7864   4.0000   109.6383
 15      0.0000     0.0000E+00    0.0000E+00    9.047900E+08  0.00010  4.524E-04    0   0.5785   age135_m22            0.0000     4.0516E+02    15.5921   4.0000   105.7869
 16      0.0000     0.0000E+00    0.0000E+00    1.278050E+09  0.00010  3.018E-04    0   0.5588   age138_m22            0.0000     2.7779E+02    12.2243   3.5506   103.0043
 17      0.0000     0.0000E+00    0.0000E+00    1.434000E+09  0.00010  2.691E-04    0   0.5532   age139_m22            0.0000     2.5350E+02    11.7969   3.3902   102.7274
 18      0.0000     0.0000E+00    0.0000E+00    2.500000E+09  0.00010  1.582E-04    0   0.5296   age150_m22            0.0000     2.4063E+02    11.3050   3.2728   103.9659
 19      0.0000     0.0000E+00    0.0000E+00    4.250000E+09  0.00010  1.007E-04    0   0.5110   age158_m22            0.0000     1.9348E+02    10.4770   3.0930   103.2862
 20      0.0000     0.0000E+00    0.0000E+00    6.250000E+09  0.00010  6.869E-05    0   0.4985   age166_m22            0.0000     1.5344E+02     9.6588   3.0037   101.6041
 21      0.0000     0.0000E+00    0.0000E+00    7.500000E+09  0.00010  5.873E-05    0   0.4931   age171_m22            0.0000     1.4824E+02     9.3413   2.9905   101.3195
 22      0.0000     0.0000E+00    0.0000E+00    1.000000E+10  0.00010  4.481E-05    0   0.4854   age181_m22            0.0000     1.4571E+02     9.3172   2.9521   100.9418
 23      0.0000     0.0000E+00    0.0000E+00    1.300000E+10  0.00010  3.489E-05    0   0.4791   age193_m22            0.0000     1.3987E+02     9.2728   2.8928   100.4198
 24      0.0000     0.0000E+00    0.0000E+00    1.500000E+10  0.00010  3.035E-05    0   0.4766   age201_m22            0.0000     1.3568E+02     9.1894   2.8521   100.3023
 25      0.0000     0.0000E+00    0.0000E+00    1.800000E+10  0.00010  2.510E-05    0   0.4735   age213_m22            0.0000     1.2655E+02     8.9785   2.7804    99.8452
 26      2.5998     4.6891E-03    9.3713E-03    1.000000E+06  0.00040  8.458E-03    0   1.0000   age020_m32            0.0000     2.2938E+03    48.3934   4.0000   115.7603
 27      0.0000     0.0000E+00    0.0000E+00    3.160000E+06  0.00040  3.973E-02    0   1.0000   age045_m32            0.0000     1.0562E+03    33.9810   4.0000   121.5772
 28      1.1133     8.7767E-04    1.6720E-03    5.010000E+06  0.00040  1.935E-02    0   0.9532   age055_m32            0.0000     1.4727E+03    38.7647   4.0000   118.7088
 29      0.3838     4.8626E-04    8.9825E-04    6.610000E+06  0.00040  1.204E-02    0   0.9243   age061_m32            0.0000     1.9713E+03    44.8122   4.0000   119.6300
 30      0.0000     0.0000E+00    0.0000E+00    8.710000E+06  0.00040  9.433E-03    0   0.9001   age067_m32            0.0000     1.8979E+03    44.2197   4.0000   120.3737
 31      0.0000     0.0000E+00    0.0000E+00    1.000000E+07  0.00040  8.053E-03    0   0.8877   age070_m32            0.0000     1.8268E+03    43.5268   4.0000   120.5708
 32      0.0000     0.0000E+00    0.0000E+00    1.445000E+07  0.00040  7.027E-03    0   0.8578   age078_m32            0.0000     1.0430E+03    33.3283   4.0000   119.8513
 33      0.0000     0.0000E+00    0.0000E+00    2.512000E+07  0.00040  4.707E-03    0   0.8166   age090_m32            0.0000     7.1046E+02    27.4440   4.0000   118.9062
 34      0.0000     0.0000E+00    0.0000E+00    4.000000E+07  0.00040  3.714E-03    0   0.7827   age104_m32            0.0000     5.5619E+02    23.5773   4.0000   118.0527
 35      0.0000     0.0000E+00    0.0000E+00    5.500000E+07  0.00040  2.982E-03    0   0.7593   age110_m32            0.0000     5.2341E+02    22.6801   4.0000   117.7451
 36      0.0000     0.0000E+00    0.0000E+00    1.015200E+08  0.00040  2.188E-03    0   0.7143   age116_m32            0.0000     4.3243E+02    20.3670   4.0000   115.4287
 37      0.0000     0.0000E+00    0.0000E+00    1.609000E+08  0.00040  1.690E-03    0   0.6856   age120_m32            0.0000     4.0423E+02    18.5933   4.0000   113.1696
 38      0.0000     0.0000E+00    0.0000E+00    2.861200E+08  0.00040  1.152E-03    0   0.6509   age125_m32            0.0000     3.9351E+02    16.8937   4.0000   108.9383
 39      0.0000     0.0000E+00    0.0000E+00    5.088000E+08  0.00040  7.331E-04    0   0.6182   age130_m32            0.0000     3.8783E+02    15.4491   4.0000   105.3314
 40      0.0000     0.0000E+00    0.0000E+00    9.047900E+08  0.00040  3.960E-04    0   0.5890   age135_m32            0.0000     2.8653E+02    13.0714   3.6209   102.2861
 41      0.0000     0.0000E+00    0.0000E+00    1.278050E+09  0.00040  2.854E-04    0   0.5687   age138_m32            0.0000     2.5668E+02    12.0007   3.3304   104.7610
 42      0.0000     0.0000E+00    0.0000E+00    1.434000E+09  0.00040  2.531E-04    0   0.5632   age139_m32            0.0000     2.5156E+02    11.7358   3.2764   104.6828
 43      0.0000     0.0000E+00    0.0000E+00    2.500000E+09  0.00040  1.488E-04    0   0.5386   age150_m32            0.0000     2.1308E+02    11.0955   3.0074   103.3687
 44      0.0000     0.0000E+00    0.0000E+00    4.250000E+09  0.00040  9.082E-05    0   0.5199   age158_m32            0.0000     1.4634E+02     9.6992   2.8713   101.5195
 45      0.0000     0.0000E+00    0.0000E+00    6.250000E+09  0.00040  6.362E-05    0   0.5076   age166_m32            0.0000     1.0516E+02     8.4300   2.7968    99.5948
 46      0.0000     0.0000E+00    0.0000E+00    7.500000E+09  0.00040  5.289E-05    0   0.5027   age171_m32            0.0000     9.7233E+01     8.3082   2.7525    98.5163
 47      0.0000     0.0000E+00    0.0000E+00    1.000000E+10  0.00040  3.972E-05    0   0.4948   age181_m32            0.0000     9.1633E+01     8.3462   2.6858    97.1434
 48      0.0000     0.0000E+00    0.0000E+00    1.300000E+10  0.00040  3.283E-05    0   0.4870   age193_m32            0.0000     1.0782E+02     8.8528   2.6630    99.1620
 49      0.0000     0.0000E+00    0.0000E+00    1.500000E+10  0.00040  2.925E-05    0   0.4854   age201_m32            0.0000     1.1960E+02     9.1446   2.6584   100.3042
 50      0.0000     0.0000E+00    0.0000E+00    1.800000E+10  0.00040  2.469E-05    0   0.4819   age213_m32            0.0000     1.2282E+02     9.1944   2.6260   100.6089
 51      2.1554     2.9515E-03    5.8987E-03    1.000000E+06  0.00400  1.114E-02    0   1.0000   age020_m42            0.0000     2.1355E+03    47.0559   4.0000   115.8461
 52      0.0000     0.0000E+00    0.0000E+00    3.160000E+06  0.00400  4.073E-02    0   0.9999   age045_m42            0.0000     6.9289E+02    27.7196   4.0000   119.0393
 53      0.4437     2.6712E-04    5.0651E-04    5.010000E+06  0.00400  2.534E-02    0   0.9488   age055_m42            0.0000     1.1891E+03    36.0900   4.0000   119.1456
 54      0.0000     0.0000E+00    0.0000E+00    6.610000E+06  0.00400  2.583E-02    0   0.9220   age061_m42            0.0000     5.5410E+02    24.3512   4.0000   116.3334
 55      0.0000     0.0000E+00    0.0000E+00    8.710000E+06  0.00400  1.706E-02    0   0.8983   age067_m42            0.0000     4.2491E+02    20.5757   4.0000   112.1990
 56      0.0000     0.0000E+00    0.0000E+00    1.000000E+07  0.00400  1.271E-02    0   0.8862   age070_m42            0.0000     4.2992E+02    20.0841   4.0000   111.3097
 57      0.0000     0.0000E+00    0.0000E+00    1.445000E+07  0.00400  7.666E-03    0   0.8571   age078_m42            0.0000     7.7095E+02    28.5218   4.0000   114.8667
 58      0.0000     0.0000E+00    0.0000E+00    2.512000E+07  0.00400  5.070E-03    0   0.8174   age090_m42            0.0000     3.2285E+02    17.2636   4.0000   110.4567
 59      0.0000     0.0000E+00    0.0000E+00    4.000000E+07  0.00400  3.505E-03    0   0.7851   age104_m42            0.0000     1.6135E+02    11.1680   4.0000   106.1004
 60      0.0000     0.0000E+00    0.0000E+00    5.500000E+07  0.00400  3.059E-03    0   0.7629   age110_m42            0.0000     2.4425E+02    14.4982   4.0000   110.4108
 61      0.0000     0.0000E+00    0.0000E+00    1.015200E+08  0.00400  2.268E-03    0   0.7207   age116_m42            0.0000     3.3879E+02    16.9930   4.0000   111.9531
 62      0.0000     0.0000E+00    0.0000E+00    1.609000E+08  0.00400  1.720E-03    0   0.6930   age120_m42            0.0000     3.2252E+02    15.7389   4.0000   109.6387
 63      0.0000     0.0000E+00    0.0000E+00    2.861200E+08  0.00400  1.079E-03    0   0.6613   age125_m42            0.0000     2.9848E+02    12.3616   3.9210   103.4513
 64      0.0000     0.0000E+00    0.0000E+00    5.088000E+08  0.00400  6.261E-04    0   0.6313   age130_m42            0.0000     3.2160E+02    12.8224   3.7296   106.1172
 65      0.0000     0.0000E+00    0.0000E+00    9.047900E+08  0.00400  3.535E-04    0   0.6024   age135_m42            0.0000     2.4164E+02    11.7610   3.3089   107.1764
 66      0.5112     2.9128E-02    3.3980E-02    1.278050E+09  0.00400  2.677E-04    0   0.5837   age138_m42            0.0000     1.3578E+02    10.4117   2.6201   104.7637
 67      0.0000     0.0000E+00    0.0000E+00    1.434000E+09  0.00400  1.910E-04    0   0.5716   age139_m42            0.0000     1.5728E+02    10.8589   2.7799   105.6481
 68      0.0002     3.1234E-05    3.4102E-05    2.500000E+09  0.00400  9.818E-05    0   0.5463   age150_m42            0.0000     9.4415E+01    10.0827   2.4634   102.0511
 69      0.0000     0.0000E+00    0.0000E+00    4.250000E+09  0.00400  5.491E-05    0   0.5269   age158_m42            0.0000     7.0816E+01     9.2331   2.3318    99.8324
 70      0.0026     1.0389E-03    1.0695E-03    6.250000E+09  0.00400  3.857E-05    0   0.5151   age166_m42            0.0000     6.8284E+01     9.4790   2.2011    98.4408
 71      0.0010     4.8420E-04    4.9449E-04    7.500000E+09  0.00400  3.243E-05    0   0.5110   age171_m42            0.0000     7.0536E+01     9.7011   2.1249    97.7501
 72      0.0000     0.0000E+00    0.0000E+00    1.000000E+10  0.00400  2.424E-05    0   0.5028   age181_m42            0.0000     7.4939E+01    10.0027   2.0473    96.9958
 73      0.9984     8.0885E-01    7.9646E-01    1.300000E+10  0.00400  1.883E-05    0   0.4927   age193_m42            0.0000     7.8161E+01    10.0849   2.0111    96.6387
 74      1.5533     1.4063E+00    1.3825E+00    1.500000E+10  0.00400  1.685E-05    0   0.4919   age201_m42            0.0000     7.6252E+01     9.8872   2.0193    96.6573
 75      0.0000     0.0000E+00    0.0000E+00    1.800000E+10  0.00400  1.452E-05    0   0.4874   age213_m42            0.0000     7.3252E+01     9.5563   2.0399    96.9423
 76      0.0000     0.0000E+00    0.0000E+00    1.000000E+06  0.00800  1.286E-02    0   1.0000   age020_m52            0.0000     2.0690E+03    46.4887   4.0000   117.8837
 77      0.0000     0.0000E+00    0.0000E+00    3.160000E+06  0.00800  3.147E-02    0   0.9966   age045_m52            0.0000     1.9403E+03    44.9628   4.0000   119.2432
 78      0.0000     0.0000E+00    0.0000E+00    5.010000E+06  0.00800  2.664E-02    0   0.9443   age055_m52            0.0000     1.3529E+03    38.5528   4.0000   119.7968
 79      0.0000     0.0000E+00    0.0000E+00    6.610000E+06  0.00800  2.151E-02    0   0.9177   age061_m52            0.0000     1.5439E+02    11.5620   4.0000   104.0350
 80      0.0000     0.0000E+00    0.0000E+00    8.710000E+06  0.00800  1.628E-02    0   0.8948   age067_m52            0.0000     3.8504E+02    19.5117   4.0000   112.3662
 81      0.0000     0.0000E+00    0.0000E+00    1.000000E+07  0.00800  1.215E-02    0   0.8827   age070_m52            0.0000     6.8426E+02    26.7148   4.0000   116.9189
 82      0.0000     0.0000E+00    0.0000E+00    1.445000E+07  0.00800  8.739E-03    0   0.8552   age078_m52            0.0000     7.2538E+02    27.6526   4.0000   118.6726
 83      0.0000     0.0000E+00    0.0000E+00    2.512000E+07  0.00800  5.676E-03    0   0.8162   age090_m52            0.0000     4.3624E+02    19.6550   4.0000   115.9707
 84      0.0000     0.0000E+00    0.0000E+00    4.000000E+07  0.00800  3.939E-03    0   0.7841   age104_m52            0.0000     3.5258E+02    17.1842   4.0000   114.3850
 85      0.0000     0.0000E+00    0.0000E+00    5.500000E+07  0.00800  3.155E-03    0   0.7627   age110_m52            0.0000     3.5513E+02    17.5927   4.0000   114.8103
 86      0.0000     0.0000E+00    0.0000E+00    1.015200E+08  0.00800  2.206E-03    0   0.7226   age116_m52            0.0000     3.2391E+02    16.9639   4.0000   113.4446
 87      0.0000     0.0000E+00    0.0000E+00    1.609000E+08  0.00800  1.596E-03    0   0.6963   age120_m52            0.0000     2.9646E+02    14.8793   4.0000   109.5918
 88      0.0000     0.0000E+00    0.0000E+00    2.861200E+08  0.00800  1.002E-03    0   0.6665   age125_m52            0.0000     3.2957E+02    13.3867   3.9667   105.0733
 89      0.0000     0.0000E+00    0.0000E+00    5.088000E+08  0.00800  5.759E-04    0   0.6377   age130_m52            0.0000     3.3200E+02    14.0226   3.6172   108.4309
 90      0.0000     0.0000E+00    0.0000E+00    9.047900E+08  0.00800  2.972E-04    0   0.6086   age135_m52            0.0000     2.3750E+02    13.4616   3.0481   107.6768
 91      0.2229     1.5169E-02    1.7908E-02    1.278050E+09  0.00800  2.242E-04    0   0.5907   age138_m52            0.0000     1.3664E+02    11.4711   2.4273   107.2593
 92      0.0023     2.0975E-04    2.4258E-04    1.434000E+09  0.00800  1.645E-04    0   0.5787   age139_m52            0.0000     1.2924E+02    11.1647   2.5625   107.1404
 93      0.0000     0.0000E+00    0.0000E+00    2.500000E+09  0.00800  7.723E-05    0   0.5519   age150_m52            0.0000     9.3011E+01    10.8925   2.1861   104.3135
 94      0.0000     0.0000E+00    0.0000E+00    4.250000E+09  0.00800  4.151E-05    0   0.5320   age158_m52            0.0000     8.3576E+01    10.8216   2.1020   102.1652
 95      0.1210     6.1332E-02    6.3702E-02    6.250000E+09  0.00800  3.010E-05    0   0.5197   age166_m52            0.0000     8.6919E+01    11.3719   1.9024   100.6991
 96      0.0132     8.1849E-03    8.4063E-03    7.500000E+09  0.00800  2.467E-05    0   0.5139   age171_m52            0.0000     8.9883E+01    11.5789   1.8604   100.2349
 97      6.0475     4.9546E+00    5.0044E+00    1.000000E+10  0.00800  1.862E-05    0   0.5054   age181_m52            0.0000     1.0275E+02    12.2756   1.7294    99.5965
 98      0.0027     2.9113E-03    2.9022E-03    1.300000E+10  0.00800  1.433E-05    0   0.4988   age193_m52            0.0000     1.1685E+02    12.8181   1.6343   100.0421
 99      0.0000     0.0000E+00    0.0000E+00    1.500000E+10  0.00800  1.244E-05    0   0.4936   age201_m52            0.0000     1.2296E+02    12.9420   1.6091   100.3917
100      0.0000     0.0000E+00    0.0000E+00    1.800000E+10  0.00800  1.070E-05    0   0.4888   age213_m52            0.0000     1.2873E+02    13.0796   1.5786   100.1189
101      0.0000     0.0000E+00    0.0000E+00    1.000000E+06  0.02000  1.989E-02    0   1.0000   age020_m62            0.0000     2.0672E+03    46.2231   4.0000   116.8034
102      0.0000     0.0000E+00    0.0000E+00    3.160000E+06  0.02000  3.772E-02    0   0.9858   age045_m62            0.0000     1.8295E+03    43.7466   4.0000   118.4752
103      0.0000     0.0000E+00    0.0000E+00    5.010000E+06  0.02000  3.227E-02    0   0.9342   age055_m62            0.0000     1.0005E+03    33.3234   4.0000   120.2343
104      0.0000     0.0000E+00    0.0000E+00    6.610000E+06  0.02000  2.387E-02    0   0.9090   age061_m62            0.0000     7.8273E+02    28.2343   4.0000   116.8312
105      0.0000     0.0000E+00    0.0000E+00    8.710000E+06  0.02000  1.102E-02    0   0.8861   age067_m62            0.0000     5.8090E+02    19.3324   4.0000   108.9399
106      0.0000     0.0000E+00    0.0000E+00    1.000000E+07  0.02000  1.011E-02    0   0.8751   age070_m62            0.0000     5.1413E+02    19.9689   4.0000   110.5876
107      0.0000     0.0000E+00    0.0000E+00    1.445000E+07  0.02000  7.331E-03    0   0.8472   age078_m62            0.0000     4.6582E+02    20.5609   4.0000   111.1765
108      0.0000     0.0000E+00    0.0000E+00    2.512000E+07  0.02000  4.206E-03    0   0.8099   age090_m62            0.0000     3.9011E+02    18.7184   4.0000   108.8945
109      0.0000     0.0000E+00    0.0000E+00    4.000000E+07  0.02000  3.373E-03    0   0.7799   age104_m62            0.0000     2.8297E+02    15.6758   4.0000   112.0947
110      0.0000     0.0000E+00    0.0000E+00    5.500000E+07  0.02000  2.747E-03    0   0.7595   age110_m62            0.0000     2.9554E+02    15.6907   4.0000   113.3522
111      0.0000     0.0000E+00    0.0000E+00    1.015200E+08  0.02000  1.878E-03    0   0.7221   age116_m62            0.0000     3.3310E+02    16.4295   4.0000   113.9648
112      0.0000     0.0000E+00    0.0000E+00    1.609000E+08  0.02000  1.378E-03    0   0.6978   age120_m62            0.0000     3.4860E+02    15.8493   4.0000   112.1552
113      0.0000     0.0000E+00    0.0000E+00    2.861200E+08  0.02000  8.869E-04    0   0.6700   age125_m62            0.0000     3.8839E+02    13.3383   3.9653   107.2635
114      0.0000     0.0000E+00    0.0000E+00    5.088000E+08  0.02000  4.834E-04    0   0.6430   age130_m62            0.0000     3.4974E+02    14.1737   3.4989   109.3757
115      0.0007     4.6429E-05    5.7085E-05    9.047900E+08  0.02000  2.312E-04    0   0.6152   age135_m62            0.0000     2.1591E+02    12.8479   2.8580   109.7524
116      0.0002     1.7164E-05    2.0331E-05    1.278050E+09  0.02000  1.387E-04    0   0.5927   age138_m62            0.0000     1.3153E+02    11.3703   2.4405   106.7467
117      0.0000     0.0000E+00    0.0000E+00    1.434000E+09  0.02000  1.168E-04    0   0.5865   age139_m62            0.0000     1.1902E+02    11.2706   2.3999   105.5079
118      0.0000     0.0000E+00    0.0000E+00    2.500000E+09  0.02000  5.505E-05    0   0.5610   age150_m62            0.0000     9.8363E+01    11.4384   2.0103   102.8705
119      0.0000     0.0000E+00    0.0000E+00    4.250000E+09  0.02000  3.070E-05    0   0.5407   age158_m62            0.0000     1.2279E+02    12.7372   1.7178   102.2257
120      0.0000     0.0000E+00    0.0000E+00    6.250000E+09  0.02000  2.104E-05    0   0.5277   age166_m62            0.0000     1.4039E+02    13.3137   1.5896   102.3844
121      0.0000     0.0000E+00    0.0000E+00    7.500000E+09  0.02000  1.770E-05    0   0.5223   age171_m62            0.0000     1.5246E+02    13.6732   1.5046   102.5547
122      0.0000     0.0000E+00    0.0000E+00    1.000000E+10  0.02000  1.297E-05    0   0.5121   age181_m62            0.0000     1.7973E+02    14.3643   1.3533   102.6509
123      2.2570     3.5528E+00    3.5836E+00    1.300000E+10  0.02000  9.691E-06    0   0.5047   age193_m62            0.0000     2.0029E+02    14.6755   1.2830   102.6266
124      8.8573     1.6162E+01    1.6147E+01    1.500000E+10  0.02000  8.360E-06    0   0.4999   age201_m62            0.0000     2.1924E+02    15.0761   1.2181   102.5967
125     10.6077     2.3415E+01    2.3145E+01    1.800000E+10  0.02000  6.911E-06    0   0.4946   age213_m62            0.0000     2.4399E+02    15.6437   1.1492   102.5303
126      0.0000     0.0000E+00    0.0000E+00    1.000000E+06  0.05000  2.651E-02    0   0.9998   age020_m72            0.0000     2.0171E+03    46.1167   4.0000   118.0476
127      0.0000     0.0000E+00    0.0000E+00    3.160000E+06  0.05000  4.817E-02    0   0.9577   age045_m72            0.0000     1.5109E+03    40.7616   4.0000   120.7365
128      0.0000     0.0000E+00    0.0000E+00    5.010000E+06  0.05000  3.101E-02    0   0.9147   age055_m72            0.0000     1.0371E+03    33.5781   4.0000   119.5741
129      0.0000     0.0000E+00    0.0000E+00    6.610000E+06  0.05000  1.472E-02    0   0.8877   age061_m72            0.0000     6.7854E+02    23.8870   4.0000   112.8886
130      0.0000     0.0000E+00    0.0000E+00    8.710000E+06  0.05000  1.050E-02    0   0.8638   age067_m72            0.0000     1.0233E+03    32.5191   4.0000   118.2498
131      0.0000     0.0000E+00    0.0000E+00    1.000000E+07  0.05000  8.954E-03    0   0.8524   age070_m72            0.0000     1.2909E+03    38.0531   4.0000   121.2221
132      0.0000     0.0000E+00    0.0000E+00    1.445000E+07  0.05000  6.392E-03    0   0.8262   age078_m72            0.0000     1.1885E+03    36.9140   4.0000   121.5764
133      0.0000     0.0000E+00    0.0000E+00    2.512000E+07  0.05000  4.207E-03    0   0.7902   age090_m72            0.0000     7.3646E+02    29.2279   4.0000   120.5170
134      0.0000     0.0000E+00    0.0000E+00    4.000000E+07  0.05000  3.198E-03    0   0.7618   age104_m72            0.0000     4.2727E+02    20.3246   4.0000   118.0417
135      0.0000     0.0000E+00    0.0000E+00    5.500000E+07  0.05000  2.593E-03    0   0.7432   age110_m72            0.0000     4.2094E+02    19.5925   4.0000   118.0673
136      0.0000     0.0000E+00    0.0000E+00    1.015200E+08  0.05000  1.716E-03    0   0.7092   age116_m72            0.0000     3.9377E+02    18.0952   4.0000   115.9898
137      0.0000     0.0000E+00    0.0000E+00    1.609000E+08  0.05000  1.218E-03    0   0.6876   age120_m72            0.0000     3.7121E+02    16.0111   4.0000   111.5819
138      0.0000     0.0000E+00    0.0000E+00    2.861200E+08  0.05000  7.047E-04    0   0.6618   age125_m72            0.0000     3.7127E+02    13.5937   3.7561   107.2311
139      0.0000     0.0000E+00    0.0000E+00    5.088000E+08  0.05000  3.590E-04    0   0.6356   age130_m72            0.0000     3.0216E+02    13.6388   3.1628   109.6280
140      0.0000     0.0000E+00    0.0000E+00    9.047900E+08  0.05000  1.484E-04    0   0.6088   age135_m72            0.0000     1.5476E+02    12.3516   2.3606   105.0943
141      0.0000     0.0000E+00    0.0000E+00    1.278050E+09  0.05000  9.435E-05    0   0.5924   age138_m72            0.0000     1.3748E+02    13.0474   1.9262   102.5571
142      0.0000     0.0000E+00    0.0000E+00    1.434000E+09  0.05000  7.827E-05    0   0.5847   age139_m72            0.0000     1.2810E+02    12.7911   1.9321   102.2589
143      0.0000     0.0000E+00    0.0000E+00    2.500000E+09  0.05000  3.759E-05    0   0.5583   age150_m72            0.0000     1.4116E+02    13.4383   1.5978   101.5922
144      0.7553     6.2552E-01    6.7182E-01    4.250000E+09  0.05000  1.842E-05    0   0.5374   age158_m72            0.0000     1.7909E+02    13.4209   1.3324   100.1677
145      3.0379     3.8394E+00    4.0223E+00    6.250000E+09  0.05000  1.207E-05    0   0.5242   age166_m72            0.0000     2.2903E+02    14.4183   1.1114    99.0878
146      6.2009     9.4661E+00    9.8054E+00    7.500000E+09  0.05000  9.993E-06    0   0.5183   age171_m72            0.0000     2.3821E+02    14.4949   1.0747    98.8409
147      0.9339     1.9541E+00    1.9843E+00    1.000000E+10  0.05000  7.291E-06    0   0.5081   age181_m72            0.0000     2.8078E+02    15.2959   0.9691    98.0164
148      0.0000     0.0000E+00    0.0000E+00    1.300000E+10  0.05000  5.316E-06    0   0.5018   age193_m72            0.0000     3.4862E+02    16.4807   0.8062    96.9511
149      3.7071     1.2575E+01    1.2496E+01    1.500000E+10  0.05000  4.497E-06    0   0.4972   age201_m72            0.0000     3.8407E+02    17.0594   0.7455    96.6666
150      5.1640     2.1069E+01    2.0733E+01    1.800000E+10  0.05000  3.739E-06    0   0.4924   age213_m72            0.0000     4.2844E+02    17.9416   0.6459    96.3076


## Synthesis Results - Average & Chains ##

# j      x_j: min, <> & last-chain-values for 1 ...  7 chains
  1      0.7205      3.6313      3.3822      3.4410      3.4666      3.6618      3.7589      3.7468      3.6695
  2      6.8707      4.6973      4.9180      5.3188      5.2303      5.0787      5.0501      4.6517      4.7222
  3     20.4472     15.8566     16.2560     15.8435     16.4423     16.2626     15.9573     16.1421     16.1468
  4      1.5184      0.8990      0.9757      0.9992      0.9304      0.9107      0.8018      0.9275      0.9031
  5      1.9805      0.8963      1.0175      1.0175      0.9576      0.8329      0.9284      1.0787      0.8717
  6      4.5043      2.7379      2.7804      2.6147      2.6870      2.9722      2.8107      2.7871      2.8395
  7      2.2394      1.7560      1.7133      1.8815      1.6953      1.6225      1.8001      1.8609      1.8538
  8      0.0000      0.0349      0.0000      0.0849      0.0038      0.0315      0.0000      0.0000      0.0000
  9      0.0000      0.0211      0.0000      0.0000      0.0000      0.0000      0.0000      0.1263      0.0000
 10      0.0000      0.0299      0.0000      0.0000      0.0173      0.0000      0.3229      0.0000      0.1025
 11      0.0000      0.0237      0.0000      0.0000      0.0000      0.0000      0.0525      0.0000      0.0000
 12      0.0000      0.0212      0.0000      0.0000      0.0000      0.0000      0.0000      0.0000      0.1694
 13      0.0000      0.0165      0.0000      0.0000      0.0000      0.0000      0.0000      0.0781      0.0000
 14      0.0000      0.0306      0.0191      0.1422      0.0000      0.0000      0.0000      0.0000      0.0038
 15      0.0000      0.0146      0.0000      0.0000      0.0000      0.0000      0.0000      0.0000      0.0000
 16      0.0000      0.0325      0.0000      0.0000      0.0464      0.0000      0.0000      0.1126      0.0094
 17      0.0000      0.0328      0.0000      0.0929      0.0000      0.0000      0.0000      0.0000      0.0000
 18      0.0000      0.0293      0.0091      0.0000      0.1011      0.0000      0.0000      0.0000      0.0000
 19      0.0000      0.0409      0.0081      0.1619      0.0000      0.0712      0.0000      0.0064      0.0000
 20      0.0000      0.0412      0.0000      0.0000      0.0000      0.0000      0.0000      0.2439      0.0000
 21      0.0000      0.0432      0.0099      0.0000      0.0703      0.0000      0.0373      0.0000      0.0319
 22      0.0000      0.0431      0.0769      0.0000      0.0500      0.2953      0.0000      0.0000      0.0000
 23      0.0000      0.0355      0.0000      0.0000      0.0985      0.0000      0.0213      0.0000      0.0022
 24      0.0000      0.0303      0.0000      0.0000      0.1427      0.0000      0.0000      0.0000      0.0000
 25      0.0000      0.0306      0.0000      0.0000      0.0000      0.0000      0.0000      0.0000      0.0000
 26      2.5998      3.5756      3.5114      3.5375      3.3018      3.5995      3.5563      3.4193      3.5130
 27      0.0000      0.0299      0.0000      0.0000      0.0000      0.0000      0.0000      0.0000      0.1533
 28      1.1133      1.0863      1.2943      1.2644      1.2786      1.0925      1.0897      0.9385      0.9191
 29      0.3838      0.2928      0.3248      0.2768      0.3212      0.3109      0.4576      0.4816      0.2713
 30      0.0000      0.0851      0.0000      0.0000      0.0000      0.0000      0.1576      0.0000      0.0798
 31      0.0000      0.0211      0.0000      0.0000      0.0000      0.0000      0.0000      0.1294      0.0000
 32      0.0000      0.0331      0.1559      0.0449      0.0000      0.0000      0.0000      0.0461      0.0000
 33      0.0000      0.0232      0.1379      0.0675      0.0000      0.0000      0.0082      0.0000      0.0000
 34      0.0000      0.0257      0.0000      0.0466      0.0000      0.0000      0.0000      0.0028      0.1014
 35      0.0000      0.0193      0.0022      0.0581      0.0128      0.0000      0.0000      0.0000      0.0000
 36      0.0000      0.0191      0.0000      0.0000      0.0000      0.0000      0.0000      0.0000      0.0000
 37      0.0000      0.0205      0.0000      0.0000      0.0000      0.0589      0.1470      0.0000      0.0000
 38      0.0000      0.0237      0.0000      0.0000      0.0000      0.1912      0.0000      0.1926      0.0687
 39      0.0000      0.0263      0.0000      0.0507      0.0000      0.0320      0.0000      0.0000      0.0316
 40      0.0000      0.0243      0.0000      0.0000      0.0128      0.0851      0.0066      0.0113      0.0000
 41      0.0000      0.0263      0.0000      0.0000      0.0000      0.0000      0.0706      0.1004      0.0000
 42      0.0000      0.0294      0.0000      0.0000      0.0000      0.0000      0.0065      0.0000      0.1042
 43      0.0000      0.0677      0.0000      0.0000      0.0000      0.0000      0.0000      0.0000      0.0831
 44      0.0000      0.0748      0.1480      0.0572      0.0000      0.2300      0.0000      0.0000      0.1203
 45      0.0000      0.0436      0.0000      0.0746      0.0000      0.0000      0.0000      0.0000      0.0000
 46      0.0000      0.0407      0.0000      0.0000      0.0891      0.0000      0.0316      0.0000      0.0000
 47      0.0000      0.0293      0.0000      0.0000      0.0000      0.0062      0.0000      0.0000      0.0000
 48      0.0000      0.0313      0.0000      0.0000      0.0000      0.0000      0.0022      0.0000      0.0046
 49      0.0000      0.0375      0.0000      0.0461      0.0061      0.0000      0.0000      0.0210      0.0000
 50      0.0000      0.0435      0.0000      0.0403      0.0000      0.0233      0.0000      0.0000      0.0000
 51      2.1554      3.7983      3.8792      3.8520      3.8185      3.8574      3.6766      3.6398      3.8456
 52      0.0000      0.0792      0.0000      0.1217      0.2497      0.2580      0.1574      0.1112      0.1427
 53      0.4437      1.9905      1.9289      1.9376      2.0335      1.7959      1.8524      1.8965      2.0276
 54      0.0000      0.0324      0.0384      0.1794      0.1173      0.0000      0.0000      0.0780      0.1439
 55      0.0000      0.0393      0.0000      0.0000      0.0000      0.0000      0.0000      0.0876      0.0362
 56      0.0000      0.0199      0.0000      0.0000      0.0000      0.0000      0.0051      0.0000      0.0000
 57      0.0000      0.0139      0.0077      0.0000      0.0000      0.0000      0.0000      0.0000      0.0000
 58      0.0000      0.0272      0.0000      0.1214      0.0000      0.0000      0.0000      0.0558      0.0000
 59      0.0000      0.0162      0.0000      0.0000      0.0000      0.0000      0.0000      0.0000      0.0000
 60      0.0000      0.0190      0.0000      0.0000      0.0000      0.0000      0.0000      0.0000      0.0000
 61      0.0000      0.0162      0.0000      0.0270      0.0000      0.0000      0.0000      0.0000      0.0000
 62      0.0000      0.0216      0.0000      0.0134      0.0000      0.0000      0.0000      0.0000      0.0000
 63      0.0000      0.0366      0.1574      0.0000      0.0653      0.0791      0.0000      0.0000      0.0000
 64      0.0000      0.0538      0.0000      0.1346      0.0000      0.0000      0.0082      0.2053      0.0094
 65      0.0000      0.0520      0.1669      0.0000      0.0000      0.0000      0.0999      0.0000      0.0654
 66      0.5112      0.1755      0.5804      0.0000      0.4104      0.6017      0.4677      0.0562      0.5943
 67      0.0000      0.0823      0.0000      0.1695      0.0047      0.0000      0.1401      0.0692      0.0749
 68      0.0002      0.0823      0.3872      0.0059      0.0482      0.0034      0.0000      0.0000      0.0047
 69      0.0000      0.1246      0.0000      0.0000      0.0000      0.1553      0.2686      0.0000      0.1611
 70      0.0026      0.0882      0.2026      0.0000      0.0000      0.0000      0.2419      0.0000      0.0000
 71      0.0010      0.1203      0.5500      0.1732      0.1398      0.7790      0.0000      0.6040      0.2139
 72      0.0000      0.1258      0.0048      0.5289      0.2698      0.0882      0.0000      0.0000      0.0000
 73      0.9984      0.2579      0.3759      0.1935      0.0000      0.0000      0.0000      0.2498      0.3879
 74      1.5533      0.2019      0.6353      0.2748      0.3408      0.2039      0.0358      0.4995      0.1775
 75      0.0000      0.2973      0.0000      0.5674      0.4854      0.3874      0.8340      0.2927      0.4586
 76      0.0000      0.0144      0.0630      0.0000      0.0000      0.0000      0.1355      0.0000      0.0000
 77      0.0000      0.0197      0.0000      0.0000      0.0000      0.0000      0.0000      0.0000      0.0000
 78      0.0000      0.0118      0.0000      0.0000      0.0000      0.0060      0.0000      0.0000      0.0000
 79      0.0000      0.0280      0.0000      0.0000      0.2121      0.0057      0.0000      0.0000      0.0000
 80      0.0000      0.0201      0.0000      0.0000      0.0000      0.0000      0.0000      0.0000      0.0000
 81      0.0000      0.0165      0.0000      0.0000      0.0000      0.0002      0.0000      0.0124      0.0000
 82      0.0000      0.0158      0.0018      0.0000      0.0000      0.0000      0.0000      0.0000      0.0000
 83      0.0000      0.0128      0.0000      0.0000      0.0000      0.0000      0.0000      0.0000      0.0000
 84      0.0000      0.0334      0.0000      0.0000      0.0763      0.1390      0.0000      0.0199      0.0000
 85      0.0000      0.0228      0.0000      0.0000      0.0000      0.0000      0.0000      0.0000      0.0000
 86      0.0000      0.0159      0.0000      0.0000      0.0610      0.0270      0.0000      0.0000      0.0474
 87      0.0000      0.0164      0.0065      0.0000      0.0000      0.0241      0.0000      0.0000      0.1091
 88      0.0000      0.0238      0.0000      0.0000      0.0106      0.0000      0.0613      0.0000      0.0000
 89      0.0000      0.0270      0.0384      0.0000      0.0000      0.0000      0.1378      0.0000      0.1192
 90      0.0000      0.0381      0.0000      0.0321      0.0279      0.0515      0.1454      0.0000      0.0313
 91      0.2229      0.1188      0.1930      0.1568      0.0000      0.1544      0.0000      0.3925      0.4441
 92      0.0023      0.0876      0.2201      0.0000      0.0274      0.0000      0.0000      0.3578      0.0000
 93      0.0000      0.1018      0.0000      0.1755      0.3679      0.0000      0.2594      0.0000      0.0144
 94      0.0000      0.1927      0.1001      0.0000      0.2322      0.4457      0.0000      0.0000      0.0000
 95      0.1210      0.4831      0.6931      0.4274      0.2224      0.6109      0.4359      0.9555      0.5250
 96      0.0132      1.3335      1.0995      0.9919      0.9039      1.3389      1.4797      0.5215      1.4675
 97      6.0475      7.2733      7.0129      6.9537      7.2578      7.2899      7.4407      7.6213      7.0598
 98      0.0027      1.2409      0.5255      1.2596      0.8211      0.4002      0.9745      1.2727      1.2625
 99      0.0000      0.0644      0.0547      0.0464      0.0000      0.0349      0.0432      0.0548      0.0000
100      0.0000      0.0559      0.0794      0.0000      0.3658      0.0000      0.1957      0.0000      0.0010
101      0.0000      0.0234      0.0000      0.0000      0.0000      0.0000      0.0000      0.0000      0.0000
102      0.0000      0.0111      0.0000      0.0000      0.0000      0.0000      0.0000      0.0000      0.0000
103      0.0000      0.0157      0.0138      0.0292      0.0000      0.0000      0.0000      0.0000      0.0000
104      0.0000      0.0168      0.0000      0.0000      0.0000      0.0009      0.0000      0.0000      0.0038
105      0.0000      0.0345      0.0690      0.0000      0.0398      0.0000      0.0000      0.0612      0.0738
106      0.0000      0.0305      0.0000      0.0000      0.0000      0.0000      0.0375      0.0000      0.0000
107      0.0000      0.0172      0.0182      0.0000      0.0198      0.0000      0.0000      0.0155      0.0000
108      0.0000      0.0099      0.0000      0.0000      0.0000      0.0000      0.0000      0.0000      0.0073
109      0.0000      0.0135      0.0000      0.0000      0.0000      0.0000      0.0000      0.0000      0.0000
110      0.0000      0.0184      0.0000      0.0000      0.0165      0.0000      0.0000      0.0000      0.0000
111      0.0000      0.0150      0.0752      0.0000      0.0194      0.0000      0.0000      0.0801      0.0000
112      0.0000      0.0204      0.0000      0.0000      0.0000      0.0000      0.0000      0.0000      0.0000
113      0.0000      0.0156      0.0000      0.0585      0.0149      0.0000      0.0000      0.0267      0.0000
114      0.0000      0.0208      0.0073      0.0000      0.1910      0.0000      0.0000      0.0440      0.0000
115      0.0007      0.0614      0.3070      0.0175      0.0000      0.0000      0.0000      0.0591      0.0000
116      0.0002      0.0688      0.1725      0.0000      0.0000      0.0000      0.0569      0.0000      0.0000
117      0.0000      0.0548      0.0000      0.0000      0.0000      0.0000      0.0000      0.0000      0.0803
118      0.0000      0.0508      0.0000      0.1269      0.2815      0.0000      0.0000      0.0000      0.0000
119      0.0000      0.0395      0.1051      0.0000      0.2525      0.0000      0.0000      0.0000      0.0000
120      0.0000      0.0613      0.0000      0.2676      0.1782      0.0000      0.0000      0.0000      0.0150
121      0.0000      0.0494      0.0159      0.4061      0.0000      0.0000      0.0883      0.0000      0.1065
122      0.0000      0.0388      0.0182      0.0000      0.0264      0.0000      0.0000      0.0000      0.0000
123      2.2570      2.1599      2.1639      2.2986      2.1548      2.0655      2.3436      2.0571      2.1636
124      8.8573      8.0433      8.2005      7.9560      7.9855      7.8133      8.0911      8.0670      8.0530
125     10.6077      9.6447      9.9040      9.4270      9.6613      9.8849      9.7321      9.5624      9.7801
126      0.0000      0.0162      0.0000      0.0400      0.0000      0.0000      0.0000      0.0000      0.0000
127      0.0000      0.0107      0.0000      0.0000      0.0000      0.0000      0.0000      0.0460      0.0000
128      0.0000      0.0097      0.0000      0.0000      0.0000      0.0000      0.0000      0.0000      0.0000
129      0.0000      0.0132      0.0000      0.0000      0.0000      0.0000      0.0322      0.0000      0.0000
130      0.0000      0.0124      0.0000      0.0000      0.0000      0.0462      0.0014      0.0000      0.0000
131      0.0000      0.0098      0.0000      0.0000      0.0856      0.0000      0.0000      0.0182      0.0000
132      0.0000      0.0100      0.0000      0.0000      0.0000      0.0000      0.0063      0.0000      0.0019
133      0.0000      0.0096      0.0000      0.0336      0.0000      0.0000      0.0000      0.0000      0.0000
134      0.0000      0.0117      0.0000      0.0000      0.0000      0.0000      0.0000      0.0000      0.0000
135      0.0000      0.0109      0.0000      0.0000      0.0000      0.0000      0.0000      0.0041      0.0000
136      0.0000      0.0211      0.0000      0.0000      0.0000      0.0134      0.0000      0.0000      0.0000
137      0.0000      0.0176      0.0036      0.0083      0.0000      0.0000      0.0318      0.0000      0.0595
138      0.0000      0.0148      0.0000      0.0890      0.0302      0.0000      0.1212      0.0000      0.0000
139      0.0000      0.0444      0.0000      0.2778      0.0000      0.0000      0.0000      0.2794      0.0132
140      0.0000      0.1423      0.0582      0.0320      0.0000      0.3961      0.2899      0.0000      0.0747
141      0.0000      0.0372      0.0169      0.0000      0.0000      0.0000      0.0000      0.0000      0.0000
142      0.0000      0.0359      0.0000      0.0000      0.0000      0.2342      0.0000      0.0000      0.0000
143      0.0000      0.0228      0.0000      0.0000      0.0000      0.0034      0.0000      0.0000      0.0000
144      0.7553      0.3559      0.2499      0.3302      0.3069      0.1457      0.3969      0.5062      0.3415
145      3.0379      2.2731      2.2327      2.4518      2.3805      2.3264      2.2142      2.1253      2.5899
146      6.2009      5.3310      5.5079      5.2882      5.4301      5.6718      5.2904      5.7888      5.3658
147      0.9339      0.8754      1.2214      0.9906      0.9180      0.7309      0.6189      0.8162      0.8960
148      0.0000      0.7295      0.0656      0.8182      0.8765      0.6942      0.8401      0.6912      0.6963
149      3.7071      3.8648      3.9798      3.7297      3.7509      4.0815      3.8090      3.8869      3.7593
150      5.1640      5.8269      5.8516      5.8422      5.8251      5.7788      5.8744      5.7099      5.7336

# j      m_j: min, <> & last-chain-values for 1 ...  7 chains
  1  2.6919E-03  1.3368E-02  1.2525E-02  1.2675E-02  1.2750E-02  1.3531E-02  1.3817E-02  1.3848E-02  1.3557E-02
  2  4.4016E-03  2.9651E-03  3.1227E-03  3.3593E-03  3.2983E-03  3.2177E-03  3.1828E-03  2.9479E-03  2.9914E-03
  3  3.0917E-02  2.3625E-02  2.4363E-02  2.3619E-02  2.4473E-02  2.4319E-02  2.3738E-02  2.4145E-02  2.4142E-02
  4  4.3154E-03  2.5175E-03  2.7483E-03  2.7999E-03  2.6031E-03  2.5598E-03  2.2420E-03  2.6077E-03  2.5379E-03
  5  7.0901E-03  3.1619E-03  3.6104E-03  3.5913E-03  3.3748E-03  2.9491E-03  3.2698E-03  3.8202E-03  3.0859E-03
  6  1.9176E-02  1.1485E-02  1.1732E-02  1.0975E-02  1.1260E-02  1.2514E-02  1.1772E-02  1.1738E-02  1.1953E-02
  7  1.2031E-02  9.2962E-03  9.1233E-03  9.9660E-03  8.9658E-03  8.6207E-03  9.5146E-03  9.8901E-03  9.8482E-03
  8  0.0000E+00  2.0864E-04  0.0000E+00  5.0849E-04  2.2965E-05  1.8911E-04  0.0000E+00  0.0000E+00  0.0000E+00
  9  0.0000E+00  1.3569E-04  0.0000E+00  0.0000E+00  0.0000E+00  0.0000E+00  0.0000E+00  8.1652E-04  0.0000E+00
 10  0.0000E+00  2.2067E-04  0.0000E+00  0.0000E+00  1.2752E-04  0.0000E+00  2.3785E-03  0.0000E+00  7.5893E-04
 11  0.0000E+00  2.0875E-04  0.0000E+00  0.0000E+00  0.0000E+00  0.0000E+00  4.6246E-04  0.0000E+00  0.0000E+00
 12  0.0000E+00  3.2719E-04  0.0000E+00  0.0000E+00  0.0000E+00  0.0000E+00  0.0000E+00  0.0000E+00  2.6227E-03
 13  0.0000E+00  2.9572E-04  0.0000E+00  0.0000E+00  0.0000E+00  0.0000E+00  0.0000E+00  1.4058E-03  0.0000E+00
 14  0.0000E+00  7.7746E-04  4.8971E-04  3.6209E-03  0.0000E+00  0.0000E+00  0.0000E+00  0.0000E+00  9.5864E-05
 15  0.0000E+00  5.6184E-04  0.0000E+00  0.0000E+00  0.0000E+00  0.0000E+00  0.0000E+00  0.0000E+00  0.0000E+00
 16  0.0000E+00  1.8087E-03  0.0000E+00  0.0000E+00  2.5788E-03  0.0000E+00  0.0000E+00  6.2853E-03  5.2603E-04
 17  0.0000E+00  2.0249E-03  0.0000E+00  5.7406E-03  0.0000E+00  0.0000E+00  0.0000E+00  0.0000E+00  0.0000E+00
 18  0.0000E+00  2.9491E-03  9.2335E-04  0.0000E+00  1.0156E-02  0.0000E+00  0.0000E+00  0.0000E+00  0.0000E+00
 19  0.0000E+00  6.2422E-03  1.2404E-03  2.4693E-02  0.0000E+00  1.0902E-02  0.0000E+00  9.8048E-04  0.0000E+00
 20  0.0000E+00  8.9800E-03  0.0000E+00  0.0000E+00  0.0000E+00  0.0000E+00  0.0000E+00  5.3389E-02  0.0000E+00
 21  0.0000E+00  1.0899E-02  2.5202E-03  0.0000E+00  1.7721E-02  0.0000E+00  9.3855E-03  0.0000E+00  8.0631E-03
 22  0.0000E+00  1.4012E-02  2.5156E-02  0.0000E+00  1.6244E-02  9.6440E-02  0.0000E+00  0.0000E+00  0.0000E+00
 23  0.0000E+00  1.4628E-02  0.0000E+00  0.0000E+00  4.0601E-02  0.0000E+00  8.7539E-03  0.0000E+00  9.0282E-04
 24  0.0000E+00  1.4307E-02  0.0000E+00  0.0000E+00  6.7270E-02  0.0000E+00  0.0000E+00  0.0000E+00  0.0000E+00
 25  0.0000E+00  1.7350E-02  0.0000E+00  0.0000E+00  0.0000E+00  0.0000E+00  0.0000E+00  0.0000E+00  0.0000E+00
 26  9.3713E-03  1.2700E-02  1.2545E-02  1.2571E-02  1.1715E-02  1.2832E-02  1.2611E-02  1.2192E-02  1.2521E-02
 27  0.0000E+00  2.2622E-05  0.0000E+00  0.0000E+00  0.0000E+00  0.0000E+00  0.0000E+00  0.0000E+00  1.1629E-04
 28  1.6720E-03  1.6075E-03  1.9266E-03  1.8722E-03  1.8903E-03  1.6227E-03  1.6100E-03  1.3942E-03  1.3649E-03
 29  8.9825E-04  6.7525E-04  7.5349E-04  6.3863E-04  7.4004E-04  7.1956E-04  1.0537E-03  1.1149E-03  6.2787E-04
 30  0.0000E+00  2.4408E-04  0.0000E+00  0.0000E+00  0.0000E+00  0.0000E+00  4.5091E-04  0.0000E+00  2.2945E-04
 31  0.0000E+00  6.9825E-05  0.0000E+00  0.0000E+00  0.0000E+00  0.0000E+00  0.0000E+00  4.3025E-04  0.0000E+00
 32  0.0000E+00  1.2152E-04  5.7513E-04  1.6473E-04  0.0000E+00  0.0000E+00  0.0000E+00  1.6960E-04  0.0000E+00
 33  0.0000E+00  1.2107E-04  7.2292E-04  3.5215E-04  0.0000E+00  0.0000E+00  4.2898E-05  0.0000E+00  0.0000E+00
 34  0.0000E+00  1.6281E-04  0.0000E+00  2.9524E-04  0.0000E+00  0.0000E+00  0.0000E+00  1.7639E-05  6.4436E-04
 35  0.0000E+00  1.4775E-04  1.6631E-05  4.4433E-04  9.7686E-05  0.0000E+00  0.0000E+00  0.0000E+00  0.0000E+00
 36  0.0000E+00  1.8758E-04  0.0000E+00  0.0000E+00  0.0000E+00  0.0000E+00  0.0000E+00  0.0000E+00  0.0000E+00
 37  0.0000E+00  2.4972E-04  0.0000E+00  0.0000E+00  0.0000E+00  7.2091E-04  1.7882E-03  0.0000E+00  0.0000E+00
 38  0.0000E+00  4.0281E-04  0.0000E+00  0.0000E+00  0.0000E+00  3.2569E-03  0.0000E+00  3.2826E-03  1.1698E-03
 39  0.0000E+00  6.6573E-04  0.0000E+00  1.2840E-03  0.0000E+00  8.1462E-04  0.0000E+00  0.0000E+00  8.0351E-04
 40  0.0000E+00  1.0874E-03  0.0000E+00  0.0000E+00  5.7118E-04  3.8170E-03  2.9249E-04  5.0739E-04  0.0000E+00
 41  0.0000E+00  1.5744E-03  0.0000E+00  0.0000E+00  0.0000E+00  0.0000E+00  4.2211E-03  6.0336E-03  0.0000E+00
 42  0.0000E+00  1.9625E-03  0.0000E+00  0.0000E+00  0.0000E+00  0.0000E+00  4.3127E-04  0.0000E+00  6.9872E-03
 43  0.0000E+00  7.3659E-03  0.0000E+00  0.0000E+00  0.0000E+00  0.0000E+00  0.0000E+00  0.0000E+00  9.0715E-03
 44  0.0000E+00  1.2857E-02  2.5604E-02  9.8477E-03  0.0000E+00  3.9698E-02  0.0000E+00  0.0000E+00  2.0769E-02
 45  0.0000E+00  1.0453E-02  0.0000E+00  1.7883E-02  0.0000E+00  0.0000E+00  0.0000E+00  0.0000E+00  0.0000E+00
 46  0.0000E+00  1.1618E-02  0.0000E+00  0.0000E+00  2.5409E-02  0.0000E+00  9.0073E-03  0.0000E+00  0.0000E+00
 47  0.0000E+00  1.0958E-02  0.0000E+00  0.0000E+00  0.0000E+00  2.3368E-03  0.0000E+00  0.0000E+00  0.0000E+00
 48  0.0000E+00  1.3951E-02  0.0000E+00  0.0000E+00  0.0000E+00  0.0000E+00  9.7062E-04  0.0000E+00  2.0768E-03
 49  0.0000E+00  1.8672E-02  0.0000E+00  2.2980E-02  3.0330E-03  0.0000E+00  0.0000E+00  1.0494E-02  0.0000E+00
 50  0.0000E+00  2.5519E-02  0.0000E+00  2.3631E-02  0.0000E+00  1.3687E-02  0.0000E+00  0.0000E+00  0.0000E+00
 51  5.8987E-03  1.0243E-02  1.0522E-02  1.0393E-02  1.0287E-02  1.0441E-02  9.8990E-03  9.8540E-03  1.0407E-02
 52  0.0000E+00  5.8401E-05  0.0000E+00  8.9773E-05  1.8397E-04  1.9095E-04  1.1587E-04  8.2332E-05  1.0559E-04
 53  5.0651E-04  2.2390E-03  2.1824E-03  2.1806E-03  2.2851E-03  2.0275E-03  2.0803E-03  2.1416E-03  2.2887E-03
 54  0.0000E+00  3.4726E-05  4.1441E-05  1.9244E-04  1.2564E-04  0.0000E+00  0.0000E+00  8.4001E-05  1.5483E-04
 55  0.0000E+00  6.2180E-05  0.0000E+00  0.0000E+00  0.0000E+00  0.0000E+00  0.0000E+00  1.3911E-04  5.7432E-05
 56  0.0000E+00  4.1615E-05  0.0000E+00  0.0000E+00  0.0000E+00  0.0000E+00  1.0619E-05  0.0000E+00  0.0000E+00
 57  0.0000E+00  4.6723E-05  2.5885E-05  0.0000E+00  0.0000E+00  0.0000E+00  0.0000E+00  0.0000E+00  0.0000E+00
 58  0.0000E+00  1.3174E-04  0.0000E+00  5.8808E-04  0.0000E+00  0.0000E+00  0.0000E+00  2.7149E-04  0.0000E+00
 59  0.0000E+00  1.0896E-04  0.0000E+00  0.0000E+00  0.0000E+00  0.0000E+00  0.0000E+00  0.0000E+00  0.0000E+00
 60  0.0000E+00  1.4211E-04  0.0000E+00  0.0000E+00  0.0000E+00  0.0000E+00  0.0000E+00  0.0000E+00  0.0000E+00
 61  0.0000E+00  1.5459E-04  0.0000E+00  2.5814E-04  0.0000E+00  0.0000E+00  0.0000E+00  0.0000E+00  0.0000E+00
 62  0.0000E+00  2.6097E-04  0.0000E+00  1.6200E-04  0.0000E+00  0.0000E+00  0.0000E+00  0.0000E+00  0.0000E+00
 63  0.0000E+00  6.7430E-04  2.9146E-03  0.0000E+00  1.2014E-03  1.4622E-03  0.0000E+00  0.0000E+00  0.0000E+00
 64  0.0000E+00  1.6289E-03  0.0000E+00  4.0790E-03  0.0000E+00  0.0000E+00  2.4912E-04  6.2437E-03  2.8685E-04
 65  0.0000E+00  2.6640E-03  8.5924E-03  0.0000E+00  0.0000E+00  0.0000E+00  5.1048E-03  0.0000E+00  3.3604E-03
 66  3.3980E-02  1.1497E-02  3.8242E-02  0.0000E+00  2.6855E-02  3.9561E-02  3.0588E-02  3.6973E-03  3.9062E-02
 67  0.0000E+00  7.4006E-03  0.0000E+00  1.5251E-02  4.2184E-04  0.0000E+00  1.2577E-02  6.2485E-03  6.7601E-03
 68  3.4102E-05  1.3763E-02  6.5110E-02  9.8861E-04  8.0454E-03  5.7732E-04  0.0000E+00  0.0000E+00  7.9004E-04
 69  0.0000E+00  3.5928E-02  0.0000E+00  0.0000E+00  0.0000E+00  4.4934E-02  7.7308E-02  0.0000E+00  4.6593E-02
 70  1.0695E-03  3.5402E-02  8.1774E-02  0.0000E+00  0.0000E+00  0.0000E+00  9.6890E-02  0.0000E+00  0.0000E+00
 71  4.9449E-04  5.6964E-02  2.6190E-01  8.2039E-02  6.6110E-02  3.7011E-01  0.0000E+00  2.8702E-01  1.0162E-01
 72  0.0000E+00  7.8400E-02  3.0154E-03  3.2973E-01  1.6794E-01  5.5134E-02  0.0000E+00  0.0000E+00  0.0000E+00
 73  7.9646E-01  2.0270E-01  2.9717E-01  1.5215E-01  0.0000E+00  0.0000E+00  0.0000E+00  1.9715E-01  3.0597E-01
 74  1.3825E+00  1.7706E-01  5.6043E-01  2.4112E-01  2.9859E-01  1.7947E-01  3.1336E-02  4.3974E-01  1.5622E-01
 75  0.0000E+00  2.9982E-01  0.0000E+00  5.7253E-01  4.8896E-01  3.9211E-01  8.3966E-01  2.9633E-01  4.6406E-01
 76  0.0000E+00  3.3632E-05  1.4796E-04  0.0000E+00  0.0000E+00  0.0000E+00  3.1598E-04  0.0000E+00  0.0000E+00
 77  0.0000E+00  1.8740E-05  0.0000E+00  0.0000E+00  0.0000E+00  0.0000E+00  0.0000E+00  0.0000E+00  0.0000E+00
 78  0.0000E+00  1.2600E-05  0.0000E+00  0.0000E+00  0.0000E+00  6.4186E-06  0.0000E+00  0.0000E+00  0.0000E+00
 79  0.0000E+00  3.5850E-05  0.0000E+00  0.0000E+00  2.7154E-04  7.2824E-06  0.0000E+00  0.0000E+00  0.0000E+00
 80  0.0000E+00  3.3197E-05  0.0000E+00  0.0000E+00  0.0000E+00  0.0000E+00  0.0000E+00  0.0000E+00  0.0000E+00
 81  0.0000E+00  3.6065E-05  0.0000E+00  0.0000E+00  0.0000E+00  4.8145E-07  0.0000E+00  2.7221E-05  0.0000E+00
 82  0.0000E+00  4.6404E-05  5.3192E-06  0.0000E+00  0.0000E+00  0.0000E+00  0.0000E+00  0.0000E+00  0.0000E+00
 83  0.0000E+00  5.5444E-05  0.0000E+00  0.0000E+00  0.0000E+00  0.0000E+00  0.0000E+00  0.0000E+00  0.0000E+00
 84  0.0000E+00  2.0000E-04  0.0000E+00  0.0000E+00  4.5589E-04  8.3445E-04  0.0000E+00  1.1957E-04  0.0000E+00
 85  0.0000E+00  1.6540E-04  0.0000E+00  0.0000E+00  0.0000E+00  0.0000E+00  0.0000E+00  0.0000E+00  0.0000E+00
 86  0.0000E+00  1.5674E-04  0.0000E+00  0.0000E+00  5.9958E-04  2.6684E-04  0.0000E+00  0.0000E+00  4.6789E-04
 87  0.0000E+00  2.1542E-04  8.5650E-05  0.0000E+00  0.0000E+00  3.1756E-04  0.0000E+00  0.0000E+00  1.4345E-03
 88  0.0000E+00  4.7481E-04  0.0000E+00  0.0000E+00  2.1244E-04  0.0000E+00  1.2224E-03  0.0000E+00  0.0000E+00
 89  0.0000E+00  8.9651E-04  1.2849E-03  0.0000E+00  0.0000E+00  0.0000E+00  4.5766E-03  0.0000E+00  3.9777E-03
 90  0.0000E+00  2.3410E-03  0.0000E+00  1.9740E-03  1.7166E-03  3.1781E-03  8.9307E-03  0.0000E+00  1.9319E-03
 91  1.7908E-02  9.4030E-03  1.5367E-02  1.2420E-02  0.0000E+00  1.2262E-02  0.0000E+00  3.1186E-02  3.5271E-02
 92  2.4258E-04  9.2590E-03  2.3395E-02  0.0000E+00  2.8902E-03  0.0000E+00  0.0000E+00  3.7957E-02  0.0000E+00
 93  0.0000E+00  2.1847E-02  0.0000E+00  3.7686E-02  7.8906E-02  0.0000E+00  5.5605E-02  0.0000E+00  3.0997E-03
 94  0.0000E+00  7.4199E-02  3.8779E-02  0.0000E+00  8.9305E-02  1.7225E-01  0.0000E+00  0.0000E+00  0.0000E+00
 95  6.3702E-02  2.5057E-01  3.6162E-01  2.2182E-01  1.1522E-01  3.1802E-01  2.2576E-01  4.9756E-01  2.7325E-01
 96  8.4063E-03  8.3450E-01  6.9208E-01  6.2107E-01  5.6507E-01  8.4094E-01  9.2452E-01  3.2762E-01  9.2155E-01
 97  5.0044E+00  5.9306E+00  5.7519E+00  5.6732E+00  5.9121E+00  5.9661E+00  6.0576E+00  6.2388E+00  5.7768E+00
 98  2.9022E-03  1.2976E+00  5.5271E-01  1.3179E+00  8.5772E-01  4.2000E-01  1.0174E+00  1.3361E+00  1.3248E+00
 99  0.0000E+00  7.6809E-02  6.5595E-02  5.5317E-02  0.0000E+00  4.1775E-02  5.1358E-02  6.5564E-02  0.0000E+00
100  0.0000E+00  7.6656E-02  1.0956E-01  0.0000E+00  5.0145E-01  0.0000E+00  2.6815E-01  0.0000E+00  1.4187E-03
101  0.0000E+00  3.5307E-05  0.0000E+00  0.0000E+00  0.0000E+00  0.0000E+00  0.0000E+00  0.0000E+00  0.0000E+00
102  0.0000E+00  8.7446E-06  0.0000E+00  0.0000E+00  0.0000E+00  0.0000E+00  0.0000E+00  0.0000E+00  0.0000E+00
103  0.0000E+00  1.3675E-05  1.2084E-05  2.5418E-05  0.0000E+00  0.0000E+00  0.0000E+00  0.0000E+00  0.0000E+00
104  0.0000E+00  1.9222E-05  0.0000E+00  0.0000E+00  0.0000E+00  1.0474E-06  0.0000E+00  0.0000E+00  4.3898E-06
105  0.0000E+00  8.3326E-05  1.6774E-04  0.0000E+00  9.6007E-05  0.0000E+00  0.0000E+00  1.4838E-04  1.7884E-04
106  0.0000E+00  7.9400E-05  0.0000E+00  0.0000E+00  0.0000E+00  0.0000E+00  9.7437E-05  0.0000E+00  0.0000E+00
107  0.0000E+00  5.9763E-05  6.3571E-05  0.0000E+00  6.8830E-05  0.0000E+00  0.0000E+00  5.4008E-05  0.0000E+00
108  0.0000E+00  5.7418E-05  0.0000E+00  0.0000E+00  0.0000E+00  0.0000E+00  0.0000E+00  0.0000E+00  4.2290E-05
109  0.0000E+00  9.3895E-05  0.0000E+00  0.0000E+00  0.0000E+00  0.0000E+00  0.0000E+00  0.0000E+00  0.0000E+00
110  0.0000E+00  1.5302E-04  0.0000E+00  0.0000E+00  1.3680E-04  0.0000E+00  0.0000E+00  0.0000E+00  0.0000E+00
111  0.0000E+00  1.7290E-04  8.7318E-04  0.0000E+00  2.2382E-04  0.0000E+00  0.0000E+00  9.2890E-04  0.0000E+00
112  0.0000E+00  3.0974E-04  0.0000E+00  0.0000E+00  0.0000E+00  0.0000E+00  0.0000E+00  0.0000E+00  0.0000E+00
113  0.0000E+00  3.5365E-04  0.0000E+00  1.3277E-03  3.3810E-04  0.0000E+00  0.0000E+00  6.0729E-04  0.0000E+00
114  0.0000E+00  8.3207E-04  2.9537E-04  0.0000E+00  7.6259E-03  0.0000E+00  0.0000E+00  1.7662E-03  0.0000E+00
115  5.7085E-05  4.9113E-03  2.4684E-02  1.3957E-03  0.0000E+00  0.0000E+00  0.0000E+00  4.7402E-03  0.0000E+00
116  2.0331E-05  8.8287E-03  2.2273E-02  0.0000E+00  0.0000E+00  0.0000E+00  7.2916E-03  0.0000E+00  0.0000E+00
117  0.0000E+00  8.2716E-03  0.0000E+00  0.0000E+00  0.0000E+00  0.0000E+00  0.0000E+00  0.0000E+00  1.2163E-02
118  0.0000E+00  1.5560E-02  0.0000E+00  3.8871E-02  8.6106E-02  0.0000E+00  0.0000E+00  0.0000E+00  0.0000E+00
119  0.0000E+00  2.0920E-02  5.5935E-02  0.0000E+00  1.3348E-01  0.0000E+00  0.0000E+00  0.0000E+00  0.0000E+00
120  0.0000E+00  4.6207E-02  0.0000E+00  2.0170E-01  1.3413E-01  0.0000E+00  0.0000E+00  0.0000E+00  1.1353E-02
121  0.0000E+00  4.3780E-02  1.4214E-02  3.6022E-01  0.0000E+00  0.0000E+00  7.8190E-02  0.0000E+00  9.4759E-02
122  0.0000E+00  4.6038E-02  2.1667E-02  0.0000E+00  3.1341E-02  0.0000E+00  0.0000E+00  0.0000E+00  0.0000E+00
123  3.5836E+00  3.3791E+00  3.4054E+00  3.5982E+00  3.3678E+00  3.2435E+00  3.6609E+00  3.2310E+00  3.3968E+00
124  1.6147E+01  1.4448E+01  1.4818E+01  1.4300E+01  1.4330E+01  1.4087E+01  1.4512E+01  1.4548E+01  1.4517E+01
125  2.3145E+01  2.0736E+01  2.1418E+01  2.0279E+01  2.0751E+01  2.1330E+01  2.0891E+01  2.0640E+01  2.1100E+01
126  0.0000E+00  1.8362E-05  0.0000E+00  4.5378E-05  0.0000E+00  0.0000E+00  0.0000E+00  0.0000E+00  0.0000E+00
127  0.0000E+00  6.3635E-06  0.0000E+00  0.0000E+00  0.0000E+00  0.0000E+00  0.0000E+00  2.7593E-05  0.0000E+00
128  0.0000E+00  8.6035E-06  0.0000E+00  0.0000E+00  0.0000E+00  0.0000E+00  0.0000E+00  0.0000E+00  0.0000E+00
129  0.0000E+00  2.3962E-05  0.0000E+00  0.0000E+00  0.0000E+00  0.0000E+00  5.8160E-05  0.0000E+00  0.0000E+00
130  0.0000E+00  3.0544E-05  0.0000E+00  0.0000E+00  0.0000E+00  1.1451E-04  3.4257E-06  0.0000E+00  0.0000E+00
131  0.0000E+00  2.7983E-05  0.0000E+00  0.0000E+00  2.4449E-04  0.0000E+00  0.0000E+00  5.2180E-05  0.0000E+00
132  0.0000E+00  3.8761E-05  0.0000E+00  0.0000E+00  0.0000E+00  0.0000E+00  2.4461E-05  0.0000E+00  7.3286E-06
133  0.0000E+00  5.4271E-05  0.0000E+00  1.8951E-04  0.0000E+00  0.0000E+00  0.0000E+00  0.0000E+00  0.0000E+00
134  0.0000E+00  8.3558E-05  0.0000E+00  0.0000E+00  0.0000E+00  0.0000E+00  0.0000E+00  0.0000E+00  0.0000E+00
135  0.0000E+00  9.3527E-05  0.0000E+00  0.0000E+00  0.0000E+00  0.0000E+00  0.0000E+00  3.5314E-05  0.0000E+00
136  0.0000E+00  2.6240E-04  0.0000E+00  0.0000E+00  0.0000E+00  1.6698E-04  0.0000E+00  0.0000E+00  0.0000E+00
137  0.0000E+00  2.9874E-04  6.0747E-05  1.4166E-04  0.0000E+00  0.0000E+00  5.3860E-04  0.0000E+00  1.0126E-03
138  0.0000E+00  4.1881E-04  0.0000E+00  2.5133E-03  8.5029E-04  0.0000E+00  3.4129E-03  0.0000E+00  0.0000E+00
139  0.0000E+00  2.3595E-03  0.0000E+00  1.4783E-02  0.0000E+00  0.0000E+00  0.0000E+00  1.4917E-02  7.0649E-04
140  0.0000E+00  1.7535E-02  7.2173E-03  3.9505E-03  0.0000E+00  4.9001E-02  3.5675E-02  0.0000E+00  9.2335E-03
141  0.0000E+00  7.0131E-03  3.2050E-03  0.0000E+00  0.0000E+00  0.0000E+00  0.0000E+00  0.0000E+00  0.0000E+00
142  0.0000E+00  8.0645E-03  0.0000E+00  0.0000E+00  0.0000E+00  5.2757E-02  0.0000E+00  0.0000E+00  0.0000E+00
143  0.0000E+00  1.0171E-02  0.0000E+00  0.0000E+00  0.0000E+00  1.5179E-03  0.0000E+00  0.0000E+00  0.0000E+00
144  6.7182E-01  3.1193E-01  2.2033E-01  2.8960E-01  2.6871E-01  1.2815E-01  3.4733E-01  4.4543E-01  3.0033E-01
145  4.0223E+00  2.9657E+00  2.9301E+00  3.2006E+00  3.1027E+00  3.0464E+00  2.8843E+00  2.7838E+00  3.3908E+00
146  9.8054E+00  8.3063E+00  8.6324E+00  8.2442E+00  8.4522E+00  8.8699E+00  8.2300E+00  9.0551E+00  8.3899E+00
147  1.9843E+00  1.8326E+00  2.5720E+00  2.0749E+00  1.9199E+00  1.5358E+00  1.2937E+00  1.7154E+00  1.8823E+00
148  0.0000E+00  2.0686E+00  1.8708E-01  2.3215E+00  2.4829E+00  1.9758E+00  2.3786E+00  1.9677E+00  1.9813E+00
149  1.2496E+01  1.2837E+01  1.3296E+01  1.2395E+01  1.2446E+01  1.3606E+01  1.2631E+01  1.2961E+01  1.2530E+01
150  2.0733E+01  2.3052E+01  2.3286E+01  2.3126E+01  2.3022E+01  2.2946E+01  2.3204E+01  2.2678E+01  2.2763E+01

# AV, chi2 & Mass for <> & i_chain = 1 ...  7 solutions
AV       2.5086      2.5006      2.5067      2.5039      2.5030      2.5038      2.5045      2.5055      2.5033
chi2 2.3430E+00  2.4570E+00  2.4383E+00  2.4422E+00  2.4424E+00  2.4409E+00  2.4460E+00  2.4431E+00  2.4434E+00
Mass 2.9742E-09  2.9864E-09  2.9934E-09  2.9978E-09  2.9989E-09  2.9880E-09  3.0069E-09  2.9943E-09  2.9866E-09
 -22.53                                  [v0_min (km/s) before EX0s...]
   0.00                                  [vd_min (km/s) before EX0s...]


## Synthetic spectrum (Best Model) ##l_obs f_obs f_syn wei
 3070    [Nl_obs]
 3359.00    0.00000   0.48393   -2.000
 3360.00    0.16961   0.47516   -1.000
 3361.00    0.31588   0.48172   -1.000
 3362.00    0.33110   0.50231   -1.000
 3363.00    0.30074   0.52401   -1.000
 3364.00    0.30274   0.53584   -1.000
 3365.00    0.29882   0.53044   -1.000
 3366.00    0.33880   0.51417   -1.000
 3367.00    0.32936   0.49856   -1.000
 3368.00    0.36956   0.48600   -1.000
 3369.00    0.33951   0.48161   -1.000
 3370.00    0.29419   0.48069   -1.000
 3371.00    0.32881   0.47984   -1.000
 3372.00    0.40463   0.48395   -1.000
 3373.00    0.44645   0.49859   58.269
 3374.00    0.40387   0.51878   -1.000
 3375.00    0.38657   0.53861   -1.000
 3376.00    0.36557   0.54698   -1.000
 3377.00    0.30475   0.53894   -1.000
 3378.00    0.30980   0.52369   -1.000
 3379.00    0.39962   0.51257   -1.000
 3380.00    0.43560   0.51173   -1.000
 3381.00    0.40264   0.52120   -1.000
 3382.00    0.39636   0.53106   -1.000
 3383.00    0.37368   0.53869   -1.000
 3384.00    0.42233   0.54287   -1.000
 3385.00    0.45852   0.54964   -1.000
 3386.00    0.43942   0.55348   -1.000
 3387.00    0.40275   0.55475   -1.000
 3388.00    0.40090   0.55347   -1.000
 3389.00    0.38440   0.55011   -1.000
 3390.00    0.40660   0.54508   -1.000
 3391.00    0.41882   0.53640   -1.000
 3392.00    0.43707   0.53151   -1.000
 3393.00    0.41719   0.53480   -1.000
 3394.00    0.41446   0.54740   -1.000
 3395.00    0.42142   0.56051   -1.000
 3396.00    0.43735   0.56787   -1.000
 3397.00    0.46867   0.57496   -1.000
 3398.00    0.41044   0.57872   -1.000
 3399.00    0.40940   0.57432   -1.000
 3400.00    0.47625   0.56830   -1.000
 3401.00    0.51639   0.56152   32.853
 3402.00    0.52456   0.55098   34.043
 3403.00    0.53429   0.54432   34.656
 3404.00    0.52795   0.54119   35.205
 3405.00    0.56971   0.53810   35.844
 3406.00    0.57989   0.53300   36.443
 3407.00    0.50262   0.52961   36.704
 3408.00    0.46653   0.53124   37.199
 3409.00    0.39888   0.53694   -1.000
 3410.00    0.43732   0.54267   -1.000
 3411.00    0.54507   0.53736   36.408
 3412.00    0.57078   0.52798   35.940
 3413.00    0.53227   0.51949   37.089
 3414.00    0.46604   0.51720   37.989
 3415.00    0.45201   0.52536   38.071
 3416.00    0.46951   0.53812   37.304
 3417.00    0.53557   0.55458   35.839
 3418.00    0.53278   0.56806   34.173
 3419.00    0.49339   0.57986   32.467
 3420.00    0.48831   0.58227   32.000
 3421.00    0.55243   0.57575   31.805
 3422.00    0.53934   0.56312   31.907
 3423.00    0.50279   0.55761   32.680
 3424.00    0.51498   0.55649   33.474
 3425.00    0.46967   0.55851   32.887
 3426.00    0.49970   0.56161   31.996
 3427.00    0.55863   0.56750   31.675
 3428.00    0.53859   0.58094   -1.000
 3429.00    0.50649   0.59319   -1.000
 3430.00    0.47049   0.58879   -1.000
 3431.00    0.49987   0.57576   -1.000
 3432.00    0.46146   0.56044   -1.000
 3433.00    0.46583   0.55618   -1.000
 3434.00    0.52550   0.56309   31.601
 3435.00    0.50414   0.56955   -1.000
 3436.00    0.49257   0.56843   -1.000
 3437.00    0.52381   0.55781   40.127
 3438.00    0.55225   0.53986   32.667
 3439.00    0.49589   0.51698   34.536
 3440.00    0.48949   0.49698   37.132
 3441.00    0.48803   0.48623   38.977
 3442.00    0.44818   0.49006   39.384
 3443.00    0.45819   0.50127   39.265
 3444.00    0.50388   0.51247   38.013
 3445.00    0.51162   0.51945   36.052
 3446.00    0.50392   0.52905   34.059
 3447.00    0.48695   0.54088   32.718
 3448.00    0.48566   0.55782   -1.000
 3449.00    0.54752   0.56960   -1.000
 3450.00    0.55431   0.56363  280.421
 3451.00    0.56915   0.54966   -1.000
 3452.00    0.56839   0.54155   -1.000
 3453.00    0.54791   0.54261  280.421
 3454.00    0.56434   0.55176   -1.000
 3455.00    0.59199   0.55612   -1.000
 3456.00    0.53745   0.55124   -1.000
 3457.00    0.50401   0.53886   -1.000
 3458.00    0.51847   0.52411  280.421
 3459.00    0.57264   0.51614   40.308
 3460.00    0.54728   0.51219   31.963
 3461.00    0.55120   0.51789   31.899
 3462.00    0.59676   0.53554   -1.000
 3463.00    0.55479   0.55582  280.421
 3464.00    0.52719   0.55270   -1.000
 3465.00    0.50446   0.54883   -1.000
 3466.00    0.51832   0.54860   -1.000
 3467.00    0.54736   0.55451  280.421
 3468.00    0.58028   0.56577   -1.000
 3469.00    0.59662   0.57460   -1.000
 3470.00    0.54049   0.57531   -1.000
 3471.00    0.52558   0.56288   -1.000
 3472.00    0.49715   0.54980   -1.000
 3473.00    0.47497   0.53606   -1.000
 3474.00    0.51802   0.52104  280.421
 3475.00    0.57008   0.51013   40.676
 3476.00    0.52079   0.51041   32.810
 3477.00    0.45910   0.51621   32.539
 3478.00    0.49995   0.52672  100.096
 3479.00    0.51308   0.53795   -1.000
 3480.00    0.54009   0.54745  273.299
 3481.00    0.57512   0.54887   -1.000
 3482.00    0.56589   0.54066   -1.000
 3483.00    0.57552   0.53244   -1.000
 3484.00    0.58898   0.53645   -1.000
 3485.00    0.64592   0.55274   -1.000
 3486.00    0.63221   0.56632   -1.000
 3487.00    0.65155   0.57163   -1.000
 3488.00    0.65408   0.56293   -1.000
 3489.00    0.54680   0.54547  274.925
 3490.00    0.48582   0.53037   -1.000
 3491.00    0.48822   0.52925   -1.000
 3492.00    0.50444   0.53912   -1.000
 3493.00    0.52258   0.54829   -1.000
 3494.00    0.58526   0.55179   -1.000
 3495.00    0.55758   0.54408   -1.000
 3496.00    0.53266   0.53526  280.421
 3497.00    0.53030   0.54005  280.421
 3498.00    0.52980   0.56026   -1.000
 3499.00    0.57604   0.57976  270.468
 3500.00    0.62761   0.58193   -1.000
 3501.00    0.63510   0.58048   -1.000
 3502.00    0.63071   0.58628   -1.000
 3503.00    0.62452   0.59034   -1.000
 3504.00    0.59258   0.58566  250.383
 3505.00    0.57826   0.57464  254.506
 3506.00    0.58517   0.56841   -1.000
 3507.00    0.58702   0.56889   -1.000
 3508.00    0.61674   0.56725   -1.000
 3509.00    0.59911   0.55936   -1.000
 3510.00    0.61570   0.55125   -1.000
 3511.00    0.62220   0.54292   -1.000
 3512.00    0.56847   0.53452   -1.000
 3513.00    0.53430   0.52681   -1.000
 3514.00    0.55682   0.52791   -1.000
 3515.00    0.57225   0.54420   -1.000
 3516.00    0.56586   0.56916  273.837
 3517.00    0.61041   0.58574   -1.000
 3518.00    0.59025   0.58960  251.139
 3519.00    0.56332   0.57832   -1.000
 3520.00    0.59011   0.56083   -1.000
 3521.00    0.58483   0.54261   -1.000
 3522.00    0.53279   0.53093  280.421
 3523.00    0.49613   0.52004   -1.000
 3524.00    0.51854   0.51160   40.505
 3525.00    0.55713   0.50772   32.482
 3526.00    0.54679   0.51911   32.596
 3527.00    0.54646   0.53974   99.973
 3528.00    0.59841   0.56320   -1.000
 3529.00    0.63559   0.57707   -1.000
 3530.00    0.60790   0.57874   -1.000
 3531.00    0.58931   0.57423   -1.000
 3532.00    0.55605   0.57529   -1.000
 3533.00    0.56338   0.57925   -1.000
 3534.00    0.58888   0.58443  263.515
 3535.00    0.56963   0.58838   -1.000
 3536.00    0.55681   0.58794   -1.000
 3537.00    0.57781   0.58878  254.036
 3538.00    0.56052   0.59530   -1.000
 3539.00    0.58683   0.59925   -1.000
 3540.00    0.58138   0.59846   -1.000
 3541.00    0.57900   0.59246   -1.000
 3542.00    0.55015   0.59096   -1.000
 3543.00    0.55019   0.59607   -1.000
 3544.00    0.61009   0.60270  252.883
 3545.00    0.62226   0.60447   -1.000
 3546.00    0.61145   0.59867   -1.000
 3547.00    0.56195   0.59621   -1.000
 3548.00    0.56685   0.59710   -1.000
 3549.00    0.57683   0.59731   -1.000
 3550.00    0.56907   0.59357   -1.000
 3551.00    0.53240   0.58682   -1.000
 3552.00    0.49968   0.57873   -1.000
 3553.00    0.51735   0.57168   -1.000
 3554.00    0.52364   0.57061   -1.000
 3555.00    0.56892   0.57351  280.421
 3556.00    0.58304   0.57578  277.087
 3557.00    0.58574   0.57685  276.539
 3558.00    0.55416   0.57407   -1.000
 3559.00    0.53073   0.57426   -1.000
 3560.00    0.54800   0.58075   -1.000
 3561.00    0.56792   0.59076   -1.000
 3562.00    0.59438   0.59436  275.399
 3563.00    0.57904   0.58083  275.626
 3564.00    0.52369   0.55673   -1.000
 3565.00    0.51140   0.53529   40.985
 3566.00    0.50666   0.52995   32.925
 3567.00    0.53530   0.52943   32.956
 3568.00    0.51702   0.52698   32.721
 3569.00    0.48802   0.51787   33.524
 3570.00    0.50085   0.50848   34.274
 3571.00    0.48951   0.50901   33.595
 3572.00    0.47714   0.52135   32.189
 3573.00    0.52929   0.53039   97.604
 3574.00    0.54481   0.53606   -1.000
 3575.00    0.54705   0.53972  280.421
 3576.00    0.52687   0.53881  280.421
 3577.00    0.54331   0.52980   -1.000
 3578.00    0.54401   0.51556   -1.000
 3579.00    0.50063   0.49748   42.448
 3580.00    0.47866   0.48643   34.968
 3581.00    0.46806   0.48182   37.109
 3582.00    0.50370   0.48435   37.779
 3583.00    0.49709   0.48907   37.951
 3584.00    0.48192   0.48931   38.716
 3585.00    0.47708   0.48301   39.926
 3586.00    0.46870   0.47942   40.674
 3587.00    0.47736   0.48411   39.219
 3588.00    0.48856   0.49634   37.145
 3589.00    0.51213   0.51642   35.306
 3590.00    0.53123   0.53864   32.468
 3591.00    0.53363   0.55438   96.011
 3592.00    0.52515   0.55699   -1.000
 3593.00    0.50801   0.55836   -1.000
 3594.00    0.53840   0.56470   -1.000
 3595.00    0.54823   0.57837   -1.000
 3596.00    0.56744   0.59229   -1.000
 3597.00    0.58640   0.59996   -1.000
 3598.00    0.58767   0.60845   -1.000
 3599.00    0.59111   0.61699   -1.000
 3600.00    0.57816   0.61609   -1.000
 3601.00    0.60284   0.60081  248.825
 3602.00    0.59847   0.57960   -1.000
 3603.00    0.58999   0.55848   -1.000
 3604.00    0.53960   0.54856  280.421
 3605.00    0.53573   0.54790  280.421
 3606.00    0.57443   0.54711   -1.000
 3607.00    0.53858   0.54018  280.421
 3608.00    0.50662   0.53230   -1.000
 3609.00    0.53632   0.53141   -1.000
 3610.00    0.57884   0.53955   -1.000
 3611.00    0.57476   0.55264   -1.000
 3612.00    0.53752   0.56223   -1.000
 3613.00    0.51540   0.57011   -1.000
 3614.00    0.56235   0.57832   -1.000
 3615.00    0.61971   0.58463   -1.000
 3616.00    0.64333   0.57856   -1.000
 3617.00    0.60788   0.55516   -1.000
 3618.00    0.54092   0.52946   -1.000
 3619.00    0.50779   0.52784   40.630
 3620.00    0.51775   0.54297   95.078
 3621.00    0.55420   0.57176   -1.000
 3622.00    0.60860   0.59484   -1.000
 3623.00    0.61042   0.60728  249.589
 3624.00    0.61726   0.61849  245.853
 3625.00    0.62053   0.63726   -1.000
 3626.00    0.62893   0.65611   -1.000
 3627.00    0.68466   0.66302   -1.000
 3628.00    0.72986   0.64831   -1.000
 3629.00    0.69478   0.61395   -1.000
 3630.00    0.60058   0.57424   -1.000
 3631.00    0.54787   0.55258  280.421
 3632.00    0.55555   0.54724   -1.000
 3633.00    0.55973   0.56039  280.421
 3634.00    0.55679   0.57842   -1.000
 3635.00    0.56214   0.59035   -1.000
 3636.00    0.55593   0.59336   -1.000
 3637.00    0.58615   0.60462   -1.000
 3638.00    0.62913   0.62196  239.129
 3639.00    0.61978   0.63503   -1.000
 3640.00    0.60329   0.64067   -1.000
 3641.00    0.60955   0.63364   -1.000
 3642.00    0.66911   0.61741   -1.000
 3643.00    0.68692   0.59848   -1.000
 3644.00    0.65513   0.58171   -1.000
 3645.00    0.62122   0.57009   -1.000
 3646.00    0.57568   0.55969   -1.000
 3647.00    0.58845   0.55178   -1.000
 3648.00    0.60719   0.55504   -1.000
 3649.00    0.60504   0.56786   -1.000
 3650.00    0.57616   0.58874  260.652
 3651.00    0.57731   0.61036   -1.000
 3652.00    0.60903   0.62990   -1.000
 3653.00    0.62614   0.63722   -1.000
 3654.00    0.67686   0.64282   -1.000
 3655.00    0.71190   0.65013   -1.000
 3656.00    0.64305   0.66035   -1.000
 3657.00    0.64722   0.67129   -1.000
 3658.00    0.68711   0.67690  217.734
 3659.00    0.67372   0.67812  217.018
 3660.00    0.67606   0.67288  217.077
 3661.00    0.70727   0.66355   -1.000
 3662.00    0.67220   0.65242   -1.000
 3663.00    0.64503   0.64728  224.753
 3664.00    0.65976   0.64635  226.995
 3665.00    0.67021   0.64805   -1.000
 3666.00    0.68295   0.64647   -1.000
 3667.00    0.64991   0.63815  228.373
 3668.00    0.60644   0.62739   -1.000
 3669.00    0.60977   0.62271   -1.000
 3670.00    0.64965   0.63153   -1.000
 3671.00    0.64938   0.64552  229.448
 3672.00    0.61901   0.65595   -1.000
 3673.00    0.62246   0.65966   -1.000
 3674.00    0.65756   0.65701  221.986
 3675.00    0.65952   0.64823  222.366
 3676.00    0.64642   0.63377  227.727
 3677.00    0.65662   0.61426   -1.000
 3678.00    0.64523   0.59628   -1.000
 3679.00    0.63915   0.58742   -1.000
 3680.00    0.68051   0.59242   -1.000
 3681.00    0.62997   0.60660   -1.000
 3682.00    0.63322   0.62021  237.319
 3683.00    0.64291   0.62377   -1.000
 3684.00    0.62757   0.61337  237.819
 3685.00    0.58444   0.59449  246.686
 3686.00    0.58652   0.57408   -1.000
 3687.00    0.59197   0.57066   -1.000
 3688.00    0.58998   0.58634  258.358
 3689.00    0.59647   0.61808   -1.000
 3690.00    0.64410   0.64757  227.209
 3691.00    0.68672   0.66266   -1.000
 3692.00    0.67348   0.65667  218.108
 3693.00    0.65066   0.64371  223.159
 3694.00    0.69454   0.63505   -1.000
 3695.00    0.70250   0.63298   -1.000
 3696.00    0.64701   0.63808  225.170
 3697.00    0.65190   0.64951  222.584
 3698.00    0.67660   0.66737  216.328
 3699.00    0.69061   0.68269  210.429
 3700.00    0.72192   0.68954   -1.000
 3701.00    0.70980   0.67567   -1.000
 3702.00    0.67989   0.64224   -1.000
 3703.00    0.73456   0.59621   -1.000
 3704.00    0.69645   0.55913   -1.000
 3705.00    0.58722   0.53821   -1.000
 3706.00    0.58143   0.54193   -1.000
 3707.00    0.54967   0.55128  270.216
 3708.00    0.53848   0.56126   -1.000
 3709.00    0.57636   0.57470  259.125
 3710.00    0.65126   0.59460   -1.000
 3711.00    0.71235   0.61645   -1.000
 3712.00    0.70346   0.64007   -1.000
 3713.00    0.70165   0.66006   -1.000
 3714.00    0.69778   0.67089   -1.000
 3715.00    0.68456   0.66967  204.692
 3716.00    0.66164   0.65322  208.657
 3717.00    0.66133   0.62290   -1.000
 3718.00    0.63764   0.58362   -1.000
 3719.00    0.55339   0.53642   -1.000
 3720.00    0.49561   0.49688  280.421
 3721.00    0.47547   0.49073   41.778
 3722.00    0.47759   0.50986   95.016
 3723.00    0.53135   0.54711   -1.000
 3724.00    0.58677   0.58749  244.229
 3725.00    0.61013   0.61130  230.531
 3726.00    0.63866   0.61002   -1.000
 3727.00    0.66020   0.60454   -1.000
 3728.00    0.61831   0.60796  239.194
 3729.00    0.61583   0.61164  236.615
 3730.00    0.64472   0.60498   -1.000
 3731.00    0.61904   0.57601   -1.000
 3732.00    0.56633   0.53020   -1.000
 3733.00    0.52113   0.48855   40.914
 3734.00    0.51806   0.45623   34.268
 3735.00    0.47943   0.44943   36.302
 3736.00    0.45101   0.46901   35.247
 3737.00    0.48196   0.50953   32.280
 3738.00    0.52787   0.55485   91.707
 3739.00    0.58258   0.60044   -1.000
 3740.00    0.63533   0.62417   -1.000
 3741.00    0.63265   0.62404  235.043
 3742.00    0.63177   0.60224   -1.000
 3743.00    0.61715   0.57502   -1.000
 3744.00    0.56525   0.55109   -1.000
 3745.00    0.53555   0.53713  280.421
 3746.00    0.54308   0.51852   -1.000
 3747.00    0.52013   0.49465   41.672
 3748.00    0.48469   0.47383   33.480
 3749.00    0.47467   0.46581   34.306
 3750.00    0.50594   0.48749  100.526
 3751.00    0.53923   0.53076  280.421
 3752.00    0.56738   0.57595  250.495
 3753.00    0.62590   0.61651  230.083
 3754.00    0.66393   0.64667   -1.000
 3755.00    0.68675   0.64912   -1.000
 3756.00    0.68659   0.62591   -1.000
 3757.00    0.64331   0.58830   -1.000
 3758.00    0.60103   0.56095   -1.000
 3759.00    0.58531   0.55944   -1.000
 3760.00    0.60964   0.57033   -1.000
 3761.00    0.63078   0.58253   -1.000
 3762.00    0.60297   0.58931   -1.000
 3763.00    0.56953   0.59078   -1.000
 3764.00    0.57923   0.58867  240.040
 3765.00    0.57449   0.58146  242.077
 3766.00    0.56902   0.57186  247.468
 3767.00    0.56823   0.56673  251.062
 3768.00    0.56808   0.56416  248.681
 3769.00    0.59588   0.56225   -1.000
 3770.00    0.64005   0.56342   -1.000
 3771.00    0.67185   0.57616   -1.000
 3772.00    0.66415   0.59993   -1.000
 3773.00    0.66612   0.62423   -1.000
 3774.00    0.67976   0.63651   -1.000
 3775.00    0.70842   0.64226   -1.000
 3776.00    0.67739   0.64723   -1.000
 3777.00    0.66050   0.65585  217.276
 3778.00    0.70741   0.66816   -1.000
 3779.00    0.72202   0.67992   -1.000
 3780.00    0.71901   0.69045   -1.000
 3781.00    0.75177   0.69744   -1.000
 3782.00    0.71114   0.70162  199.748
 3783.00    0.71253   0.69895  199.537
 3784.00    0.70731   0.68469   -1.000
 3785.00    0.68428   0.66020   -1.000
 3786.00    0.64038   0.63159  227.284
 3787.00    0.63538   0.60620   -1.000
 3788.00    0.58877   0.59310  246.463
 3789.00    0.58713   0.59583  247.412
 3790.00    0.61560   0.60472   -1.000
 3791.00    0.60853   0.61077  241.002
 3792.00    0.63748   0.60672   -1.000
 3793.00    0.62563   0.58868   -1.000
 3794.00    0.59448   0.56628   -1.000
 3795.00    0.55628   0.54264   -1.000
 3796.00    0.57093   0.51764   -1.000
 3797.00    0.59493   0.49296   -1.000
 3798.00    0.53352   0.48415   -1.000
 3799.00    0.52573   0.50583   -1.000
 3800.00    0.54235   0.55344  265.350
 3801.00    0.57986   0.60015   -1.000
 3802.00    0.61535   0.63597   -1.000
 3803.00    0.61541   0.65385   -1.000
 3804.00    0.61136   0.65802   -1.000
 3805.00    0.58959   0.64790   -1.000
 3806.00    0.58392   0.63307   -1.000
 3807.00    0.58890   0.62955   -1.000
 3808.00    0.58579   0.64263   -1.000
 3809.00    0.61519   0.65985   -1.000
 3810.00    0.65793   0.66870  221.327
 3811.00    0.65042   0.65883  224.012
 3812.00    0.60630   0.63325   -1.000
 3813.00    0.57373   0.60478   -1.000
 3814.00    0.57540   0.58040  263.508
 3815.00    0.54940   0.57080   -1.000
 3816.00    0.54340   0.57305   -1.000
 3817.00    0.55261   0.57757   -1.000
 3818.00    0.53154   0.56863   -1.000
 3819.00    0.52516   0.54904   -1.000
 3820.00    0.53400   0.53762  280.421
 3821.00    0.53232   0.54281  280.421
 3822.00    0.51855   0.55877   -1.000
 3823.00    0.52729   0.55898   -1.000
 3824.00    0.52825   0.54192  280.421
 3825.00    0.47757   0.52551   43.330
 3826.00    0.44179   0.51820   33.557
 3827.00    0.43848   0.52408   33.515
 3828.00    0.44444   0.53233   33.028
 3829.00    0.47942   0.53517   32.485
 3830.00    0.47732   0.52981   32.656
 3831.00    0.45532   0.51241   33.881
 3832.00    0.45524   0.48661   36.312
 3833.00    0.46885   0.46079   37.894
 3834.00    0.43353   0.44462   37.600
 3835.00    0.44379   0.44363   36.250
 3836.00    0.47664   0.45563   35.286
 3837.00    0.47822   0.47022   35.662
 3838.00    0.48317   0.48252   36.513
 3839.00    0.45450   0.49747   36.239
 3840.00    0.45654   0.51805   34.491
 3841.00    0.51223   0.54757   97.711
 3842.00    0.53023   0.57846   -1.000
 3843.00    0.53109   0.60764   -1.000
 3844.00    0.55845   0.62344   -1.000
 3845.00    0.59556   0.62916   -1.000
 3846.00    0.62128   0.62808  256.105
 3847.00    0.62724   0.62573  256.434
 3848.00    0.58923   0.61867   -1.000
 3849.00    0.54886   0.61113   -1.000
 3850.00    0.52734   0.60796   -1.000
 3851.00    0.56842   0.61574   -1.000
 3852.00    0.59173   0.62360   -1.000
 3853.00    0.55562   0.62231   -1.000
 3854.00    0.52613   0.61190   -1.000
 3855.00    0.53725   0.60046   -1.000
 3856.00    0.55920   0.58940   -1.000
 3857.00    0.54984   0.57466   -1.000
 3858.00    0.53517   0.56318   41.135
 3859.00    0.53126   0.56189   32.732
 3860.00    0.51608   0.57293   32.700
 3861.00    0.54234   0.59829   -1.000
 3862.00    0.55455   0.62016   -1.000
 3863.00    0.59348   0.62820   -1.000
 3864.00    0.62779   0.62262  251.183
 3865.00    0.60576   0.61492  255.464
 3866.00    0.58483   0.61263   -1.000
 3867.00    0.56786   0.61392   -1.000
 3868.00    0.56307   0.61287   -1.000
 3869.00    0.56046   0.60433   -1.000
 3870.00    0.54234   0.58896   -1.000
 3871.00    0.52009   0.57986   41.778
 3872.00    0.50429   0.58115   -1.000
 3873.00    0.56673   0.59828   -1.000
 3874.00    0.61210   0.62236  259.146
 3875.00    0.61319   0.63695   -1.000
 3876.00    0.61549   0.62372  249.502
 3877.00    0.57791   0.60216   -1.000
 3878.00    0.54164   0.59064   -1.000
 3879.00    0.53371   0.59045   -1.000
 3880.00    0.54617   0.59765   -1.000
 3881.00    0.55229   0.60098   -1.000
 3882.00    0.55212   0.60284   -1.000
 3883.00    0.57669   0.60764   -1.000
 3884.00    0.61023   0.60225  254.814
 3885.00    0.59426   0.57360   -1.000
 3886.00    0.53702   0.53601  266.104
 3887.00    0.50392   0.50431  272.391
 3888.00    0.53527   0.49847   -1.000
 3889.00    0.58686   0.52038   -1.000
 3890.00    0.60829   0.56752   -1.000
 3891.00    0.65171   0.62123   -1.000
 3892.00    0.67025   0.65961  214.589
 3893.00    0.67745   0.66984  213.410
 3894.00    0.68435   0.66630   -1.000
 3895.00    0.68044   0.66690   -1.000
 3896.00    0.69248   0.67218   -1.000
 3897.00    0.70352   0.67808   -1.000
 3898.00    0.69912   0.67723   -1.000
 3899.00    0.70823   0.67291   -1.000
 3900.00    0.72100   0.67665   -1.000
 3901.00    0.73713   0.68354   -1.000
 3902.00    0.72192   0.68472   -1.000
 3903.00    0.71291   0.67782   -1.000
 3904.00    0.69733   0.66880   -1.000
 3905.00    0.68504   0.66509   -1.000
 3906.00    0.67997   0.67113   -1.000
 3907.00    0.69008   0.69403  218.075
 3908.00    0.72140   0.72259  203.714
 3909.00    0.74468   0.74254  196.646
 3910.00    0.74072   0.75024  194.207
 3911.00    0.74336   0.75673  192.396
 3912.00    0.73132   0.75773   -1.000
 3913.00    0.75315   0.75240  192.492
 3914.00    0.76481   0.74438   -1.000
 3915.00    0.74767   0.73791  200.597
 3916.00    0.75735   0.72963   -1.000
 3917.00    0.72802   0.71697  206.373
 3918.00    0.69257   0.69725  211.590
 3919.00    0.67798   0.67316  220.195
 3920.00    0.67583   0.65456   -1.000
 3921.00    0.66630   0.64473   -1.000
 3922.00    0.65233   0.64798  236.523
 3923.00    0.63352   0.65401   -1.000
 3924.00    0.64032   0.65694   -1.000
 3925.00    0.64822   0.65043  242.081
 3926.00    0.59788   0.62830   -1.000
 3927.00    0.57117   0.59898   -1.000
 3928.00    0.53881   0.56699   46.103
 3929.00    0.49106   0.54114   39.181
 3930.00    0.44081   0.51459   45.867
 3931.00    0.42194   0.47685   54.103
 3932.00    0.40115   0.42537   63.512
 3933.00    0.40105   0.38684   70.748
 3934.00    0.37556   0.40218   70.174
 3935.00    0.39362   0.44992   62.352
 3936.00    0.40330   0.49596   -1.000
 3937.00    0.44160   0.53866   -1.000
 3938.00    0.50000   0.58012   35.826
 3939.00    0.55955   0.61006   -1.000
 3940.00    0.60430   0.63297   -1.000
 3941.00    0.61531   0.64181   -1.000
 3942.00    0.61953   0.63775  268.937
 3943.00    0.60606   0.63676   -1.000
 3944.00    0.62386   0.64767   -1.000
 3945.00    0.65958   0.66488  236.835
 3946.00    0.68526   0.68577  221.072
 3947.00    0.70904   0.69974  216.046
 3948.00    0.71000   0.70898  214.340
 3949.00    0.71652   0.72230  208.027
 3950.00    0.74170   0.73393  200.962
 3951.00    0.76817   0.73443   -1.000
 3952.00    0.76613   0.73478   -1.000
 3953.00    0.74545   0.74061  200.536
 3954.00    0.77338   0.74548   -1.000
 3955.00    0.79869   0.74069   -1.000
 3956.00    0.75673   0.72722   -1.000
 3957.00    0.75691   0.71776   -1.000
 3958.00    0.76519   0.71443   -1.000
 3959.00    0.73180   0.69916   -1.000
 3960.00    0.69214   0.66379   -1.000
 3961.00    0.64236   0.62631   -1.000
 3962.00    0.59382   0.59455  280.421
 3963.00    0.57125   0.57626  280.421
 3964.00    0.54547   0.55638   43.608
 3965.00    0.51543   0.52079   36.887
 3966.00    0.46953   0.46516   44.852
 3967.00    0.41381   0.39521   55.037
 3968.00    0.35751   0.34799   62.654
 3969.00    0.36102   0.34596   60.908
 3970.00    0.41410   0.38152   51.619
 3971.00    0.46119   0.43743   42.421
 3972.00    0.49884   0.50294   35.340
 3973.00    0.54491   0.56310   93.803
 3974.00    0.58602   0.61717   -1.000
 3975.00    0.65210   0.66061  238.335
 3976.00    0.70349   0.69868  218.444
 3977.00    0.72824   0.73098  204.542
 3978.00    0.76699   0.76011  193.505
 3979.00    0.80914   0.78509   -1.000
 3980.00    0.83644   0.79404   -1.000
 3981.00    0.84117   0.79353   -1.000
 3982.00    0.84549   0.78571   -1.000
 3983.00    0.85119   0.78458   -1.000
 3984.00    0.86630   0.79623   -1.000
 3985.00    0.87341   0.81052   -1.000
 3986.00    0.86625   0.81968   -1.000
 3987.00    0.87547   0.83041   -1.000
 3988.00    0.91664   0.84381   -1.000
 3989.00    0.92618   0.84557   -1.000
 3990.00    0.90718   0.84863   -1.000
 3991.00    0.91961   0.85823   -1.000
 3992.00    0.93114   0.87067   -1.000
 3993.00    0.94823   0.87552   -1.000
 3994.00    0.93671   0.86741   -1.000
 3995.00    0.88427   0.85006   -1.000
 3996.00    0.86827   0.83502   -1.000
 3997.00    0.87635   0.83548   -1.000
 3998.00    0.89031   0.84988   -1.000
 3999.00    0.95371   0.87215   -1.000
 4000.00    0.99135   0.89085   -1.000
 4001.00    0.99870   0.90497   -1.000
 4002.00    1.00590   0.90552   -1.000
 4003.00    0.98632   0.88730   -1.000
 4004.00    0.93477   0.85212   -1.000
 4005.00    0.90137   0.82755   -1.000
 4006.00    0.88191   0.83062   -1.000
 4007.00    0.92340   0.86085   -1.000
 4008.00    0.97791   0.89353   -1.000
 4009.00    0.97308   0.90751   -1.000
 4010.00    0.97192   0.91475   -1.000
 4011.00    0.99256   0.92049   -1.000
 4012.00    1.02044   0.92419   -1.000
 4013.00    0.98853   0.93096   -1.000
 4014.00    1.01610   0.93761   -1.000
 4015.00    1.06318   0.93879   -1.000
 4016.00    1.02641   0.93773   -1.000
 4017.00    0.99724   0.93967   -1.000
 4018.00    1.00000   0.94720   -1.000
 4019.00    0.99470   0.95556   -1.000
 4020.00    1.02671   0.95717   -1.000
 4021.00    1.05296   0.94860   -1.000
 4022.00    1.04137   0.93816   -1.000
 4023.00    1.03295   0.92446   -1.000
 4024.00    1.02557   0.91117   -1.000
 4025.00    1.03062   0.91021   -1.000
 4026.00    1.02056   0.93136   -1.000
 4027.00    1.04675   0.95782   -1.000
 4028.00    1.06512   0.96187   -1.000
 4029.00    1.03887   0.92732   -1.000
 4030.00    0.97011   0.87544   -1.000
 4031.00    0.89612   0.83484   -1.000
 4032.00    0.87479   0.81701   -1.000
 4033.00    0.90115   0.82335   -1.000
 4034.00    0.91751   0.85151   -1.000
 4035.00    0.93758   0.89876   -1.000
 4036.00    0.97201   0.94983  148.289
 4037.00    1.06047   0.98984   -1.000
 4038.00    1.10383   1.00130   -1.000
 4039.00    1.05516   0.98988   -1.000
 4040.00    0.99833   0.97385  146.359
 4041.00    1.02300   0.96601   -1.000
 4042.00    1.05335   0.94385   -1.000
 4043.00    0.99195   0.89513   -1.000
 4044.00    0.91869   0.82996   -1.000
 4045.00    0.83030   0.78792   -1.000
 4046.00    0.81089   0.80763  180.094
 4047.00    0.89258   0.86972   -1.000
 4048.00    0.96060   0.93228   -1.000
 4049.00    1.02032   0.97527   -1.000
 4050.00    1.05747   0.99067   -1.000
 4051.00    1.06078   0.99098   -1.000
 4052.00    1.03175   0.97840   -1.000
 4053.00    1.01363   0.95891   -1.000
 4054.00    0.99863   0.94202   -1.000
 4055.00    0.98831   0.92947   -1.000
 4056.00    0.93933   0.91735   -1.000
 4057.00    0.88301   0.91088   -1.000
 4058.00    0.89340   0.92185   -1.000
 4059.00    0.95511   0.94121  153.971
 4060.00    1.01356   0.94739   -1.000
 4061.00    1.00634   0.91864   -1.000
 4062.00    0.93472   0.86945   -1.000
 4063.00    0.85128   0.83752  171.732
 4064.00    0.83404   0.82680  172.799
 4065.00    0.90051   0.84260   -1.000
 4066.00    0.96172   0.88224   -1.000
 4067.00    0.99841   0.91534   -1.000
 4068.00    1.04228   0.93243   -1.000
 4069.00    1.04672   0.92843   -1.000
 4070.00    1.01185   0.89883   -1.000
 4071.00    0.96473   0.87167   -1.000
 4072.00    0.94584   0.87672   -1.000
 4073.00    0.98198   0.90272   -1.000
 4074.00    1.00915   0.91923   -1.000
 4075.00    0.98166   0.89639   -1.000
 4076.00    0.89961   0.85904   -1.000
 4077.00    0.85643   0.84645  178.674
 4078.00    0.87007   0.87030  175.544
 4079.00    0.92521   0.92527  164.892
 4080.00    1.00670   0.97661   -1.000
 4081.00    1.07216   1.00184   -1.000
 4082.00    1.07403   0.99111   -1.000
 4083.00    1.02521   0.96861   -1.000
 4084.00    1.02332   0.95531   -1.000
 4085.00    1.00635   0.96660   -1.000
 4086.00    1.04218   0.99830   -1.000
 4087.00    1.11766   1.03287   -1.000
 4088.00    1.12345   1.05582   -1.000
 4089.00    1.11332   1.05559   -1.000
 4090.00    1.11030   1.03834   -1.000
 4091.00    1.10272   1.02109   -1.000
 4092.00    1.06113   1.01253   -1.000
 4093.00    1.06615   0.99913   -1.000
 4094.00    1.07818   0.97758   -1.000
 4095.00    1.02331   0.94412   -1.000
 4096.00    0.94742   0.91036   -1.000
 4097.00    0.95041   0.88967   -1.000
 4098.00    0.96080   0.86432   -1.000
 4099.00    0.95830   0.82188   -1.000
 4100.00    0.90058   0.77094   -1.000
 4101.00    0.84630   0.73743   -1.000
 4102.00    0.82582   0.74576   -1.000
 4103.00    0.85887   0.80210   -1.000
 4104.00    0.91397   0.87438   -1.000
 4105.00    0.97756   0.93448   -1.000
 4106.00    0.99762   0.96665   -1.000
 4107.00    1.00399   0.97852   -1.000
 4108.00    1.03679   0.97427   -1.000
 4109.00    1.01667   0.96146   -1.000
 4110.00    0.96985   0.95339  159.916
 4111.00    0.95940   0.95853  159.039
 4112.00    0.97784   0.97337  155.802
 4113.00    1.00212   0.99592  152.887
 4114.00    1.00560   1.01766  150.473
 4115.00    1.02697   1.02832  148.786
 4116.00    1.05735   1.02111   -1.000
 4117.00    1.02961   1.00095   -1.000
 4118.00    0.98323   0.97870  156.205
 4119.00    0.98018   0.96864  158.974
 4120.00    0.98158   0.97358  157.937
 4121.00    1.00099   0.98229  156.172
 4122.00    1.00270   0.98866  155.875
 4123.00    0.99728   0.99958  154.689
 4124.00    1.01173   1.01545  152.191
 4125.00    1.06727   1.02493   -1.000
 4126.00    1.06446   1.01698   -1.000
 4127.00    1.02424   0.99878   -1.000
 4128.00    1.01197   0.98291   -1.000
 4129.00    1.01165   0.97160   -1.000
 4130.00    0.99580   0.95417   -1.000
 4131.00    0.95397   0.92950   -1.000
 4132.00    0.92340   0.90943  169.452
 4133.00    0.92605   0.91735  171.191
 4134.00    0.96761   0.95000  167.047
 4135.00    1.01371   0.99088   -1.000
 4136.00    1.02908   1.02453  153.299
 4137.00    1.01162   1.04461   -1.000
 4138.00    1.01674   1.05318   -1.000
 4139.00    1.02812   1.05485   -1.000
 4140.00    1.03998   1.03516  148.907
 4141.00    1.00251   0.98621  155.529
 4142.00    0.95146   0.92492   -1.000
 4143.00    0.87313   0.89106   -1.000
 4144.00    0.87662   0.90159   -1.000
 4145.00    0.94609   0.94916  165.628
 4146.00    1.00481   0.99405  158.433
 4147.00    1.03305   1.00853  155.710
 4148.00    1.00304   1.00134  157.512
 4149.00    0.99889   0.98963  161.623
 4150.00    0.97109   0.98609   -1.000
 4151.00    0.95844   0.98735   -1.000
 4152.00    1.00193   0.98465  162.896
 4153.00    0.98433   0.97753  163.781
 4154.00    0.95269   0.97101   -1.000
 4155.00    0.96550   0.97185  163.827
 4156.00    0.95022   0.98435   -1.000
 4157.00    0.98747   1.00486   -1.000
 4158.00    1.19292   1.03077   -1.000
 4159.00    1.34575   1.05319   -1.000
 4160.00    0.93556   1.06585   -1.000
 4161.00    0.78971   1.07637   -1.000
 4162.00    1.02834   1.08463   -1.000
 4163.00    1.09218   1.08349  150.972
 4164.00    1.05754   1.06923  153.083
 4165.00    1.00583   1.04767   -1.000
 4166.00    0.95458   1.02740   -1.000
 4167.00    0.94616   1.02218   -1.000
 4168.00    0.97749   1.02861   -1.000
 4169.00    0.98269   1.03665   -1.000
 4170.00    0.99882   1.02167   -1.000
 4171.00    0.97964   0.98382  166.620
 4172.00    0.94645   0.94871  176.872
 4173.00    0.90795   0.93653   -1.000
 4174.00    0.90820   0.95275   -1.000
 4175.00    0.93106   0.97332   -1.000
 4176.00    0.93786   0.98376   -1.000
 4177.00    0.94216   0.99008   -1.000
 4178.00    0.95305   1.00086   -1.000
 4179.00    0.93964   1.01221   -1.000
 4180.00    0.96840   1.01733   -1.000
 4181.00    1.01248   1.01490  163.303
 4182.00    1.02019   1.01789  162.055
 4183.00    1.05988   1.03545   -1.000
 4184.00    1.07561   1.05106   -1.000
 4185.00    1.07773   1.04758   -1.000
 4186.00    1.04313   1.02371  159.647
 4187.00    0.97623   1.00500   -1.000
 4188.00    0.98032   1.00912   -1.000
 4189.00    1.03604   1.02482  161.428
 4190.00    1.00935   1.03631   -1.000
 4191.00    0.99383   1.04407   -1.000
 4192.00    1.03413   1.05582   -1.000
 4193.00    1.04251   1.06443   -1.000
 4194.00    1.03550   1.04825   -1.000
 4195.00    1.01102   1.00796  162.477
 4196.00    0.96253   0.97055  168.769
 4197.00    0.92718   0.94520   -1.000
 4198.00    0.91865   0.93272   -1.000
 4199.00    0.92948   0.92697  172.083
 4200.00    0.95563   0.93172  169.507
 4201.00    0.94696   0.94359  168.450
 4202.00    0.95305   0.96225  167.553
 4203.00    0.98992   0.99213  165.295
 4204.00    1.01509   1.02818  163.725
 4205.00    1.03387   1.05857   -1.000
 4206.00    1.10436   1.08203   -1.000
 4207.00    1.11304   1.09811  153.925
 4208.00    1.10464   1.09894  152.595
 4209.00    1.08569   1.09089  152.900
 4210.00    1.06153   1.08473   -1.000
 4211.00    1.06469   1.08707   -1.000
 4212.00    1.08158   1.08475  152.307
 4213.00    1.04678   1.06076   -1.000
 4214.00    0.99802   1.02607   -1.000
 4215.00    0.99198   1.01062   -1.000
 4216.00    1.01939   1.03039  165.192
 4217.00    1.07749   1.08213  155.732
 4218.00    1.13251   1.12614  148.002
 4219.00    1.16563   1.14877  143.293
 4220.00    1.21968   1.14598   -1.000
 4221.00    1.22139   1.12139   -1.000
 4222.00    1.15485   1.06963   -1.000
 4223.00    1.10051   0.99444   -1.000
 4224.00    1.00892   0.90439   -1.000
 4225.00    0.89297   0.83159   -1.000
 4226.00    0.77309   0.79929   -1.000
 4227.00    0.77725   0.83807   -1.000
 4228.00    0.88728   0.92920   -1.000
 4229.00    1.02701   1.02711  159.682
 4230.00    1.12095   1.07865   -1.000
 4231.00    1.13870   1.09121   -1.000
 4232.00    1.13006   1.07509   -1.000
 4233.00    1.10684   1.05202   -1.000
 4234.00    1.09075   1.03327   -1.000
 4235.00    1.08601   1.02760   -1.000
 4236.00    1.07153   1.03129   -1.000
 4237.00    1.06595   1.04649  160.867
 4238.00    1.08998   1.06990   -1.000
 4239.00    1.11035   1.09275  155.041
 4240.00    1.14426   1.11380   -1.000
 4241.00    1.19128   1.13730   -1.000
 4242.00    1.19967   1.16352   -1.000
 4243.00    1.20021   1.19337  146.920
 4244.00    1.21353   1.21221  143.927
 4245.00    1.22309   1.20424  144.241
 4246.00    1.18358   1.16450  149.631
 4247.00    1.14533   1.10915   -1.000
 4248.00    1.09075   1.06348   -1.000
 4249.00    1.03194   1.04276  162.349
 4250.00    1.01874   1.04451   -1.000
 4251.00    1.06432   1.06132  158.975
 4252.00    1.10184   1.07239   -1.000
 4253.00    1.09310   1.06556   -1.000
 4254.00    1.05741   1.05733  157.351
 4255.00    1.04450   1.07957   -1.000
 4256.00    1.06860   1.11874   -1.000
 4257.00    1.11112   1.12802   -1.000
 4258.00    1.10826   1.09147  153.229
 4259.00    1.05438   1.04270  161.168
 4260.00    0.99788   1.03065   -1.000
 4261.00    0.99385   1.07133   -1.000
 4262.00    1.07216   1.14215   -1.000
 4263.00    1.18749   1.20653  145.788
 4264.00    1.23159   1.23639  141.516
 4265.00    1.24521   1.23656  140.449
 4266.00    1.23830   1.21695  142.105
 4267.00    1.19001   1.18095  146.252
 4268.00    1.15647   1.12914   -1.000
 4269.00    1.10771   1.06737   -1.000
 4270.00    1.02788   1.00408   -1.000
 4271.00    0.95058   0.95994  176.087
 4272.00    0.91090   0.94828   -1.000
 4273.00    0.91669   0.96849   -1.000
 4274.00    0.93515   1.00557   -1.000
 4275.00    0.98061   1.05888   -1.000
 4276.00    1.08013   1.12742   -1.000
 4277.00    1.16266   1.18249   -1.000
 4278.00    1.19347   1.19335  146.356
 4279.00    1.18162   1.17126  151.258
 4280.00    1.14348   1.14561  157.053
 4281.00    1.11476   1.14335   -1.000
 4282.00    1.10246   1.15186   -1.000
 4283.00    1.12355   1.15175   -1.000
 4284.00    1.12903   1.14419  156.569
 4285.00    1.10811   1.13341   -1.000
 4286.00    1.09321   1.12057   -1.000
 4287.00    1.08064   1.09787  167.667
 4288.00    1.06101   1.05734  173.025
 4289.00    1.00851   1.01575  181.263
 4290.00    0.96826   1.00646   -1.000
 4291.00    1.01007   1.04198   -1.000
 4292.00    1.08456   1.08909  166.113
 4293.00    1.12631   1.10977  161.005
 4294.00    1.09860   1.10317  161.416
 4295.00    1.07126   1.08675  163.849
 4296.00    1.07988   1.06390   -1.000
 4297.00    1.04369   1.02198   -1.000
 4298.00    0.95260   0.96651  188.185
 4299.00    0.85231   0.92145   -1.000
 4300.00    0.80500   0.90652   -1.000
 4301.00    0.82076   0.91724   -1.000
 4302.00    0.88367   0.93476   -1.000
 4303.00    0.93011   0.94708  197.682
 4304.00    0.92504   0.95501   -1.000
 4305.00    0.90386   0.94525   -1.000
 4306.00    0.88599   0.91286   -1.000
 4307.00    0.84330   0.87712   -1.000
 4308.00    0.80682   0.86609   -1.000
 4309.00    0.82407   0.89184   -1.000
 4310.00    0.87522   0.94291   -1.000
 4311.00    0.92184   1.00022   -1.000
 4312.00    0.99424   1.05426   -1.000
 4313.00    1.06672   1.11362   -1.000
 4314.00    1.15034   1.18668   -1.000
 4315.00    0.95276   1.26856   -1.000
 4316.00    0.75760   1.34213   -1.000
 4317.00    1.17475   1.37762   -1.000
 4318.00    1.38999   1.37222  132.208
 4319.00    1.37503   1.34776  133.812
 4320.00    1.33571   1.31761  136.643
 4321.00    1.29419   1.27096  140.901
 4322.00    1.23711   1.20076   -1.000
 4323.00    1.14208   1.10928   -1.000
 4324.00    1.04072   1.03198  170.890
 4325.00    0.96107   1.01763   -1.000
 4326.00    0.99128   1.08387   -1.000
 4327.00    1.11263   1.19913   -1.000
 4328.00    1.23145   1.29419   -1.000
 4329.00    1.30881   1.33343   -1.000
 4330.00    1.30861   1.33682   -1.000
 4331.00    1.31067   1.33530   -1.000
 4332.00    1.33742   1.35110  136.344
 4333.00    1.35938   1.36716  134.667
 4334.00    1.36820   1.36491  134.115
 4335.00    1.38710   1.32671   -1.000
 4336.00    1.34122   1.24290   -1.000
 4337.00    1.21896   1.12588   -1.000
 4338.00    1.11137   1.02004   -1.000
 4339.00    1.02078   0.96898   -1.000
 4340.00    0.97230   0.97516  192.341
 4341.00    1.01827   1.03945   -1.000
 4342.00    1.10206   1.13151   -1.000
 4343.00    1.18121   1.21285   -1.000
 4344.00    1.23170   1.26288   -1.000
 4345.00    1.31082   1.29885  143.553
 4346.00    1.35600   1.33151   -1.000
 4347.00    1.37060   1.36320  139.067
 4348.00    1.40909   1.37912   -1.000
 4349.00    1.39252   1.35119   -1.000
 4350.00    1.32317   1.28197   -1.000
 4351.00    1.22494   1.21411  152.568
 4352.00    1.16146   1.19218   -1.000
 4353.00    1.18782   1.22606   -1.000
 4354.00    1.28031   1.28157  145.840
 4355.00    1.32666   1.32616  140.806
 4356.00    1.34065   1.34669  137.554
 4357.00    1.37040   1.34950  136.888
 4358.00    1.35246   1.34023  139.181
 4359.00    1.33751   1.34116  141.297
 4360.00    1.34133   1.36322  139.671
 4361.00    1.38326   1.39304  135.706
 4362.00    1.42037   1.41557  133.505
 4363.00    1.39572   1.43139   -1.000
 4364.00    1.45228   1.44362  131.528
 4365.00    1.50046   1.43808   -1.000
 4366.00    1.43342   1.40252   -1.000
 4367.00    1.36922   1.35850  138.869
 4368.00    1.35360   1.33681  141.343
 4369.00    1.34744   1.33577  140.631
 4370.00    1.35908   1.33671   -1.000
 4371.00    1.37769   1.32358   -1.000
 4372.00    1.36335   1.29307   -1.000
 4373.00    1.31574   1.24980   -1.000
 4374.00    1.24048   1.21466   -1.000
 4375.00    1.20445   1.21757  152.473
 4376.00    1.26131   1.26203  147.644
 4377.00    1.33465   1.31423  140.430
 4378.00    1.39005   1.33749   -1.000
 4379.00    1.39119   1.32100   -1.000
 4380.00    1.35270   1.26436   -1.000
 4381.00    1.28422   1.17086   -1.000
 4382.00    1.15089   1.06155   -1.000
 4383.00    0.98774   0.99258  176.193
 4384.00    0.92602   1.00369   -1.000
 4385.00    1.03968   1.09064   -1.000
 4386.00    1.17488   1.18299  153.821
 4387.00    1.24372   1.22970  146.406
 4388.00    1.27925   1.23723   -1.000
 4389.00    1.28073   1.23515   -1.000
 4390.00    1.25108   1.24221  147.485
 4391.00    1.26088   1.25962  145.439
 4392.00    1.32112   1.27948   -1.000
 4393.00    1.32803   1.28736   -1.000
 4394.00    1.30697   1.29094  144.781
 4395.00    1.31983   1.31539  145.249
 4396.00    1.38779   1.35995   -1.000
 4397.00    1.42278   1.39002   -1.000
 4398.00    1.40513   1.37585   -1.000
 4399.00    1.39512   1.33613   -1.000
 4400.00    1.34139   1.30944   -1.000
 4401.00    1.31313   1.29470  144.332
 4402.00    1.32983   1.26782   -1.000
 4403.00    1.27700   1.21026   -1.000
 4404.00    1.17948   1.15190  152.626
 4405.00    1.16173   1.14585  155.942
 4406.00    1.20172   1.18549  152.166
 4407.00    1.23459   1.23590  149.102
 4408.00    1.25963   1.28407   -1.000
 4409.00    1.31350   1.34279   -1.000
 4410.00    1.38515   1.41120   -1.000
 4411.00    1.45058   1.45162  132.019
 4412.00    1.49576   1.43346   -1.000
 4413.00    1.45674   1.37342   -1.000
 4414.00    1.35825   1.30144   -1.000
 4415.00    1.27478   1.26319  144.579
 4416.00    1.26748   1.29111   -1.000
 4417.00    1.33695   1.36341   -1.000
 4418.00    1.42487   1.43282  135.377
 4419.00    1.48647   1.46574  131.085
 4420.00    1.47724   1.45618  130.734
 4421.00    1.41677   1.41568  133.595
 4422.00    1.33716   1.37881   -1.000
 4423.00    1.29397   1.37009   -1.000
 4424.00    1.31684   1.38280   -1.000
 4425.00    1.35964   1.39043   -1.000
 4426.00    1.38538   1.39280  136.482
 4427.00    1.38083   1.39940   -1.000
 4428.00    1.37018   1.40372   -1.000
 4429.00    1.35100   1.40244   -1.000
 4430.00    1.34406   1.39991   -1.000
 4431.00    1.36082   1.40250   -1.000
 4432.00    1.36320   1.39872   -1.000
 4433.00    1.32647   1.36640   -1.000
 4434.00    1.26101   1.32365   -1.000
 4435.00    1.23504   1.31785   -1.000
 4436.00    1.30429   1.37167   -1.000
 4437.00    1.41693   1.45513   -1.000
 4438.00    1.49922   1.51227  128.272
 4439.00    1.53458   1.51382  126.659
 4440.00    1.48852   1.46773  129.635
 4441.00    1.39453   1.41085  135.424
 4442.00    1.33288   1.38179   -1.000
 4443.00    1.33248   1.40315   -1.000
 4444.00    1.40430   1.46327   -1.000
 4445.00    1.50278   1.52235  133.428
 4446.00    1.54415   1.55034  130.074
 4447.00    1.54107   1.54926  129.537
 4448.00    1.53004   1.54407  129.781
 4449.00    1.52384   1.54299  130.920
 4450.00    1.51673   1.53662  132.283
 4451.00    1.49866   1.52002   -1.000
 4452.00    1.50901   1.48671  132.223
 4453.00    1.47615   1.42851   -1.000
 4454.00    1.40135   1.36568   -1.000
 4455.00    1.30987   1.33456   -1.000
 4456.00    1.30040   1.34033   -1.000
 4457.00    1.34197   1.35985   -1.000
 4458.00    1.35671   1.36551  141.719
 4459.00    1.36290   1.35852  142.341
 4460.00    1.35624   1.35377  143.652
 4461.00    1.35253   1.36710  145.010
 4462.00    1.37849   1.40594   -1.000
 4463.00    1.41609   1.45596   -1.000
 4464.00    1.45276   1.49011   -1.000
 4465.00    1.49195   1.49917  133.380
 4466.00    1.48761   1.49070  133.454
 4467.00    1.50154   1.47718  134.608
 4468.00    1.51056   1.46414   -1.000
 4469.00    1.47626   1.45871  138.297
 4470.00    1.47257   1.47828  137.039
 4471.00    1.51738   1.52338  133.275
 4472.00    1.58335   1.57064  128.720
 4473.00    1.63240   1.60280  124.971
 4474.00    1.64553   1.61872  123.322
 4475.00    1.63336   1.63175  123.264
 4476.00    1.66355   1.64978  122.545
 4477.00    1.68649   1.65754  121.707
 4478.00    1.66812   1.62759   -1.000
 4479.00    1.60338   1.55925   -1.000
 4480.00    1.53381   1.49027   -1.000
 4481.00    1.47990   1.47094  135.899
 4482.00    1.49003   1.50846  135.726
 4483.00    1.54836   1.57869   -1.000
 4484.00    1.63269   1.64671  125.770
 4485.00    1.68159   1.68592  122.559
 4486.00    1.71288   1.67748   -1.000
 4487.00    1.70486   1.62932   -1.000
 4488.00    1.65082   1.57152   -1.000
 4489.00    1.58606   1.54232   -1.000
 4490.00    1.53605   1.55373  131.748
 4491.00    1.55984   1.58595   -1.000
 4492.00    1.61651   1.59738  126.213
 4493.00    1.60103   1.56892   -1.000
 4494.00    1.53116   1.53080  130.562
 4495.00    1.49977   1.52373   -1.000
 4496.00    1.51362   1.55760   -1.000
 4497.00    1.56592   1.60652   -1.000
 4498.00    1.64330   1.64042  125.588
 4499.00    1.67491   1.64797  123.738
 4500.00    1.65121   1.63876  124.527
 4501.00    1.62733   1.64261  125.471
 4502.00    1.64753   1.67595   -1.000
 4503.00    1.72629   1.73061  119.168
 4504.00    1.80674   1.77377   -1.000
 4505.00    1.82713   1.78852   -1.000
 4506.00    1.80858   1.77010   -1.000
 4507.00    1.78603   1.74642   -1.000
 4508.00    1.77555   1.73823   -1.000
 4509.00    1.77724   1.74314   -1.000
 4510.00    1.77289   1.75112  118.958
 4511.00    1.76193   1.74348  119.483
 4512.00    1.72385   1.71368  121.534
 4513.00    1.67483   1.68084  123.800
 4514.00    1.68246   1.66426  124.950
 4515.00    1.70059   1.66680   -1.000
 4516.00    1.70078   1.67391   -1.000
 4517.00    1.67928   1.67291  125.519
 4518.00    1.68802   1.67267  126.500
 4519.00    1.73404   1.68972   -1.000
 4520.00    1.77631   1.71781   -1.000
 4521.00    1.78382   1.73058   -1.000
 4522.00    1.75323   1.71481   -1.000
 4523.00    1.70592   1.67856   -1.000
 4524.00    1.67323   1.64124   -1.000
 4525.00    1.62721   1.60211   -1.000
 4526.00    1.56870   1.54912  134.124
 4527.00    1.49367   1.49481  138.046
 4528.00    1.46629   1.46009  140.300
 4529.00    1.45663   1.45866  139.955
 4530.00    1.48002   1.48968  137.820
 4531.00    1.53847   1.52787  135.298
 4532.00    1.57314   1.54694   -1.000
 4533.00    1.56524   1.53583   -1.000
 4534.00    1.52203   1.51446  141.281
 4535.00    1.50273   1.52008  141.222
 4536.00    1.55343   1.57493   -1.000
 4537.00    1.68558   1.65436   -1.000
 4538.00    1.74553   1.70711   -1.000
 4539.00    1.71293   1.70776  122.202
 4540.00    1.69709   1.67543  124.766
 4541.00    1.68267   1.65474   -1.000
 4542.00    1.69819   1.66156   -1.000
 4543.00    1.71916   1.67509   -1.000
 4544.00    1.69209   1.67708  159.296
 4545.00    1.66946   1.66488   -2.000
 4546.00    1.55349   1.65749   -2.000
 4547.00    0.56176   1.65705   -2.000
 4548.00   -0.18689   1.64717    0.000
 4549.00   -0.20559   1.63438    0.000
 4550.00    0.67001   1.64099   -1.000
 4551.00    0.61297   1.66445   -1.000
 4552.00    0.90490   1.67119   -1.000
 4553.00    1.49216   1.65017   -1.000
 4554.00    1.64880   1.62639   -1.000
 4555.00    1.65733   1.63259   -1.000
 4556.00    1.70987   1.68041   -1.000
 4557.00    1.76859   1.74963  122.655
 4558.00    1.83886   1.80160   -1.000
 4559.00    1.86968   1.82249   -1.000
 4560.00    1.85106   1.83191   -1.000
 4561.00    1.85346   1.82421   -1.000
 4562.00    1.83545   1.79711   -1.000
 4563.00    1.77960   1.75222   -1.000
 4564.00    1.71323   1.71513  127.374
 4565.00    1.67776   1.71077   -1.000
 4566.00    1.72979   1.74442  124.127
 4567.00    1.80212   1.79497  120.842
 4568.00    1.84608   1.83242  119.087
 4569.00    1.86063   1.82718   -1.000
 4570.00    1.80982   1.79280  122.359
 4571.00    1.73158   1.75390  125.588
 4572.00    1.74417   1.74956  125.832
 4573.00    1.81335   1.78525   -1.000
 4574.00    1.84636   1.82212   -1.000
 4575.00    1.85385   1.83612   -1.000
 4576.00    1.83762   1.82925  120.452
 4577.00    1.80578   1.81250  121.120
 4578.00    1.76967   1.77810  122.819
 4579.00    1.72197   1.72782  126.097
 4580.00    1.64564   1.68872   -1.000
 4581.00    1.62198   1.68475   -1.000
 4582.00    1.69582   1.70109  128.035
 4583.00    1.73154   1.72006  126.826
 4584.00    1.70648   1.72298  126.857
 4585.00    1.69692   1.71565  127.565
 4586.00    1.70644   1.72484  126.510
 4587.00    1.76733   1.76146  123.563
 4588.00    1.82465   1.80765  120.740
 4589.00    1.83709   1.83153  119.910
 4590.00    1.83701   1.82386  121.171
 4591.00    1.81163   1.79311  123.337
 4592.00    1.77810   1.75763   -1.000
 4593.00    1.73423   1.73757  126.247
 4594.00    1.72010   1.72971  125.462
 4595.00    1.72168   1.72912  124.432
 4596.00    1.72107   1.73650  123.923
 4597.00    1.72828   1.75156  123.655
 4598.00    1.74573   1.76421  123.382
 4599.00    1.74277   1.76858  124.090
 4600.00    1.73477   1.76337  125.226
 4601.00    1.75333   1.75951  125.793
 4602.00    1.76854   1.76363  124.909
 4603.00    1.75684   1.76588  123.496
 4604.00    1.73871   1.76207  123.257
 4605.00    1.76400   1.76598  123.194
 4606.00    1.79983   1.79194  122.157
 4607.00    1.86431   1.83677   -1.000
 4608.00    1.94460   1.89084   -1.000
 4609.00    1.96521   1.93195   -1.000
 4610.00    1.93989   1.93236  115.787
 4611.00    1.91548   1.90964  117.118
 4612.00    1.90069   1.88079   -1.000
 4613.00    1.89069   1.86825   -1.000
 4614.00    1.91202   1.87982   -1.000
 4615.00    1.94946   1.90235   -1.000
 4616.00    1.95157   1.91728   -1.000
 4617.00    1.93992   1.92118   -1.000
 4618.00    1.91765   1.91979  118.946
 4619.00    1.89657   1.91676  119.113
 4620.00    1.92189   1.91960  118.238
 4621.00    1.95622   1.93010   -1.000
 4622.00    1.95382   1.93947  115.986
 4623.00    1.94283   1.93818  116.221
 4624.00    1.92703   1.92992  116.473
 4625.00    1.91488   1.91818  117.310
 4626.00    1.91639   1.90511  117.835
 4627.00    1.93169   1.89998   -1.000
 4628.00    1.90622   1.90238  118.383
 4629.00    1.89299   1.90726  118.796
 4630.00    1.93214   1.91400  118.426
 4631.00    1.95981   1.92399   -1.000
 4632.00    1.94363   1.92347   -1.000
 4633.00    1.92578   1.90573   -1.000
 4634.00    1.90963   1.88319   -1.000
 4635.00    1.87024   1.86966  120.392
 4636.00    1.83948   1.85537  121.039
 4637.00    1.81928   1.83299  122.496
 4638.00    1.79925   1.80869  123.326
 4639.00    1.81188   1.79596  123.320
 4640.00    1.84475   1.80662   -1.000
 4641.00    1.88025   1.83602   -1.000
 4642.00    1.90889   1.86387   -1.000
 4643.00    1.90135   1.86778   -1.000
 4644.00    1.86253   1.83505   -1.000
 4645.00    1.79985   1.78313  121.686
 4646.00    1.73297   1.72665  125.102
 4647.00    1.68402   1.70393  126.458
 4648.00    1.70907   1.72746  124.930
 4649.00    1.79730   1.78139  122.149
 4650.00    1.85458   1.84227  120.133
 4651.00    1.88390   1.88555  119.543
 4652.00    1.92233   1.90192  119.331
 4653.00    1.90728   1.89164  120.281
 4654.00    1.83477   1.86456  122.729
 4655.00    1.78556   1.84317   -1.000
 4656.00    1.80232   1.85129   -1.000
 4657.00    1.90468   1.89560  120.965
 4658.00    2.01333   1.96579   -1.000
 4659.00    2.08140   2.02539   -1.000
 4660.00    2.07585   2.04469   -1.000
 4661.00    1.99742   2.01421  113.595
 4662.00    1.92172   1.96676   -1.000
 4663.00    1.88830   1.91962  118.510
 4664.00    1.87989   1.87545  119.353
 4665.00    1.84447   1.82409   -1.000
 4666.00    1.75622   1.75914  125.121
 4667.00    1.65677   1.70684   -1.000
 4668.00    1.64639   1.70350   -1.000
 4669.00    1.71495   1.75320   -1.000
 4670.00    1.82506   1.82699  123.983
 4671.00    1.89433   1.88235  120.094
 4672.00    1.90585   1.90523  118.705
 4673.00    1.88883   1.90067  118.619
 4674.00    1.89038   1.90385  118.569
 4675.00    1.90368   1.92074  117.414
 4676.00    1.95700   1.94064  115.682
 4677.00    1.97307   1.94114   -1.000
 4678.00    1.94704   1.91214   -1.000
 4679.00    1.89119   1.87312  120.053
 4680.00    1.83870   1.84163  122.144
 4681.00    1.81325   1.82981  123.555
 4682.00    1.84451   1.84071  122.763
 4683.00    1.92000   1.86803   -1.000
 4684.00    1.97129   1.89146   -1.000
 4685.00    1.95220   1.89793   -1.000
 4686.00    1.92005   1.89376   -1.000
 4687.00    1.89382   1.88557  118.584
 4688.00    1.90942   1.88533   -1.000
 4689.00    1.93459   1.89163   -1.000
 4690.00    1.92716   1.89503   -1.000
 4691.00    1.90902   1.89312  119.848
 4692.00    1.91417   1.89929  118.878
 4693.00    1.93683   1.92100  117.174
 4694.00    1.98462   1.94814   -1.000
 4695.00    2.02363   1.96809   -1.000
 4696.00    2.03052   1.96983   -1.000
 4697.00    2.00312   1.94158   -1.000
 4698.00    1.92991   1.89522   -1.000
 4699.00    1.86378   1.85600  121.080
 4700.00    1.86084   1.84045   -1.000
 4701.00    1.87634   1.83187   -1.000
 4702.00    1.85548   1.82496   -1.000
 4703.00    1.87007   1.83103   -1.000
 4704.00    1.89140   1.85649   -1.000
 4705.00    1.89925   1.88241  120.439
 4706.00    1.91993   1.88482   -1.000
 4707.00    1.89154   1.86323   -1.000
 4708.00    1.85385   1.84419  125.017
 4709.00    1.86481   1.85328  124.861
 4710.00    1.89976   1.88488  121.981
 4711.00    1.97282   1.91763   -1.000
 4712.00    2.01809   1.92853   -1.000
 4713.00    1.95308   1.91482   -1.000
 4714.00    1.90213   1.89794  119.223
 4715.00    1.92186   1.90905  119.890
 4716.00    1.97553   1.95090   -1.000
 4717.00    2.03820   2.00315   -1.000
 4718.00    2.10704   2.04452   -1.000
 4719.00    2.13624   2.06784   -1.000
 4720.00    2.15349   2.08014   -1.000
 4721.00    2.10485   2.07511   -1.000
 4722.00    2.05668   2.06147  115.269
 4723.00    2.06438   2.05970  115.012
 4724.00    2.08965   2.07218  113.895
 4725.00    2.07970   2.06777  113.658
 4726.00    2.02904   2.02568  115.705
 4727.00    1.91746   1.95006   -1.000
 4728.00    1.81425   1.87813   -1.000
 4729.00    1.79836   1.85123   -1.000
 4730.00    1.83278   1.86202   -1.000
 4731.00    1.88503   1.89944  121.242
 4732.00    1.94162   1.94179  119.928
 4733.00    1.96700   1.97437  118.762
 4734.00    1.99693   1.98756  117.994
 4735.00    2.01931   1.98624   -1.000
 4736.00    1.99214   1.98283  118.055
 4737.00    1.97452   1.99040  118.565
 4738.00    2.03798   2.01071   -1.000
 4739.00    2.10526   2.03182   -1.000
 4740.00    2.09354   2.03554   -1.000
 4741.00    2.04081   2.02677  117.902
 4742.00    2.03746   2.02709  117.257
 4743.00    2.06499   2.03435   -1.000
 4744.00    2.09015   2.04410   -1.000
 4745.00    2.12671   2.06136   -1.000
 4746.00    2.13850   2.08027   -1.000
 4747.00    2.13505   2.09958   -1.000
 4748.00    2.14473   2.11156   -1.000
 4749.00    2.15132   2.11965   -1.000
 4750.00    2.12744   2.12265  113.997
 4751.00    2.11153   2.11217  114.608
 4752.00    2.10191   2.08765  115.794
 4753.00    2.04385   2.05826  116.875
 4754.00    1.98863   2.03264   -1.000
 4755.00    1.98085   2.02528   -1.000
 4756.00    2.01126   2.03264  118.048
 4757.00    2.04633   2.04654  118.821
 4758.00    2.05798   2.06144  119.176
 4759.00    2.06022   2.07309  118.489
 4760.00    2.02340   2.07127   -1.000
 4761.00    1.95450   2.04571   -1.000
 4762.00    1.90732   2.00289   -1.000
 4763.00    1.88197   1.95781   -1.000
 4764.00    1.86363   1.92663   -1.000
 4765.00    1.84210   1.90932   -1.000
 4766.00    1.85265   1.90310   -1.000
 4767.00    1.89967   1.92627   -1.000
 4768.00    1.95574   1.98274   -1.000
 4769.00    2.02474   2.04322  117.771
 4770.00    2.05197   2.06764  117.459
 4771.00    2.02635   2.05694   -1.000
 4772.00    2.00532   2.04184   -1.000
 4773.00    2.02293   2.05863   -1.000
 4774.00    2.08111   2.10063   -1.000
 4775.00    2.10848   2.13456   -1.000
 4776.00    2.13194   2.14795  114.935
 4777.00    2.14951   2.14892  115.218
 4778.00    2.12828   2.14368   -1.000
 4779.00    2.07341   2.12898   -1.000
 4780.00    2.02861   2.10984   -1.000
 4781.00    2.03291   2.08797   -1.000
 4782.00    2.03810   2.05884   -1.000
 4783.00    2.01195   2.02868   -1.000
 4784.00    2.01288   2.01856  119.896
 4785.00    2.02494   2.02434  120.148
 4786.00    2.01187   2.02833   -1.000
 4787.00    2.00908   2.02716  121.990
 4788.00    2.01322   2.03073  122.097
 4789.00    2.02559   2.03733  121.619
 4790.00    2.02434   2.04946   -1.000
 4791.00    2.04105   2.07542   -1.000
 4792.00    2.07822   2.12058   -1.000
 4793.00    2.14327   2.18047   -1.000
 4794.00    2.21841   2.23582  113.399
 4795.00    2.25672   2.26765  112.548
 4796.00    2.23965   2.25751  113.257
 4797.00    2.19005   2.21173   -1.000
 4798.00    2.12580   2.15520   -1.000
 4799.00    2.08902   2.11885   -1.000
 4800.00    2.09805   2.12007  118.761
 4801.00    2.14786   2.15852  116.701
 4802.00    2.20085   2.20974  114.800
 4803.00    2.21043   2.23886   -1.000
 4804.00    2.16378   2.21722   -1.000
 4805.00    2.12691   2.17380   -1.000
 4806.00    2.11798   2.13787  118.337
 4807.00    2.07479   2.11714   -1.000
 4808.00    2.06313   2.11262   -1.000
 4809.00    2.09007   2.13114   -1.000
 4810.00    2.09950   2.15898   -1.000
 4811.00    2.12972   2.17725   -1.000
 4812.00    2.15349   2.18341   -1.000
 4813.00    2.14926   2.18506   -1.000
 4814.00    2.14365   2.19338   -1.000
 4815.00    2.14763   2.21085   -1.000
 4816.00    2.19729   2.23273   -1.000
 4817.00    2.22914   2.25559   -1.000
 4818.00    2.23376   2.27665   -1.000
 4819.00    2.24230   2.29093   -1.000
 4820.00    2.23694   2.28912   -1.000
 4821.00    2.20317   2.26001   -1.000
 4822.00    2.14617   2.20583   -1.000
 4823.00    2.10102   2.14644   -1.000
 4824.00    2.10360   2.11963  118.648
 4825.00    2.15059   2.14409  117.049
 4826.00    2.18914   2.19045  115.129
 4827.00    2.19357   2.21231  114.943
 4828.00    2.16887   2.19777   -1.000
 4829.00    2.15988   2.17926  117.018
 4830.00    2.14648   2.16764  117.200
 4831.00    2.10922   2.14877   -1.000
 4832.00    2.09414   2.13112   -1.000
 4833.00    2.12494   2.14222  117.128
 4834.00    2.16916   2.17745  115.440
 4835.00    2.18314   2.21458   -1.000
 4836.00    2.19109   2.23016   -1.000
 4837.00    2.19736   2.22513   -1.000
 4838.00    2.17508   2.20292   -1.000
 4839.00    2.12943   2.17260   -1.000
 4840.00    2.11814   2.15208   -1.000
 4841.00    2.12790   2.14713  118.910
 4842.00    2.13100   2.14960  118.410
 4843.00    2.11250   2.15283   -1.000
 4844.00    2.11833   2.17170   -1.000
 4845.00    2.17238   2.21273   -1.000
 4846.00    2.19652   2.24370   -1.000
 4847.00    2.15594   2.23692   -1.000
 4848.00    2.11575   2.20725   -1.000
 4849.00    2.13568   2.19241   -1.000
 4850.00    2.18324   2.20873  116.638
 4851.00    2.19515   2.22717   -1.000
 4852.00    2.15903   2.22619   -1.000
 4853.00    2.11847   2.19269   -1.000
 4854.00    2.07978   2.13371   -1.000
 4855.00    2.01906   2.07538   -1.000
 4856.00    2.00713   2.04903   -1.000
 4857.00    2.02986   2.05525  123.333
 4858.00    1.99164   2.03370   -1.000
 4859.00    1.89257   1.93188   -1.000
 4860.00    1.76153   1.76600  148.438
 4861.00    1.66963   1.64188   -1.000
 4862.00    1.66641   1.65916  154.130
 4863.00    1.75362   1.78913  141.380
 4864.00    1.86860   1.92510   -1.000
 4865.00    1.97597   2.02115   -1.000
 4866.00    2.04967   2.08800   -1.000
 4867.00    2.07740   2.12994   -1.000
 4868.00    2.09333   2.14610   -1.000
 4869.00    2.09547   2.12895   -1.000
 4870.00    2.03362   2.06748   -1.000
 4871.00    1.93138   1.98414   -1.000
 4872.00    1.88227   1.95447   -1.000
 4873.00    1.94950   2.00978   -1.000
 4874.00    2.03987   2.09705   -1.000
 4875.00    2.05662   2.15576   -1.000
 4876.00    2.05329   2.18230   -1.000
 4877.00    2.11709   2.20665   -1.000
 4878.00    2.15605   2.24088   -1.000
 4879.00    2.15465   2.27227   -1.000
 4880.00    2.14382   2.28007   -1.000
 4881.00    2.08363   2.25358   -1.000
 4882.00    2.06164   2.22351   -1.000
 4883.00    2.08852   2.21226   -1.000
 4884.00    2.09179   2.19860   -1.000
 4885.00    2.04442   2.16020   -1.000
 4886.00    2.00763   2.12298   -1.000
 4887.00    2.03752   2.11724   -1.000
 4888.00    2.04912   2.12467   -1.000
 4889.00    2.03500   2.10374   -1.000
 4890.00    1.99771   2.04853   -1.000
 4891.00    1.97538   2.00937   -1.000
 4892.00    2.05096   2.05952  122.213
 4893.00    2.17849   2.19337  116.690
 4894.00    2.31262   2.34027  112.625
 4895.00    2.39459   2.43917   -1.000
 4896.00    2.42184   2.47132   -1.000
 4897.00    2.41522   2.47057   -1.000
 4898.00    2.36629   2.44568   -1.000
 4899.00    2.31540   2.40188   -1.000
 4900.00    2.28380   2.36122   -1.000
 4901.00    2.26596   2.34405   -1.000
 4902.00    2.25568   2.33164   -1.000
 4903.00    2.25533   2.31410   -1.000
 4904.00    2.27508   2.31832   -1.000
 4905.00    2.30350   2.36663   -1.000
 4906.00    2.33915   2.42237   -1.000
 4907.00    2.34095   2.42975   -1.000
 4908.00    2.27068   2.37697   -1.000
 4909.00    2.18788   2.30249   -1.000
 4910.00    2.14677   2.24573   -1.000
 4911.00    2.16510   2.24135   -1.000
 4912.00    2.22208   2.28490   -1.000
 4913.00    2.28508   2.34008   -1.000
 4914.00    2.34509   2.38885   -1.000
 4915.00    2.39764   2.42307  113.066
 4916.00    2.41526   2.41854  113.123
 4917.00    2.32915   2.34298  116.008
 4918.00    2.15135   2.19207   -1.000
 4919.00    1.98711   2.02992   -1.000
 4920.00    1.92638   1.94207  130.785
 4921.00    1.99336   1.96968   -1.000
 4922.00    2.12256   2.07819   -1.000
 4923.00    2.19315   2.17686   -1.000
 4924.00    2.21996   2.22993  120.374
 4925.00    2.25205   2.26350  119.305
 4926.00    2.28209   2.32230  116.656
 4927.00    2.34490   2.39216   -1.000
 4928.00    2.41311   2.45536  112.877
 4929.00    2.44902   2.50611   -1.000
 4930.00    2.47203   2.52679   -1.000
 4931.00    2.47130   2.50668  111.855
 4932.00    2.39130   2.44541   -1.000
 4933.00    2.29626   2.36886   -1.000
 4934.00    2.27290   2.32211   -1.000
 4935.00    2.31071   2.33398  118.332
 4936.00    2.30554   2.34326  117.568
 4937.00    2.23899   2.28713   -1.000
 4938.00    2.14974   2.20198   -1.000
 4939.00    2.15281   2.17443  123.716
 4940.00    2.26772   2.24310   -1.000
 4941.00    2.37225   2.35584   -1.000
 4942.00    2.40254   2.44502   -1.000
 4943.00    2.43181   2.49164   -1.000
 4944.00    2.45638   2.50138   -1.000
 4945.00    2.45487   2.48986  112.746
 4946.00    2.44993   2.47841  113.180
 4947.00    2.47302   2.49353  112.553
 4948.00    2.53066   2.52927  111.301
 4949.00    2.56501   2.56022  110.647
 4950.00    2.57220   2.57606  110.233
 4951.00    2.57074   2.57921  110.473
 4952.00    2.54021   2.56518  111.188
 4953.00    2.49123   2.53713   -1.000
 4954.00    2.44301   2.48936   -1.000
 4955.00    2.36495   2.39317   -1.000
 4956.00    2.21784   2.24402   -1.000
 4957.00    2.09032   2.09528  126.697
 4958.00    2.11078   2.06263   -1.000
 4959.00    2.24366   2.18287   -1.000
 4960.00    2.35876   2.33788  115.584
 4961.00    2.41228   2.43411  113.728
 4962.00    2.41602   2.45582   -1.000
 4963.00    2.39049   2.43810   -1.000
 4964.00    2.35289   2.39601   -1.000
 4965.00    2.29634   2.33495   -1.000
 4966.00    2.24285   2.28934   -1.000
 4967.00    2.23156   2.27770   -1.000
 4968.00    2.25808   2.28811   -1.000
 4969.00    2.27944   2.31535   -1.000
 4970.00    2.32738   2.35822  118.237
 4971.00    2.35939   2.40510   -1.000
 4972.00    2.39309   2.45306   -1.000
 4973.00    2.43514   2.48494   -1.000
 4974.00    2.44100   2.49722   -1.000
 4975.00    2.41324   2.49406   -1.000
 4976.00    2.39868   2.47085   -1.000
 4977.00    2.37261   2.42831   -1.000
 4978.00    2.31609   2.38217   -1.000
 4979.00    2.26608   2.34537   -1.000
 4980.00    2.22657   2.30755   -1.000
 4981.00    2.15700   2.23971   -1.000
 4982.00    2.06474   2.14567   -1.000
 4983.00    2.04115   2.08459   -1.000
 4984.00    2.08523   2.09791  128.795
 4985.00    2.17982   2.17525  125.528
 4986.00    2.27901   2.27569  121.670
 4987.00    2.33714   2.36632  118.373
 4988.00    2.35917   2.41273   -1.000
 4989.00    2.34786   2.40589   -1.000
 4990.00    2.32282   2.37576   -1.000
 4991.00    2.32997   2.36374   -1.000
 4992.00    2.37633   2.37587  119.855
 4993.00    2.39794   2.39376  119.153
 4994.00    2.36772   2.40302   -1.000
 4995.00    2.35334   2.41355   -1.000
 4996.00    2.37980   2.43459   -1.000
 4997.00    2.39495   2.44024   -1.000
 4998.00    2.34611   2.39978   -1.000
 4999.00    2.25565   2.31619   -1.000
 5000.00    2.20506   2.23593   -1.000
 5001.00    2.20504   2.21635  124.098
 5002.00    2.22789   2.23354  123.314
 5003.00    2.25129   2.24766  122.369
 5004.00    2.23541   2.23114  123.284
 5005.00    2.15893   2.17999  126.013
 5006.00    2.11843   2.14003  127.567
 5007.00    2.17469   2.16257  125.648
 5008.00    2.24897   2.24730  122.010
 5009.00    2.28848   2.32826   -1.000
 5010.00    2.29111   2.34656   -1.000
 5011.00    2.23680   2.30097   -1.000
 5012.00    2.13967   2.21664   -1.000
 5013.00    2.07737   2.13804   -1.000
 5014.00    2.07201   2.10463   -1.000
 5015.00    2.12990   2.13031  129.848
 5016.00    2.18402   2.17723  127.051
 5017.00    2.16981   2.20919   -1.000
 5018.00    2.19131   2.22746   -1.000
 5019.00    2.24426   2.25273  124.738
 5020.00    2.25406   2.27976  123.569
 5021.00    2.20911   2.27982   -1.000
 5022.00    2.18137   2.26546   -1.000
 5023.00    2.21826   2.27699   -1.000
 5024.00    2.30781   2.32525  122.474
 5025.00    2.36053   2.37185  121.489
 5026.00    2.31931   2.37900   -1.000
 5027.00    2.27453   2.35033   -1.000
 5028.00    2.30398   2.33713   -1.000
 5029.00    2.36333   2.36722  119.719
 5030.00    2.39931   2.42683  117.819
 5031.00    2.42995   2.49153   -1.000
 5032.00    2.48702   2.54668   -1.000
 5033.00    2.51917   2.57255   -1.000
 5034.00    2.47768   2.53705   -1.000
 5035.00    2.38089   2.45247   -1.000
 5036.00    2.30215   2.37273   -1.000
 5037.00    2.29778   2.34271   -1.000
 5038.00    2.28514   2.32262   -1.000
 5039.00    2.18054   2.24818   -1.000
 5040.00    2.04140   2.13475   -1.000
 5041.00    2.01681   2.07562   -1.000
 5042.00    2.14938   2.14210  132.563
 5043.00    2.33679   2.29940   -1.000
 5044.00    2.48744   2.46201   -1.000
 5045.00    2.56446   2.57554  115.654
 5046.00    2.58797   2.60989  111.876
 5047.00    2.55600   2.57483  112.722
 5048.00    1.88400   2.48456   -1.000
 5049.00    0.51511   2.38461   -1.000
 5050.00   -0.11144   2.32324    0.000
 5051.00    0.47296   2.32282   -1.000
 5052.00    1.93750   2.36098   -1.000
 5053.00    2.52992   2.42919   -1.000
 5054.00    2.51228   2.50180  115.845
 5055.00    2.54277   2.54703  114.424
 5056.00    2.55456   2.56578  113.832
 5057.00    2.58073   2.58135  113.862
 5058.00    2.61742   2.60037   -1.000
 5059.00    2.63066   2.62826  114.119
 5060.00    2.63986   2.65942  113.574
 5061.00    2.64916   2.68222  113.354
 5062.00    2.59162   2.66710   -1.000
 5063.00    2.48899   2.59108   -1.000
 5064.00    2.39165   2.48273   -1.000
 5065.00    2.35411   2.40186   -1.000
 5066.00    2.37651   2.38748  122.925
 5067.00    2.40018   2.40667  121.141
 5068.00    2.42659   2.42542  120.278
 5069.00    2.45878   2.44772  119.788
 5070.00    2.48386   2.47344  119.065
 5071.00    2.46499   2.47753  119.453
 5072.00    2.43530   2.45926  120.433
 5073.00    2.45300   2.45665  119.735
 5074.00    2.51322   2.47782   -1.000
 5075.00    2.52202   2.49445   -1.000
 5076.00    2.49749   2.49681  118.084
 5077.00    2.48721   2.47749  118.828
 5078.00    2.42436   2.41234  122.006
 5079.00    2.30381   2.31384  127.365
 5080.00    2.22259   2.25025  130.381
 5081.00    2.23264   2.25690  128.932
 5082.00    2.29877   2.30030  126.130
 5083.00    2.34677   2.34495  124.114
 5084.00    2.40031   2.39325  121.997
 5085.00    2.47688   2.44718   -1.000
 5086.00    2.51123   2.49686  118.584
 5087.00    2.51684   2.52541  118.215
 5088.00    2.54562   2.54022  117.769
 5089.00    2.58081   2.55163   -1.000
 5090.00    2.59068   2.56446   -1.000
 5091.00    2.60601   2.58935  115.666
 5092.00    2.64205   2.62887  114.567
 5093.00    2.67109   2.66312  113.430
 5094.00    2.65950   2.66257  113.799
 5095.00    2.60485   2.60706  115.773
 5096.00    2.51965   2.52013  118.273
 5097.00    2.43339   2.44297  121.041
 5098.00    2.35424   2.38326  123.718
 5099.00    2.33464   2.36160  124.825
 5100.00    2.38945   2.40259  122.831
 5101.00    2.49438   2.48076  119.388
 5102.00    2.55353   2.53814  117.551
 5103.00    2.54522   2.54584  117.717
 5104.00    2.50534   2.52196  119.017
 5105.00    2.48011   2.49298  120.559
 5106.00    2.45516   2.46048  122.051
 5107.00    2.37854   2.42495   -1.000
 5108.00    2.33581   2.39836   -1.000
 5109.00    2.35083   2.39482   -1.000
 5110.00    2.38331   2.41589  122.459
 5111.00    2.43851   2.45819  120.978
 5112.00    2.51740   2.50801  119.398
 5113.00    2.56803   2.54690  117.944
 5114.00    2.61474   2.58179   -1.000
 5115.00    2.65137   2.62143   -1.000
 5116.00    2.66037   2.65876  114.975
 5117.00    2.67848   2.68913  113.922
 5118.00    2.69028   2.70016  113.843
 5119.00    2.66296   2.67636  114.980
 5120.00    2.60952   2.62578  116.659
 5121.00    2.55233   2.56504  118.536
 5122.00    2.47415   2.49224  121.235
 5123.00    2.39056   2.41814  124.744
 5124.00    2.35683   2.37070  126.568
 5125.00    2.36636   2.36283  126.041
 5126.00    2.39506   2.38365  125.230
 5127.00    2.40746   2.39990  124.534
 5128.00    2.39614   2.40286  124.412
 5129.00    2.40113   2.40830  124.410
 5130.00    2.44767   2.43459  123.266
 5131.00    2.52475   2.48720   -1.000
 5132.00    2.56122   2.54066   -1.000
 5133.00    2.57578   2.57329  118.878
 5134.00    2.62536   2.59626   -1.000
 5135.00    2.64611   2.61489   -1.000
 5136.00    2.61225   2.60876  118.595
 5137.00    2.53472   2.55316  121.287
 5138.00    2.45754   2.47967  123.572
 5139.00    2.42647   2.44805  124.308
 5140.00    2.45950   2.46050  123.574
 5141.00    2.50969   2.47801   -1.000
 5142.00    2.49857   2.47502   -1.000
 5143.00    2.48042   2.47006   -1.000
 5144.00    2.48710   2.48664  123.971
 5145.00    2.48118   2.49185  122.982
 5146.00    2.43478   2.45842  123.651
 5147.00    2.40849   2.43272  124.262
 5148.00    2.44294   2.44856  123.306
 5149.00    2.48005   2.47796  122.315
 5150.00    2.47210   2.47894  123.129
 5151.00    2.43912   2.44712  125.188
 5152.00    2.40082   2.41540  126.503
 5153.00    2.39740   2.40301  126.310
 5154.00    2.44355   2.41859   -1.000
 5155.00    2.52349   2.48155   -1.000
 5156.00    2.62143   2.57625   -1.000
 5157.00    2.69451   2.65924   -1.000
 5158.00    2.72095   2.70133   -1.000
 5159.00    2.72967   2.71467   -1.000
 5160.00    2.72066   2.70985   -1.000
 5161.00    2.69496   2.68624   -1.000
 5162.00    2.64977   2.63795   -1.000
 5163.00    2.58471   2.56750   -1.000
 5164.00    2.46777   2.47161  121.623
 5165.00    2.26861   2.31709   -1.000
 5166.00    2.00935   2.08922   -1.000
 5167.00    1.80701   1.89498   -1.000
 5168.00    1.80632   1.85756   -1.000
 5169.00    1.94833   1.95364  147.855
 5170.00    2.01219   2.03409   -1.000
 5171.00    1.88969   1.97480   -1.000
 5172.00    1.73610   1.84706   -1.000
 5173.00    1.77061   1.84148   -1.000
 5174.00    2.00097   2.00449  144.179
 5175.00    2.26728   2.23884  130.968
 5176.00    2.41335   2.40368  124.249
 5177.00    2.45871   2.46772  121.884
 5178.00    2.49557   2.48825  121.321
 5179.00    2.48311   2.47077  122.074
 5180.00    2.37078   2.39800   -1.000
 5181.00    2.16835   2.23699   -1.000
 5182.00    1.90894   2.01243   -1.000
 5183.00    1.72931   1.83866   -1.000
 5184.00    1.78231   1.84326   -1.000
 5185.00    2.06739   2.04982   -1.000
 5186.00    2.37785   2.31020   -1.000
 5187.00    2.54925   2.48291   -1.000
 5188.00    2.62813   2.56761   -1.000
 5189.00    2.66943   2.59274   -1.000
 5190.00    2.62800   2.56976   -1.000
 5191.00    2.50512   2.48242   -1.000
 5192.00    2.38161   2.38139  128.747
 5193.00    2.36840   2.35315  129.211
 5194.00    2.46947   2.40585   -1.000
 5195.00    2.51994   2.46076   -1.000
 5196.00    2.53927   2.51492   -1.000
 5197.00    2.59266   2.58401   -1.000
 5198.00    2.68028   2.65412   -1.000
 5199.00    2.71373   2.70106   -1.000
 5200.00    2.71287   2.71715  117.321
 5201.00    2.71229   2.69778  117.943
 5202.00    2.66684   2.64353   -1.000
 5203.00    2.59153   2.55408   -1.000
 5204.00    2.48332   2.42277   -1.000
 5205.00    2.37356   2.29014   -1.000
 5206.00    2.32771   2.21684   -1.000
 5207.00    2.29971   2.19368   -1.000
 5208.00    2.28489   2.19518   -1.000
 5209.00    2.32355   2.22930   -1.000
 5210.00    2.45076   2.33602   -1.000
 5211.00    2.62798   2.49798   -1.000
 5212.00    2.77345   2.65807   -1.000
 5213.00    2.85148   2.74956   -1.000
 5214.00    2.81189   2.74715   -1.000
 5215.00    2.69464   2.68339   -1.000
 5216.00    2.64893   2.63490   -1.000
 5217.00    2.69258   2.65596   -1.000
 5218.00    2.75629   2.73666   -1.000
 5219.00    2.83773   2.82259   -1.000
 5220.00    2.91344   2.87750   -1.000
 5221.00    2.93529   2.89093   -1.000
 5222.00    2.87418   2.85806   -1.000
 5223.00    2.75590   2.76916  117.091
 5224.00    2.63018   2.63093  121.569
 5225.00    2.47878   2.47403  127.085
 5226.00    2.34860   2.35939  131.425
 5227.00    2.40088   2.35372   -1.000
 5228.00    2.58876   2.48791   -1.000
 5229.00    2.74478   2.68110   -1.000
 5230.00    2.84483   2.80558   -1.000
 5231.00    2.85443   2.81194   -1.000
 5232.00    2.78202   2.73875   -1.000
 5233.00    2.72315   2.65900   -1.000
 5234.00    2.71552   2.65270   -1.000
 5235.00    2.76481   2.73503   -1.000
 5236.00    2.85022   2.84514   -1.000
 5237.00    2.96915   2.93519   -1.000
 5238.00    3.02203   2.96766   -1.000
 5239.00    2.98219   2.95971   -1.000
 5240.00    2.92118   2.94002  112.627
 5241.00    2.91846   2.92387  112.095
 5242.00    2.94356   2.92375   -1.000
 5243.00    2.95977   2.94525   -1.000
 5244.00    2.98438   2.96668   -1.000
 5245.00    2.96151   2.93793   -1.000
 5246.00    2.83653   2.84849  116.367
 5247.00    2.72830   2.75198  119.416
 5248.00    2.72219   2.70790   -1.000
 5249.00    2.72837   2.70761   -1.000
 5250.00    2.70168   2.70574   -1.000
 5251.00    2.71597   2.71712   -1.000
 5252.00    2.77020   2.75623   -1.000
 5253.00    2.79342   2.78582   -1.000
 5254.00    2.78628   2.78667   -1.000
 5255.00    2.79181   2.79309   -1.000
 5256.00    2.87360   2.85920   -1.000
 5257.00    3.00665   2.97244   -1.000
 5258.00    3.06651   3.05025   -1.000
 5259.00    3.03879   3.05134  111.111
 5260.00    2.96770   2.97729  113.558
 5261.00    2.83837   2.84578  117.875
 5262.00    2.67717   2.68815  123.340
 5263.00    2.55054   2.53386   -1.000
 5264.00    2.44877   2.42121   -1.000
 5265.00    2.38948   2.36857   -1.000
 5266.00    2.43104   2.37926   -1.000
 5267.00    2.49134   2.41659   -1.000
 5268.00    2.44503   2.39091   -1.000
 5269.00    2.32459   2.28287   -1.000
 5270.00    2.32415   2.23963   -1.000
 5271.00    2.51436   2.36185   -1.000
 5272.00    2.71257   2.58269   -1.000
 5273.00    2.81872   2.72894   -1.000
 5274.00    2.83238   2.74735   -1.000
 5275.00    2.83964   2.76218   -1.000
 5276.00    2.91139   2.82290   -1.000
 5277.00    3.01994   2.93937   -1.000
 5278.00    3.12030   3.04012   -1.000
 5279.00    3.10844   3.05055   -1.000
 5280.00    3.01449   2.98454   -1.000
 5281.00    2.92352   2.88358   -1.000
 5282.00    2.86420   2.79043   -1.000
 5283.00    2.81802   2.74968   -1.000
 5284.00    2.87541   2.81111   -1.000
 5285.00    3.03181   2.95623   -1.000
 5286.00    3.15087   3.10207   -1.000
 5287.00    3.18126   3.17129   -1.000
 5288.00    3.20152   3.16988   16.377
 5289.00    3.21928   3.16144   10.965
 5290.00    3.23042   3.17250   10.919
 5291.00    3.22970   3.18311   10.881
 5292.00    3.18789   3.16987   10.918
 5293.00    3.16644   3.14669   11.011
 5294.00    3.16643   3.11915   11.145
 5295.00    3.08039   3.05007   11.399
 5296.00    2.92329   2.91339   11.800
 5297.00    2.78545   2.76907   12.165
 5298.00    2.76317   2.71771   12.213
 5299.00    2.87091   2.77524   11.967
 5300.00    2.95670   2.86982   11.714
 5301.00    2.98686   2.92809   11.595
 5302.00    3.05467   2.97843   11.478
 5303.00    3.16491   3.06264   11.219
 5304.00    3.28220   3.17099   10.978
 5305.00    3.32753   3.23749   10.897
 5306.00    3.27672   3.22815   10.964
 5307.00    3.22954   3.19183   11.066
 5308.00    3.24570   3.18793   11.047
 5309.00    3.29456   3.21902   10.941
 5310.00    3.31565   3.25163   10.856
 5311.00    3.31614   3.25060   10.842
 5312.00    3.29186   3.22595   10.889
 5313.00    3.27699   3.19890   10.942
 5314.00    3.26937   3.17230   11.011
 5315.00    3.24207   3.14617   11.111
 5316.00    3.21570   3.11836   11.215
 5317.00    3.20236   3.10886   11.249
 5318.00    3.20491   3.12137   11.190
 5319.00    3.21303   3.13245   11.129
 5320.00    3.22423   3.13442   11.143
 5321.00    3.19483   3.12097   11.212
 5322.00    3.14237   3.07712   11.328
 5323.00    3.10324   3.00278   11.507
 5324.00    3.05821   2.93102   11.646
 5325.00    3.02083   2.88076   11.675
 5326.00    2.95488   2.78450   11.887
 5327.00    2.77737   2.61543   12.519
 5328.00    2.63381   2.48287   13.066
 5329.00    2.68032   2.51471   12.837
 5330.00    2.89686   2.72762   12.130
 5331.00    3.08644   2.94020   11.629
 5332.00    3.15191   3.03589   11.434
 5333.00    3.17996   3.08187   11.327
 5334.00    3.23941   3.13395   11.203
 5335.00    3.28093   3.19208   11.127
 5336.00    3.27667   3.21556   11.163
 5337.00    3.25159   3.19050   11.238
 5338.00    3.21277   3.12392   11.345
 5339.00    3.11796   3.01701   11.581
 5340.00    3.00466   2.91053   11.818
 5341.00    3.00076   2.88741   11.815
 5342.00    3.09944   2.97715   11.557
 5343.00    3.18181   3.07521   11.311
 5344.00    3.20399   3.11048   11.249
 5345.00    3.19003   3.09729   11.304
 5346.00    3.15773   3.06790   11.379
 5347.00    3.12744   3.03969   11.440
 5348.00    3.12097   3.00961   11.528
 5349.00    3.14419   2.99873   11.581
 5350.00    3.20212   3.04930   11.465
 5351.00    3.27076   3.14393   11.221
 5352.00    3.32658   3.23185   11.041
 5353.00    3.37699   3.29075   10.976
 5354.00    3.44073   3.32883   10.909
 5355.00    3.51369   3.37725   10.784
 5356.00    3.52175   3.41193   10.684
 5357.00    3.52602   3.42091   10.666
 5358.00    3.50400   3.41530   10.683
 5359.00    3.44819   3.39556   10.715
 5360.00    3.39839   3.35198   10.813
 5361.00    3.34563   3.29419   10.980
 5362.00    3.29736   3.24527   11.150
 5363.00    3.24769   3.21115   11.255
 5364.00    3.19944   3.17902   11.323
 5365.00    3.15444   3.14860   11.390
 5366.00    3.17789   3.13437   11.388
 5367.00    3.23681   3.13358   11.373
 5368.00    3.20501   3.10486   11.453
 5369.00    3.05260   3.00016   11.688
 5370.00    2.93479   2.85915   12.028
 5371.00    2.91221   2.78577   12.172
 5372.00    3.01562   2.85430   11.867
 5373.00    3.20891   3.03843   11.342
 5374.00    3.35000   3.21535   10.985
 5375.00    3.39720   3.31036   10.850
 5376.00    3.42327   3.31288   10.852
 5377.00    3.42496   3.29784   10.868
 5378.00    3.42227   3.30875   10.883
 5379.00    3.41432   3.32566   10.933
 5380.00    3.38358   3.31728   11.028
 5381.00    3.35827   3.27660   11.139
 5382.00    3.33286   3.23193   11.211
 5383.00    3.30744   3.21227   11.221
 5384.00    3.34508   3.22329   11.181
 5385.00    3.40826   3.26166   11.081
 5386.00    3.41133   3.29723   11.026
 5387.00    3.37202   3.29686   11.056
 5388.00    3.31217   3.25136   11.147
 5389.00    3.25680   3.18341   11.300
 5390.00    3.21245   3.12189   11.443
 5391.00    3.17251   3.08878   11.517
 5392.00    3.15374   3.08314   11.535
 5393.00    3.15753   3.08710   11.560
 5394.00    3.14081   3.07857   11.631
 5395.00    3.09964   3.03265   11.765
 5396.00    3.04149   2.95478   11.979
 5397.00    3.01082   2.90201   12.065
 5398.00    3.06303   2.94994   11.812
 5399.00    3.16897   3.06545   11.459
 5400.00    3.24868   3.15704   11.309
 5401.00    3.28084   3.20065   11.310
 5402.00    3.25957   3.18846   11.380
 5403.00    3.14708   3.10426   11.646
 5404.00    2.96567   2.95523   12.027
 5405.00    2.86011   2.81498   12.276
 5406.00    2.89725   2.78802   12.236
 5407.00    2.97930   2.88148   12.007
 5408.00    3.03888   2.96082   11.853
 5409.00    3.07307   2.97314   11.896
 5410.00    3.10207   2.96837   11.896
 5411.00    3.18464   3.03360   11.655
 5412.00    3.31157   3.15015   11.365
 5413.00    3.36317   3.23034   11.202
 5414.00    3.35670   3.25774   11.174
 5415.00    3.38417   3.28405   11.183
 5416.00    3.42871   3.33715   11.127
 5417.00    3.46478   3.38756   11.049
 5418.00    3.45175   3.39032   11.059
 5419.00    3.37584   3.35239   11.152
 5420.00    3.33084   3.31450   11.235
 5421.00    3.35532   3.29921   11.223
 5422.00    3.37559   3.30085   11.175
 5423.00    3.36036   3.27817   11.268
 5424.00    3.32352   3.24979   11.395
 5425.00    3.33272   3.28684   11.342
 5426.00    3.42670   3.36937   11.165
 5427.00    3.46414   3.39844   11.128
 5428.00    3.34146   3.30527   11.356
 5429.00    3.18665   3.14393   11.714
 5430.00    3.16168   3.06304   11.848
 5431.00    3.23960   3.09648   11.697
 5432.00    3.24435   3.14114   11.620
 5433.00    3.16945   3.11785   11.740
 5434.00    3.14395   3.04865   11.891
 5435.00    3.14292   3.03066   11.902
 5436.00    3.20045   3.10227   11.720
 5437.00    3.34024   3.23080   11.418
 5438.00    3.49266   3.36096   11.153
 5439.00    3.56752   3.45565   10.975
 5440.00    3.62265   3.51392   10.867
 5441.00    3.63266   3.53740   10.828
 5442.00    3.60641   3.54704   10.824
 5443.00    3.56539   3.52176   10.902
 5444.00    3.48825   3.42442   11.142
 5445.00    3.30001   3.25370   11.556
 5446.00    3.10760   3.08000   11.975
 5447.00    3.08312   3.00562   12.035
 5448.00    3.22282   3.07317   11.724
 5449.00    3.34331   3.21001   11.373
 5450.00    3.37514   3.31192   11.201
 5451.00    3.36991   3.32713   11.175
 5452.00    3.35130   3.29445   11.244
 5453.00    3.28725   3.22141   11.457
 5454.00    3.16771   3.10338   11.773
 5455.00    3.08256   2.99849   12.057
 5456.00    3.13997   3.00665   12.016
 5457.00    3.30772   3.13787   11.659
 5458.00    3.43374   3.29764   11.307
 5459.00    3.43515   3.36714   11.170
 5460.00    3.38748   3.34032   11.248
 5461.00    3.32104   3.26641   11.441
 5462.00    3.25313   3.19573   11.618
 5463.00    3.22622   3.17338   11.709
 5464.00    3.27954   3.20415   11.625
 5465.00    3.38268   3.26144   11.480
 5466.00    3.44312   3.30957   11.402
 5467.00    3.44354   3.34088   11.300
 5468.00    3.41404   3.35321   11.225
 5469.00    3.37342   3.34055   11.286
 5470.00    3.35393   3.30699   11.405
 5471.00    3.37616   3.27737   11.471
 5472.00    3.38302   3.26195   11.521
 5473.00    3.34506   3.24232   11.622
 5474.00    3.28438   3.19525   11.774
 5475.00    3.19045   3.12077   12.002
 5476.00    3.11297   3.04561   12.214
 5477.00    3.13014   3.03733   12.195
 5478.00    3.24466   3.13776   11.891
 5479.00    3.31795   3.23922   11.614
 5480.00    3.28842   3.24073   11.611
 5481.00    3.21970   3.18326   11.748
 5482.00    3.22569   3.16035   11.780
 5483.00    3.31359   3.23815   11.624
 5484.00    3.41066   3.35222   11.391
 5485.00    3.46063   3.41113   11.249
 5486.00    3.40358   3.39189   11.298
 5487.00    3.30364   3.32103   11.451
 5488.00    3.27781   3.27513   11.550
 5489.00    3.33939   3.28484   11.569
 5490.00    3.40068   3.33337   11.511
 5491.00    3.44648   3.37231   11.426
 5492.00    3.45881   3.38163   11.371
 5493.00    3.43096   3.37324   11.376
 5494.00    3.43626   3.36524   11.390
 5495.00    3.46542   3.35983   11.389
 5496.00    3.44788   3.33926   11.445
 5497.00    3.43949   3.31782   11.530
 5498.00    3.47787   3.33638   11.512
 5499.00    3.51017   3.37809   11.398
 5500.00    3.45474   3.37654   11.418
 5501.00    3.39819   3.32237   11.581
 5502.00    3.40358   3.26989   11.656
 5503.00    3.39785   3.26706   11.590
 5504.00    3.38731   3.28584   11.540
 5505.00    3.35488   3.26082   11.643
 5506.00    3.31304   3.21563   11.778
 5507.00    3.34474   3.22119   11.738
 5508.00    3.40166   3.29028   11.566
 5509.00    3.42578   3.35833   11.471
 5510.00    3.40745   3.35210   11.513
 5511.00    3.33933   3.27674   11.696
 5512.00    3.26736   3.18994   11.907
 5513.00    3.24406   3.14222   12.039
 5514.00    3.26898   3.15662   11.971
 5515.00    3.31588   3.20223   11.773
 5516.00    3.39718   3.26491   11.585
 5517.00    3.50970   3.34474   11.381
 5518.00    3.58871   3.43132   11.183
 5519.00    3.59990   3.49560   11.106
 5520.00    3.58566   3.51655   11.115
 5521.00    3.59389   3.50253   11.137
 5522.00    3.60057   3.49571   11.170
 5523.00    3.57775   3.49888   11.196
 5524.00    3.53978   3.49429   11.248
 5525.00    3.50601   3.45346   11.376
 5526.00    3.42172   3.36518   11.608
 5527.00    3.31311   3.26014   11.902
 5528.00    3.29242   3.20096   12.047
 5529.00    3.34947   3.24927   11.879
 5530.00    3.46082   3.35893   11.571
 5531.00    3.53836   3.43716   11.371
 5532.00    3.54680   3.45338   11.346
 5533.00    3.52137   3.42871   11.432
 5534.00    3.48621   3.40600   11.507
 5535.00    3.49289   3.39439   11.496
 5536.00    3.51509   3.39733   11.415
 5537.00    3.52008   3.41404   11.364
 5538.00    3.53824   3.44053   11.324
 5539.00    3.59180   3.48241   11.231
 5540.00    3.65916   3.53120   11.134
 5541.00    3.70347   3.55194   11.110
 5542.00    3.66264   3.53192   11.194
 5543.00    3.58719   3.49287   11.312
 5544.00    3.55453   3.47003   11.368
 5545.00    3.55576   3.47101   11.352
 5546.00    3.56860   3.48214   11.323
 5547.00    3.62225   3.50899   11.266
 5548.00    3.69549   3.56378   11.165
 5549.00    3.73222   3.61671   11.065
 5550.00    3.77704   3.63445   11.019
 5551.00    3.75956   3.62330   11.054
 5552.00    3.69659   3.59002   11.141
 5553.00    3.66503   3.54628   11.261
 5554.00    3.63957   3.51418   11.340
 5555.00    3.65534   3.50855   11.343
 5556.00    3.67462   3.51627   11.311
 5557.00    3.64370   3.51937   11.286
 5558.00    3.63832   3.51743   11.271
 5559.00    3.65682   3.52326   11.258
 5560.00    3.64350   3.52647   11.271
 5561.00    3.60288   3.50603   11.320
 5562.00    3.56313   3.47114   11.418
 5563.00    3.57174   3.45084   11.512
 5564.00    3.59172   3.44664   11.558
 5565.00    3.54649   3.43899   11.583
 5566.00    3.49945   3.42119   11.599
 5567.00    3.52666   3.41174   11.585
 5568.00    3.56164   3.41278   11.559
 5569.00    3.56920   3.42103   11.575
 5570.00    3.59757   3.43858   11.582
 5571.00    3.60117   3.44944   11.578
 5572.00    3.57376   3.43738   11.603
 5573.00    3.59159   3.42443   11.580
 5574.00    3.76929   3.44743   -1.000
 5575.00    4.42148   3.50171   -1.000
 5576.00    5.87225   3.53308   -1.000
 5577.00    6.74903   3.54076   -1.000
 5578.00    5.02612   3.56187   -1.000
 5579.00    1.75534   3.58615   -1.000
 5580.00    0.47049   3.58968   -1.000
 5581.00    1.53290   3.57607   -1.000
 5582.00    2.82438   3.54870   -1.000
 5583.00    3.43493   3.52501   11.411
 5584.00    3.60181   3.49687   11.453
 5585.00    3.55430   3.41877   11.651
 5586.00    3.41957   3.30536   11.944
 5587.00    3.33902   3.19670   12.224
 5588.00    3.33010   3.14835   12.373
 5589.00    3.38453   3.18243   -1.000
 5590.00    3.42108   3.25742   12.088
 5591.00    3.43387   3.33566   11.901
 5592.00    3.48000   3.37430   11.825
 5593.00    3.49684   3.38774   11.852
 5594.00    3.49695   3.41658   11.821
 5595.00    3.58592   3.48050   11.676
 5596.00    3.67650   3.53762   11.553
 5597.00    3.63817   3.51944   11.601
 5598.00    3.53421   3.43568   11.783
 5599.00    3.47792   3.35861   11.937
 5600.00    3.45147   3.31301   11.968
 5601.00    3.43054   3.29271   12.008
 5602.00    3.44981   3.29301   12.073
 5603.00    3.52311   3.34491   11.954
 5604.00    3.64216   3.46329   11.656
 5605.00    3.74862   3.58774   11.369
 5606.00    3.77816   3.66245   11.196
 5607.00    3.76174   3.69375   11.142
 5608.00    3.75531   3.69264   11.150
 5609.00    3.75908   3.68501   11.173
 5610.00    3.77691   3.69145   11.172
 5611.00    3.80099   3.71819   11.143
 5612.00    3.78753   3.71927   11.168
 5613.00    3.70900   3.64312   11.346
 5614.00    3.56377   3.47942   11.698
 5615.00    3.43479   3.32246   12.021
 5616.00    3.44499   3.29201   12.034
 5617.00    3.54346   3.37018   11.790
 5618.00    3.60574   3.46384   11.583
 5619.00    3.61774   3.50280   11.519
 5620.00    3.67122   3.52333   11.480
 5621.00    3.71567   3.56782   11.423
 5622.00    3.70607   3.58068   11.438
 5623.00    3.65119   3.51330   11.613
 5624.00    3.55892   3.41845   11.841
 5625.00    3.50416   3.37446   11.874
 5626.00    3.54877   3.42850   11.709
 5627.00    3.62613   3.51780   11.525
 5628.00    3.70456   3.57724   11.383
 5629.00    3.75018   3.62152   11.285
 5630.00    3.77258   3.65251   11.239
 5631.00    3.81111   3.66605   11.200
 5632.00    3.80770   3.66198   11.193
 5633.00    3.76352   3.64212   11.260
 5634.00    3.74077   3.61402   11.346
 5635.00    3.70333   3.57498   11.420
 5636.00    3.64925   3.53524   11.500
 5637.00    3.63112   3.51603   11.581
 5638.00    3.66331   3.52183   11.606
 5639.00    3.68596   3.53359   11.595
 5640.00    3.66564   3.52605   11.618
 5641.00    3.64058   3.50218   11.637
 5642.00    3.64691   3.49615   11.605
 5643.00    3.67502   3.52254   11.551
 5644.00    3.71353   3.55406   11.522
 5645.00    3.74321   3.57891   11.462
 5646.00    3.72949   3.60067   11.412
 5647.00    3.71729   3.61041   11.384
 5648.00    3.74241   3.60437   11.363
 5649.00    3.75519   3.59339   11.377
 5650.00    3.75139   3.60617   11.387
 5651.00    3.78332   3.64850   11.323
 5652.00    3.82413   3.68283   11.270
 5653.00    3.80092   3.67372   11.294
 5654.00    3.74129   3.63716   11.373
 5655.00    3.68234   3.60815   11.479
 5656.00    3.60124   3.56911   11.666
 5657.00    3.51511   3.48738   11.989
 5658.00    3.46742   3.39461   12.245
 5659.00    3.49510   3.37620   12.177
 5660.00    3.58450   3.44516   11.923
 5661.00    3.62560   3.50213   11.807
 5662.00    3.62233   3.49489   11.816
 5663.00    3.68417   3.51189   11.732
 5664.00    3.75382   3.57920   11.570
 5665.00    3.76654   3.63501   11.486
 5666.00    3.73011   3.64227   11.519
 5667.00    3.68304   3.60713   11.590
 5668.00    3.68360   3.58036   11.621
 5669.00    3.69476   3.58442   11.603
 5670.00    3.70950   3.60194   11.540
 5671.00    3.75408   3.63736   11.445
 5672.00    3.82878   3.69587   11.334
 5673.00    3.90137   3.74778   11.223
 5674.00    3.91208   3.76638   11.191
 5675.00    3.88988   3.76665   11.223
 5676.00    3.91582   3.76971   11.211
 5677.00    3.95671   3.78270   11.185
 5678.00    3.92059   3.77860   11.220
 5679.00    3.89255   3.74771   11.272
 5680.00    3.86522   3.71001   11.332
 5681.00    3.79394   3.66732   11.445
 5682.00    3.72410   3.61496   11.584
 5683.00    3.73336   3.59493   11.644
 5684.00    3.76181   3.63252   11.601
 5685.00    3.76995   3.66845   11.540
 5686.00    3.75068   3.64905   11.563
 5687.00    3.71762   3.60652   11.679
 5688.00    3.74093   3.58831   11.752
 5689.00    3.80269   3.62676   11.668
 5690.00    3.85329   3.69769   11.471
 5691.00    3.89484   3.76330   11.327
 5692.00    3.92212   3.81070   11.249
 5693.00    3.93017   3.82183   11.214
 5694.00    3.94784   3.80883   11.220
 5695.00    3.96376   3.79042   11.231
 5696.00    3.92434   3.77194   11.256
 5697.00    3.86324   3.73770   11.344
 5698.00    3.81371   3.68900   11.473
 5699.00    3.77673   3.64749   11.585
 5700.00    3.76388   3.61876   11.701
 5701.00    3.71069   3.58627   11.779
 5702.00    3.65045   3.58384   11.731
 5703.00    3.67259   3.62914   11.613
 5704.00    3.69965   3.66700   11.554
 5705.00    3.66270   3.65814   11.604
 5706.00    3.60784   3.59611   11.746
 5707.00    3.57936   3.52171   11.954
 5708.00    3.54764   3.47175   12.154
 5709.00    3.53774   3.44243   12.259
 5710.00    3.54287   3.44757   12.256
 5711.00    3.55958   3.48360   12.155
 5712.00    3.63915   3.54918   11.939
 5713.00    3.78536   3.64925   11.652
 5714.00    3.90934   3.73580   11.439
 5715.00    3.94447   3.77633   11.361
 5716.00    3.93565   3.80337   11.337
 5717.00    3.94412   3.81755   11.305
 5718.00    3.96798   3.82750   11.255
 5719.00    3.98896   3.84608   11.187
 5720.00    4.02558   3.88014   11.127
 5721.00    4.06909   3.91817   11.094
 5722.00    4.10494   3.94725   11.075
 5723.00    4.12225   3.96292   11.061
 5724.00    4.09639   3.95469   11.075
 5725.00    4.02184   3.90577   11.150
 5726.00    3.96352   3.83630   11.264
 5727.00    3.94897   3.79734   11.364
 5728.00    3.95809   3.81340   11.348
 5729.00    3.98819   3.85584   11.275
 5730.00    3.97833   3.86276   11.276
 5731.00    3.93618   3.83842   11.330
 5732.00    3.95906   3.83540   11.319
 5733.00    4.02047   3.88558   11.224
 5734.00    4.06228   3.94519   11.139
 5735.00    4.09094   3.95629   11.126
 5736.00    4.10143   3.93221   11.142
 5737.00    4.08063   3.90275   11.169
 5738.00    4.05361   3.89240   11.186
 5739.00    4.04573   3.90101   11.204
 5740.00    4.03279   3.90619   11.224
 5741.00    4.01056   3.90347   11.247
 5742.00    3.99936   3.89384   11.236
 5743.00    4.02691   3.90626   11.218
 5744.00    4.07353   3.94934   11.158
 5745.00    4.09728   3.98472   11.088
 5746.00    4.07480   3.97578   11.113
 5747.00    4.00937   3.91925   11.214
 5748.00    3.99078   3.88485   11.280
 5749.00    4.04086   3.91889   11.244
 5750.00    4.06811   3.96110   11.195
 5751.00    4.04309   3.94981   11.247
 5752.00    3.98223   3.86031   11.375
 5753.00    3.93367   3.77108   11.499
 5754.00    3.95153   3.76951   -1.000
 5755.00    4.02218   3.85371   -1.000
 5756.00    4.12294   3.96851   11.224
 5757.00    4.18516   4.03528   11.066
 5758.00    4.17177   4.03440   11.053
 5759.00    4.09844   3.97109   11.156
 5760.00    3.98330   3.87629   11.300
 5761.00    3.86631   3.79171   11.453
 5762.00    3.83545   3.75115   11.542
 5763.00    3.92189   3.79354   11.468
 5764.00    4.04409   3.90779   11.280
 5765.00    4.11385   4.00970   11.120
 5766.00    4.12373   4.04396   11.057
 5767.00    4.15139   4.05358   11.043
 5768.00    4.16572   4.05213   11.027
 5769.00    4.14912   4.03602   11.036
 5770.00    4.11307   4.01429   11.070
 5771.00    4.06737   3.99496   11.125
 5772.00    4.01226   3.97513   11.193
 5773.00    3.99097   3.96121   11.234
 5774.00    3.98218   3.94790   11.250
 5775.00    3.97843   3.94632   11.238
 5776.00    3.97316   3.96725   11.190
 5777.00    3.93329   3.98054   11.164
 5778.00    3.83761   3.95564   11.187
 5779.00    3.64962   3.87800   11.312
 5780.00    3.46644   3.76604   11.545
 5781.00    3.45198   3.67134   11.735
 5782.00    3.53394   3.63772   11.763
 5783.00    3.63943   3.65621   11.718
 5784.00    3.70994   3.66153   11.674
 5785.00    3.72886   3.66498   11.632
 5786.00    3.80096   3.72804   11.529
 5787.00    3.91043   3.82307   11.380
 5788.00    3.97872   3.89076   11.272
 5789.00    4.01896   3.91457   11.256
 5790.00    4.01546   3.89839   11.299
 5791.00    4.02119   3.89079   11.305
 5792.00    4.08178   3.92802   11.232
 5793.00    4.11429   4.01079   11.147
 5794.00    4.11612   4.08581   11.078
 5795.00    4.10963   4.10233   11.052
 5796.00    4.04359   4.06028   11.097
 5797.00    3.98383   3.99812   11.170
 5798.00    4.04504   3.99063   11.156
 5799.00    4.19452   4.05109   11.036
 5800.00    4.30620   4.14320   10.885
 5801.00    4.30898   4.20276   10.819
 5802.00    4.26816   4.19319   10.878
 5803.00    4.25437   4.13298   10.970
 5804.00    4.23102   4.06525   11.058
 5805.00    4.17748   4.03813   11.120
 5806.00    4.15139   4.04580   11.117
 5807.00    4.15739   4.06905   11.077
 5808.00    4.17053   4.09184   11.041
 5809.00    4.19567   4.10972   11.031
 5810.00    4.21853   4.12354   11.025
 5811.00    4.24602   4.12572   10.992
 5812.00    4.22659   4.11373   10.955
 5813.00    4.18876   4.08562   10.961
 5814.00    4.14367   4.03719   11.032
 5815.00    4.11516   3.98219   11.099
 5816.00    4.13803   3.96531   11.075
 5817.00    4.18338   4.01999   11.000
 5818.00    4.25004   4.10385   10.935
 5819.00    4.31404   4.16014   10.880
 5820.00    4.33650   4.17485   10.838
 5821.00    4.29462   4.16177   10.839
 5822.00    4.25336   4.13465   10.873
 5823.00    4.24128   4.11662   10.873
 5824.00    4.27239   4.12249   10.853
 5825.00    4.30671   4.13836   10.835
 5826.00    4.30308   4.15515   10.821
 5827.00    4.30526   4.16445   10.820
 5828.00    4.32421   4.17477   10.836
 5829.00    4.35277   4.18802   10.829
 5830.00    4.35338   4.19559   10.823
 5831.00    4.34153   4.19344   10.815
 5832.00    4.34281   4.18168   10.824
 5833.00    4.33281   4.15909   10.882
 5834.00    4.29019   4.13161   10.920
 5835.00    4.26110   4.12118   10.898
 5836.00    4.26802   4.13464   10.869
 5837.00    4.25427   4.13736   10.888
 5838.00    4.23453   4.13117   10.918
 5839.00    4.28264   4.14670   10.902
 5840.00    4.35551   4.18341   10.833
 5841.00    4.37139   4.22561   10.767
 5842.00    4.36371   4.24826   10.752
 5843.00    4.35266   4.23715   10.780
 5844.00    4.29772   4.20365   10.821
 5845.00    4.24597   4.15617   10.884
 5846.00    4.22310   4.10914   10.946
 5847.00    4.18743   4.07583   10.999
 5848.00    4.17599   4.06622   11.008
 5849.00    4.19384   4.07184   11.013
 5850.00    4.18641   4.06903   11.064
 5851.00    4.13851   4.02887   11.133
 5852.00    4.09380   3.97299   11.230
 5853.00    4.07751   3.94519   11.304
 5854.00    4.07413   3.95376   11.332
 5855.00    4.07226   3.95291   11.345
 5856.00    4.03184   3.88885   11.428
 5857.00    3.97529   3.81194   11.543
 5858.00    3.97184   3.80004   11.522
 5859.00    4.03358   3.86756   11.389
 5860.00    4.11714   3.95899   11.278
 5861.00    4.18694   4.00122   -1.000
 5862.00    4.21347   4.00293   -1.000
 5863.00    4.21122   3.99861   -1.000
 5864.00    4.22121   4.00085   -1.000
 5865.00    4.22655   3.99143   -1.000
 5866.00    4.20931   3.96013   -1.000
 5867.00    4.20477   3.95561   -1.000
 5868.00    4.19430   4.01152   11.193
 5869.00    4.20423   4.07609   11.091
 5870.00    4.20460   4.10806   11.030
 5871.00    4.20678   4.10640   11.015
 5872.00    4.22324   4.08261   11.036
 5873.00    4.22322   4.06331   11.048
 5874.00    4.21970   4.05878   11.036
 5875.00    4.19972   4.06469   11.052
 5876.00    4.17142   4.05322   11.097
 5877.00    4.17166   4.01810   11.124
 5878.00    4.18321   3.97243   -1.000
 5879.00    4.17974   3.92965   -1.000
 5880.00    4.14403   3.90663   -1.000
 5881.00    4.10374   3.91590   11.266
 5882.00    4.10163   3.93749   11.255
 5883.00    4.09727   3.92534   11.290
 5884.00    4.12314   3.90285   -1.000
 5885.00    4.14325   3.89496   -1.000
 5886.00    4.11736   3.82923   -1.000
 5887.00    4.04439   3.60808   -1.000
 5888.00    3.98941   3.21482   -1.000
 5889.00    3.99155   2.83320   -1.000
 5890.00    3.72127   2.70668   -1.000
 5891.00    2.83683   2.86983   13.512
 5892.00    1.96703   3.15218   -1.000
 5893.00    2.01106   3.28457   -1.000
 5894.00    2.68216   3.18416   -1.000
 5895.00    3.27843   2.99007   -1.000
 5896.00    3.46734   2.94685   -1.000
 5897.00    3.18950   3.16922   12.800
 5898.00    2.83939   3.43829   -1.000
 5899.00    2.96850   3.61801   -1.000
 5900.00    3.48708   3.75135   11.688
 5901.00    3.90531   3.84602   11.464
 5902.00    4.06917   3.90405   11.359
 5903.00    4.11974   3.93427   11.339
 5904.00    4.15803   3.93802   -1.000
 5905.00    4.16618   3.93158   -1.000
 5906.00    4.14653   3.93315   -1.000
 5907.00    4.13285   3.95893   11.331
 5908.00    4.12651   3.99057   11.305
 5909.00    4.14618   4.01328   11.324
 5910.00    4.18857   4.03262   11.351
 5911.00    4.20275   4.03471   11.362
 5912.00    4.18646   4.00047   11.395
 5913.00    4.14925   3.93170   -1.000
 5914.00    4.09813   3.86608   -1.000
 5915.00    4.07780   3.84633   -1.000
 5916.00    4.06763   3.87312   -1.000
 5917.00    4.04934   3.92530   11.539
 5918.00    4.06657   3.98424   11.494
 5919.00    4.13433   4.02164   11.460
 5920.00    4.17478   4.03172   11.423
 5921.00    4.18740   4.01636   11.411
 5922.00    4.19065   3.99703   11.423
 5923.00    4.15401   4.00042   11.394
 5924.00    4.16807   4.02982   11.352
 5925.00    4.21317   4.06428   11.328
 5926.00    4.22059   4.08545   11.316
 5927.00    4.18446   4.07418   11.329
 5928.00    4.12818   4.02895   11.394
 5929.00    4.10333   3.98551   11.484
 5930.00    4.14413   3.98357   11.505
 5931.00    4.23445   4.03272   -1.000
 5932.00    4.30115   4.06817   -1.000
 5933.00    4.28474   4.05091   -1.000
 5934.00    4.18976   4.01536   11.475
 5935.00    4.12469   4.01199   11.511
 5936.00    4.14446   4.06073   11.463
 5937.00    4.20489   4.10861   11.369
 5938.00    4.24545   4.12270   11.308
 5939.00    4.25219   4.10728   11.327
 5940.00    4.20484   4.06234   11.424
 5941.00    4.16886   4.01424   11.508
 5942.00    4.20676   4.00412   -1.000
 5943.00    4.25844   4.04843   -1.000
 5944.00    4.28796   4.10602   -1.000
 5945.00    4.32595   4.14088   -1.000
 5946.00    4.32173   4.13882   -1.000
 5947.00    4.24454   4.09811   11.439
 5948.00    4.17946   4.04425   11.558
 5949.00    4.17547   4.02753   11.614
 5950.00    4.20801   4.05186   11.576
 5951.00    4.25677   4.05830   -1.000
 5952.00    4.26279   4.04211   -1.000
 5953.00    4.23533   4.03596   -1.000
 5954.00    4.21296   4.05341   11.519
 5955.00    4.18576   4.05669   11.514
 5956.00    4.12965   4.02574   11.549
 5957.00    4.11103   4.00351   11.577
 5958.00    4.15582   4.03269   11.549
 5959.00    4.22088   4.09502   11.440
 5960.00    4.27727   4.15657   11.319
 5961.00    4.31073   4.19649   11.257
 5962.00    4.32018   4.20283   11.237
 5963.00    4.30707   4.18777   11.253
 5964.00    4.26682   4.15824   11.306
 5965.00    4.25545   4.12769   11.353
 5966.00    4.28354   4.12612   11.392
 5967.00    4.31186   4.16399   11.387
 5968.00    4.34392   4.20185   11.315
 5969.00    4.37381   4.22344   11.266
 5970.00    4.39700   4.24227   11.259
 5971.00    4.40528   4.25474   11.242
 5972.00    4.37120   4.24984   11.225
 5973.00    4.31701   4.22922   11.264
 5974.00    4.28765   4.18966   11.349
 5975.00    4.28141   4.12958   11.437
 5976.00    4.28026   4.07972   -1.000
 5977.00    4.25390   4.06040   -1.000
 5978.00    4.21683   4.07595   11.560
 5979.00    4.21787   4.12568   11.470
 5980.00    4.27315   4.17360   11.408
 5981.00    4.30395   4.18116   11.417
 5982.00    4.25573   4.12683   11.493
 5983.00    4.16933   4.04937   11.595
 5984.00    4.12497   4.00788   11.666
 5985.00    4.17668   4.04105   11.653
 5986.00    4.26356   4.11608   11.551
 5987.00    4.32426   4.16394   11.462
 5988.00    4.34152   4.18983   11.417
 5989.00    4.33701   4.20634   11.368
 5990.00    4.32453   4.20858   11.362
 5991.00    4.30071   4.21051   11.390
 5992.00    4.31896   4.24460   11.359
 5993.00    4.36178   4.30110   11.271
 5994.00    4.38350   4.33109   11.219
 5995.00    4.39601   4.30515   11.266
 5996.00    4.35567   4.23817   11.350
 5997.00    4.29580   4.18294   11.408
 5998.00    4.29403   4.17165   11.439
 5999.00    4.30509   4.19297   11.431
 6000.00    4.31847   4.21135   11.430
 6001.00    4.32908   4.20981   11.482
 6002.00    4.32980   4.18950   11.533
 6003.00    4.34145   4.18217   11.540
 6004.00    4.33980   4.20722   11.515
 6005.00    4.27386   4.20865   11.509
 6006.00    4.18254   4.14758   11.571
 6007.00    4.14787   4.07704   11.681
 6008.00    4.16483   4.06912   11.719
 6009.00    4.19592   4.14862   11.619
 6010.00    4.23300   4.23326   11.489
 6011.00    4.26498   4.23682   11.456
 6012.00    4.23230   4.19223   11.525
 6013.00    4.20953   4.15637   11.598
 6014.00    4.27345   4.16384   11.576
 6015.00    4.32114   4.18479   11.550
 6016.00    4.30573   4.17044   11.589
 6017.00    4.28956   4.15746   11.622
 6018.00    4.27517   4.16510   11.607
 6019.00    4.24381   4.15334   11.619
 6020.00    4.23467   4.13744   11.685
 6021.00    4.26523   4.15093   11.680
 6022.00    4.31658   4.17985   11.605
 6023.00    4.37091   4.20912   -1.000
 6024.00    4.39885   4.24160   -1.000
 6025.00    4.39327   4.27854   11.495
 6026.00    4.41492   4.31008   11.446
 6027.00    4.46731   4.33699   11.388
 6028.00    4.50847   4.37205   11.329
 6029.00    4.52014   4.39658   11.304
 6030.00    4.50771   4.39773   11.303
 6031.00    4.53649   4.40083   11.323
 6032.00    4.58581   4.41654   -1.000
 6033.00    4.58878   4.44458   11.275
 6034.00    4.57775   4.47580   11.238
 6035.00    4.55323   4.48526   11.227
 6036.00    4.49362   4.47363   11.212
 6037.00    4.44555   4.45293   11.213
 6038.00    4.44895   4.43081   11.262
 6039.00    4.44895   4.41168   11.301
 6040.00    4.41308   4.40295   11.330
 6041.00    4.43743   4.40202   11.326
 6042.00    4.51111   4.39635   11.305
 6043.00    4.56071   4.42541   11.261
 6044.00    4.61288   4.48297   11.179
 6045.00    4.64151   4.51752   11.153
 6046.00    4.61782   4.52995   11.163
 6047.00    4.58616   4.53156   11.150
 6048.00    4.58011   4.52990   11.151
 6049.00    4.58741   4.52809   11.183
 6050.00    4.59043   4.53442   11.213
 6051.00    4.58578   4.52912   11.227
 6052.00    4.59221   4.49322   11.245
 6053.00    4.58038   4.45078   11.284
 6054.00    4.53550   4.41920   11.323
 6055.00    4.50821   4.38520   11.376
 6056.00    4.47468   4.36310   11.422
 6057.00    4.46597   4.37497   11.418
 6058.00    4.52259   4.41028   11.368
 6059.00    4.57770   4.45434   11.307
 6060.00    4.60318   4.47749   11.298
 6061.00    4.59651   4.46069   11.323
 6062.00    4.53109   4.40476   11.441
 6063.00    4.43300   4.33052   11.654
 6064.00    4.33937   4.27083   11.464
 6065.00    4.29462   4.26884   15.006
 6066.00    4.42533   4.35206    5.154
 6067.00    4.21647   4.46390    5.903
 6068.00    2.63177   4.53974   -1.000
 6069.00    2.31763   4.56984   -1.000
 6070.00    3.77435   4.58554   -1.000
 6071.00    4.68325   4.59922   10.914
 6072.00    4.23059   4.60167   11.033
 6073.00    2.13974   4.59376   -1.000
 6074.00    2.60755   4.58570   -1.000
 6075.00    4.34642   4.56497   11.232
 6076.00    4.66645   4.52442   11.285
 6077.00    4.58671   4.47060   11.349
 6078.00    4.49856   4.42526   11.430
 6079.00    4.44398   4.40549   11.507
 6080.00    4.46969   4.39029   11.533
 6081.00    4.50177   4.36096   11.539
 6082.00    4.48028   4.34895   11.566
 6083.00    4.45624   4.37223   11.577
 6084.00    4.49241   4.39507   11.569
 6085.00    4.50335   4.41231   11.558
 6086.00    4.49613   4.43657   11.531
 6087.00    4.53831   4.45212   11.488
 6088.00    4.55087   4.43989   11.487
 6089.00    4.48649   4.39657   11.545
 6090.00    4.45804   4.35283   11.603
 6091.00    4.48354   4.34693   11.614
 6092.00    4.51945   4.37385   -1.000
 6093.00    4.56259   4.42038   -1.000
 6094.00    4.61142   4.47069   -1.000
 6095.00    4.65411   4.50058   -1.000
 6096.00    4.64935   4.50326   -1.000
 6097.00    4.62560   4.50533   11.387
 6098.00    4.62075   4.53245   11.402
 6099.00    4.61408   4.53479   11.404
 6100.00    4.56374   4.46251   11.495
 6101.00    4.44064   4.31310   11.736
 6102.00    4.32350   4.18166   -1.000
 6103.00    4.31999   4.19873   11.966
 6104.00    4.42574   4.31473   11.771
 6105.00    4.55844   4.41814   -1.000
 6106.00    4.62847   4.46648   -1.000
 6107.00    4.61119   4.48105   11.513
 6108.00    4.58273   4.50713   11.550
 6109.00    4.58866   4.53088   11.555
 6110.00    4.58629   4.52120   11.535
 6111.00    4.57795   4.51033   11.492
 6112.00    4.57873   4.53570   11.472
 6113.00    4.60651   4.57850   11.433
 6114.00    4.63276   4.59899   11.391
 6115.00    4.62515   4.57252   11.413
 6116.00    4.61463   4.54186   11.482
 6117.00    4.59617   4.53701   11.519
 6118.00    4.56135   4.50323   11.558
 6119.00    4.49191   4.41536   11.691
 6120.00    4.40432   4.28435   11.855
 6121.00    4.33046   4.17360   11.980
 6122.00    4.34298   4.18676   -1.000
 6123.00    4.46544   4.30465   -1.000
 6124.00    4.55167   4.41669   11.716
 6125.00    4.55604   4.45718   11.665
 6126.00    4.53844   4.44869   11.716
 6127.00    4.51966   4.42762   11.732
 6128.00    4.52021   4.43269   11.706
 6129.00    4.57036   4.49610   11.634
 6130.00    4.63472   4.57730   11.525
 6131.00    4.68317   4.62798   11.472
 6132.00    4.68035   4.62523   11.483
 6133.00    4.63221   4.55305   11.564
 6134.00    4.52635   4.39638   11.778
 6135.00    4.35285   4.18272   -1.000
 6136.00    4.19990   4.03233   -1.000
 6137.00    4.16863   4.07002   12.562
 6138.00    4.29633   4.24375   12.351
 6139.00    4.48688   4.40293   12.000
 6140.00    4.56881   4.45543   11.797
 6141.00    4.57568   4.44103   -1.000
 6142.00    4.61814   4.48013   -1.000
 6143.00    4.67991   4.55843   -1.000
 6144.00    4.68583   4.61140   11.588
 6145.00    4.66597   4.62026   11.529
 6146.00    4.62411   4.59295   11.565
 6147.00    4.52572   4.53519   11.634
 6148.00    4.44957   4.46961   11.716
 6149.00    4.44371   4.42957   11.790
 6150.00    4.44612   4.42982   11.813
 6151.00    4.46610   4.47145   11.782
 6152.00    4.49679   4.50521   11.711
 6153.00    4.48725   4.49206   11.672
 6154.00    4.44801   4.44716   11.736
 6155.00    4.43042   4.41571   11.815
 6156.00    4.41300   4.40690   11.838
 6157.00    4.35820   4.38817   11.872
 6158.00    4.27717   4.33357   11.974
 6159.00    4.16297   4.19930   12.172
 6160.00    4.01395   3.99638   12.500
 6161.00    3.89167   3.79952   12.876
 6162.00    3.83655   3.72664   13.084
 6163.00    3.85773   3.81476   12.985
 6164.00    3.97022   3.96621   12.667
 6165.00    4.09404   4.09722   12.414
 6166.00    4.16309   4.16846   12.323
 6167.00    4.15844   4.16173   12.332
 6168.00    4.10388   4.07635   12.453
 6169.00    4.04986   4.01002   12.598
 6170.00    4.08286   4.04391   12.577
 6171.00    4.13743   4.15739   12.372
 6172.00    4.15635   4.24923   12.171
 6173.00    4.18088   4.27550   12.125
 6174.00    4.21110   4.28334   12.144
 6175.00    4.23450   4.28511   12.126
 6176.00    4.23516   4.28924   12.099
 6177.00    4.23552   4.31383   12.070
 6178.00    4.27035   4.35122   12.019
 6179.00    4.28467   4.37644   11.968
 6180.00    4.26818   4.39530   11.930
 6181.00    4.31779   4.42371   11.880
 6182.00    4.38541   4.43884   11.840
 6183.00    4.37906   4.42517   11.848
 6184.00    4.34508   4.38830   11.886
 6185.00    4.30023   4.32999   11.964
 6186.00    4.22509   4.26439   12.086
 6187.00    4.17583   4.21768   12.215
 6188.00    4.15721   4.18215   12.334
 6189.00    4.13947   4.12400   12.432
 6190.00    4.09528   4.03912   12.570
 6191.00    4.07493   4.01084   12.683
 6192.00    4.12952   4.08617   12.610
 6193.00    4.22239   4.20287   12.342
 6194.00    4.29064   4.29520   12.098
 6195.00    4.30660   4.35235   11.989
 6196.00    4.30225   4.38032   11.958
 6197.00    4.29230   4.35907   12.007
 6198.00    4.26633   4.29249   12.131
 6199.00    4.21578   4.24229   12.247
 6200.00    4.20489   4.27173   12.270
 6201.00    4.24032   4.34064   12.177
 6202.00    4.26219   4.40164   12.028
 6203.00    4.27001   4.43785   11.955
 6204.00    4.27529   4.44843   11.951
 6205.00    4.30060   4.45679   11.939
 6206.00    4.35187   4.46712   11.930
 6207.00    4.39614   4.47795   11.962
 6208.00    4.41688   4.47433   11.980
 6209.00    4.40992   4.44668   12.011
 6210.00    4.37521   4.40233   12.106
 6211.00    4.29911   4.33809   12.209
 6212.00    4.19907   4.23873   12.319
 6213.00    4.13610   4.13293   12.487
 6214.00    4.14823   4.06923   12.638
 6215.00    4.32574   4.06374   -1.000
 6216.00    4.62317   4.10288   -1.000
 6217.00    4.65648   4.14598   -1.000
 6218.00    4.54241   4.15150   -1.000
 6219.00    4.51020   4.12633   -1.000
 6220.00    4.46765   4.12705   -1.000
 6221.00    4.68696   4.15622   -1.000
 6222.00    4.76681   4.17569   -1.000
 6223.00    4.45223   4.18130   -1.000
 6224.00    3.89468   4.19263   -1.000
 6225.00    3.48324   4.21188   -1.000
 6226.00    3.87694   4.22766   -1.000
 6227.00    4.22693   4.21244   12.422
 6228.00    4.17142   4.14487   12.562
 6229.00    4.10422   4.02953   12.764
 6230.00    4.04471   3.94325   12.945
 6231.00    4.06797   3.95328   12.961
 6232.00    4.16058   4.04123   12.807
 6233.00    4.28528   4.16515   12.579
 6234.00    4.40937   4.28026   12.360
 6235.00    4.44511   4.33644   12.257
 6236.00    4.38778   4.31691   12.299
 6237.00    4.26376   4.25558   12.416
 6238.00    4.12338   4.18429   12.544
 6239.00    4.04488   4.12988   12.675
 6240.00    4.05613   4.10618   12.757
 6241.00    4.07660   4.09937   12.767
 6242.00    4.05162   4.07571   12.824
 6243.00    4.00932   4.04648   12.918
 6244.00    4.02886   4.04838   12.940
 6245.00    4.08691   4.08260   12.878
 6246.00    4.12023   4.15475   12.763
 6247.00    4.20855   4.24635   12.610
 6248.00    4.29127   4.30878   12.467
 6249.00    4.28966   4.32182   12.416
 6250.00    4.23452   4.28026   12.493
 6251.00    4.17135   4.19160   12.691
 6252.00    4.12986   4.11139   12.881
 6253.00    4.08106   4.08865   12.988
 6254.00    4.05556   4.09392   13.039
 6255.00    4.06534   4.08383   13.046
 6256.00    4.07968   4.03149   13.120
 6257.00    4.09007   3.98306   13.245
 6258.00    4.09590   3.99940   13.247
 6259.00    4.10105   4.07405   13.088
 6260.00    4.11014   4.17994   12.885
 6261.00    4.14673   4.28929   12.705
 6262.00    4.23202   4.36874   12.517
 6263.00    4.32493   4.38915   12.407
 6264.00    4.32623   4.36371   12.457
 6265.00    4.29894   4.33615   12.553
 6266.00    4.31399   4.34126   12.543
 6267.00    4.28923   4.35741   12.457
 6268.00    4.21799   4.35238   12.453
 6269.00    4.19275   4.34630   12.517
 6270.00    4.22644   4.36544   12.528
 6271.00    4.30208   4.39982   12.490
 6272.00    4.34854   4.42269   12.455
 6273.00    4.32963   4.41524   12.467
 6274.00    4.30139   4.37778   12.541
 6275.00    4.26663   4.33170   12.641
 6276.00    4.20571   4.28680   12.809
 6277.00    4.11558   4.24676   13.097
 6278.00    4.00631   4.20997   13.374
 6279.00    3.88576   4.18258   13.508
 6280.00    3.81251   4.18368   -1.000
 6281.00    3.76133   4.22447   -1.000
 6282.00    3.70427   4.29833   -1.000
 6283.00    3.69630   4.37153   -1.000
 6284.00    3.75981   4.42194   -1.000
 6285.00    3.90357   4.46596   -1.000
 6286.00    4.08607   4.51258   -1.000
 6287.00    4.25638   4.55831   12.398
 6288.00    4.37110   4.57811   12.353
 6289.00    4.37484   4.55234   12.389
 6290.00    4.29836   4.49899   12.485
 6291.00    4.27813   4.44947   12.584
 6292.00    4.31417   4.42330   12.633
 6293.00    4.34756   4.41786   12.647
 6294.00    4.36016   4.41259   12.666
 6295.00    4.35021   4.36630   12.738
 6296.00    4.32583   4.30399   12.831
 6297.00    4.31423   4.29904   12.872
 6298.00    4.35321   4.33509   12.864
 6299.00    4.38902   4.35616   12.821
 6300.00    4.35445   4.34198   12.763
 6301.00    4.26607   4.31506   12.812
 6302.00    4.19324   4.32651   12.954
 6303.00    4.21110   4.37099   12.938
 6304.00    4.32009   4.41548   12.755
 6305.00    4.43987   4.46013   12.579
 6306.00    4.54556   4.52050   12.457
 6307.00    4.57822   4.58800   12.348
 6308.00    4.51285   4.62243   12.294
 6309.00    4.40318   4.59943   12.326
 6310.00    4.31701   4.55471   12.403
 6311.00    4.32483   4.51999   12.465
 6312.00    4.40159   4.50514   12.513
 6313.00    4.43070   4.48996   12.539
 6314.00    4.38222   4.45393   12.616
 6315.00    4.31245   4.42236   12.693
 6316.00    4.29020   4.40001   12.699
 6317.00    4.29444   4.37224   12.686
 6318.00    4.32386   4.37146   12.693
 6319.00    4.38816   4.43400   12.671
 6320.00    4.48314   4.50914   12.553
 6321.00    4.56910   4.55103   12.415
 6322.00    4.56364   4.58566   12.342
 6323.00    4.51559   4.62914   12.302
 6324.00    4.52544   4.66186   12.245
 6325.00    4.59530   4.66874   12.195
 6326.00    4.66513   4.66937   12.178
 6327.00    4.71227   4.67797   12.138
 6328.00    4.73733   4.69104   12.120
 6329.00    4.74208   4.69416   12.134
 6330.00    4.72488   4.69755   12.142
 6331.00    4.65905   4.73333   12.117
 6332.00    4.58056   4.75793   12.085
 6333.00    4.54264   4.71621   12.100
 6334.00    4.49714   4.61808   12.134
 6335.00    4.46595   4.52212   12.323
 6336.00    4.43791   4.50582   12.461
 6337.00    4.48051   4.55449   12.391
 6338.00    4.57273   4.61845   12.268
 6339.00    4.61515   4.68417   12.136
 6340.00    4.66940   4.72661   12.049
 6341.00    4.69571   4.71707   11.993
 6342.00    4.65916   4.66358   11.977
 6343.00    4.60986   4.59646   12.052
 6344.00    4.58485   4.57796   12.108
 6345.00    4.63169   4.63160   12.088
 6346.00    4.72622   4.70351   12.033
 6347.00    4.76643   4.76608   11.954
 6348.00    4.76381   4.81101   11.894
 6349.00    4.76982   4.83518   11.880
 6350.00    4.75386   4.84009   11.867
 6351.00    4.71623   4.82668   11.863
 6352.00    4.70523   4.79073   11.901
 6353.00    4.69874   4.72693   11.956
 6354.00    4.67038   4.66878   12.063
 6355.00    4.63837   4.65042   12.184
 6356.00    4.63411   4.63250   12.225
 6357.00    4.58785   4.57714   12.245
 6358.00    4.47747   4.50754   12.348
 6359.00    4.39029   4.45843   12.439
 6360.00    4.35767   4.42834   12.423
 6361.00    4.38556   4.41198   12.375
 6362.00    4.41960   4.42413   12.354
 6363.00    4.47158   4.47364   12.324
 6364.00    4.55208   4.54390   12.255
 6365.00    4.58948   4.61808   12.174
 6366.00    4.59770   4.68979   12.104
 6367.00    4.65226   4.76042   12.032
 6368.00    4.75756   4.80499   11.953
 6369.00    4.81629   4.81475   11.903
 6370.00    4.82440   4.82600   11.899
 6371.00    4.83691   4.85347   11.879
 6372.00    4.85799   4.88999   11.832
 6373.00    4.87063   4.90884   11.834
 6374.00    4.85890   4.90713   11.855
 6375.00    4.83305   4.90475   11.873
 6376.00    4.78384   4.89360   11.911
 6377.00    4.74033   4.84474   11.967
 6378.00    4.74703   4.78848   12.041
 6379.00    4.76702   4.76203   12.102
 6380.00    4.75874   4.76290   12.123
 6381.00    4.74723   4.78426   12.139
 6382.00    4.75573   4.80862   12.147
 6383.00    4.77173   4.82100   12.124
 6384.00    4.77556   4.82407   12.145
 6385.00    4.82457   4.84186   12.188
 6386.00    4.87242   4.86776   12.191
 6387.00    4.83953   4.88109   12.208
 6388.00    4.81588   4.88519   12.249
 6389.00    4.77802   4.88513   12.327
 6390.00    4.70183   4.85530   12.428
 6391.00    4.63993   4.77545   12.553
 6392.00    4.55824   4.67602   12.729
 6393.00    4.51330   4.63323   12.872
 6394.00    4.57833   4.70540   12.886
 6395.00    4.65010   4.82333   12.745
 6396.00    4.65084   4.89763   12.652
 6397.00    4.63004   4.88229   12.700
 6398.00    4.60218   4.77895   12.852
 6399.00    4.52797   4.66946   13.114
 6400.00    4.45853   4.65848   13.295
 6401.00    4.49690   4.77471   13.240
 6402.00    4.59907   4.90721   13.047
 6403.00    4.64890   4.98218   12.924
 6404.00    4.63567   4.99388   12.927
 6405.00    4.58406   4.94991   12.988
 6406.00    4.51644   4.87586   13.132
 6407.00    4.44408   4.82005   -1.000
 6408.00    4.40827   4.82353   -1.000
 6409.00    4.40525   4.85050   -1.000
 6410.00    4.38412   4.84480   -1.000
 6411.00    4.35868   4.80959   -1.000
 6412.00    4.34440   4.80104   -1.000
 6413.00    4.32024   4.82907   -1.000
 6414.00    4.27822   4.86779   -1.000
 6415.00    4.26116   4.90896   -1.000
 6416.00    4.25801   4.92864   -1.000
 6417.00    4.20344   4.90611   -1.000
 6418.00    4.13620   4.83813   -1.000
 6419.00    4.08165   4.75623   -1.000
 6420.00    4.02260   4.71544   -1.000
 6421.00    3.98994   4.76572   -1.000
 6422.00    3.99844   4.86983   -1.000
 6423.00    4.04257   4.95000   -1.000
 6424.00    4.06221   4.99577   -1.000
 6425.00    4.03222   5.02412   -1.000
 6426.00    4.01260   5.04971   -1.000
 6427.00    4.00205   5.04679   -1.000
 6428.00    3.95070   4.96842   -1.000
