###################################################################
## OUTPUT of StarlightChains_v04.for    [Cid@UFSC - 01/Apr/2007] ##
###################################################################

## Some input info
NGC6637_a_1.cxt                          [arq_obs]
Base.BC03.S                              [arq_base]
NGC6637_a_1.msk                          [arq_masks]
StCv04.C99.config                        [arq_config]
  150                                    [N_base]
    0                                    [N_YAV_components = # of components with extra extinction!]
    0                                    [i_FitPowerLaw (1/0 = Yes/No)]
-9.99                                    [alpha_PowerLaw]
CCM                                      [red_law_option]
 1.458241                                [q_norm = A(l_norm)/A(V)]

## (Re)Sampling Parameters
 3359.00                                 [l_ini (A)]
 6428.00                                 [l_fin (A)]
    1.00                                 [dl    (A)]     (OBS: dl_cushion =    50.00 A)

## Normalization info
 4020.00                                 [l_norm (A) - for base]
 4010.00                                 [llow_norm (A) - window for f_obs]
 4060.00                                 [lupp_norm (A) - window for f_obs]
1.782031E-14                             [fobs_norm (in input units)]

## S/N
 4730.00                                 [llow_SN (A) - window for S/N]
 4780.00                                 [lupp_SN (A) - window for S/N]
  44.619                                 [S/N in S/N window]
  30.665                                 [S/N in norm. window]
  98.004                                 [S/N_err in S/N window]
  67.353                                 [S/N_err in norm. window]
  1.0000                                 [fscale_chi2]

## etc...
  2147483594                             [idum_orig]
  3065                                   [NOl_eff]
  1338                                   [Nl_eff]
  1727    NSIGMA                         [Ntot_cliped & clip_method]
  2994530                                [Nglobal_steps]
   7                                     [N_chains]
  16                                     [NEX0s_base = N_base in EX0s-fits]
 0   0   1      151   2.0   8.105E+02    [Clip-Bug, RC-Crash & Burn-In warning-flags, n_censored_weights, wei_nsig_threshold & wei_limit]
   130    130.630    130.613      0.016  [idt_all, wdt_TotTime, wdt_UsrTime & wdt_SysTime (sec)]

## Synthesis Results - Best model ##

 2.39971E+00                             [chi2/Nl_eff]
     1.54540                             [adev (%)]

   101.12014                             [sum-of-x (%)]
 4.07463E-14                             [Flux_tot (units of input spectrum!)]
 1.69010E-09                             [Mini_tot (???)]
 8.44275E-10                             [Mcor_tot (???)]

   6.25                                  [v0_min  (km/s)]
  56.49                                  [vd_min  (km/s)]
 0.6075                                  [AV_min  (mag)]
 0.0000                                  [YAV_min (mag)]

# j     x_j(%)      Mini_j(%)     Mcor_j(%)     age_j(yr)     Z_j      (L/M)_j    YAV?  Mstars   component_j        a/Fe...       SSP_chi2r SSP_adev(%)   SSP_AV   SSP_x(%)
  1      0.0000     0.0000E+00    0.0000E+00    1.000000E+06  0.00010  8.160E-03    0   1.0000   age020_m22            0.0000     7.3649E+02    23.2156   4.0000    79.9387
  2      4.6134     2.3112E-03    4.6267E-03    3.160000E+06  0.00010  4.759E-02    0   1.0000   age045_m22            0.0000     8.0655E+01     8.7098   2.6461    98.7265
  3      2.9955     3.6966E-03    7.0907E-03    5.010000E+06  0.00010  1.932E-02    0   0.9582   age055_m22            0.0000     2.5613E+02    14.9285   3.1219    79.7432
  4      0.0000     0.0000E+00    0.0000E+00    6.610000E+06  0.00010  9.973E-03    0   0.9297   age061_m22            0.0000     7.0877E+02    22.5192   4.0000    82.6206
  5      0.0000     0.0000E+00    0.0000E+00    8.710000E+06  0.00010  7.690E-03    0   0.9030   age067_m22            0.0000     6.8074E+02    22.1159   4.0000    83.2604
  6      0.0000     0.0000E+00    0.0000E+00    1.000000E+07  0.00010  6.375E-03    0   0.8902   age070_m22            0.0000     6.7639E+02    22.0528   4.0000    83.7041
  7      0.0000     0.0000E+00    0.0000E+00    1.445000E+07  0.00010  4.874E-03    0   0.8589   age078_m22            0.0000     4.3190E+02    18.0060   4.0000    86.7906
  8      0.0000     0.0000E+00    0.0000E+00    2.512000E+07  0.00010  4.103E-03    0   0.8174   age090_m22            0.0000     1.3476E+02    11.4314   4.0000    91.2172
  9      0.0000     0.0000E+00    0.0000E+00    4.000000E+07  0.00010  3.654E-03    0   0.7830   age104_m22            0.0000     1.1798E+02    10.6056   3.6967    97.9636
 10      0.0000     0.0000E+00    0.0000E+00    5.500000E+07  0.00010  3.093E-03    0   0.7597   age110_m22            0.0000     1.2327E+02    10.3337   3.5610   100.7905
 11      0.0000     0.0000E+00    0.0000E+00    1.015200E+08  0.00010  2.431E-03    0   0.7138   age116_m22            0.0000     1.5235E+02    10.7408   3.1639   105.7289
 12      0.0000     0.0000E+00    0.0000E+00    1.609000E+08  0.00010  1.319E-03    0   0.6775   age120_m22            0.0000     1.4211E+02    10.3977   2.6836   108.2757
 13      0.0000     0.0000E+00    0.0000E+00    2.861200E+08  0.00010  1.075E-03    0   0.6412   age125_m22            0.0000     3.0174E+02    13.3583   2.6068   117.5850
 14      0.0000     0.0000E+00    0.0000E+00    5.088000E+08  0.00010  7.183E-04    0   0.6083   age130_m22            0.0000     3.6143E+02    14.3771   2.3304   121.3162
 15      0.0000     0.0000E+00    0.0000E+00    9.047900E+08  0.00010  4.524E-04    0   0.5785   age135_m22            0.0000     3.7039E+02    14.4026   2.1226   123.0352
 16      0.0000     0.0000E+00    0.0000E+00    1.278050E+09  0.00010  3.018E-04    0   0.5588   age138_m22            0.0000     1.9617E+02    10.7069   1.6859   117.1858
 17      0.0000     0.0000E+00    0.0000E+00    1.434000E+09  0.00010  2.691E-04    0   0.5532   age139_m22            0.0000     1.6776E+02     9.9443   1.5484   115.8046
 18      0.0000     0.0000E+00    0.0000E+00    2.500000E+09  0.00010  1.582E-04    0   0.5296   age150_m22            0.0000     1.5297E+02     9.6563   1.4510   115.9662
 19      0.0000     0.0000E+00    0.0000E+00    4.250000E+09  0.00010  1.007E-04    0   0.5110   age158_m22            0.0000     1.0183E+02     8.1721   1.3446   112.2483
 20      0.0000     0.0000E+00    0.0000E+00    6.250000E+09  0.00010  6.869E-05    0   0.4985   age166_m22            0.0000     6.7167E+01     6.9401   1.3333   107.3871
 21      0.0000     0.0000E+00    0.0000E+00    7.500000E+09  0.00010  5.873E-05    0   0.4931   age171_m22            0.0000     6.4853E+01     6.9463   1.3319   106.4173
 22      0.0000     0.0000E+00    0.0000E+00    1.000000E+10  0.00010  4.481E-05    0   0.4854   age181_m22            0.0000     6.2746E+01     6.8404   1.2949   105.9825
 23      0.0000     0.0000E+00    0.0000E+00    1.300000E+10  0.00010  3.489E-05    0   0.4791   age193_m22            0.0000     5.7977E+01     6.5771   1.2410   105.2757
 24      0.0000     0.0000E+00    0.0000E+00    1.500000E+10  0.00010  3.035E-05    0   0.4766   age201_m22            0.0000     5.5326E+01     6.4469   1.2040   104.9841
 25      0.0000     0.0000E+00    0.0000E+00    1.800000E+10  0.00010  2.510E-05    0   0.4735   age213_m22            0.0000     4.9896E+01     6.1635   1.1428   104.0461
 26      0.0000     0.0000E+00    0.0000E+00    1.000000E+06  0.00040  8.458E-03    0   1.0000   age020_m32            0.0000     7.5122E+02    23.3375   4.0000    80.6787
 27      0.0000     0.0000E+00    0.0000E+00    3.160000E+06  0.00040  3.973E-02    0   1.0000   age045_m32            0.0000     1.3627E+02    11.9005   3.9941    89.4701
 28      0.0000     0.0000E+00    0.0000E+00    5.010000E+06  0.00040  1.935E-02    0   0.9532   age055_m32            0.0000     2.9621E+02    14.9255   4.0000    84.5589
 29      0.0000     0.0000E+00    0.0000E+00    6.610000E+06  0.00040  1.204E-02    0   0.9243   age061_m32            0.0000     5.2054E+02    19.5450   4.0000    84.7065
 30      0.0000     0.0000E+00    0.0000E+00    8.710000E+06  0.00040  9.433E-03    0   0.9001   age067_m32            0.0000     4.6688E+02    18.6476   4.0000    85.8559
 31      0.0000     0.0000E+00    0.0000E+00    1.000000E+07  0.00040  8.053E-03    0   0.8877   age070_m32            0.0000     4.2841E+02    17.9187   4.0000    86.2388
 32      0.0000     0.0000E+00    0.0000E+00    1.445000E+07  0.00040  7.027E-03    0   0.8578   age078_m32            0.0000     1.5958E+02    12.8138   3.9749    87.3905
 33      0.0000     0.0000E+00    0.0000E+00    2.512000E+07  0.00040  4.707E-03    0   0.8166   age090_m32            0.0000     1.2414E+02    11.3901   3.6245    93.2181
 34      0.0000     0.0000E+00    0.0000E+00    4.000000E+07  0.00040  3.714E-03    0   0.7827   age104_m32            0.0000     1.1416E+02    10.5090   3.3555    99.0586
 35      0.0000     0.0000E+00    0.0000E+00    5.500000E+07  0.00040  2.982E-03    0   0.7593   age110_m32            0.0000     1.1930E+02    10.3533   3.2646   101.3481
 36      0.0000     0.0000E+00    0.0000E+00    1.015200E+08  0.00040  2.188E-03    0   0.7143   age116_m32            0.0000     1.8900E+02    11.3749   2.8877   110.0651
 37      0.0000     0.0000E+00    0.0000E+00    1.609000E+08  0.00040  1.690E-03    0   0.6856   age120_m32            0.0000     2.6282E+02    12.5120   2.6150   115.4693
 38      0.0000     0.0000E+00    0.0000E+00    2.861200E+08  0.00040  1.152E-03    0   0.6509   age125_m32            0.0000     3.1824E+02    13.5254   2.3414   119.5647
 39      0.0000     0.0000E+00    0.0000E+00    5.088000E+08  0.00040  7.331E-04    0   0.6182   age130_m32            0.0000     3.4437E+02    13.9356   2.1545   121.2965
 40      0.0000     0.0000E+00    0.0000E+00    9.047900E+08  0.00040  3.960E-04    0   0.5890   age135_m32            0.0000     1.9951E+02    10.8797   1.7681   116.7250
 41      0.0000     0.0000E+00    0.0000E+00    1.278050E+09  0.00040  2.854E-04    0   0.5687   age138_m32            0.0000     1.7051E+02    10.0556   1.4996   117.7212
 42      0.0000     0.0000E+00    0.0000E+00    1.434000E+09  0.00040  2.531E-04    0   0.5632   age139_m32            0.0000     1.6780E+02     9.9451   1.4397   117.6498
 43      0.0000     0.0000E+00    0.0000E+00    2.500000E+09  0.00040  1.488E-04    0   0.5386   age150_m32            0.0000     1.2888E+02     8.7204   1.2063   114.7135
 44      0.0000     0.0000E+00    0.0000E+00    4.250000E+09  0.00040  9.082E-05    0   0.5199   age158_m32            0.0000     6.2048E+01     6.4205   1.1811   108.1181
 45      0.0074     2.7899E-03    2.8349E-03    6.250000E+09  0.00040  6.362E-05    0   0.5076   age166_m32            0.0000     4.0122E+01     5.4719   1.2003   102.1295
 46      0.7449     3.3579E-01    3.3791E-01    7.500000E+09  0.00040  5.289E-05    0   0.5027   age171_m32            0.0000     3.6970E+01     5.2573   1.1743   100.4359
 47     24.2320     1.4545E+01    1.4407E+01    1.000000E+10  0.00040  3.972E-05    0   0.4948   age181_m32            0.0000     3.3686E+01     4.9955   1.1162    98.8880
 48      0.0000     0.0000E+00    0.0000E+00    1.300000E+10  0.00040  3.283E-05    0   0.4870   age193_m32            0.0000     3.6890E+01     5.1684   1.0377   103.0179
 49      0.0000     0.0000E+00    0.0000E+00    1.500000E+10  0.00040  2.925E-05    0   0.4854   age201_m32            0.0000     4.3279E+01     5.5356   0.9988   105.4807
 50      0.0000     0.0000E+00    0.0000E+00    1.800000E+10  0.00040  2.469E-05    0   0.4819   age213_m32            0.0000     4.5652E+01     5.6319   0.9491   106.3772
 51      0.0000     0.0000E+00    0.0000E+00    1.000000E+06  0.00400  1.114E-02    0   1.0000   age020_m42            0.0000     6.6541E+02    21.9918   4.0000    81.0437
 52      0.0000     0.0000E+00    0.0000E+00    3.160000E+06  0.00400  4.073E-02    0   0.9999   age045_m42            0.0000     1.0202E+02    10.1847   3.6583    93.4128
 53      0.0000     1.4273E-09    2.7109E-09    5.010000E+06  0.00400  2.534E-02    0   0.9488   age055_m42            0.0000     1.8104E+02    12.5313   4.0000    86.3458
 54      0.0000     0.0000E+00    0.0000E+00    6.610000E+06  0.00400  2.583E-02    0   0.9220   age061_m42            0.0000     1.0015E+02    10.1312   3.4413    95.4442
 55      0.0000     0.0000E+00    0.0000E+00    8.710000E+06  0.00400  1.706E-02    0   0.8983   age067_m42            0.0000     1.2243E+02    11.4559   3.3185    91.6004
 56      0.0000     0.0000E+00    0.0000E+00    1.000000E+07  0.00400  1.271E-02    0   0.8862   age070_m42            0.0000     1.5527E+02    12.8322   3.3363    88.9124
 57      0.0000     0.0000E+00    0.0000E+00    1.445000E+07  0.00400  7.666E-03    0   0.8571   age078_m42            0.0000     1.8760E+02    13.6067   3.7753    84.4696
 58      0.0000     0.0000E+00    0.0000E+00    2.512000E+07  0.00400  5.070E-03    0   0.8174   age090_m42            0.0000     1.4198E+02    12.2009   3.1964    90.7925
 59      0.0000     0.0000E+00    0.0000E+00    4.000000E+07  0.00400  3.505E-03    0   0.7851   age104_m42            0.0000     1.0435E+02    10.3701   2.8448    95.0024
 60      0.0000     0.0000E+00    0.0000E+00    5.500000E+07  0.00400  3.059E-03    0   0.7629   age110_m42            0.0000     9.7541E+01     9.0936   2.7900   103.9864
 61      0.0000     0.0000E+00    0.0000E+00    1.015200E+08  0.00400  2.268E-03    0   0.7207   age116_m42            0.0000     2.2565E+02    11.5396   2.5461   115.5037
 62      0.0000     0.0000E+00    0.0000E+00    1.609000E+08  0.00400  1.720E-03    0   0.6930   age120_m42            0.0000     2.4640E+02    11.8494   2.3784   118.2650
 63      0.0000     0.0000E+00    0.0000E+00    2.861200E+08  0.00400  1.079E-03    0   0.6613   age125_m42            0.0000     2.3461E+02    11.7282   2.0230   119.0341
 64      0.0000     0.0000E+00    0.0000E+00    5.088000E+08  0.00400  6.261E-04    0   0.6313   age130_m42            0.0000     2.8195E+02    12.4358   1.7946   123.6156
 65      0.0000     0.0000E+00    0.0000E+00    9.047900E+08  0.00400  3.535E-04    0   0.6024   age135_m42            0.0000     1.7882E+02     9.9626   1.4425   121.6998
 66      0.0000     0.0000E+00    0.0000E+00    1.278050E+09  0.00400  2.677E-04    0   0.5837   age138_m42            0.0000     6.8356E+01     6.5242   0.8158   116.1339
 67      0.0000     0.0000E+00    0.0000E+00    1.434000E+09  0.00400  1.910E-04    0   0.5716   age139_m42            0.0000     8.9388E+01     7.2009   0.9719   117.6128
 68      0.0000     0.0000E+00    0.0000E+00    2.500000E+09  0.00400  9.818E-05    0   0.5463   age150_m42            0.0000     2.1549E+01     3.7190   0.7774   109.2412
 69      0.0000     0.0000E+00    0.0000E+00    4.250000E+09  0.00400  5.491E-05    0   0.5269   age158_m42            0.0000     7.1377E+00     2.3524   0.6851   105.0445
 70      0.0000     0.0000E+00    0.0000E+00    6.250000E+09  0.00400  3.857E-05    0   0.5151   age166_m42            0.0000     5.1765E+00     2.0500   0.5645   103.3519
 71      0.0000     0.0000E+00    0.0000E+00    7.500000E+09  0.00400  3.243E-05    0   0.5110   age171_m42            0.0000     5.9839E+00     2.1824   0.4860   102.7553
 72     29.4976     2.9013E+01    2.9202E+01    1.000000E+10  0.00400  2.424E-05    0   0.5028   age181_m42            0.0000     8.6696E+00     2.6027   0.4056   102.1232
 73     10.4504     1.3232E+01    1.3051E+01    1.300000E+10  0.00400  1.883E-05    0   0.4927   age193_m42            0.0000     1.2214E+01     3.0514   0.3653   101.8235
 74      0.0001     7.3863E-05    7.2733E-05    1.500000E+10  0.00400  1.685E-05    0   0.4919   age201_m42            0.0000     1.1012E+01     2.9079   0.3714   101.7908
 75      0.0001     1.0559E-04    1.0302E-04    1.800000E+10  0.00400  1.452E-05    0   0.4874   age213_m42            0.0000     9.2832E+00     2.6792   0.3881   102.0082
 76      0.0000     0.0000E+00    0.0000E+00    1.000000E+06  0.00800  1.286E-02    0   1.0000   age020_m52            0.0000     6.1440E+02    20.9861   4.0000    83.0820
 77      0.0000     0.0000E+00    0.0000E+00    3.160000E+06  0.00800  3.147E-02    0   0.9966   age045_m52            0.0000     5.2526E+02    19.5472   4.0000    84.3814
 78      0.0000     0.0000E+00    0.0000E+00    5.010000E+06  0.00800  2.664E-02    0   0.9443   age055_m52            0.0000     2.4856E+02    13.8066   4.0000    86.2051
 79      0.0000     0.0000E+00    0.0000E+00    6.610000E+06  0.00800  2.151E-02    0   0.9177   age061_m52            0.0000     1.2715E+02    11.0958   2.9394    90.1874
 80      0.0000     0.0000E+00    0.0000E+00    8.710000E+06  0.00800  1.628E-02    0   0.8948   age067_m52            0.0000     1.3888E+02    11.9615   3.2942    91.1054
 81      0.0000     0.0000E+00    0.0000E+00    1.000000E+07  0.00800  1.215E-02    0   0.8827   age070_m52            0.0000     1.6366E+02    12.9112   3.6529    88.5581
 82      0.0000     0.0000E+00    0.0000E+00    1.445000E+07  0.00800  8.739E-03    0   0.8552   age078_m52            0.0000     1.4535E+02    12.3063   3.6671    90.8104
 83      0.0000     0.0000E+00    0.0000E+00    2.512000E+07  0.00800  5.676E-03    0   0.8162   age090_m52            0.0000     1.2553E+02    11.3852   3.1935    98.2507
 84      0.0000     0.0000E+00    0.0000E+00    4.000000E+07  0.00800  3.939E-03    0   0.7841   age104_m52            0.0000     1.1914E+02    10.4767   2.9882   102.6426
 85      0.0000     0.0000E+00    0.0000E+00    5.500000E+07  0.00800  3.155E-03    0   0.7627   age110_m52            0.0000     1.2874E+02    10.1705   2.9179   106.0986
 86      0.0000     0.0000E+00    0.0000E+00    1.015200E+08  0.00800  2.206E-03    0   0.7226   age116_m52            0.0000     1.7805E+02    10.6568   2.6475   113.5114
 87      0.0000     0.0000E+00    0.0000E+00    1.609000E+08  0.00800  1.596E-03    0   0.6963   age120_m52            0.0000     2.0356E+02    11.0853   2.3990   116.7148
 88      0.0000     0.0000E+00    0.0000E+00    2.861200E+08  0.00800  1.002E-03    0   0.6665   age125_m52            0.0000     2.8822E+02    12.8279   2.0267   122.9756
 89      0.0000     0.0000E+00    0.0000E+00    5.088000E+08  0.00800  5.759E-04    0   0.6377   age130_m52            0.0000     3.0715E+02    13.1023   1.6481   128.5129
 90      0.0000     0.0000E+00    0.0000E+00    9.047900E+08  0.00800  2.972E-04    0   0.6086   age135_m52            0.0000     1.6194E+02     9.9248   1.1834   123.9243
 91      0.0000     0.0000E+00    0.0000E+00    1.278050E+09  0.00800  2.242E-04    0   0.5907   age138_m52            0.0000     6.2720E+01     6.3656   0.6467   118.8732
 92      0.0000     0.0000E+00    0.0000E+00    1.434000E+09  0.00800  1.645E-04    0   0.5787   age139_m52            0.0000     5.3927E+01     5.9280   0.8062   117.8141
 93      0.0000     0.0000E+00    0.0000E+00    2.500000E+09  0.00800  7.723E-05    0   0.5519   age150_m52            0.0000     2.2488E+01     3.9546   0.5106   111.8018
 94      0.0000     0.0000E+00    0.0000E+00    4.250000E+09  0.00800  4.151E-05    0   0.5320   age158_m52            0.0000     1.4918E+01     3.1471   0.4564   108.4170
 95      0.0008     6.4695E-04    6.7305E-04    6.250000E+09  0.00800  3.010E-05    0   0.5197   age166_m52            0.0000     1.8026E+01     3.5465   0.2675   106.7028
 96      0.0004     3.7843E-04    3.8930E-04    7.500000E+09  0.00800  2.467E-05    0   0.5139   age171_m52            0.0000     2.0162E+01     3.7921   0.2247   106.3098
 97     13.7679     1.7629E+01    1.7836E+01    1.000000E+10  0.00800  1.862E-05    0   0.5054   age181_m52            0.0000     2.9800E+01     4.7090   0.0868   106.1277
 98     12.4801     2.0764E+01    2.0733E+01    1.300000E+10  0.00800  1.433E-05    0   0.4988   age193_m52            0.0000     4.3670E+01     5.6860  -0.0166   107.0203
 99      2.3091     4.4254E+00    4.3728E+00    1.500000E+10  0.00800  1.244E-05    0   0.4936   age201_m52            0.0000     5.0101E+01     6.0522  -0.0487   107.6012
100      0.0205     4.5652E-02    4.4670E-02    1.800000E+10  0.00800  1.070E-05    0   0.4888   age213_m52            0.0000     5.4794E+01     6.3356  -0.0875   107.5756
101      0.0000     0.0000E+00    0.0000E+00    1.000000E+06  0.02000  1.989E-02    0   1.0000   age020_m62            0.0000     6.3213E+02    21.2575   4.0000    81.6458
102      0.0000     0.0000E+00    0.0000E+00    3.160000E+06  0.02000  3.772E-02    0   0.9858   age045_m62            0.0000     4.8112E+02    18.8165   4.0000    83.5118
103      0.0000     0.0000E+00    0.0000E+00    5.010000E+06  0.02000  3.227E-02    0   0.9342   age055_m62            0.0000     1.3559E+02    11.9437   3.9521    88.8197
104      0.0000     0.0000E+00    0.0000E+00    6.610000E+06  0.02000  2.387E-02    0   0.9090   age061_m62            0.0000     1.8243E+02    13.6414   3.7346    86.7578
105      0.0000     0.0000E+00    0.0000E+00    8.710000E+06  0.02000  1.102E-02    0   0.8861   age067_m62            0.0000     4.1054E+02    19.4373   3.4309    78.5727
106      0.0000     0.0000E+00    0.0000E+00    1.000000E+07  0.02000  1.011E-02    0   0.8751   age070_m62            0.0000     3.0430E+02    16.8666   3.4235    82.2861
107      0.0000     0.0000E+00    0.0000E+00    1.445000E+07  0.02000  7.331E-03    0   0.8472   age078_m62            0.0000     2.2999E+02    14.7888   3.4176    84.8604
108      0.0000     0.0000E+00    0.0000E+00    2.512000E+07  0.02000  4.206E-03    0   0.8099   age090_m62            0.0000     2.3794E+02    14.9095   3.3340    84.0692
109      0.0000     0.0000E+00    0.0000E+00    4.000000E+07  0.02000  3.373E-03    0   0.7799   age104_m62            0.0000     1.1528E+02    10.7831   3.0088    97.8557
110      0.0000     0.0000E+00    0.0000E+00    5.500000E+07  0.02000  2.747E-03    0   0.7595   age110_m62            0.0000     1.1432E+02    10.1662   2.8708   104.3960
111      0.0000     0.0000E+00    0.0000E+00    1.015200E+08  0.02000  1.878E-03    0   0.7221   age116_m62            0.0000     1.8982E+02    11.2237   2.6150   114.3296
112      0.0000     0.0000E+00    0.0000E+00    1.609000E+08  0.02000  1.378E-03    0   0.6978   age120_m62            0.0000     2.6197E+02    12.3969   2.3962   119.8744
113      0.0000     0.0000E+00    0.0000E+00    2.861200E+08  0.02000  8.869E-04    0   0.6700   age125_m62            0.0000     3.9411E+02    14.4650   1.9358   128.4323
114      0.0000     0.0000E+00    0.0000E+00    5.088000E+08  0.02000  4.834E-04    0   0.6430   age130_m62            0.0000     3.3939E+02    13.5830   1.4959   131.0216
115      0.0000     0.0000E+00    0.0000E+00    9.047900E+08  0.02000  2.312E-04    0   0.6152   age135_m62            0.0000     1.5815E+02     9.2689   0.9824   125.9918
116      0.0000     0.0000E+00    0.0000E+00    1.278050E+09  0.02000  1.387E-04    0   0.5927   age138_m62            0.0000     5.6993E+01     5.9290   0.6837   117.4782
117      0.0000     0.0000E+00    0.0000E+00    1.434000E+09  0.02000  1.168E-04    0   0.5865   age139_m62            0.0000     4.2864E+01     5.2304   0.6767   114.9768
118      0.0000     0.0000E+00    0.0000E+00    2.500000E+09  0.02000  5.505E-05    0   0.5610   age150_m62            0.0000     2.4302E+01     4.0040   0.3292   110.5507
119      0.0000     0.0000E+00    0.0000E+00    4.250000E+09  0.02000  3.070E-05    0   0.5407   age158_m62            0.0000     4.2583E+01     5.5088   0.0212   110.8491
120      0.0000     0.0000E+00    0.0000E+00    6.250000E+09  0.02000  2.104E-05    0   0.5277   age166_m62            0.0000     5.9026E+01     6.5397  -0.1204   111.6330
121      0.0000     0.0000E+00    0.0000E+00    7.500000E+09  0.02000  1.770E-05    0   0.5223   age171_m62            0.0000     6.9725E+01     7.1032  -0.2169   112.3078
122      0.0000     0.0000E+00    0.0000E+00    1.000000E+10  0.02000  1.297E-05    0   0.5121   age181_m62            0.0000     9.4443E+01     8.2349  -0.3908   113.3526
123      0.0000     0.0000E+00    0.0000E+00    1.300000E+10  0.02000  9.691E-06    0   0.5047   age193_m62            0.0000     1.1313E+02     8.9650  -0.4824   114.0567
124      0.0000     0.0000E+00    0.0000E+00    1.500000E+10  0.02000  8.360E-06    0   0.4999   age201_m62            0.0000     1.3015E+02     9.6071  -0.5642   114.6940
125      0.0000     0.0000E+00    0.0000E+00    1.800000E+10  0.02000  6.911E-06    0   0.4946   age213_m62            0.0000     1.5269E+02    10.3973  -0.6529   115.4972
126      0.0000     0.0000E+00    0.0000E+00    1.000000E+06  0.05000  2.651E-02    0   0.9998   age020_m72            0.0000     6.1390E+02    20.8739   4.0000    82.7260
127      0.0000     0.0000E+00    0.0000E+00    3.160000E+06  0.05000  4.817E-02    0   0.9577   age045_m72            0.0000     3.0428E+02    15.3444   4.0000    86.8577
128      0.0000     0.0000E+00    0.0000E+00    5.010000E+06  0.05000  3.101E-02    0   0.9147   age055_m72            0.0000     1.9108E+02    13.4265   4.0000    85.3587
129      0.0000     0.0000E+00    0.0000E+00    6.610000E+06  0.05000  1.472E-02    0   0.8877   age061_m72            0.0000     3.4282E+02    17.4157   3.6231    80.6694
130      0.0000     0.0000E+00    0.0000E+00    8.710000E+06  0.05000  1.050E-02    0   0.8638   age067_m72            0.0000     2.5257E+02    14.9519   4.0000    82.3779
131      0.0000     0.0000E+00    0.0000E+00    1.000000E+07  0.05000  8.954E-03    0   0.8524   age070_m72            0.0000     2.4615E+02    13.5183   4.0000    86.8596
132      0.0000     0.0000E+00    0.0000E+00    1.445000E+07  0.05000  6.392E-03    0   0.8262   age078_m72            0.0000     2.0246E+02    12.4673   4.0000    87.7044
133      0.0000     0.0000E+00    0.0000E+00    2.512000E+07  0.05000  4.207E-03    0   0.7902   age090_m72            0.0000     1.2776E+02    11.0590   3.7547    91.5787
134      0.0000     0.0000E+00    0.0000E+00    4.000000E+07  0.05000  3.198E-03    0   0.7618   age104_m72            0.0000     1.2558E+02     9.9614   3.0599   106.5279
135      0.0000     0.0000E+00    0.0000E+00    5.500000E+07  0.05000  2.593E-03    0   0.7432   age110_m72            0.0000     1.5591E+02    10.6128   2.9238   110.2426
136      0.0000     0.0000E+00    0.0000E+00    1.015200E+08  0.05000  1.716E-03    0   0.7092   age116_m72            0.0000     2.2258E+02    11.7902   2.6616   115.8640
137      0.0000     0.0000E+00    0.0000E+00    1.609000E+08  0.05000  1.218E-03    0   0.6876   age120_m72            0.0000     3.0590E+02    13.0491   2.3290   121.7314
138      0.0000     0.0000E+00    0.0000E+00    2.861200E+08  0.05000  7.047E-04    0   0.6618   age125_m72            0.0000     3.8788E+02    14.2594   1.7110   129.1987
139      0.0000     0.0000E+00    0.0000E+00    5.088000E+08  0.05000  3.590E-04    0   0.6356   age130_m72            0.0000     3.0177E+02    12.4715   1.1450   131.4929
140      0.0000     0.0000E+00    0.0000E+00    9.047900E+08  0.05000  1.484E-04    0   0.6088   age135_m72            0.0000     7.9361E+01     6.9282   0.5471   118.3094
141      0.0000     0.0000E+00    0.0000E+00    1.278050E+09  0.05000  9.435E-05    0   0.5924   age138_m72            0.0000     5.6799E+01     5.9426   0.1676   113.7628
142      0.0000     0.0000E+00    0.0000E+00    1.434000E+09  0.05000  7.827E-05    0   0.5847   age139_m72            0.0000     4.8332E+01     5.5001   0.1908   112.6804
143      0.0000     0.0000E+00    0.0000E+00    2.500000E+09  0.05000  3.759E-05    0   0.5583   age150_m72            0.0000     6.0765E+01     6.5275  -0.1302   111.4840
144      0.0000     0.0000E+00    0.0000E+00    4.250000E+09  0.05000  1.842E-05    0   0.5374   age158_m72            0.0000     8.7056E+01     7.9094  -0.4659   111.5225
145      0.0000     0.0000E+00    0.0000E+00    6.250000E+09  0.05000  1.207E-05    0   0.5242   age166_m72            0.0000     1.2242E+02     9.4089  -0.7295   111.9778
146      0.0000     0.0000E+00    0.0000E+00    7.500000E+09  0.05000  9.993E-06    0   0.5183   age171_m72            0.0000     1.2735E+02     9.5904  -0.7786   112.0865
147      0.0000     0.0000E+00    0.0000E+00    1.000000E+10  0.05000  7.291E-06    0   0.5081   age181_m72            0.0000     1.5747E+02    10.6678  -0.9299   112.9086
148      0.0000     0.0000E+00    0.0000E+00    1.300000E+10  0.05000  5.316E-06    0   0.5018   age193_m72            0.0000     2.2146E+02    11.6861  -1.0000   110.9494
149      0.0000     0.0000E+00    0.0000E+00    1.500000E+10  0.05000  4.497E-06    0   0.4972   age201_m72            0.0000     2.6979E+02    12.2454  -1.0000   109.8449
150      0.0000     0.0000E+00    0.0000E+00    1.800000E+10  0.05000  3.739E-06    0   0.4924   age213_m72            0.0000     3.4820E+02    13.1802  -1.0000   107.7648


## Synthesis Results - Average & Chains ##

# j      x_j: min, <> & last-chain-values for 1 ...  7 chains
  1      0.0000      0.0227      0.0000      0.0000      0.0000      0.0000      0.0000      0.0000      0.0000
  2      4.6134      0.6790      1.6893      0.7389      1.3266      1.9287      0.9895      0.9241      0.8877
  3      2.9955      2.0433      2.1062      2.4472      2.0547      2.0072      2.2013      2.5022      2.1015
  4      0.0000      0.0539      0.0000      0.0949      0.0000      0.0000      0.0000      0.0026      0.0000
  5      0.0000      0.0230      0.0000      0.0000      0.0000      0.0000      0.0000      0.0000      0.1240
  6      0.0000      0.0286      0.0000      0.0776      0.0000      0.1917      0.0000      0.0000      0.0000
  7      0.0000      0.0167      0.0000      0.0162      0.0000      0.0000      0.0000      0.0762      0.0000
  8      0.0000      0.0292      0.0000      0.0000      0.0000      0.0000      0.0262      0.0000      0.0000
  9      0.0000      0.0222      0.0000      0.0000      0.0000      0.0000      0.0929      0.1789      0.0917
 10      0.0000      0.0140      0.0000      0.0000      0.0000      0.0000      0.0000      0.0000      0.0000
 11      0.0000      0.0089      0.0000      0.0000      0.0000      0.0000      0.0000      0.0000      0.0000
 12      0.0000      0.0051      0.0000      0.0000      0.0000      0.0000      0.0000      0.0000      0.0000
 13      0.0000      0.0026      0.0000      0.0000      0.0000      0.0000      0.0000      0.0000      0.0000
 14      0.0000      0.0024      0.0000      0.0000      0.0000      0.0000      0.0000      0.0000      0.0000
 15      0.0000      0.0028      0.0000      0.0000      0.0000      0.0000      0.0000      0.0000      0.0000
 16      0.0000      0.0044      0.0000      0.0000      0.0000      0.0000      0.0000      0.0000      0.0000
 17      0.0000      0.0055      0.0000      0.0000      0.0000      0.0000      0.0000      0.0000      0.0000
 18      0.0000      0.0064      0.0731      0.0000      0.0000      0.0000      0.0000      0.0000      0.0000
 19      0.0000      0.0143      0.0000      0.0000      0.0000      0.0058      0.0000      0.0000      0.0000
 20      0.0000      0.0332      0.0000      0.0000      0.0925      0.1083      0.2142      0.0000      0.0000
 21      0.0000      0.0557      0.0000      0.0120      0.0000      0.0000      0.0000      0.0000      0.0000
 22      0.0000      0.0461      0.0000      0.0000      0.0000      0.1582      0.0000      0.0000      0.0000
 23      0.0000      0.0590      0.0000      0.0279      0.0000      0.0000      0.0000      0.0000      0.0000
 24      0.0000      0.0766      0.0000      0.0000      0.0000      0.0898      0.0000      0.0000      0.0000
 25      0.0000      0.1256      0.1350      0.0000      0.1985      0.0000      0.4262      0.1008      0.0999
 26      0.0000      0.0425      0.0931      0.0000      0.0917      0.0000      0.0998      0.0115      0.0000
 27      0.0000      0.0663      0.1804      0.0000      0.2642      0.0000      0.0581      0.1878      0.0000
 28      0.0000      0.0462      0.0000      0.0000      0.0000      0.0000      0.0000      0.1020      0.0130
 29      0.0000      0.0347      0.0972      0.0000      0.0000      0.0000      0.1926      0.0000      0.0000
 30      0.0000      0.0470      0.0000      0.1773      0.0000      0.0000      0.1105      0.0000      0.0000
 31      0.0000      0.0306      0.0000      0.0000      0.0000      0.0524      0.0000      0.0000      0.0795
 32      0.0000      0.0727      0.0000      0.0271      0.0666      0.0000      0.0681      0.0000      0.0000
 33      0.0000      0.0268      0.0842      0.0000      0.0000      0.0000      0.0000      0.0000      0.0000
 34      0.0000      0.0208      0.0000      0.0000      0.0000      0.0000      0.0000      0.0000      0.0868
 35      0.0000      0.0178      0.0000      0.0000      0.0000      0.1025      0.0000      0.0000      0.0000
 36      0.0000      0.0063      0.0000      0.0000      0.0000      0.0000      0.0057      0.0000      0.0000
 37      0.0000      0.0048      0.0000      0.0000      0.0000      0.0000      0.0000      0.0000      0.0000
 38      0.0000      0.0028      0.0000      0.0000      0.0000      0.0000      0.0000      0.0000      0.0000
 39      0.0000      0.0030      0.0000      0.0000      0.0000      0.0000      0.0000      0.0000      0.0000
 40      0.0000      0.0035      0.0000      0.0000      0.0000      0.0000      0.0000      0.0000      0.0000
 41      0.0000      0.0060      0.0000      0.0000      0.0000      0.0000      0.0000      0.0000      0.0000
 42      0.0000      0.0064      0.0535      0.0000      0.0000      0.0000      0.0000      0.0000      0.0000
 43      0.0000      0.0167      0.0602      0.0000      0.0000      0.0000      0.0000      0.0000      0.0000
 44      0.0000      0.0497      0.1793      0.0000      0.0000      0.0000      0.0150      0.0000      0.0000
 45      0.0074      0.6479      0.5209      0.5175      0.4684      0.0000      1.5905      0.7995      0.6355
 46      0.7449      1.1114      1.0830      1.5663      1.4717      1.5681      1.1116      0.3244      1.5812
 47     24.2320     24.5603     25.2793     26.5056     24.8001     24.5136     24.2531     24.9457     25.2558
 48      0.0000      0.1225      0.0000      0.0000      0.3214      0.0000      0.0000      1.0831      0.1358
 49      0.0000      0.0653      0.0000      0.0000      0.0000      0.0000      0.0228      0.0000      0.0014
 50      0.0000      0.0574      0.0000      0.0000      0.1643      0.0062      0.0000      0.0000      0.0000
 51      0.0000      0.0336      0.1000      0.0000      0.0000      0.0509      0.0000      0.1095      0.0000
 52      0.0000      0.0777      0.0756      0.0000      0.0000      0.0000      0.5384      0.0000      0.1295
 53      0.0000      0.1847      0.2438      0.0984      0.6888      0.1035      0.1528      0.3020      0.2294
 54      0.0000      0.0945      0.0000      0.3479      0.0153      0.0594      0.0000      0.0000      0.0000
 55      0.0000      0.1061      0.2316      0.0000      0.2266      0.1210      0.0000      0.1264      0.0000
 56      0.0000      0.0487      0.0000      0.0000      0.0000      0.1895      0.0000      0.0000      0.1988
 57      0.0000      0.0417      0.1763      0.0000      0.0000      0.0054      0.0000      0.0000      0.0000
 58      0.0000      0.0216      0.0000      0.0000      0.0000      0.0000      0.0902      0.0000      0.0000
 59      0.0000      0.0106      0.0000      0.0000      0.0000      0.0000      0.0000      0.0000      0.0178
 60      0.0000      0.0052      0.0000      0.0000      0.0000      0.0000      0.0000      0.0000      0.0000
 61      0.0000      0.0041      0.0000      0.0000      0.0000      0.0000      0.0000      0.0000      0.0000
 62      0.0000      0.0042      0.0244      0.0000      0.0000      0.0000      0.0000      0.0000      0.0000
 63      0.0000      0.0028      0.0000      0.0000      0.0000      0.0194      0.0000      0.0000      0.0000
 64      0.0000      0.0033      0.0000      0.0000      0.0000      0.0000      0.0000      0.0000      0.0000
 65      0.0000      0.0054      0.0000      0.0000      0.0000      0.0000      0.0000      0.0000      0.0000
 66      0.0000      0.0138      0.0000      0.0000      0.0000      0.0000      0.0000      0.0000      0.0000
 67      0.0000      0.0121      0.0000      0.0000      0.0151      0.0035      0.0000      0.0000      0.0000
 68      0.0000      0.0596      0.0000      0.0000      0.0000      0.0000      0.0000      0.0760      0.0907
 69      0.0000      0.1538      0.0000      0.0000      0.0000      0.0547      0.0000      0.2611      0.0000
 70      0.0000      0.3238      0.0000      0.0344      0.6583      0.0000      0.0561      0.1333      0.0000
 71      0.0000      0.4070      0.0386      0.7174      0.6268      0.0000      0.3683      0.2133      0.4479
 72     29.4976     27.2950     26.8335     27.0577     27.3771     27.7291     27.7028     27.5306     27.2392
 73     10.4504     11.8777     11.9345     12.0138     11.1774     11.6539     11.5862     13.1457     11.4385
 74      0.0001      2.3979      0.5481      0.4953      0.9228      2.9103      1.7816      0.3369      2.7593
 75      0.0001      0.2298      0.4617      0.4153      0.0000      0.3381      0.1542      0.2017      0.0000
 76      0.0000      0.0222      0.0561      0.0000      0.0000      0.0000      0.0000      0.0000      0.0000
 77      0.0000      0.0215      0.0000      0.0000      0.1591      0.0000      0.0000      0.0000      0.0000
 78      0.0000      0.0224      0.0000      0.0000      0.0000      0.0000      0.0000      0.0167      0.2132
 79      0.0000      0.0336      0.0000      0.0000      0.0000      0.0125      0.0000      0.0000      0.0000
 80      0.0000      0.0222      0.0000      0.0000      0.0000      0.0000      0.0000      0.0000      0.0000
 81      0.0000      0.0146      0.0000      0.0000      0.0000      0.0000      0.0000      0.0000      0.0000
 82      0.0000      0.0171      0.0000      0.0698      0.0000      0.0000      0.0000      0.0000      0.0000
 83      0.0000      0.0140      0.0022      0.0000      0.0000      0.0000      0.0000      0.0000      0.0000
 84      0.0000      0.0097      0.0000      0.0000      0.0000      0.0000      0.0000      0.0000      0.0000
 85      0.0000      0.0062      0.0000      0.0000      0.0000      0.0000      0.0000      0.0000      0.0000
 86      0.0000      0.0040      0.0473      0.0000      0.0000      0.0000      0.0000      0.0000      0.0342
 87      0.0000      0.0040      0.0000      0.0000      0.0000      0.0000      0.0000      0.0000      0.0000
 88      0.0000      0.0029      0.0000      0.0000      0.0000      0.0000      0.0000      0.0000      0.0000
 89      0.0000      0.0025      0.0000      0.0000      0.0000      0.0000      0.0000      0.0000      0.0000
 90      0.0000      0.0055      0.0000      0.0000      0.0000      0.0000      0.0000      0.0000      0.0000
 91      0.0000      0.0111      0.0000      0.0000      0.0000      0.0000      0.0000      0.0000      0.0000
 92      0.0000      0.0119      0.0000      0.0000      0.0004      0.0000      0.0000      0.0000      0.0000
 93      0.0000      0.0555      0.0000      0.0000      0.0000      0.2531      0.0426      0.0000      0.0000
 94      0.0000      0.2567      0.0000      0.0000      0.1084      0.0545      0.0000      0.6460      0.2143
 95      0.0008      1.0684      1.0232      0.5194      0.8688      0.6976      0.7495      0.0120      2.4025
 96      0.0004      0.7779      0.6642      0.8826      1.4007      0.4739      0.3706      1.5292      0.1786
 97     13.7679     12.2097     12.3199     12.4731     12.2925     12.7194     12.5175     12.4685     11.8771
 98     12.4801      8.5825     10.4617      9.9712      9.3379      8.0239      9.1258      8.8719      8.5868
 99      2.3091      1.7530      2.8880      1.7547      2.1842      3.1296      2.5162      2.5680      1.7570
100      0.0205      1.2427      1.1193      1.2835      1.3624      1.2429      1.5098      1.0956      1.7001
101      0.0000      0.0348      0.0238      0.1292      0.0000      0.0000      0.0850      0.0000      0.1620
102      0.0000      0.0224      0.0000      0.0000      0.0000      0.0000      0.0000      0.0000      0.0000
103      0.0000      0.0298      0.0000      0.0000      0.0000      0.0000      0.0000      0.0000      0.0000
104      0.0000      0.0497      0.2021      0.0717      0.0318      0.0000      0.0000      0.0000      0.1072
105      0.0000      0.0279      0.0000      0.0000      0.0000      0.0000      0.0079      0.0000      0.0149
106      0.0000      0.0165      0.0000      0.0000      0.0000      0.0000      0.0912      0.0000      0.0000
107      0.0000      0.0132      0.0000      0.0000      0.0000      0.0000      0.0000      0.0044      0.0000
108      0.0000      0.0105      0.0000      0.0000      0.0000      0.0000      0.0000      0.0000      0.0000
109      0.0000      0.0049      0.0000      0.0000      0.0000      0.0000      0.0000      0.0000      0.0000
110      0.0000      0.0035      0.0000      0.0000      0.0000      0.0000      0.0000      0.0166      0.0000
111      0.0000      0.0031      0.0000      0.0000      0.0000      0.0000      0.0000      0.0000      0.0000
112      0.0000      0.0030      0.0000      0.0000      0.0000      0.0000      0.0000      0.0000      0.0000
113      0.0000      0.0018      0.0000      0.0000      0.0000      0.0000      0.0000      0.0000      0.0000
114      0.0000      0.0020      0.0000      0.0000      0.0000      0.0000      0.0000      0.0000      0.0000
115      0.0000      0.0059      0.0000      0.0000      0.0000      0.0000      0.0000      0.0000      0.0000
116      0.0000      0.0107      0.0000      0.0000      0.0000      0.0000      0.0000      0.0000      0.0000
117      0.0000      0.0126      0.0000      0.0000      0.0000      0.0000      0.0000      0.0000      0.0000
118      0.0000      0.0366      0.0291      0.0000      0.0000      0.0000      0.0000      0.0272      0.0000
119      0.0000      0.0592      0.0000      0.1662      0.0000      0.0615      0.0000      0.0000      0.0231
120      0.0000      0.0666      0.0000      0.1420      0.1797      0.0000      0.0000      0.0000      0.0000
121      0.0000      0.0618      0.0000      0.0000      0.0000      0.0000      0.0000      0.0000      0.0000
122      0.0000      0.0817      0.0000      0.0000      0.0000      0.0000      0.0214      0.0000      0.0823
123      0.0000      0.0334      0.0000      0.0000      0.0000      0.0000      0.0000      0.0000      0.0000
124      0.0000      0.0544      0.0218      0.0000      0.0000      0.0000      0.0000      0.0000      0.0000
125      0.0000      0.0395      0.0000      0.0472      0.0675      0.0000      0.0000      0.0000      0.0000
126      0.0000      0.0209      0.0000      0.0000      0.0000      0.0000      0.0000      0.0555      0.0000
127      0.0000      0.0570      0.0000      0.0894      0.0000      0.3553      0.0000      0.0037      0.0000
128      0.0000      0.0340      0.0000      0.0000      0.0699      0.0000      0.0000      0.1315      0.0000
129      0.0000      0.0211      0.0000      0.0000      0.0000      0.0248      0.0000      0.0000      0.0953
130      0.0000      0.0198      0.0000      0.0000      0.0000      0.1066      0.0000      0.0000      0.0000
131      0.0000      0.0110      0.0000      0.0000      0.0000      0.0000      0.0000      0.0000      0.0000
132      0.0000      0.0074      0.0000      0.0000      0.0000      0.0000      0.0000      0.0000      0.0000
133      0.0000      0.0079      0.0000      0.0000      0.0000      0.0129      0.0000      0.0000      0.0000
134      0.0000      0.0034      0.0000      0.0000      0.0000      0.0000      0.0000      0.0000      0.0000
135      0.0000      0.0024      0.0000      0.0000      0.0000      0.0037      0.0000      0.0000      0.0000
136      0.0000      0.0022      0.0000      0.0000      0.0000      0.0000      0.0000      0.0000      0.0000
137      0.0000      0.0023      0.0000      0.0000      0.0134      0.0000      0.0000      0.0000      0.0000
138      0.0000      0.0021      0.0000      0.0000      0.0000      0.0000      0.0000      0.0000      0.0000
139      0.0000      0.0035      0.0000      0.0000      0.0000      0.0000      0.0000      0.0000      0.0000
140      0.0000      0.0115      0.0000      0.0000      0.0528      0.0000      0.0000      0.0000      0.0000
141      0.0000      0.0257      0.0000      0.0000      0.0000      0.0000      0.0000      0.0000      0.0000
142      0.0000      0.0304      0.0000      0.0000      0.0000      0.0000      0.0000      0.0000      0.0000
143      0.0000      0.0611      0.0000      0.0000      0.0000      0.0000      0.0000      0.0000      0.0000
144      0.0000      0.0259      0.0000      0.0000      0.0000      0.0000      0.0000      0.0000      0.0000
145      0.0000      0.0351      0.0030      0.0000      0.0000      0.0000      0.1562      0.0000      0.0000
146      0.0000      0.0221      0.0000      0.0000      0.0000      0.0000      0.0000      0.0051      0.0000
147      0.0000      0.0128      0.0000      0.0247      0.0049      0.0000      0.0000      0.0000      0.0000
148      0.0000      0.0087      0.0000      0.0000      0.0000      0.0000      0.0000      0.0000      0.0000
149      0.0000      0.0054      0.0000      0.0000      0.0000      0.0000      0.0000      0.0000      0.0000
150      0.0000      0.0054      0.0000      0.0000      0.0000      0.0000      0.0000      0.0000      0.0000

# j      m_j: min, <> & last-chain-values for 1 ...  7 chains
  1  0.0000E+00  1.3151E-04  0.0000E+00  0.0000E+00  0.0000E+00  0.0000E+00  0.0000E+00  0.0000E+00  0.0000E+00
  2  4.6267E-03  6.7356E-04  1.6647E-03  7.3294E-04  1.3222E-03  1.9004E-03  9.7521E-04  9.1669E-04  8.8341E-04
  3  7.0907E-03  4.7844E-03  4.8990E-03  5.7291E-03  4.8335E-03  4.6681E-03  5.1207E-03  5.8587E-03  4.9360E-03
  4  0.0000E+00  2.3727E-04  0.0000E+00  4.1763E-04  0.0000E+00  0.0000E+00  0.0000E+00  1.1328E-05  0.0000E+00
  5  0.0000E+00  1.2759E-04  0.0000E+00  0.0000E+00  0.0000E+00  0.0000E+00  0.0000E+00  0.0000E+00  6.8962E-04
  6  0.0000E+00  1.8868E-04  0.0000E+00  5.1143E-04  0.0000E+00  1.2550E-03  0.0000E+00  0.0000E+00  0.0000E+00
  7  0.0000E+00  1.3865E-04  0.0000E+00  1.3504E-04  0.0000E+00  0.0000E+00  0.0000E+00  6.3368E-04  0.0000E+00
  8  0.0000E+00  2.7437E-04  0.0000E+00  0.0000E+00  0.0000E+00  0.0000E+00  2.4506E-04  0.0000E+00  0.0000E+00
  9  0.0000E+00  2.2460E-04  0.0000E+00  0.0000E+00  0.0000E+00  0.0000E+00  9.3353E-04  1.8096E-03  9.3065E-04
 10  0.0000E+00  1.6262E-04  0.0000E+00  0.0000E+00  0.0000E+00  0.0000E+00  0.0000E+00  0.0000E+00  0.0000E+00
 11  0.0000E+00  1.2350E-04  0.0000E+00  0.0000E+00  0.0000E+00  0.0000E+00  0.0000E+00  0.0000E+00  0.0000E+00
 12  0.0000E+00  1.2338E-04  0.0000E+00  0.0000E+00  0.0000E+00  0.0000E+00  0.0000E+00  0.0000E+00  0.0000E+00
 13  0.0000E+00  7.2442E-05  0.0000E+00  0.0000E+00  0.0000E+00  0.0000E+00  0.0000E+00  0.0000E+00  0.0000E+00
 14  0.0000E+00  9.4428E-05  0.0000E+00  0.0000E+00  0.0000E+00  0.0000E+00  0.0000E+00  0.0000E+00  0.0000E+00
 15  0.0000E+00  1.7106E-04  0.0000E+00  0.0000E+00  0.0000E+00  0.0000E+00  0.0000E+00  0.0000E+00  0.0000E+00
 16  0.0000E+00  3.8361E-04  0.0000E+00  0.0000E+00  0.0000E+00  0.0000E+00  0.0000E+00  0.0000E+00  0.0000E+00
 17  0.0000E+00  5.3162E-04  0.0000E+00  0.0000E+00  0.0000E+00  0.0000E+00  0.0000E+00  0.0000E+00  0.0000E+00
 18  0.0000E+00  1.0060E-03  1.1471E-02  0.0000E+00  0.0000E+00  0.0000E+00  0.0000E+00  0.0000E+00  0.0000E+00
 19  0.0000E+00  3.4284E-03  0.0000E+00  0.0000E+00  0.0000E+00  1.3846E-03  0.0000E+00  0.0000E+00  0.0000E+00
 20  0.0000E+00  1.1364E-02  0.0000E+00  0.0000E+00  3.1825E-02  3.6844E-02  7.2907E-02  0.0000E+00  0.0000E+00
 21  0.0000E+00  2.2073E-02  0.0000E+00  4.7376E-03  0.0000E+00  0.0000E+00  0.0000E+00  0.0000E+00  0.0000E+00
 22  0.0000E+00  2.3599E-02  0.0000E+00  0.0000E+00  0.0000E+00  8.0370E-02  0.0000E+00  0.0000E+00  0.0000E+00
 23  0.0000E+00  3.8220E-02  0.0000E+00  1.8077E-02  0.0000E+00  0.0000E+00  0.0000E+00  0.0000E+00  0.0000E+00
 24  0.0000E+00  5.6824E-02  0.0000E+00  0.0000E+00  0.0000E+00  6.6137E-02  0.0000E+00  0.0000E+00  0.0000E+00
 25  0.0000E+00  1.1188E-01  1.1947E-01  0.0000E+00  1.7762E-01  0.0000E+00  3.7710E-01  8.9802E-02  8.9243E-02
 26  0.0000E+00  2.3751E-04  5.1605E-04  0.0000E+00  5.1414E-04  0.0000E+00  5.5341E-04  6.3967E-05  0.0000E+00
 27  0.0000E+00  7.8762E-05  2.1296E-04  0.0000E+00  3.1540E-04  0.0000E+00  6.8551E-05  2.2314E-04  0.0000E+00
 28  0.0000E+00  1.0751E-04  0.0000E+00  0.0000E+00  0.0000E+00  0.0000E+00  0.0000E+00  2.3722E-04  3.0355E-05
 29  0.0000E+00  1.2587E-04  3.4996E-04  0.0000E+00  0.0000E+00  0.0000E+00  6.9361E-04  0.0000E+00  0.0000E+00
 30  0.0000E+00  2.1184E-04  0.0000E+00  7.9857E-04  0.0000E+00  0.0000E+00  4.9469E-04  0.0000E+00  0.0000E+00
 31  0.0000E+00  1.5949E-04  0.0000E+00  0.0000E+00  0.0000E+00  2.7065E-04  0.0000E+00  0.0000E+00  4.1485E-04
 32  0.0000E+00  4.1926E-04  0.0000E+00  1.5638E-04  3.8565E-04  0.0000E+00  3.9006E-04  0.0000E+00  0.0000E+00
 33  0.0000E+00  2.1981E-04  6.8511E-04  0.0000E+00  0.0000E+00  0.0000E+00  0.0000E+00  0.0000E+00  0.0000E+00
 34  0.0000E+00  2.0676E-04  0.0000E+00  0.0000E+00  0.0000E+00  0.0000E+00  0.0000E+00  0.0000E+00  8.6642E-04
 35  0.0000E+00  2.1404E-04  0.0000E+00  0.0000E+00  0.0000E+00  1.2238E-03  0.0000E+00  0.0000E+00  0.0000E+00
 36  0.0000E+00  9.6933E-05  0.0000E+00  0.0000E+00  0.0000E+00  0.0000E+00  8.7595E-05  0.0000E+00  0.0000E+00
 37  0.0000E+00  9.1099E-05  0.0000E+00  0.0000E+00  0.0000E+00  0.0000E+00  0.0000E+00  0.0000E+00  0.0000E+00
 38  0.0000E+00  7.5321E-05  0.0000E+00  0.0000E+00  0.0000E+00  0.0000E+00  0.0000E+00  0.0000E+00  0.0000E+00
 39  0.0000E+00  1.2140E-04  0.0000E+00  0.0000E+00  0.0000E+00  0.0000E+00  0.0000E+00  0.0000E+00  0.0000E+00
 40  0.0000E+00  2.4408E-04  0.0000E+00  0.0000E+00  0.0000E+00  0.0000E+00  0.0000E+00  0.0000E+00  0.0000E+00
 41  0.0000E+00  5.6585E-04  0.0000E+00  0.0000E+00  0.0000E+00  0.0000E+00  0.0000E+00  0.0000E+00  0.0000E+00
 42  0.0000E+00  6.7245E-04  5.5867E-03  0.0000E+00  0.0000E+00  0.0000E+00  0.0000E+00  0.0000E+00  0.0000E+00
 43  0.0000E+00  2.8601E-03  1.0217E-02  0.0000E+00  0.0000E+00  0.0000E+00  0.0000E+00  0.0000E+00  0.0000E+00
 44  0.0000E+00  1.3432E-02  4.8141E-02  0.0000E+00  0.0000E+00  0.0000E+00  4.0351E-03  0.0000E+00  0.0000E+00
 45  2.8349E-03  2.4403E-01  1.9490E-01  1.9489E-01  1.7725E-01  0.0000E+00  5.9521E-01  3.0114E-01  2.4013E-01
 46  3.3791E-01  4.9872E-01  4.8273E-01  7.0273E-01  6.6349E-01  6.9888E-01  4.9554E-01  1.4556E-01  7.1175E-01
 47  1.4407E+01  1.4444E+01  1.4769E+01  1.5586E+01  1.4653E+01  1.4320E+01  1.4171E+01  1.4671E+01  1.4900E+01
 48  0.0000E+00  8.5782E-02  0.0000E+00  0.0000E+00  2.2613E-01  0.0000E+00  0.0000E+00  7.5853E-01  9.5398E-02
 49  0.0000E+00  5.1172E-02  0.0000E+00  0.0000E+00  0.0000E+00  0.0000E+00  1.7785E-02  0.0000E+00  1.1151E-03
 50  0.0000E+00  5.2865E-02  0.0000E+00  0.0000E+00  1.5214E-01  5.6354E-03  0.0000E+00  0.0000E+00  0.0000E+00
 51  0.0000E+00  1.4225E-04  4.2116E-04  0.0000E+00  0.0000E+00  2.1408E-04  0.0000E+00  4.6390E-04  0.0000E+00
 52  0.0000E+00  9.0092E-05  8.6985E-05  0.0000E+00  0.0000E+00  0.0000E+00  6.1990E-04  0.0000E+00  1.5054E-04
 53  2.7109E-09  3.2646E-04  4.2819E-04  1.7384E-04  1.2234E-03  1.8168E-04  2.6832E-04  5.3389E-04  4.0682E-04
 54  0.0000E+00  1.5932E-04  0.0000E+00  5.8626E-04  2.5937E-05  9.9342E-05  0.0000E+00  0.0000E+00  0.0000E+00
 55  0.0000E+00  2.6383E-04  5.7195E-04  0.0000E+00  5.6595E-04  2.9871E-04  0.0000E+00  3.1409E-04  0.0000E+00
 56  0.0000E+00  1.6037E-04  0.0000E+00  0.0000E+00  0.0000E+00  6.1966E-04  0.0000E+00  0.0000E+00  6.5638E-04
 57  0.0000E+00  2.2014E-04  9.2457E-04  0.0000E+00  0.0000E+00  2.8477E-05  0.0000E+00  0.0000E+00  0.0000E+00
 58  0.0000E+00  1.6417E-04  0.0000E+00  0.0000E+00  0.0000E+00  0.0000E+00  6.8172E-04  0.0000E+00  0.0000E+00
 59  0.0000E+00  1.1162E-04  0.0000E+00  0.0000E+00  0.0000E+00  0.0000E+00  0.0000E+00  0.0000E+00  1.8874E-04
 60  0.0000E+00  6.1368E-05  0.0000E+00  0.0000E+00  0.0000E+00  0.0000E+00  0.0000E+00  0.0000E+00  0.0000E+00
 61  0.0000E+00  6.1861E-05  0.0000E+00  0.0000E+00  0.0000E+00  0.0000E+00  0.0000E+00  0.0000E+00  0.0000E+00
 62  0.0000E+00  7.9676E-05  4.6067E-04  0.0000E+00  0.0000E+00  0.0000E+00  0.0000E+00  0.0000E+00  0.0000E+00
 63  0.0000E+00  8.1229E-05  0.0000E+00  0.0000E+00  0.0000E+00  5.5641E-04  0.0000E+00  0.0000E+00  0.0000E+00
 64  0.0000E+00  1.5515E-04  0.0000E+00  0.0000E+00  0.0000E+00  0.0000E+00  0.0000E+00  0.0000E+00  0.0000E+00
 65  0.0000E+00  4.3290E-04  0.0000E+00  0.0000E+00  0.0000E+00  0.0000E+00  0.0000E+00  0.0000E+00  0.0000E+00
 66  0.0000E+00  1.4179E-03  0.0000E+00  0.0000E+00  0.0000E+00  0.0000E+00  0.0000E+00  0.0000E+00  0.0000E+00
 67  0.0000E+00  1.7088E-03  0.0000E+00  0.0000E+00  2.1436E-03  4.8515E-04  0.0000E+00  0.0000E+00  0.0000E+00
 68  0.0000E+00  1.5666E-02  0.0000E+00  0.0000E+00  0.0000E+00  0.0000E+00  0.0000E+00  1.9970E-02  2.3894E-02
 69  0.0000E+00  6.9656E-02  0.0000E+00  0.0000E+00  0.0000E+00  2.4595E-02  0.0000E+00  1.1829E-01  0.0000E+00
 70  0.0000E+00  2.0418E-01  0.0000E+00  2.1697E-02  4.1699E-01  0.0000E+00  3.5141E-02  8.4071E-02  0.0000E+00
 71  0.0000E+00  3.0280E-01  2.8520E-02  5.3357E-01  4.6846E-01  0.0000E+00  2.7219E-01  1.5865E-01  3.3423E-01
 72  2.9202E+01  2.6729E+01  2.6103E+01  2.6493E+01  2.6935E+01  2.6971E+01  2.6952E+01  2.6960E+01  2.6758E+01
 73  1.3051E+01  1.4673E+01  1.4645E+01  1.4838E+01  1.3872E+01  1.4299E+01  1.4219E+01  1.6239E+01  1.4174E+01
 74  7.2733E-05  3.3048E+00  7.5043E-01  6.8251E-01  1.2777E+00  3.9840E+00  2.4395E+00  4.6436E-01  3.8147E+00
 75  1.0302E-04  3.6411E-01  7.2678E-01  6.5801E-01  0.0000E+00  5.3222E-01  2.4284E-01  3.1961E-01  0.0000E+00
 76  0.0000E+00  8.1364E-05  2.0466E-04  0.0000E+00  0.0000E+00  0.0000E+00  0.0000E+00  0.0000E+00  0.0000E+00
 77  0.0000E+00  3.2151E-05  0.0000E+00  0.0000E+00  2.3900E-04  0.0000E+00  0.0000E+00  0.0000E+00  0.0000E+00
 78  0.0000E+00  3.7476E-05  0.0000E+00  0.0000E+00  0.0000E+00  0.0000E+00  0.0000E+00  2.7882E-05  3.5793E-04
 79  0.0000E+00  6.7752E-05  0.0000E+00  0.0000E+00  0.0000E+00  2.4943E-05  0.0000E+00  0.0000E+00  0.0000E+00
 80  0.0000E+00  5.7567E-05  0.0000E+00  0.0000E+00  0.0000E+00  0.0000E+00  0.0000E+00  0.0000E+00  0.0000E+00
 81  0.0000E+00  5.0141E-05  0.0000E+00  0.0000E+00  0.0000E+00  0.0000E+00  0.0000E+00  0.0000E+00  0.0000E+00
 82  0.0000E+00  7.9060E-05  0.0000E+00  3.2245E-04  0.0000E+00  0.0000E+00  0.0000E+00  0.0000E+00  0.0000E+00
 83  0.0000E+00  9.5104E-05  1.4761E-05  0.0000E+00  0.0000E+00  0.0000E+00  0.0000E+00  0.0000E+00  0.0000E+00
 84  0.0000E+00  9.0773E-05  0.0000E+00  0.0000E+00  0.0000E+00  0.0000E+00  0.0000E+00  0.0000E+00  0.0000E+00
 85  0.0000E+00  7.0768E-05  0.0000E+00  0.0000E+00  0.0000E+00  0.0000E+00  0.0000E+00  0.0000E+00  0.0000E+00
 86  0.0000E+00  6.2491E-05  7.2705E-04  0.0000E+00  0.0000E+00  0.0000E+00  0.0000E+00  0.0000E+00  5.3116E-04
 87  0.0000E+00  8.2407E-05  0.0000E+00  0.0000E+00  0.0000E+00  0.0000E+00  0.0000E+00  0.0000E+00  0.0000E+00
 88  0.0000E+00  9.2001E-05  0.0000E+00  0.0000E+00  0.0000E+00  0.0000E+00  0.0000E+00  0.0000E+00  0.0000E+00
 89  0.0000E+00  1.3193E-04  0.0000E+00  0.0000E+00  0.0000E+00  0.0000E+00  0.0000E+00  0.0000E+00  0.0000E+00
 90  0.0000E+00  5.3582E-04  0.0000E+00  0.0000E+00  0.0000E+00  0.0000E+00  0.0000E+00  0.0000E+00  0.0000E+00
 91  0.0000E+00  1.3774E-03  0.0000E+00  0.0000E+00  0.0000E+00  0.0000E+00  0.0000E+00  0.0000E+00  0.0000E+00
 92  0.0000E+00  1.9797E-03  0.0000E+00  0.0000E+00  6.8575E-05  0.0000E+00  0.0000E+00  0.0000E+00  0.0000E+00
 93  0.0000E+00  1.8731E-02  0.0000E+00  0.0000E+00  0.0000E+00  8.4799E-02  1.4275E-02  0.0000E+00  0.0000E+00
 94  0.0000E+00  1.5532E-01  0.0000E+00  0.0000E+00  6.5917E-02  3.2746E-02  0.0000E+00  3.9084E-01  1.3010E-01
 95  6.7305E-04  8.7089E-01  8.2856E-01  4.2328E-01  7.1146E-01  5.6476E-01  6.0692E-01  9.7779E-03  1.9645E+00
 96  3.8930E-04  7.6503E-01  6.4890E-01  8.6784E-01  1.3839E+00  4.6290E-01  3.6207E-01  1.5038E+00  1.7622E-01
 97  1.7836E+01  1.5646E+01  1.5683E+01  1.5981E+01  1.5826E+01  1.6189E+01  1.5936E+01  1.5977E+01  1.5267E+01
 98  2.0733E+01  1.4104E+01  1.7078E+01  1.6383E+01  1.5417E+01  1.3097E+01  1.4899E+01  1.4579E+01  1.4155E+01
 99  4.3728E+00  3.2839E+00  5.3741E+00  3.2864E+00  4.1107E+00  5.8230E+00  4.6829E+00  4.8104E+00  3.3016E+00
100  4.4670E-02  2.6800E+00  2.3981E+00  2.7677E+00  2.9521E+00  2.6624E+00  3.2351E+00  2.3628E+00  3.6780E+00
101  0.0000E+00  8.2606E-05  5.6233E-05  3.0669E-04  0.0000E+00  0.0000E+00  2.0054E-04  0.0000E+00  3.8584E-04
102  0.0000E+00  2.7594E-05  0.0000E+00  0.0000E+00  0.0000E+00  0.0000E+00  0.0000E+00  0.0000E+00  0.0000E+00
103  0.0000E+00  4.0793E-05  0.0000E+00  0.0000E+00  0.0000E+00  0.0000E+00  0.0000E+00  0.0000E+00  0.0000E+00
104  0.0000E+00  8.9329E-05  3.6090E-04  1.2893E-04  5.7487E-05  0.0000E+00  0.0000E+00  0.0000E+00  1.9341E-04
105  0.0000E+00  1.0597E-04  0.0000E+00  0.0000E+00  0.0000E+00  0.0000E+00  2.9815E-05  0.0000E+00  5.6789E-05
106  0.0000E+00  6.7284E-05  0.0000E+00  0.0000E+00  0.0000E+00  0.0000E+00  3.7006E-04  0.0000E+00  0.0000E+00
107  0.0000E+00  7.2281E-05  0.0000E+00  0.0000E+00  0.0000E+00  0.0000E+00  0.0000E+00  2.3807E-05  0.0000E+00
108  0.0000E+00  9.5671E-05  0.0000E+00  0.0000E+00  0.0000E+00  0.0000E+00  0.0000E+00  0.0000E+00  0.0000E+00
109  0.0000E+00  5.3983E-05  0.0000E+00  0.0000E+00  0.0000E+00  0.0000E+00  0.0000E+00  0.0000E+00  0.0000E+00
110  0.0000E+00  4.5423E-05  0.0000E+00  0.0000E+00  0.0000E+00  0.0000E+00  0.0000E+00  2.1612E-04  0.0000E+00
111  0.0000E+00  5.7111E-05  0.0000E+00  0.0000E+00  0.0000E+00  0.0000E+00  0.0000E+00  0.0000E+00  0.0000E+00
112  0.0000E+00  7.2900E-05  0.0000E+00  0.0000E+00  0.0000E+00  0.0000E+00  0.0000E+00  0.0000E+00  0.0000E+00
113  0.0000E+00  6.3443E-05  0.0000E+00  0.0000E+00  0.0000E+00  0.0000E+00  0.0000E+00  0.0000E+00  0.0000E+00
114  0.0000E+00  1.2567E-04  0.0000E+00  0.0000E+00  0.0000E+00  0.0000E+00  0.0000E+00  0.0000E+00  0.0000E+00
115  0.0000E+00  7.4607E-04  0.0000E+00  0.0000E+00  0.0000E+00  0.0000E+00  0.0000E+00  0.0000E+00  0.0000E+00
116  0.0000E+00  2.1533E-03  0.0000E+00  0.0000E+00  0.0000E+00  0.0000E+00  0.0000E+00  0.0000E+00  0.0000E+00
117  0.0000E+00  2.9876E-03  0.0000E+00  0.0000E+00  0.0000E+00  0.0000E+00  0.0000E+00  0.0000E+00  0.0000E+00
118  0.0000E+00  1.7612E-02  1.3897E-02  0.0000E+00  0.0000E+00  0.0000E+00  0.0000E+00  1.3071E-02  0.0000E+00
119  0.0000E+00  4.9225E-02  0.0000E+00  1.3817E-01  0.0000E+00  5.0794E-02  0.0000E+00  0.0000E+00  1.9281E-02
120  0.0000E+00  7.8858E-02  0.0000E+00  1.6806E-01  2.1372E-01  0.0000E+00  0.0000E+00  0.0000E+00  0.0000E+00
121  0.0000E+00  8.6057E-02  0.0000E+00  0.0000E+00  0.0000E+00  0.0000E+00  0.0000E+00  0.0000E+00  0.0000E+00
122  0.0000E+00  1.5223E-01  0.0000E+00  0.0000E+00  0.0000E+00  0.0000E+00  3.9546E-02  0.0000E+00  1.5380E-01
123  0.0000E+00  8.2022E-02  0.0000E+00  0.0000E+00  0.0000E+00  0.0000E+00  0.0000E+00  0.0000E+00  0.0000E+00
124  0.0000E+00  1.5356E-01  6.1182E-02  0.0000E+00  0.0000E+00  0.0000E+00  0.0000E+00  0.0000E+00  0.0000E+00
125  0.0000E+00  1.3359E-01  0.0000E+00  1.5957E-01  2.2911E-01  0.0000E+00  0.0000E+00  0.0000E+00  0.0000E+00
126  0.0000E+00  3.7280E-05  0.0000E+00  0.0000E+00  0.0000E+00  0.0000E+00  0.0000E+00  9.8852E-05  0.0000E+00
127  0.0000E+00  5.3473E-05  0.0000E+00  8.3937E-05  0.0000E+00  3.3124E-04  0.0000E+00  3.4776E-06  0.0000E+00
128  0.0000E+00  4.7282E-05  0.0000E+00  0.0000E+00  9.7768E-05  0.0000E+00  0.0000E+00  1.8313E-04  0.0000E+00
129  0.0000E+00  6.0015E-05  0.0000E+00  0.0000E+00  0.0000E+00  7.0219E-05  0.0000E+00  0.0000E+00  2.7212E-04
130  0.0000E+00  7.6969E-05  0.0000E+00  0.0000E+00  0.0000E+00  4.1142E-04  0.0000E+00  0.0000E+00  0.0000E+00
131  0.0000E+00  4.9435E-05  0.0000E+00  0.0000E+00  0.0000E+00  0.0000E+00  0.0000E+00  0.0000E+00  0.0000E+00
132  0.0000E+00  4.5445E-05  0.0000E+00  0.0000E+00  0.0000E+00  0.0000E+00  0.0000E+00  0.0000E+00  0.0000E+00
133  0.0000E+00  7.0359E-05  0.0000E+00  0.0000E+00  0.0000E+00  1.1352E-04  0.0000E+00  0.0000E+00  0.0000E+00
134  0.0000E+00  3.8620E-05  0.0000E+00  0.0000E+00  0.0000E+00  0.0000E+00  0.0000E+00  0.0000E+00  0.0000E+00
135  0.0000E+00  3.2123E-05  0.0000E+00  0.0000E+00  0.0000E+00  4.9842E-05  0.0000E+00  0.0000E+00  0.0000E+00
136  0.0000E+00  4.2022E-05  0.0000E+00  0.0000E+00  0.0000E+00  0.0000E+00  0.0000E+00  0.0000E+00  0.0000E+00
137  0.0000E+00  6.2160E-05  0.0000E+00  0.0000E+00  3.5807E-04  0.0000E+00  0.0000E+00  0.0000E+00  0.0000E+00
138  0.0000E+00  9.2168E-05  0.0000E+00  0.0000E+00  0.0000E+00  0.0000E+00  0.0000E+00  0.0000E+00  0.0000E+00
139  0.0000E+00  2.9374E-04  0.0000E+00  0.0000E+00  0.0000E+00  0.0000E+00  0.0000E+00  0.0000E+00  0.0000E+00
140  0.0000E+00  2.2314E-03  0.0000E+00  0.0000E+00  1.0270E-02  0.0000E+00  0.0000E+00  0.0000E+00  0.0000E+00
141  0.0000E+00  7.6191E-03  0.0000E+00  0.0000E+00  0.0000E+00  0.0000E+00  0.0000E+00  0.0000E+00  0.0000E+00
142  0.0000E+00  1.0722E-02  0.0000E+00  0.0000E+00  0.0000E+00  0.0000E+00  0.0000E+00  0.0000E+00  0.0000E+00
143  0.0000E+00  4.2817E-02  0.0000E+00  0.0000E+00  0.0000E+00  0.0000E+00  0.0000E+00  0.0000E+00  0.0000E+00
144  0.0000E+00  3.5666E-02  0.0000E+00  0.0000E+00  0.0000E+00  0.0000E+00  0.0000E+00  0.0000E+00  0.0000E+00
145  0.0000E+00  7.1871E-02  6.1209E-03  0.0000E+00  0.0000E+00  0.0000E+00  3.1824E-01  0.0000E+00  0.0000E+00
146  0.0000E+00  5.4184E-02  0.0000E+00  0.0000E+00  0.0000E+00  0.0000E+00  0.0000E+00  1.2419E-02  0.0000E+00
147  0.0000E+00  4.2032E-02  0.0000E+00  8.1357E-02  1.6065E-02  0.0000E+00  0.0000E+00  0.0000E+00  0.0000E+00
148  0.0000E+00  3.8631E-02  0.0000E+00  0.0000E+00  0.0000E+00  0.0000E+00  0.0000E+00  0.0000E+00  0.0000E+00
149  0.0000E+00  2.8354E-02  0.0000E+00  0.0000E+00  0.0000E+00  0.0000E+00  0.0000E+00  0.0000E+00  0.0000E+00
150  0.0000E+00  3.3517E-02  0.0000E+00  0.0000E+00  0.0000E+00  0.0000E+00  0.0000E+00  0.0000E+00  0.0000E+00

# AV, chi2 & Mass for <> & i_chain = 1 ...  7 solutions
AV       0.6075      0.5924      0.5968      0.5942      0.5979      0.5958      0.5951      0.5931      0.5968
chi2 2.3997E+00  2.4680E+00  2.4365E+00  2.4394E+00  2.4396E+00  2.4414E+00  2.4432E+00  2.4436E+00  2.4450E+00
Mass 8.4427E-10  8.3645E-10  8.4702E-10  8.3853E-10  8.3868E-10  8.4592E-10  8.4490E-10  8.3725E-10  8.3871E-10
   6.69                                  [v0_min (km/s) before EX0s...]
  56.24                                  [vd_min (km/s) before EX0s...]


## Synthetic spectrum (Best Model) ##l_obs f_obs f_syn wei
 3070    [Nl_obs]
 3359.00    0.00000   0.42760   -2.000
 3360.00    0.22523   0.39124   -1.000
 3361.00    0.22510   0.38654   -1.000
 3362.00    0.24452   0.41348   -1.000
 3363.00    0.27387   0.45628   -1.000
 3364.00    0.30388   0.49110   -1.000
 3365.00    0.30649   0.50242   -1.000
 3366.00    0.31021   0.49143   -1.000
 3367.00    0.31151   0.46814   -1.000
 3368.00    0.31185   0.44475   -1.000
 3369.00    0.29816   0.42741   -1.000
 3370.00    0.28736   0.41212   -1.000
 3371.00    0.27431   0.40145   -1.000
 3372.00    0.29888   0.40304   -1.000
 3373.00    0.30974   0.42251   -1.000
 3374.00    0.30838   0.45657   -1.000
 3375.00    0.33263   0.49538   -1.000
 3376.00    0.35501   0.52175   -1.000
 3377.00    0.35583   0.52234   -1.000
 3378.00    0.36028   0.50083   -1.000
 3379.00    0.35151   0.47411   -1.000
 3380.00    0.35123   0.45806   -1.000
 3381.00    0.34465   0.45916   -1.000
 3382.00    0.34890   0.47393   -1.000
 3383.00    0.36488   0.49069   -1.000
 3384.00    0.36084   0.50359   -1.000
 3385.00    0.37055   0.51470   -1.000
 3386.00    0.37690   0.51933   -1.000
 3387.00    0.38928   0.51588   -1.000
 3388.00    0.38965   0.51195   -1.000
 3389.00    0.39721   0.51312   -1.000
 3390.00    0.40585   0.51508   -1.000
 3391.00    0.41242   0.51001   -1.000
 3392.00    0.41435   0.49441   -1.000
 3393.00    0.39959   0.48203   -1.000
 3394.00    0.42088   0.48771   -1.000
 3395.00    0.42484   0.50942   -1.000
 3396.00    0.44152   0.53653   -1.000
 3397.00    0.45469   0.56065   -1.000
 3398.00    0.47793   0.57769   -1.000
 3399.00    0.49257   0.58384   -1.000
 3400.00    0.48874   0.57904   -1.000
 3401.00    0.50638   0.56631   -1.000
 3402.00    0.48937   0.54734   -1.000
 3403.00    0.47122   0.53032   -1.000
 3404.00    0.45787   0.52050   -1.000
 3405.00    0.45839   0.51649   -1.000
 3406.00    0.45224   0.51179   -1.000
 3407.00    0.43751   0.50485   -1.000
 3408.00    0.44140   0.50024   -1.000
 3409.00    0.43073   0.50396   -1.000
 3410.00    0.43405   0.51357   -1.000
 3411.00    0.44399   0.51536   -1.000
 3412.00    0.46020   0.50413   -1.000
 3413.00    0.43640   0.48671   -1.000
 3414.00    0.43399   0.47696   -1.000
 3415.00    0.43080   0.48324   -1.000
 3416.00    0.43135   0.50060   -1.000
 3417.00    0.45214   0.52151   -1.000
 3418.00    0.48131   0.54231   -1.000
 3419.00    0.49563   0.56108   -1.000
 3420.00    0.49429   0.57288   -1.000
 3421.00    0.49879   0.57128   -1.000
 3422.00    0.49482   0.55676   -1.000
 3423.00    0.50544   0.54046   -1.000
 3424.00    0.49480   0.53365   -1.000
 3425.00    0.48971   0.53629   -1.000
 3426.00    0.49329   0.54229   -1.000
 3427.00    0.48659   0.55266   -1.000
 3428.00    0.51077   0.57241   -1.000
 3429.00    0.52209   0.59425   -1.000
 3430.00    0.53329   0.60221   -1.000
 3431.00    0.53941   0.58801   -1.000
 3432.00    0.51688   0.56306   -1.000
 3433.00    0.51506   0.54563   -1.000
 3434.00    0.50701   0.54682   -1.000
 3435.00    0.52422   0.55919   -1.000
 3436.00    0.52776   0.56370   -1.000
 3437.00    0.52410   0.55314   -1.000
 3438.00    0.49089   0.52954   -1.000
 3439.00    0.46869   0.49670   -1.000
 3440.00    0.44465   0.46033  215.909
 3441.00    0.41371   0.43253   -1.000
 3442.00    0.41131   0.42328  224.953
 3443.00    0.43057   0.43086  223.991
 3444.00    0.43584   0.44687  215.070
 3445.00    0.44762   0.46563  203.277
 3446.00    0.47921   0.49002  192.020
 3447.00    0.50981   0.52061  185.353
 3448.00    0.52629   0.55027   -1.000
 3449.00    0.53726   0.57049   -1.000
 3450.00    0.54306   0.57328   -1.000
 3451.00    0.54903   0.55832   -1.000
 3452.00    0.53011   0.53814   -1.000
 3453.00    0.52705   0.52924  810.510
 3454.00    0.54430   0.53537   -1.000
 3455.00    0.54526   0.54694  810.510
 3456.00    0.55698   0.55025   -1.000
 3457.00    0.55196   0.53931   -1.000
 3458.00    0.53810   0.52109   -1.000
 3459.00    0.52279   0.50360   -1.000
 3460.00    0.51112   0.48939   -1.000
 3461.00    0.51429   0.48655   -1.000
 3462.00    0.51610   0.50227   -1.000
 3463.00    0.53543   0.52514   -1.000
 3464.00    0.55639   0.53739   -1.000
 3465.00    0.55168   0.53529   -1.000
 3466.00    0.54774   0.53139   -1.000
 3467.00    0.55377   0.53881   -1.000
 3468.00    0.56191   0.55692   -1.000
 3469.00    0.57409   0.57582  810.510
 3470.00    0.59231   0.58347   -1.000
 3471.00    0.59372   0.57487   -1.000
 3472.00    0.58316   0.55343   -1.000
 3473.00    0.54734   0.52387   -1.000
 3474.00    0.52510   0.49275   -1.000
 3475.00    0.50017   0.47068   -1.000
 3476.00    0.48580   0.46845   -1.000
 3477.00    0.48389   0.48763  184.836
 3478.00    0.51828   0.51612  810.510
 3479.00    0.55094   0.54130   -1.000
 3480.00    0.57048   0.55696   -1.000
 3481.00    0.58390   0.56045   -1.000
 3482.00    0.57784   0.55353   -1.000
 3483.00    0.58455   0.54327   -1.000
 3484.00    0.57289   0.53938   -1.000
 3485.00    0.58345   0.54989   -1.000
 3486.00    0.59426   0.56975   -1.000
 3487.00    0.61167   0.57986   -1.000
 3488.00    0.60095   0.56854   -1.000
 3489.00    0.58992   0.54117   -1.000
 3490.00    0.55116   0.51588   -1.000
 3491.00    0.52293   0.50749   -1.000
 3492.00    0.53264   0.51391   -1.000
 3493.00    0.54053   0.52372   -1.000
 3494.00    0.55027   0.52752   -1.000
 3495.00    0.54382   0.52178   -1.000
 3496.00    0.52804   0.51268   -1.000
 3497.00    0.53169   0.51476   -1.000
 3498.00    0.55638   0.53295   -1.000
 3499.00    0.58159   0.55627   -1.000
 3500.00    0.61296   0.57146   -1.000
 3501.00    0.62533   0.57959   -1.000
 3502.00    0.63660   0.58782   -1.000
 3503.00    0.62649   0.59446   -1.000
 3504.00    0.62564   0.59217   -1.000
 3505.00    0.62053   0.58051   -1.000
 3506.00    0.60931   0.56815   -1.000
 3507.00    0.59378   0.56252   -1.000
 3508.00    0.60609   0.56113   -1.000
 3509.00    0.60444   0.55673   -1.000
 3510.00    0.59651   0.54753   -1.000
 3511.00    0.58780   0.53730   -1.000
 3512.00    0.57777   0.52605   -1.000
 3513.00    0.56086   0.51265   -1.000
 3514.00    0.55938   0.50842   -1.000
 3515.00    0.56036   0.52519   -1.000
 3516.00    0.58256   0.56033   -1.000
 3517.00    0.61895   0.59419   -1.000
 3518.00    0.62522   0.60619   -1.000
 3519.00    0.61713   0.59228   -1.000
 3520.00    0.59390   0.56433   -1.000
 3521.00    0.56376   0.53719   -1.000
 3522.00    0.54338   0.51581   -1.000
 3523.00    0.52993   0.49500   -1.000
 3524.00    0.51640   0.47485   -1.000
 3525.00    0.49122   0.46429   -1.000
 3526.00    0.49348   0.47406   -1.000
 3527.00    0.51643   0.50347   -1.000
 3528.00    0.54788   0.54052   -1.000
 3529.00    0.57652   0.56970   -1.000
 3530.00    0.59885   0.58347   -1.000
 3531.00    0.59894   0.58376   -1.000
 3532.00    0.58689   0.57855   -1.000
 3533.00    0.59119   0.57684   -1.000
 3534.00    0.60347   0.58160   -1.000
 3535.00    0.61316   0.58913   -1.000
 3536.00    0.62250   0.59771   -1.000
 3537.00    0.62109   0.60881   -1.000
 3538.00    0.61087   0.62240   -1.000
 3539.00    0.63115   0.63227   -1.000
 3540.00    0.63420   0.63041  810.510
 3541.00    0.61827   0.62152   -1.000
 3542.00    0.61618   0.61837   -1.000
 3543.00    0.62185   0.62439   -1.000
 3544.00    0.62066   0.63337   -1.000
 3545.00    0.62432   0.63610   -1.000
 3546.00    0.61949   0.63038   -1.000
 3547.00    0.60782   0.62189   -1.000
 3548.00    0.60152   0.61755   -1.000
 3549.00    0.61267   0.61953   -1.000
 3550.00    0.60795   0.62359   -1.000
 3551.00    0.59417   0.62281   -1.000
 3552.00    0.60312   0.61194   -1.000
 3553.00    0.58568   0.59609   -1.000
 3554.00    0.57101   0.58583   -1.000
 3555.00    0.56837   0.58682   -1.000
 3556.00    0.58038   0.59403   -1.000
 3557.00    0.58443   0.59830   -1.000
 3558.00    0.58301   0.59680   -1.000
 3559.00    0.59305   0.59452   -1.000
 3560.00    0.58807   0.59867   -1.000
 3561.00    0.57362   0.61042   -1.000
 3562.00    0.59062   0.61901   -1.000
 3563.00    0.59399   0.60764   -1.000
 3564.00    0.55843   0.56958   -1.000
 3565.00    0.51690   0.52625  184.174
 3566.00    0.49283   0.50344  189.842
 3567.00    0.49545   0.50128  187.645
 3568.00    0.49899   0.50157  186.603
 3569.00    0.50068   0.49016  193.008
 3570.00    0.47355   0.47601  196.559
 3571.00    0.47107   0.47625  190.380
 3572.00    0.49625   0.49089  181.845
 3573.00    0.51415   0.50847   -1.000
 3574.00    0.53122   0.52053   -1.000
 3575.00    0.53337   0.52758   -1.000
 3576.00    0.52842   0.53299   -1.000
 3577.00    0.53921   0.53314   -1.000
 3578.00    0.52739   0.52227   -1.000
 3579.00    0.51212   0.49820  190.360
 3580.00    0.47789   0.46890  203.487
 3581.00    0.43954   0.44668  214.650
 3582.00    0.44120   0.44127  216.031
 3583.00    0.45315   0.44868  216.921
 3584.00    0.44324   0.44954  222.427
 3585.00    0.43010   0.43769  229.788
 3586.00    0.41434   0.42503  233.026
 3587.00    0.42096   0.42554  221.213
 3588.00    0.44072   0.44607  209.409
 3589.00    0.47258   0.48119  199.291
 3590.00    0.50767   0.51980  181.417
 3591.00    0.54364   0.54954   -1.000
 3592.00    0.57349   0.56237   -1.000
 3593.00    0.57324   0.56419   -1.000
 3594.00    0.57115   0.56978  810.510
 3595.00    0.58300   0.58724   -1.000
 3596.00    0.60193   0.60929   -1.000
 3597.00    0.61285   0.62625   -1.000
 3598.00    0.63100   0.63761   -1.000
 3599.00    0.64277   0.64453   -1.000
 3600.00    0.64032   0.64184   -1.000
 3601.00    0.62417   0.62279  810.510
 3602.00    0.60169   0.59310   -1.000
 3603.00    0.57922   0.56578   -1.000
 3604.00    0.56274   0.55106   -1.000
 3605.00    0.56365   0.54843   -1.000
 3606.00    0.56101   0.54728   -1.000
 3607.00    0.54758   0.53858   -1.000
 3608.00    0.53173   0.52333   -1.000
 3609.00    0.52001   0.51361   -1.000
 3610.00    0.52095   0.52009  810.510
 3611.00    0.53642   0.53779  810.510
 3612.00    0.55224   0.55535   -1.000
 3613.00    0.56615   0.56990   -1.000
 3614.00    0.57690   0.58543   -1.000
 3615.00    0.59227   0.60000   -1.000
 3616.00    0.59025   0.59604   -1.000
 3617.00    0.56244   0.56317  810.510
 3618.00    0.52506   0.52204  810.510
 3619.00    0.50701   0.50425  181.453
 3620.00    0.52096   0.52116  810.510
 3621.00    0.56028   0.55779  810.510
 3622.00    0.59989   0.59192  146.544
 3623.00    0.61071   0.61357  141.718
 3624.00    0.62887   0.63060  139.979
 3625.00    0.64005   0.65541  134.762
 3626.00    0.66093   0.68513   -1.000
 3627.00    0.67836   0.70628   -1.000
 3628.00    0.66433   0.70075   -1.000
 3629.00    0.63960   0.65998   -1.000
 3630.00    0.59336   0.59975  154.173
 3631.00    0.54211   0.55255  167.064
 3632.00    0.52897   0.53936  168.989
 3633.00    0.53870   0.55360  163.711
 3634.00    0.55014   0.57453   -1.000
 3635.00    0.57053   0.58950   -1.000
 3636.00    0.59351   0.60085  148.461
 3637.00    0.61456   0.61882  141.438
 3638.00    0.64132   0.64365  135.064
 3639.00    0.65466   0.66656  130.542
 3640.00    0.66676   0.67687  130.413
 3641.00    0.65713   0.66926  133.733
 3642.00    0.63227   0.64766  138.269
 3643.00    0.61087   0.62174  145.837
 3644.00    0.59197   0.60005  150.082
 3645.00    0.57604   0.58441  152.638
 3646.00    0.57216   0.57082  154.967
 3647.00    0.55819   0.56046  157.829
 3648.00    0.55797   0.55886  157.939
 3649.00    0.56519   0.56759  153.603
 3650.00    0.58970   0.58631  147.370
 3651.00    0.61192   0.61303  140.205
 3652.00    0.63943   0.64174  134.322
 3653.00    0.65911   0.66474  131.035
 3654.00    0.66869   0.67958  129.221
 3655.00    0.66677   0.69008   -1.000
 3656.00    0.68246   0.70178   -1.000
 3657.00    0.69695   0.71370  125.979
 3658.00    0.69413   0.72125   -1.000
 3659.00    0.70437   0.72464   -1.000
 3660.00    0.68979   0.72355   -1.000
 3661.00    0.68357   0.71489   -1.000
 3662.00    0.68906   0.70011  126.692
 3663.00    0.67181   0.68605  128.883
 3664.00    0.66334   0.68010   -1.000
 3665.00    0.67665   0.68219  128.245
 3666.00    0.68786   0.68458  128.344
 3667.00    0.67710   0.67960  131.096
 3668.00    0.65228   0.66599  132.521
 3669.00    0.64186   0.65435  135.841
 3670.00    0.64351   0.65667  134.927
 3671.00    0.67424   0.67294  129.797
 3672.00    0.68536   0.69127  127.210
 3673.00    0.69344   0.70122  126.781
 3674.00    0.68538   0.70067  126.755
 3675.00    0.68707   0.68965  127.051
 3676.00    0.67459   0.66925  131.047
 3677.00    0.64815   0.64450  135.131
 3678.00    0.63639   0.62226  139.230
 3679.00    0.62855   0.60964  142.772
 3680.00    0.60491   0.60907  142.342
 3681.00    0.62584   0.61890  138.573
 3682.00    0.65136   0.63356  134.555
 3683.00    0.65838   0.64383  133.331
 3684.00    0.65672   0.64048  136.638
 3685.00    0.63390   0.62025  142.298
 3686.00    0.60167   0.59562  148.160
 3687.00    0.58866   0.58507  150.789
 3688.00    0.61742   0.59828  146.478
 3689.00    0.63887   0.63084  136.702
 3690.00    0.66847   0.66785  127.635
 3691.00    0.70263   0.69225  123.812
 3692.00    0.70449   0.69602  124.804
 3693.00    0.68626   0.68625  128.316
 3694.00    0.67889   0.67587  130.052
 3695.00    0.68980   0.67172  129.456
 3696.00    0.68747   0.67386  128.294
 3697.00    0.69093   0.68364  126.718
 3698.00    0.70773   0.70336  122.517
 3699.00    0.73171   0.72625  119.417
 3700.00    0.74096   0.73968  117.836
 3701.00    0.73411   0.73063  120.141
 3702.00    0.70062   0.69328  125.723
 3703.00    0.66664   0.63854   -1.000
 3704.00    0.62120   0.58627   -1.000
 3705.00    0.56752   0.55340  159.094
 3706.00    0.56086   0.54525  157.475
 3707.00    0.57310   0.55252   -1.000
 3708.00    0.57940   0.56485  151.716
 3709.00    0.59656   0.57922  146.770
 3710.00    0.62555   0.59732   -1.000
 3711.00    0.65592   0.62219   -1.000
 3712.00    0.68539   0.65540   -1.000
 3713.00    0.71659   0.69087  120.088
 3714.00    0.74602   0.71832  117.153
 3715.00    0.75604   0.72917  116.807
 3716.00    0.74306   0.72022  119.950
 3717.00    0.71727   0.69135   -1.000
 3718.00    0.66858   0.64097   -1.000
 3719.00    0.58578   0.57158  157.955
 3720.00    0.52766   0.50666   -1.000
 3721.00    0.51237   0.47612   18.517
 3722.00    0.53300   0.49037   -1.000
 3723.00    0.58094   0.53883   -1.000
 3724.00    0.64404   0.59900   -1.000
 3725.00    0.68632   0.64105   -1.000
 3726.00    0.68782   0.65208   -1.000
 3727.00    0.66034   0.64769  135.751
 3728.00    0.64692   0.64664  136.851
 3729.00    0.66708   0.65026  134.540
 3730.00    0.65523   0.64581  135.975
 3731.00    0.63921   0.61768   -1.000
 3732.00    0.59033   0.56328   -1.000
 3733.00    0.53324   0.49924   18.176
 3734.00    0.46714   0.44530   20.158
 3735.00    0.45079   0.41975   20.918
 3736.00    0.46231   0.43205   19.873
 3737.00    0.49814   0.47716   17.999
 3738.00    0.55114   0.54135  145.993
 3739.00    0.60826   0.60623  143.057
 3740.00    0.65838   0.65047  134.777
 3741.00    0.67432   0.66262  134.058
 3742.00    0.66247   0.64496  139.408
 3743.00    0.62779   0.60992  148.331
 3744.00    0.58970   0.57319  157.192
 3745.00    0.55630   0.54459  166.292
 3746.00    0.53477   0.52136  174.431
 3747.00    0.52428   0.49478   18.440
 3748.00    0.48181   0.46528   19.428
 3749.00    0.46524   0.45038   19.640
 3750.00    0.50245   0.46780   -1.000
 3751.00    0.57084   0.51692   -1.000
 3752.00    0.63236   0.58109   -1.000
 3753.00    0.67583   0.64539   -1.000
 3754.00    0.72081   0.69397   -1.000
 3755.00    0.73973   0.71131   -1.000
 3756.00    0.72127   0.69086   -1.000
 3757.00    0.66047   0.64341  143.645
 3758.00    0.58793   0.59539  159.966
 3759.00    0.57934   0.57428  159.215
 3760.00    0.59983   0.58323  148.940
 3761.00    0.63603   0.60318   -1.000
 3762.00    0.64697   0.61786   -1.000
 3763.00    0.65325   0.62477   -1.000
 3764.00    0.65462   0.62680   -1.000
 3765.00    0.65852   0.62353   -1.000
 3766.00    0.64448   0.61478   -1.000
 3767.00    0.64749   0.60484   -1.000
 3768.00    0.65237   0.59579   -1.000
 3769.00    0.64290   0.58750   -1.000
 3770.00    0.64125   0.58348   -1.000
 3771.00    0.65686   0.59503   -1.000
 3772.00    0.69508   0.62493   -1.000
 3773.00    0.71203   0.65874   -1.000
 3774.00    0.71973   0.68137   -1.000
 3775.00    0.72177   0.69224   -1.000
 3776.00    0.71501   0.69924  124.329
 3777.00    0.72468   0.71001  123.985
 3778.00    0.74082   0.72705  122.233
 3779.00    0.75404   0.74693  118.081
 3780.00    0.77223   0.76519  115.341
 3781.00    0.78303   0.77700  114.584
 3782.00    0.78367   0.78175  113.888
 3783.00    0.77891   0.78042  113.962
 3784.00    0.76651   0.76772  116.637
 3785.00    0.74979   0.73866  122.930
 3786.00    0.71095   0.70078  132.269
 3787.00    0.66743   0.66605  138.841
 3788.00    0.64996   0.64481  141.369
 3789.00    0.64834   0.64077  141.239
 3790.00    0.65047   0.64787  138.680
 3791.00    0.65638   0.65466  137.271
 3792.00    0.65874   0.65015  139.436
 3793.00    0.64645   0.63156  144.772
 3794.00    0.62761   0.60514   -1.000
 3795.00    0.60872   0.57738   -1.000
 3796.00    0.58465   0.54833   -1.000
 3797.00    0.55945   0.51695   -1.000
 3798.00    0.54643   0.50008   -1.000
 3799.00    0.57467   0.51913   -1.000
 3800.00    0.61775   0.57097   -1.000
 3801.00    0.65314   0.63400  136.207
 3802.00    0.69831   0.68699  130.289
 3803.00    0.73108   0.71834  127.434
 3804.00    0.74190   0.72831  126.733
 3805.00    0.71930   0.71941  128.725
 3806.00    0.69437   0.70122  133.698
 3807.00    0.68431   0.69326  136.279
 3808.00    0.68962   0.70530  132.632
 3809.00    0.71089   0.72882  127.427
 3810.00    0.73460   0.74535  126.048
 3811.00    0.73688   0.74006  128.579
 3812.00    0.70501   0.71143  135.635
 3813.00    0.65849   0.66955  144.108
 3814.00    0.62716   0.62948  152.754
 3815.00    0.59643   0.60803  159.689
 3816.00    0.59374   0.61141   -1.000
 3817.00    0.62779   0.62440  150.742
 3818.00    0.62385   0.62434  153.421
 3819.00    0.59041   0.60222  164.409
 3820.00    0.55312   0.57652   -1.000
 3821.00    0.55665   0.57143  168.759
 3822.00    0.58346   0.58363  161.066
 3823.00    0.58912   0.58805  162.797
 3824.00    0.56150   0.57001  177.255
 3825.00    0.52137   0.54145   19.065
 3826.00    0.51063   0.52054   19.265
 3827.00    0.50962   0.51276   19.093
 3828.00    0.51403   0.51459   18.782
 3829.00    0.52937   0.51819   18.472
 3830.00    0.53139   0.51540   18.710
 3831.00    0.49917   0.49997   19.576
 3832.00    0.46298   0.47292   21.165
 3833.00    0.43580   0.44173   21.800
 3834.00    0.45028   0.42088   21.357
 3835.00    0.46301   0.41786   20.483
 3836.00    0.47228   0.42710   20.040
 3837.00    0.46742   0.43796   20.481
 3838.00    0.45720   0.44628   20.979
 3839.00    0.46371   0.45875   20.594
 3840.00    0.48990   0.48588   19.403
 3841.00    0.53118   0.53075  160.587
 3842.00    0.58288   0.58429  159.010
 3843.00    0.62876   0.63235  148.970
 3844.00    0.64749   0.66264  146.279
 3845.00    0.65864   0.67678  146.308
 3846.00    0.65567   0.68573   -1.000
 3847.00    0.66349   0.69274   -1.000
 3848.00    0.65536   0.69100   -1.000
 3849.00    0.63219   0.68137   -1.000
 3850.00    0.61855   0.67483   -1.000
 3851.00    0.63021   0.68042   -1.000
 3852.00    0.65433   0.69464   -1.000
 3853.00    0.65701   0.70309   -1.000
 3854.00    0.64508   0.69570   -1.000
 3855.00    0.62396   0.67702   -1.000
 3856.00    0.60724   0.65526   -1.000
 3857.00    0.58885   0.63129   -1.000
 3858.00    0.56094   0.60575   18.057
 3859.00    0.52441   0.58884   18.997
 3860.00    0.52429   0.59488   18.557
 3861.00    0.56665   0.62631   -1.000
 3862.00    0.63995   0.66965   -1.000
 3863.00    0.67912   0.69985   -1.000
 3864.00    0.67651   0.70625   -1.000
 3865.00    0.67154   0.70065   -1.000
 3866.00    0.66433   0.69532   -1.000
 3867.00    0.65179   0.69394   -1.000
 3868.00    0.63611   0.69223   -1.000
 3869.00    0.61690   0.68188   -1.000
 3870.00    0.58753   0.65951   -1.000
 3871.00    0.55685   0.63250   18.291
 3872.00    0.54810   0.61487   -1.000
 3873.00    0.58000   0.61976   -1.000
 3874.00    0.62741   0.64703  144.535
 3875.00    0.66163   0.67365  139.176
 3876.00    0.65688   0.67485  143.694
 3877.00    0.61678   0.65181   -1.000
 3878.00    0.58264   0.62832   -1.000
 3879.00    0.58246   0.62117   -1.000
 3880.00    0.59767   0.62700   -1.000
 3881.00    0.58451   0.63420   -1.000
 3882.00    0.57518   0.63639   -1.000
 3883.00    0.60221   0.63597   -1.000
 3884.00    0.63258   0.62823  143.286
 3885.00    0.62684   0.60301   -1.000
 3886.00    0.60535   0.56294   -1.000
 3887.00    0.58116   0.52547   -1.000
 3888.00    0.57569   0.50776   -1.000
 3889.00    0.58903   0.51991   -1.000
 3890.00    0.62568   0.56043   -1.000
 3891.00    0.68235   0.61563   -1.000
 3892.00    0.72496   0.65997   -1.000
 3893.00    0.73134   0.67751   -1.000
 3894.00    0.71794   0.67785   -1.000
 3895.00    0.71469   0.68012   -1.000
 3896.00    0.72870   0.69209   -1.000
 3897.00    0.74659   0.70536   -1.000
 3898.00    0.74464   0.71062   -1.000
 3899.00    0.72974   0.70994  121.100
 3900.00    0.72899   0.71193  119.309
 3901.00    0.74066   0.71745  118.218
 3902.00    0.74438   0.71847   -1.000
 3903.00    0.72571   0.70945  124.635
 3904.00    0.70205   0.69332  127.615
 3905.00    0.67934   0.68172  131.520
 3906.00    0.67110   0.68647  130.346
 3907.00    0.71216   0.71115  122.584
 3908.00    0.75326   0.74710  114.279
 3909.00    0.77702   0.77750  111.630
 3910.00    0.79600   0.79538  110.650
 3911.00    0.81093   0.80577  109.590
 3912.00    0.80951   0.81014  108.948
 3913.00    0.79831   0.80620  110.272
 3914.00    0.77705   0.79552  112.588
 3915.00    0.75903   0.78339   -1.000
 3916.00    0.75490   0.77321  116.693
 3917.00    0.74900   0.76187  118.256
 3918.00    0.73383   0.74408  121.761
 3919.00    0.70438   0.71952  127.205
 3920.00    0.67318   0.69435   -1.000
 3921.00    0.65088   0.67909   -1.000
 3922.00    0.65874   0.67919  134.715
 3923.00    0.66663   0.68798  132.195
 3924.00    0.67287   0.69096  133.298
 3925.00    0.63874   0.67793   -1.000
 3926.00    0.59536   0.64551   -1.000
 3927.00    0.52774   0.59624   -1.000
 3928.00    0.45429   0.53736   20.190
 3929.00    0.39128   0.47580   23.379
 3930.00    0.33332   0.41136   27.350
 3931.00    0.28381   0.34516   32.374
 3932.00    0.24676   0.28476   37.868
 3933.00    0.22223   0.24460   41.360
 3934.00    0.22366   0.24047   39.613
 3935.00    0.25699   0.27601   34.361
 3936.00    0.30698   0.33813   28.404
 3937.00    0.36768   0.41211   23.321
 3938.00    0.43237   0.48655   19.604
 3939.00    0.49588   0.55047   -1.000
 3940.00    0.54149   0.59871   -1.000
 3941.00    0.57638   0.62799   -1.000
 3942.00    0.59302   0.64027   -1.000
 3943.00    0.59757   0.64535   -1.000
 3944.00    0.61161   0.65633   -1.000
 3945.00    0.65627   0.68002  131.952
 3946.00    0.70398   0.70770  124.344
 3947.00    0.71716   0.72664  123.051
 3948.00    0.71268   0.73714   -1.000
 3949.00    0.73218   0.74784  117.619
 3950.00    0.75596   0.75924  113.773
 3951.00    0.76005   0.76451  114.346
 3952.00    0.75730   0.76579  116.057
 3953.00    0.76219   0.77166  113.956
 3954.00    0.78193   0.77942  111.079
 3955.00    0.78879   0.77810  112.344
 3956.00    0.76218   0.76715  116.526
 3957.00    0.74601   0.75734  118.396
 3958.00    0.75104   0.75327  116.242
 3959.00    0.74703   0.74153  119.017
 3960.00    0.70562   0.70592  131.931
 3961.00    0.63346   0.65280   -1.000
 3962.00    0.56649   0.60258   -1.000
 3963.00    0.52087   0.56381   -1.000
 3964.00    0.47316   0.52588   18.996
 3965.00    0.41838   0.47155   22.031
 3966.00    0.35553   0.39658   27.195
 3967.00    0.29126   0.31958   33.271
 3968.00    0.25364   0.26866   36.745
 3969.00    0.25469   0.26078   34.102
 3970.00    0.30177   0.29626   28.097
 3971.00    0.36784   0.36228   23.081
 3972.00    0.44013   0.43952   19.309
 3973.00    0.51147   0.51510  152.413
 3974.00    0.57410   0.58467  147.106
 3975.00    0.64856   0.64534  132.544
 3976.00    0.70482   0.69821  122.166
 3977.00    0.74179   0.74441  114.994
 3978.00    0.78922   0.78571  108.969
 3979.00    0.83306   0.81892  103.087
 3980.00    0.85266   0.83613  101.910
 3981.00    0.84585   0.83723  102.652
 3982.00    0.82629   0.83154  104.674
 3983.00    0.82502   0.83115  103.876
 3984.00    0.85097   0.84213  101.682
 3985.00    0.87644   0.85851   99.676
 3986.00    0.88501   0.87445   98.071
 3987.00    0.89478   0.88945   96.180
 3988.00    0.90630   0.90121   95.269
 3989.00    0.90708   0.90753   95.645
 3990.00    0.91638   0.91196   95.022
 3991.00    0.92187   0.92036   92.782
 3992.00    0.94002   0.93249   90.519
 3993.00    0.95774   0.94031   91.671
 3994.00    0.94264   0.93573   93.918
 3995.00    0.91516   0.91864   96.081
 3996.00    0.89285   0.89824   97.920
 3997.00    0.88359   0.88800   98.725
 3998.00    0.89261   0.89496   96.443
 3999.00    0.92439   0.91543   91.948
 4000.00    0.96359   0.94062   88.850
 4001.00    0.98401   0.96123   87.459
 4002.00    0.99790   0.96849   86.210
 4003.00    0.99384   0.95554   87.972
 4004.00    0.93845   0.92289   94.091
 4005.00    0.88457   0.88785   98.941
 4006.00    0.88788   0.87846   98.075
 4007.00    0.92574   0.90103   92.282
 4008.00    0.96662   0.93669   88.658
 4009.00    0.98845   0.96485   87.534
 4010.00    0.99430   0.97954   86.590
 4011.00    1.00661   0.98468   86.313
 4012.00    0.99165   0.98579   86.955
 4013.00    0.99749   0.98756   87.426
 4014.00    1.00762   0.99108   86.750
 4015.00    1.00823   0.99383   85.497
 4016.00    1.00336   0.99319   86.278
 4017.00    0.99887   0.99153   87.359
 4018.00    0.99797   0.99485   86.910
 4019.00    1.00741   1.00201   85.535
 4020.00    1.02213   1.00751   85.771
 4021.00    1.00337   1.00756   87.061
 4022.00    1.00239   1.00365   87.557
 4023.00    0.99327   0.99745   88.132
 4024.00    0.98370   0.99125   88.827
 4025.00    0.99946   0.99341   86.563
 4026.00    1.02810   1.00951   83.441
 4027.00    1.05842   1.03061   81.775
 4028.00    1.06020   1.03433   82.564
 4029.00    1.02548   1.00852   86.047
 4030.00    0.97379   0.96394   92.038
 4031.00    0.91424   0.92185   95.876
 4032.00    0.91243   0.89846   96.975
 4033.00    0.91593   0.89816   95.695
 4034.00    0.94450   0.91865   92.520
 4035.00    0.97582   0.95521   87.897
 4036.00    1.02415   1.00096   83.556
 4037.00    1.05727   1.04329   80.636
 4038.00    1.07316   1.06488   80.379
 4039.00    1.06677   1.06081   82.139
 4040.00    1.02925   1.04525   84.115
 4041.00    1.03177   1.03182   85.010
 4042.00    1.03458   1.01603   85.410
 4043.00    0.99972   0.97961   89.633
 4044.00    0.91332   0.91910   98.562
 4045.00    0.84455   0.86856   -1.000
 4046.00    0.85846   0.86368  101.609
 4047.00    0.92688   0.90613   91.581
 4048.00    1.00000   0.96749   86.076
 4049.00    1.03706   1.01711   83.665
 4050.00    1.04173   1.04180   82.724
 4051.00    1.04068   1.04510   83.327
 4052.00    1.02862   1.03380   85.669
 4053.00    1.00762   1.01476   87.891
 4054.00    0.98227   0.99757   89.239
 4055.00    0.97958   0.98569   89.936
 4056.00    0.97304   0.97611   90.542
 4057.00    0.96599   0.97081   91.503
 4058.00    0.96844   0.97742   90.381
 4059.00    0.98913   0.99683   87.038
 4060.00    1.02325   1.01260   85.339
 4061.00    1.02445   1.00089   86.876
 4062.00    0.96791   0.95868   93.403
 4063.00    0.89756   0.91236   99.901
 4064.00    0.89600   0.89143   98.188
 4065.00    0.92191   0.89985   93.251
 4066.00    0.96120   0.92368   91.026
 4067.00    0.97835   0.95093   88.555
 4068.00    1.00611   0.97465   85.677
 4069.00    1.04521   0.98404   -1.000
 4070.00    1.01757   0.97005   -1.000
 4071.00    0.96226   0.94418   92.149
 4072.00    0.95864   0.93310   91.394
 4073.00    0.97897   0.94477   87.950
 4074.00    0.99684   0.95696   -1.000
 4075.00    0.96621   0.94621   91.905
 4076.00    0.90472   0.91493   99.891
 4077.00    0.84224   0.88830   -1.000
 4078.00    0.85296   0.88997   -1.000
 4079.00    0.92118   0.92438   92.370
 4080.00    0.98888   0.97357   85.990
 4081.00    1.03441   1.00823   83.441
 4082.00    1.03009   1.01322   84.940
 4083.00    1.00319   0.99654   87.909
 4084.00    0.97820   0.98020   89.223
 4085.00    0.97899   0.98257   87.837
 4086.00    1.00665   1.00610   84.819
 4087.00    1.06339   1.03925   81.540
 4088.00    1.09082   1.06517   78.922
 4089.00    1.10664   1.07300   79.343
 4090.00    1.09008   1.06427   81.026
 4091.00    1.06704   1.05066   82.540
 4092.00    1.05794   1.04105   83.459
 4093.00    1.05746   1.03203   83.513
 4094.00    1.04435   1.01626   85.090
 4095.00    1.01000   0.99043   89.085
 4096.00    0.97878   0.96093   92.049
 4097.00    0.95968   0.93440   92.662
 4098.00    0.94422   0.90528   94.194
 4099.00    0.90910   0.86122   -1.000
 4100.00    0.84652   0.80173   -1.000
 4101.00    0.78610   0.75264  116.461
 4102.00    0.77292   0.74346  113.846
 4103.00    0.83086   0.78250   -1.000
 4104.00    0.90338   0.85016   -1.000
 4105.00    0.97439   0.91416   -1.000
 4106.00    0.99540   0.95625   -1.000
 4107.00    1.00383   0.97802   87.716
 4108.00    0.99858   0.98442   88.586
 4109.00    0.98830   0.98226   90.351
 4110.00    0.97492   0.98143   91.682
 4111.00    0.97641   0.98744   90.484
 4112.00    0.99865   1.00048   88.407
 4113.00    1.02078   1.01795   86.898
 4114.00    1.03854   1.03629   85.565
 4115.00    1.06205   1.04953   84.739
 4116.00    1.05717   1.05104   85.188
 4117.00    1.04814   1.03952   87.047
 4118.00    1.01191   1.02190   90.039
 4119.00    0.99686   1.00832   91.050
 4120.00    1.00147   1.00622   89.856
 4121.00    1.00431   1.01252   88.928
 4122.00    1.00558   1.01962   89.045
 4123.00    1.00529   1.02645   88.062
 4124.00    1.02199   1.03460   86.475
 4125.00    1.04132   1.04138   86.212
 4126.00    1.03928   1.04048   87.415
 4127.00    1.02404   1.03141   89.333
 4128.00    1.00582   1.02176   90.044
 4129.00    0.99378   1.01541   -1.000
 4130.00    0.98675   1.00407   91.652
 4131.00    0.97177   0.98210   94.604
 4132.00    0.94788   0.95931   97.603
 4133.00    0.92746   0.95236   -1.000
 4134.00    0.94465   0.96951   -1.000
 4135.00    0.98822   1.00284   89.655
 4136.00    1.03464   1.03862   86.771
 4137.00    1.05475   1.06721   85.404
 4138.00    1.06169   1.08651   84.068
 4139.00    1.06925   1.09414   83.758
 4140.00    1.06624   1.08160   85.533
 4141.00    1.02873   1.04437   90.135
 4142.00    0.95874   0.99411   -1.000
 4143.00    0.91298   0.95543   -1.000
 4144.00    0.91360   0.95174   -1.000
 4145.00    0.96980   0.98174   92.984
 4146.00    1.01367   1.01983   89.560
 4147.00    1.02755   1.04180   88.684
 4148.00    1.01695   1.04388   -1.000
 4149.00    1.00148   1.03880   -1.000
 4150.00    0.98866   1.03735   -1.000
 4151.00    0.98190   1.03818   -1.000
 4152.00    0.99362   1.03410   -1.000
 4153.00    0.98853   1.02229   -1.000
 4154.00    0.96997   1.00953   -1.000
 4155.00    0.96255   1.00562   -1.000
 4156.00    1.01336   1.01378   92.115
 4157.00    1.21566   1.03029   -1.000
 4158.00    1.08955   1.05052   89.169
 4159.00    0.84257   1.06965   -1.000
 4160.00    0.93949   1.08421   -1.000
 4161.00    1.06478   1.09417   -1.000
 4162.00    1.06057   1.10162   -1.000
 4163.00    1.06497   1.10680   -1.000
 4164.00    1.05882   1.10614   -1.000
 4165.00    1.04144   1.09555   -1.000
 4166.00    1.02678   1.07735   -1.000
 4167.00    1.00351   1.06237   -1.000
 4168.00    1.00732   1.05833   -1.000
 4169.00    1.02265   1.05864   -1.000
 4170.00    1.01609   1.04735   -1.000
 4171.00    0.97793   1.01721   -1.000
 4172.00    0.92664   0.98134   -1.000
 4173.00    0.89991   0.96356   -1.000
 4174.00    0.91259   0.97308   -1.000
 4175.00    0.95277   0.99656   -1.000
 4176.00    0.97024   1.01470   -1.000
 4177.00    0.96602   1.02499   -1.000
 4178.00    0.96765   1.03564   -1.000
 4179.00    0.99682   1.04781   -1.000
 4180.00    1.01139   1.05339   -1.000
 4181.00    0.99228   1.04807   -1.000
 4182.00    0.99111   1.04189   -1.000
 4183.00    1.00346   1.04685   -1.000
 4184.00    1.01698   1.05730   -1.000
 4185.00    1.02626   1.05765   -1.000
 4186.00    0.99963   1.04287   -1.000
 4187.00    0.96482   1.02496   -1.000
 4188.00    0.96429   1.01975   -1.000
 4189.00    0.99075   1.02832   -1.000
 4190.00    1.00009   1.04096   -1.000
 4191.00    1.00726   1.05406   -1.000
 4192.00    1.02654   1.06821   -1.000
 4193.00    1.05495   1.07865   -1.000
 4194.00    1.03981   1.07518   -1.000
 4195.00    1.00564   1.05256   -1.000
 4196.00    0.97020   1.01984   -1.000
 4197.00    0.94603   0.99157   -1.000
 4198.00    0.93516   0.97448   -1.000
 4199.00    0.93854   0.96697   -1.000
 4200.00    0.95224   0.96709   96.352
 4201.00    0.95790   0.97243   96.134
 4202.00    0.96157   0.98139   95.501
 4203.00    0.97113   0.99736   -1.000
 4204.00    0.98442   1.02105   -1.000
 4205.00    0.99637   1.04619   -1.000
 4206.00    1.02470   1.06844   -1.000
 4207.00    1.03529   1.08565   -1.000
 4208.00    1.04858   1.09396   -1.000
 4209.00    1.04748   1.09336   -1.000
 4210.00    1.05247   1.09080   -1.000
 4211.00    1.05354   1.09336   -1.000
 4212.00    1.05118   1.09699   -1.000
 4213.00    1.04220   1.08747   -1.000
 4214.00    1.00509   1.06195   -1.000
 4215.00    0.96119   1.03646   -1.000
 4216.00    0.96061   1.02876   -1.000
 4217.00    1.00272   1.04665   -1.000
 4218.00    1.06103   1.07945   83.484
 4219.00    1.09451   1.10854   81.202
 4220.00    1.10702   1.12296   80.371
 4221.00    1.11976   1.11778   81.152
 4222.00    1.07748   1.08842   84.605
 4223.00    1.01991   1.03256   90.659
 4224.00    0.95616   0.95649   99.765
 4225.00    0.84329   0.87994   -1.000
 4226.00    0.75575   0.83364   -1.000
 4227.00    0.77892   0.84567   -1.000
 4228.00    0.88493   0.91467   98.591
 4229.00    1.00357   0.99988   88.595
 4230.00    1.06308   1.05818   84.105
 4231.00    1.08031   1.07705   83.568
 4232.00    1.05757   1.06981   85.549
 4233.00    1.04336   1.05268   87.820
 4234.00    1.03084   1.03483   88.633
 4235.00    1.01020   1.02134   90.775
 4236.00    0.98739   1.01423   -1.000
 4237.00    0.97977   1.01603   -1.000
 4238.00    0.99680   1.02883   -1.000
 4239.00    1.01310   1.04822   -1.000
 4240.00    1.03052   1.06795   -1.000
 4241.00    1.05561   1.08447   85.322
 4242.00    1.06654   1.09762   -1.000
 4243.00    1.07422   1.10978   -1.000
 4244.00    1.08839   1.12014   81.692
 4245.00    1.09561   1.11905   82.648
 4246.00    1.06937   1.09670   -1.000
 4247.00    1.02062   1.05973   -1.000
 4248.00    0.99584   1.02610   -1.000
 4249.00    0.98352   1.00910   -1.000
 4250.00    0.98802   1.01221   -1.000
 4251.00    1.00432   1.02834   90.002
 4252.00    1.05046   1.04231   87.463
 4253.00    1.05065   1.04159   88.078
 4254.00    1.00846   1.03227   90.581
 4255.00    0.99917   1.03468   -1.000
 4256.00    1.04841   1.05438   85.667
 4257.00    1.07154   1.06978   85.070
 4258.00    1.05001   1.05755   88.515
 4259.00    0.99942   1.02381   -1.000
 4260.00    0.96007   1.00010   -1.000
 4261.00    0.97187   1.01122   -1.000
 4262.00    1.02857   1.05323   86.184
 4263.00    1.08444   1.10063   82.150
 4264.00    1.11406   1.13171   80.302
 4265.00    1.12546   1.14023   80.169
 4266.00    1.12327   1.13257   81.546
 4267.00    1.08884   1.11411   84.327
 4268.00    1.05630   1.08387   -1.000
 4269.00    1.03254   1.04110   90.261
 4270.00    0.97512   0.99170   96.355
 4271.00    0.91858   0.94880   -1.000
 4272.00    0.90537   0.92620   -1.000
 4273.00    0.91121   0.92929  100.741
 4274.00    0.92777   0.95236   98.198
 4275.00    0.95876   0.98917   -1.000
 4276.00    1.01402   1.03657   87.533
 4277.00    1.07139   1.08056   83.521
 4278.00    1.09354   1.10004   83.615
 4279.00    1.05876   1.09008   -1.000
 4280.00    1.01621   1.06770   -1.000
 4281.00    1.01007   1.05492   -1.000
 4282.00    1.01890   1.05741   -1.000
 4283.00    1.03766   1.06112   88.539
 4284.00    1.02886   1.05452   89.765
 4285.00    0.99075   1.03960   -1.000
 4286.00    0.96021   1.02171   -1.000
 4287.00    0.94214   1.00160   -1.000
 4288.00    0.92661   0.97451   -1.000
 4289.00    0.89069   0.94375   -1.000
 4290.00    0.87349   0.92949   -1.000
 4291.00    0.90737   0.94541   -1.000
 4292.00    0.96078   0.97973   93.109
 4293.00    0.99901   1.00720   91.504
 4294.00    1.00790   1.01196   92.456
 4295.00    0.98103   0.99820   94.015
 4296.00    0.95140   0.97267   96.194
 4297.00    0.91668   0.93455  101.198
 4298.00    0.85455   0.88570   -1.000
 4299.00    0.78131   0.83901   -1.000
 4300.00    0.75401   0.81002   -1.000
 4301.00    0.77031   0.80348   -1.000
 4302.00    0.78511   0.81208   -1.000
 4303.00    0.80227   0.82658   -1.000
 4304.00    0.81105   0.83955   -1.000
 4305.00    0.82232   0.84144  111.598
 4306.00    0.81583   0.82587  115.638
 4307.00    0.77490   0.79929   -1.000
 4308.00    0.74396   0.77819   -1.000
 4309.00    0.74340   0.77925   -1.000
 4310.00    0.77120   0.80527   -1.000
 4311.00    0.81485   0.84606   -1.000
 4312.00    0.86486   0.89279  102.429
 4313.00    0.90752   0.94730   -1.000
 4314.00    0.96239   1.01396   -1.000
 4315.00    1.04516   1.09060   -1.000
 4316.00    1.13898   1.16386   78.053
 4317.00    1.20436   1.21459   75.430
 4318.00    1.21303   1.23295   75.535
 4319.00    1.19632   1.22546   76.774
 4320.00    1.17772   1.20221   78.545
 4321.00    1.14473   1.16375   81.259
 4322.00    1.09051   1.10648   85.336
 4323.00    1.02093   1.03582   91.769
 4324.00    0.94052   0.97280   -1.000
 4325.00    0.88811   0.94657   -1.000
 4326.00    0.92314   0.97418   -1.000
 4327.00    1.02680   1.04340   86.370
 4328.00    1.11705   1.11664   80.294
 4329.00    1.15729   1.16248   78.938
 4330.00    1.15505   1.17832   79.362
 4331.00    1.16131   1.18203   78.880
 4332.00    1.16640   1.18856   77.445
 4333.00    1.17001   1.19657   76.684
 4334.00    1.17700   1.19541   76.547
 4335.00    1.17301   1.17259   77.939
 4336.00    1.12940   1.11862   83.169
 4337.00    1.04858   1.03495   91.436
 4338.00    0.94688   0.94224   99.918
 4339.00    0.86904   0.87148  108.149
 4340.00    0.82968   0.84720   -1.000
 4341.00    0.87217   0.87841  101.872
 4342.00    0.96310   0.95070   91.679
 4343.00    1.03739   1.02849   86.197
 4344.00    1.09065   1.08700   83.595
 4345.00    1.13098   1.12575   81.334
 4346.00    1.14482   1.15344   79.996
 4347.00    1.14927   1.17700   79.179
 4348.00    1.16756   1.19326   77.846
 4349.00    1.17997   1.18780   78.142
 4350.00    1.13602   1.15238   82.719
 4351.00    1.06397   1.10366   -1.000
 4352.00    1.01470   1.07382   -1.000
 4353.00    1.05298   1.08205   -1.000
 4354.00    1.09963   1.11860   82.180
 4355.00    1.13320   1.15678   79.710
 4356.00    1.16101   1.18018   78.088
 4357.00    1.18348   1.18792   78.208
 4358.00    1.16402   1.18470   80.014
 4359.00    1.12904   1.18034   -1.000
 4360.00    1.14790   1.18663   -1.000
 4361.00    1.17029   1.20473   -1.000
 4362.00    1.19041   1.22533   -1.000
 4363.00    1.20108   1.24122   -1.000
 4364.00    1.21139   1.25061   -1.000
 4365.00    1.23022   1.24881   74.828
 4366.00    1.20602   1.23104   77.288
 4367.00    1.15885   1.20488   -1.000
 4368.00    1.13313   1.18414   -1.000
 4369.00    1.13680   1.17301   -1.000
 4370.00    1.15647   1.16664   79.568
 4371.00    1.15555   1.15774   79.520
 4372.00    1.14234   1.14022   80.364
 4373.00    1.11023   1.11329   83.808
 4374.00    1.06955   1.08638   87.142
 4375.00    1.04708   1.07850   -1.000
 4376.00    1.08713   1.10010   83.230
 4377.00    1.13950   1.13849   79.004
 4378.00    1.17475   1.16941   77.744
 4379.00    1.17790   1.17650   78.303
 4380.00    1.15971   1.15450   79.757
 4381.00    1.14105   1.10134   83.675
 4382.00    1.04897   1.02475   93.315
 4383.00    0.94490   0.95441   -1.000
 4384.00    0.89487   0.93027   -1.000
 4385.00    0.95243   0.96548   94.336
 4386.00    1.05088   1.03056   85.413
 4387.00    1.11369   1.08231   82.908
 4388.00    1.11692   1.10355   83.098
 4389.00    1.10008   1.10628   84.053
 4390.00    1.09690   1.10821   84.283
 4391.00    1.11148   1.11798   82.542
 4392.00    1.13829   1.13236   80.667
 4393.00    1.14336   1.14048   81.350
 4394.00    1.12712   1.14000   83.240
 4395.00    1.11824   1.14479   -1.000
 4396.00    1.15638   1.16427   78.812
 4397.00    1.19708   1.18564   76.601
 4398.00    1.19434   1.18950   77.865
 4399.00    1.16295   1.17397   80.865
 4400.00    1.12796   1.15538   -1.000
 4401.00    1.13169   1.14594   82.067
 4402.00    1.15533   1.13815   80.555
 4403.00    1.14502   1.11743   83.654
 4404.00    1.07585   1.08619   88.697
 4405.00    1.04666   1.06655   -1.000
 4406.00    1.07957   1.07285   85.965
 4407.00    1.10026   1.09570   84.816
 4408.00    1.09876   1.12241   84.083
 4409.00    1.13065   1.15638   80.715
 4410.00    1.18397   1.20027   77.233
 4411.00    1.23544   1.23794   74.651
 4412.00    1.26051   1.24819   73.863
 4413.00    1.24124   1.22590   76.035
 4414.00    1.17871   1.18327   80.588
 4415.00    1.12099   1.14451   -1.000
 4416.00    1.11574   1.13659   -1.000
 4417.00    1.15068   1.16496   79.694
 4418.00    1.19431   1.21020   76.350
 4419.00    1.23453   1.24842   74.254
 4420.00    1.25140   1.26284   74.834
 4421.00    1.22171   1.25279   -1.000
 4422.00    1.18448   1.23424   -1.000
 4423.00    1.17404   1.22287   -1.000
 4424.00    1.17925   1.22057   -1.000
 4425.00    1.18699   1.21966   -1.000
 4426.00    1.18125   1.21685   -1.000
 4427.00    1.17485   1.21763   -1.000
 4428.00    1.17981   1.22290   -1.000
 4429.00    1.18207   1.22842   -1.000
 4430.00    1.17360   1.23231   -1.000
 4431.00    1.18290   1.23486   -1.000
 4432.00    1.20604   1.23140   76.648
 4433.00    1.18936   1.21294   79.394
 4434.00    1.13428   1.18315   -1.000
 4435.00    1.10176   1.16491   -1.000
 4436.00    1.14208   1.18027   -1.000
 4437.00    1.21541   1.22580   75.459
 4438.00    1.27185   1.27330   72.370
 4439.00    1.29087   1.29510   72.324
 4440.00    1.26650   1.28140   74.774
 4441.00    1.21325   1.24405   -1.000
 4442.00    1.16747   1.20876   -1.000
 4443.00    1.14818   1.19930   -1.000
 4444.00    1.16699   1.22155   -1.000
 4445.00    1.21490   1.25981   -1.000
 4446.00    1.25728   1.29121   -1.000
 4447.00    1.25963   1.30479   -1.000
 4448.00    1.25730   1.30639   -1.000
 4449.00    1.26525   1.30482   -1.000
 4450.00    1.24703   1.30086   -1.000
 4451.00    1.24562   1.29206   -1.000
 4452.00    1.24769   1.27476   75.680
 4453.00    1.23333   1.24299   78.624
 4454.00    1.17592   1.20084   82.312
 4455.00    1.12763   1.16779   -1.000
 4456.00    1.13756   1.15901   82.301
 4457.00    1.16507   1.16931   80.836
 4458.00    1.16588   1.18225   80.973
 4459.00    1.16320   1.18794   81.412
 4460.00    1.15071   1.18899   -1.000
 4461.00    1.14086   1.19320   -1.000
 4462.00    1.15686   1.20692   -1.000
 4463.00    1.20037   1.23041   -1.000
 4464.00    1.23642   1.25442   76.183
 4465.00    1.24604   1.26815   76.166
 4466.00    1.23341   1.26825   -1.000
 4467.00    1.22485   1.25896   -1.000
 4468.00    1.20864   1.24794   -1.000
 4469.00    1.19278   1.24395   -1.000
 4470.00    1.19504   1.25481   -1.000
 4471.00    1.23335   1.28191   -1.000
 4472.00    1.28310   1.31612   -1.000
 4473.00    1.32108   1.34458   70.797
 4474.00    1.33959   1.35996   70.270
 4475.00    1.33920   1.36569   70.441
 4476.00    1.34306   1.36960   69.777
 4477.00    1.35605   1.37155   69.383
 4478.00    1.35532   1.36208   70.070
 4479.00    1.31843   1.33401   72.793
 4480.00    1.26081   1.29472   -1.000
 4481.00    1.22044   1.26532   -1.000
 4482.00    1.22186   1.26298   -1.000
 4483.00    1.26480   1.28936   73.785
 4484.00    1.31514   1.33088   71.018
 4485.00    1.34256   1.36645   69.562
 4486.00    1.36458   1.37995   69.753
 4487.00    1.34938   1.36818   71.433
 4488.00    1.29404   1.34132   -1.000
 4489.00    1.24843   1.31662   -1.000
 4490.00    1.24780   1.30953   -1.000
 4491.00    1.29034   1.32139   -1.000
 4492.00    1.31915   1.33601   71.746
 4493.00    1.31187   1.33486   72.950
 4494.00    1.28261   1.31746   -1.000
 4495.00    1.25138   1.30186   -1.000
 4496.00    1.25001   1.30317   -1.000
 4497.00    1.27722   1.32039   -1.000
 4498.00    1.31342   1.34163   71.121
 4499.00    1.34804   1.35542   70.470
 4500.00    1.32958   1.35852   71.394
 4501.00    1.31216   1.36079   -1.000
 4502.00    1.33701   1.37445   -1.000
 4503.00    1.38365   1.39867   67.335
 4504.00    1.41939   1.42285   66.210
 4505.00    1.42206   1.43585   66.747
 4506.00    1.40822   1.43459   68.174
 4507.00    1.39282   1.42535   -1.000
 4508.00    1.37833   1.41794   -1.000
 4509.00    1.37773   1.41693   -1.000
 4510.00    1.39646   1.41864   67.788
 4511.00    1.39149   1.41540   68.425
 4512.00    1.36215   1.40362   -1.000
 4513.00    1.33787   1.38812   -1.000
 4514.00    1.32937   1.37536   -1.000
 4515.00    1.33686   1.36819   -1.000
 4516.00    1.34110   1.36548   71.035
 4517.00    1.32557   1.36269   -1.000
 4518.00    1.31853   1.35942   -1.000
 4519.00    1.33213   1.36196   -1.000
 4520.00    1.35490   1.37079   69.618
 4521.00    1.36733   1.37684   69.918
 4522.00    1.33625   1.37183   -1.000
 4523.00    1.31009   1.35636   -1.000
 4524.00    1.30064   1.33723   -1.000
 4525.00    1.28242   1.31676   -1.000
 4526.00    1.24767   1.29133   -1.000
 4527.00    1.21515   1.26079   -1.000
 4528.00    1.19771   1.23476   -1.000
 4529.00    1.20666   1.22604   79.713
 4530.00    1.21833   1.23560   78.267
 4531.00    1.24260   1.25239   76.834
 4532.00    1.25093   1.26049   76.512
 4533.00    1.22814   1.25179   78.802
 4534.00    1.18390   1.23601   -1.000
 4535.00    1.17072   1.23408   -1.000
 4536.00    1.21727   1.26111   -1.000
 4537.00    1.31592   1.30989   71.030
 4538.00    1.36494   1.35608   69.234
 4539.00    1.36768   1.37913   70.035
 4540.00    1.35284   1.37933   -1.000
 4541.00    1.33203   1.37210   -1.000
 4542.00    1.34065   1.36921   -1.000
 4543.00    1.34494   1.36933   70.820
 4544.00    1.34905   1.36463   -1.000
 4545.00    1.21057   1.35388   -2.000
 4546.00    0.16854   1.34271   -2.000
 4547.00   -0.04083   1.33187   -2.000
 4548.00    0.09611   1.31755   -1.000
 4549.00    1.04435   1.30349   -1.000
 4550.00    0.29714   1.30050   -1.000
 4551.00    1.04144   1.31148   -1.000
 4552.00    1.35045   1.32312   74.283
 4553.00    1.26187   1.32288   -1.000
 4554.00    1.24777   1.31535   -1.000
 4555.00    1.25860   1.31433   -1.000
 4556.00    1.30175   1.33077   -1.000
 4557.00    1.35645   1.36227   69.179
 4558.00    1.39592   1.39403   68.041
 4559.00    1.39815   1.41531   68.496
 4560.00    1.39605   1.42518   68.430
 4561.00    1.39944   1.42493   68.462
 4562.00    1.38150   1.41422   -1.000
 4563.00    1.34999   1.39421   -1.000
 4564.00    1.31597   1.37306   -1.000
 4565.00    1.31067   1.36365   -1.000
 4566.00    1.34462   1.37317   -1.000
 4567.00    1.39162   1.39576   68.449
 4568.00    1.41321   1.41513   67.816
 4569.00    1.41087   1.41815   68.633
 4570.00    1.37846   1.40383   70.430
 4571.00    1.32537   1.38304   -1.000
 4572.00    1.31718   1.37213   -1.000
 4573.00    1.36571   1.38079   69.403
 4574.00    1.39894   1.40106   68.468
 4575.00    1.39446   1.41658   68.554
 4576.00    1.38548   1.42048   -1.000
 4577.00    1.37725   1.41405   -1.000
 4578.00    1.36619   1.39784   -1.000
 4579.00    1.34262   1.37306   -1.000
 4580.00    1.30879   1.34716   -1.000
 4581.00    1.30577   1.33033   -1.000
 4582.00    1.32004   1.32760   72.782
 4583.00    1.32484   1.33419   72.268
 4584.00    1.32194   1.34102   72.519
 4585.00    1.31197   1.34445   -1.000
 4586.00    1.31892   1.35013   -1.000
 4587.00    1.34396   1.36512   69.977
 4588.00    1.38323   1.38709   68.506
 4589.00    1.40275   1.40451   68.466
 4590.00    1.38549   1.40801   69.523
 4591.00    1.35617   1.39712   -1.000
 4592.00    1.33427   1.37945   -1.000
 4593.00    1.32734   1.36681   -1.000
 4594.00    1.33366   1.36477   -1.000
 4595.00    1.35087   1.36883   70.885
 4596.00    1.35809   1.37472   70.713
 4597.00    1.35798   1.38127   70.566
 4598.00    1.36557   1.38551   70.406
 4599.00    1.37110   1.38407   71.065
 4600.00    1.35108   1.37747   71.704
 4601.00    1.33371   1.37042   -1.000
 4602.00    1.33989   1.36820   71.078
 4603.00    1.36288   1.37158   70.277
 4604.00    1.36025   1.37769   70.436
 4605.00    1.37086   1.38472   70.306
 4606.00    1.36908   1.39425   69.511
 4607.00    1.38650   1.40910   68.106
 4608.00    1.42765   1.42839   66.641
 4609.00    1.45294   1.44645   65.885
 4610.00    1.45901   1.45449   66.228
 4611.00    1.44646   1.44852   67.172
 4612.00    1.41548   1.43618   67.909
 4613.00    1.41521   1.42684   68.336
 4614.00    1.41501   1.42505   67.962
 4615.00    1.42140   1.42907   67.343
 4616.00    1.42052   1.43278   67.089
 4617.00    1.42680   1.43249   67.573
 4618.00    1.41723   1.42935   68.077
 4619.00    1.41267   1.42772   67.986
 4620.00    1.42342   1.43221   67.309
 4621.00    1.44784   1.44255   66.216
 4622.00    1.44717   1.45167   66.245
 4623.00    1.44629   1.45300   66.420
 4624.00    1.44116   1.44810   66.549
 4625.00    1.44076   1.44270   67.187
 4626.00    1.43597   1.43912   67.329
 4627.00    1.43473   1.43814   67.284
 4628.00    1.42759   1.43927   67.744
 4629.00    1.40693   1.44079   -1.000
 4630.00    1.41404   1.44284   67.511
 4631.00    1.44658   1.44624   66.708
 4632.00    1.44329   1.44758   67.058
 4633.00    1.41017   1.44254   -1.000
 4634.00    1.40260   1.43333   -1.000
 4635.00    1.41012   1.42491   68.713
 4636.00    1.39852   1.41729   69.302
 4637.00    1.38441   1.40861   70.242
 4638.00    1.37330   1.40080   70.499
 4639.00    1.37397   1.39836   70.382
 4640.00    1.38705   1.40548   69.134
 4641.00    1.41179   1.42128   67.412
 4642.00    1.43878   1.43766   66.522
 4643.00    1.44053   1.44377   66.849
 4644.00    1.43128   1.43428   68.145
 4645.00    1.40047   1.41225   70.104
 4646.00    1.35664   1.38515   -1.000
 4647.00    1.34731   1.36546   72.274
 4648.00    1.36309   1.36456   70.919
 4649.00    1.38966   1.38178   69.239
 4650.00    1.40880   1.40594   68.322
 4651.00    1.41789   1.42391   68.241
 4652.00    1.42629   1.42900   68.097
 4653.00    1.41461   1.42260   68.956
 4654.00    1.39266   1.40936   70.602
 4655.00    1.36030   1.39749   -1.000
 4656.00    1.35618   1.39745   -1.000
 4657.00    1.39045   1.41542   68.363
 4658.00    1.44361   1.44768   65.716
 4659.00    1.49042   1.48064   64.291
 4660.00    1.50323   1.49833   64.290
 4661.00    1.48699   1.49490   65.133
 4662.00    1.45610   1.47708   66.778
 4663.00    1.43021   1.45491   68.079
 4664.00    1.43356   1.43262   68.180
 4665.00    1.42716   1.40651   69.353
 4666.00    1.37426   1.37330   72.441
 4667.00    1.30726   1.34048   -1.000
 4668.00    1.28085   1.32502   -1.000
 4669.00    1.31556   1.33755   72.962
 4670.00    1.36539   1.36945   69.862
 4671.00    1.41068   1.40184   68.022
 4672.00    1.43265   1.42197   67.687
 4673.00    1.43091   1.43006   67.760
 4674.00    1.42285   1.43472   67.682
 4675.00    1.43804   1.44318   66.760
 4676.00    1.46290   1.45280   65.746
 4677.00    1.46910   1.45257   66.143
 4678.00    1.44528   1.43773   67.641
 4679.00    1.41903   1.41494   68.972
 4680.00    1.39501   1.39458   70.102
 4681.00    1.37958   1.38408   70.757
 4682.00    1.38321   1.38603   69.799
 4683.00    1.40891   1.39847   67.989
 4684.00    1.43944   1.41421   67.139
 4685.00    1.44707   1.42534   67.423
 4686.00    1.43572   1.42920   67.437
 4687.00    1.43026   1.42818   67.843
 4688.00    1.43395   1.42554   67.827
 4689.00    1.43699   1.42325   67.834
 4690.00    1.42003   1.42167   68.350
 4691.00    1.41506   1.42084   68.473
 4692.00    1.42982   1.42354   67.613
 4693.00    1.44597   1.43211   66.596
 4694.00    1.46919   1.44347   65.083
 4695.00    1.49581   1.45223   64.284
 4696.00    1.50140   1.45391   64.658
 4697.00    1.48200   1.44427   66.609
 4698.00    1.44162   1.42432   68.629
 4699.00    1.41487   1.40266   69.366
 4700.00    1.41176   1.38591   68.742
 4701.00    1.41248   1.37296   69.313
 4702.00    1.39678   1.36165   70.581
 4703.00    1.37776   1.35674   70.903
 4704.00    1.39415   1.36375   69.473
 4705.00    1.42340   1.37748   68.464
 4706.00    1.42859   1.38457   69.520
 4707.00    1.40471   1.37915   70.941
 4708.00    1.37319   1.36946   71.588
 4709.00    1.36663   1.36857   71.161
 4710.00    1.39382   1.38099   68.978
 4711.00    1.43529   1.40071   67.094
 4712.00    1.46320   1.41731   66.487
 4713.00    1.46133   1.42154   67.189
 4714.00    1.43463   1.41614   68.498
 4715.00    1.42409   1.41474   68.435
 4716.00    1.44042   1.42589   67.008
 4717.00    1.47202   1.44625   65.722
 4718.00    1.48775   1.46615   65.359
 4719.00    1.49315   1.47912   65.134
 4720.00    1.49539   1.48396   64.911
 4721.00    1.49425   1.48227   65.506
 4722.00    1.47327   1.47785   65.966
 4723.00    1.47754   1.47630   65.537
 4724.00    1.50228   1.47869   64.809
 4725.00    1.51036   1.47771   64.950
 4726.00    1.48741   1.46460   66.607
 4727.00    1.43914   1.43805   69.198
 4728.00    1.40415   1.40869   70.694
 4729.00    1.39967   1.39150   70.345
 4730.00    1.42057   1.39070   69.604
 4731.00    1.42207   1.39988   69.065
 4732.00    1.43002   1.41312   68.216
 4733.00    1.43722   1.42665   67.636
 4734.00    1.45532   1.43579   67.262
 4735.00    1.46165   1.43778   66.887
 4736.00    1.45189   1.43493   67.664
 4737.00    1.44038   1.43262   67.717
 4738.00    1.44738   1.43566   66.791
 4739.00    1.47088   1.44351   66.867
 4740.00    1.47174   1.44958   67.274
 4741.00    1.44865   1.45135   67.347
 4742.00    1.45642   1.45379   66.776
 4743.00    1.47277   1.45901   66.036
 4744.00    1.48388   1.46457   66.213
 4745.00    1.48808   1.46951   66.266
 4746.00    1.48557   1.47488   65.743
 4747.00    1.49686   1.48238   65.068
 4748.00    1.49728   1.49120   64.957
 4749.00    1.49747   1.49796   65.068
 4750.00    1.50698   1.50130   65.108
 4751.00    1.50674   1.50025   65.605
 4752.00    1.49676   1.49282   66.364
 4753.00    1.48410   1.47951   66.911
 4754.00    1.46904   1.46566   67.365
 4755.00    1.45522   1.45752   67.218
 4756.00    1.45259   1.45717   67.500
 4757.00    1.43851   1.46264   68.014
 4758.00    1.43236   1.47087   -1.000
 4759.00    1.46062   1.47876   67.471
 4760.00    1.46515   1.48112   67.370
 4761.00    1.43414   1.47232   -1.000
 4762.00    1.39907   1.45196   -1.000
 4763.00    1.37787   1.42775   -1.000
 4764.00    1.38223   1.41010   71.166
 4765.00    1.38898   1.40219   71.007
 4766.00    1.39153   1.40289   70.491
 4767.00    1.41036   1.41359   69.491
 4768.00    1.44027   1.43494   67.880
 4769.00    1.45573   1.46041   66.967
 4770.00    1.45750   1.47831   67.129
 4771.00    1.44603   1.48245   67.721
 4772.00    1.42982   1.47943   -1.000
 4773.00    1.44102   1.48102   -1.000
 4774.00    1.47654   1.49176   65.988
 4775.00    1.49062   1.50502   65.583
 4776.00    1.50028   1.51266   65.657
 4777.00    1.48096   1.51353   65.857
 4778.00    1.47628   1.50997   66.299
 4779.00    1.46973   1.50332   67.063
 4780.00    1.45554   1.49494   67.441
 4781.00    1.45612   1.48684   67.600
 4782.00    1.45196   1.47894   67.939
 4783.00    1.44272   1.47102   68.499
 4784.00    1.43358   1.46440   68.443
 4785.00    1.44336   1.45908   68.687
 4786.00    1.43040   1.45345   69.396
 4787.00    1.41683   1.44813   69.781
 4788.00    1.41783   1.44640   69.690
 4789.00    1.42573   1.44992   69.334
 4790.00    1.42903   1.45870   68.903
 4791.00    1.44060   1.47274   68.169
 4792.00    1.44731   1.49116   -1.000
 4793.00    1.48485   1.51219   65.515
 4794.00    1.51806   1.53303   64.407
 4795.00    1.52745   1.54812   64.210
 4796.00    1.52004   1.55120   64.898
 4797.00    1.50009   1.54067   66.243
 4798.00    1.47138   1.52097   -1.000
 4799.00    1.44957   1.50180   -1.000
 4800.00    1.44848   1.49429   -1.000
 4801.00    1.47195   1.50266   66.194
 4802.00    1.49890   1.52003   65.262
 4803.00    1.50460   1.53292   65.405
 4804.00    1.48608   1.53245   -1.000
 4805.00    1.45184   1.52160   -1.000
 4806.00    1.44327   1.50936   -1.000
 4807.00    1.44998   1.50143   -1.000
 4808.00    1.45799   1.49932   -1.000
 4809.00    1.46932   1.50324   67.233
 4810.00    1.47010   1.51126   -1.000
 4811.00    1.47062   1.51939   -1.000
 4812.00    1.47515   1.52485   -1.000
 4813.00    1.49010   1.52801   65.752
 4814.00    1.49157   1.53148   -1.000
 4815.00    1.48700   1.53829   -1.000
 4816.00    1.50683   1.54882   -1.000
 4817.00    1.51419   1.55952   -1.000
 4818.00    1.51852   1.56621   -1.000
 4819.00    1.51845   1.56809   -1.000
 4820.00    1.52206   1.56632   64.260
 4821.00    1.51432   1.55809   -1.000
 4822.00    1.49881   1.53920   -1.000
 4823.00    1.46505   1.51363   -1.000
 4824.00    1.44661   1.49474   -1.000
 4825.00    1.46741   1.49383   66.440
 4826.00    1.49706   1.50721   65.419
 4827.00    1.50435   1.52037   65.747
 4828.00    1.49359   1.52375   66.550
 4829.00    1.48228   1.51882   66.947
 4830.00    1.48174   1.51106   66.911
 4831.00    1.46330   1.50191   -1.000
 4832.00    1.46127   1.49348   67.654
 4833.00    1.46989   1.49188   66.517
 4834.00    1.50329   1.49981   65.643
 4835.00    1.50873   1.51241   65.426
 4836.00    1.51517   1.52129   65.548
 4837.00    1.51417   1.52198   65.871
 4838.00    1.48512   1.51502   66.800
 4839.00    1.46274   1.50264   -1.000
 4840.00    1.44649   1.48953   -1.000
 4841.00    1.45141   1.48126   67.852
 4842.00    1.46868   1.47939   67.503
 4843.00    1.47304   1.48222   66.991
 4844.00    1.48424   1.48972   66.314
 4845.00    1.50343   1.50263   65.255
 4846.00    1.52476   1.51527   64.947
 4847.00    1.50993   1.51750   66.339
 4848.00    1.47476   1.50872   67.315
 4849.00    1.47043   1.50053   67.269
 4850.00    1.48394   1.50090   66.286
 4851.00    1.48593   1.50552   66.163
 4852.00    1.48735   1.50571   66.562
 4853.00    1.49379   1.49526   67.137
 4854.00    1.45771   1.47141   69.209
 4855.00    1.41615   1.44002   71.171
 4856.00    1.40811   1.41408   70.930
 4857.00    1.41490   1.39748   70.186
 4858.00    1.39985   1.37347   72.215
 4859.00    1.32439   1.31497   78.633
 4860.00    1.18394   1.22193   -1.000
 4861.00    1.08436   1.13659   -1.000
 4862.00    1.12009   1.10930   86.131
 4863.00    1.22346   1.15563   -1.000
 4864.00    1.32201   1.24268   -1.000
 4865.00    1.37729   1.32561   -1.000
 4866.00    1.40649   1.38425   69.793
 4867.00    1.42936   1.42064   69.185
 4868.00    1.43665   1.44010   68.898
 4869.00    1.43147   1.44181   69.529
 4870.00    1.40835   1.42315   71.549
 4871.00    1.36236   1.39123   -1.000
 4872.00    1.35297   1.36805   72.591
 4873.00    1.38401   1.37439   70.465
 4874.00    1.42096   1.40570   69.269
 4875.00    1.43369   1.43868   68.754
 4876.00    1.44076   1.45819   68.383
 4877.00    1.44570   1.46813   68.160
 4878.00    1.45482   1.48014   67.137
 4879.00    1.47737   1.49709   66.431
 4880.00    1.48689   1.51105   67.065
 4881.00    1.45855   1.51314   -1.000
 4882.00    1.43903   1.50418   -1.000
 4883.00    1.45518   1.49324   -1.000
 4884.00    1.44757   1.48315   -1.000
 4885.00    1.43388   1.47038   -1.000
 4886.00    1.42424   1.45667   -1.000
 4887.00    1.43020   1.44782   69.758
 4888.00    1.44593   1.44291   69.671
 4889.00    1.43513   1.43310   70.740
 4890.00    1.39165   1.41449   72.336
 4891.00    1.39105   1.40020   71.796
 4892.00    1.42697   1.41193   68.842
 4893.00    1.48687   1.45693   65.615
 4894.00    1.54623   1.51772   63.710
 4895.00    1.58051   1.56856   62.532
 4896.00    1.59610   1.59686   62.254
 4897.00    1.59181   1.60405   62.401
 4898.00    1.57452   1.59623   63.795
 4899.00    1.52958   1.57995   -1.000
 4900.00    1.51164   1.56298   -1.000
 4901.00    1.51853   1.55059   65.664
 4902.00    1.51685   1.54108   65.767
 4903.00    1.50300   1.53146   66.606
 4904.00    1.50054   1.52724   65.840
 4905.00    1.53351   1.53725   64.403
 4906.00    1.56990   1.55605   63.925
 4907.00    1.56282   1.56551   64.546
 4908.00    1.52720   1.55520   66.138
 4909.00    1.49779   1.52969   68.070
 4910.00    1.46412   1.50273   -1.000
 4911.00    1.46098   1.48847   67.957
 4912.00    1.49796   1.49318   66.713
 4913.00    1.51845   1.51142   65.806
 4914.00    1.54281   1.53256   64.950
 4915.00    1.56438   1.54855   64.381
 4916.00    1.57085   1.55050   64.708
 4917.00    1.54443   1.52719   67.029
 4918.00    1.46484   1.47599   70.758
 4919.00    1.38440   1.41166   -1.000
 4920.00    1.34687   1.36203   74.931
 4921.00    1.37580   1.35029   72.419
 4922.00    1.42899   1.37514   -1.000
 4923.00    1.46206   1.41300   68.771
 4924.00    1.46710   1.44290   68.727
 4925.00    1.47352   1.46487   67.833
 4926.00    1.50875   1.48963   66.031
 4927.00    1.54205   1.51962   64.862
 4928.00    1.55765   1.54822   64.264
 4929.00    1.57827   1.56971   63.827
 4930.00    1.58950   1.58137   63.443
 4931.00    1.59211   1.57926   64.091
 4932.00    1.55713   1.55939   65.871
 4933.00    1.49142   1.52679   68.296
 4934.00    1.46020   1.49845   -1.000
 4935.00    1.48320   1.48779   67.155
 4936.00    1.50472   1.48803   67.134
 4937.00    1.48323   1.47963   69.168
 4938.00    1.44264   1.45764   71.082
 4939.00    1.42406   1.44161   70.415
 4940.00    1.45777   1.45224   67.969
 4941.00    1.52168   1.48956   65.787
 4942.00    1.55490   1.53409   64.589
 4943.00    1.56347   1.56486   64.010
 4944.00    1.57762   1.57532   64.069
 4945.00    1.57903   1.57175   64.538
 4946.00    1.56325   1.56562   64.671
 4947.00    1.56801   1.56680   64.072
 4948.00    1.58405   1.57789   63.306
 4949.00    1.59251   1.59258   63.127
 4950.00    1.59731   1.60167   62.858
 4951.00    1.59532   1.60171   63.199
 4952.00    1.59311   1.59541   63.637
 4953.00    1.58245   1.58592   64.382
 4954.00    1.55985   1.57180   65.187
 4955.00    1.53411   1.54394   66.953
 4956.00    1.47344   1.49370   70.463
 4957.00    1.39718   1.43487   -1.000
 4958.00    1.39288   1.40415   71.749
 4959.00    1.46150   1.42434   67.572
 4960.00    1.53064   1.47999   -1.000
 4961.00    1.55823   1.53454   64.796
 4962.00    1.54840   1.56406   65.115
 4963.00    1.54578   1.56853   65.640
 4964.00    1.53385   1.55701   66.424
 4965.00    1.49698   1.53697   67.853
 4966.00    1.47883   1.51658   -1.000
 4967.00    1.48566   1.50356   68.726
 4968.00    1.48594   1.49935   68.521
 4969.00    1.49359   1.50173   68.008
 4970.00    1.50007   1.51010   67.275
 4971.00    1.51181   1.52403   66.553
 4972.00    1.52959   1.54134   65.755
 4973.00    1.53219   1.55827   65.137
 4974.00    1.55228   1.56996   64.877
 4975.00    1.55492   1.57279   65.343
 4976.00    1.55254   1.56661   66.038
 4977.00    1.52496   1.55294   66.941
 4978.00    1.50662   1.53506   68.039
 4979.00    1.48643   1.51626   68.873
 4980.00    1.47342   1.49467   69.851
 4981.00    1.42825   1.46398   72.185
 4982.00    1.37575   1.42374   -1.000
 4983.00    1.36155   1.38795   74.499
 4984.00    1.38333   1.37637   73.073
 4985.00    1.41706   1.39570   71.006
 4986.00    1.46604   1.43476   68.743
 4987.00    1.50230   1.47629   67.044
 4988.00    1.51391   1.50589   67.130
 4989.00    1.50541   1.51490   68.140
 4990.00    1.48205   1.50697   68.838
 4991.00    1.47533   1.49615   68.858
 4992.00    1.48987   1.49376   68.231
 4993.00    1.50088   1.49976   67.948
 4994.00    1.50303   1.50810   67.921
 4995.00    1.51303   1.51606   67.564
 4996.00    1.52071   1.52341   67.227
 4997.00    1.51145   1.52603   67.648
 4998.00    1.50140   1.51698   68.566
 4999.00    1.47390   1.49440   69.965
 5000.00    1.44424   1.46643   70.835
 5001.00    1.44456   1.44643   70.872
 5002.00    1.45579   1.44113   70.186
 5003.00    1.47287   1.44462   69.725
 5004.00    1.46596   1.44361   70.751
 5005.00    1.43130   1.42963   72.579
 5006.00    1.40901   1.41009   72.966
 5007.00    1.41521   1.40513   71.141
 5008.00    1.45663   1.42490   68.958
 5009.00    1.49856   1.45593   -1.000
 5010.00    1.50919   1.47468   69.165
 5011.00    1.46766   1.46691   71.270
 5012.00    1.42157   1.43684   73.964
 5013.00    1.38447   1.40213   75.675
 5014.00    1.36588   1.38068   75.278
 5015.00    1.38265   1.37903   73.586
 5016.00    1.42280   1.39041   72.044
 5017.00    1.42302   1.40336   71.760
 5018.00    1.42917   1.41330   71.782
 5019.00    1.44286   1.42443   70.949
 5020.00    1.46270   1.43788   70.371
 5021.00    1.46102   1.44758   70.700
 5022.00    1.44712   1.45094   70.854
 5023.00    1.45763   1.45424   70.439
 5024.00    1.47301   1.46498   69.685
 5025.00    1.48346   1.47928   69.221
 5026.00    1.48364   1.48537   69.566
 5027.00    1.47431   1.48143   69.901
 5028.00    1.47647   1.47808   69.245
 5029.00    1.51298   1.48429   67.924
 5030.00    1.53622   1.50046   66.961
 5031.00    1.54738   1.52174   65.868
 5032.00    1.57182   1.54164   65.114
 5033.00    1.58196   1.55239   65.236
 5034.00    1.55279   1.54533   67.373
 5035.00    1.49401   1.51900   70.072
 5036.00    1.45473   1.48651   71.206
 5037.00    1.44821   1.46333   71.440
 5038.00    1.44004   1.44789   72.337
 5039.00    1.40214   1.42399   75.230
 5040.00    1.35049   1.38630   -1.000
 5041.00    1.32937   1.35570   78.288
 5042.00    1.36869   1.35992   74.428
 5043.00    1.44742   1.40430   69.795
 5044.00    1.51084   1.46771   -1.000
 5045.00    1.54708   1.52313   65.591
 5046.00    1.65320   1.55545   -1.000
 5047.00    1.10987   1.56018   -1.000
 5048.00    0.20929   1.53959   -1.000
 5049.00   -0.03904   1.50478    0.000
 5050.00    0.48429   1.47287   -1.000
 5051.00    1.49158   1.45736   70.288
 5052.00    1.48597   1.46331   68.705
 5053.00    1.53686   1.48775   -1.000
 5054.00    1.57043   1.51992   -1.000
 5055.00    1.58825   1.54619   -1.000
 5056.00    1.59723   1.56146   64.936
 5057.00    1.59767   1.56904   65.063
 5058.00    1.60028   1.57339   65.184
 5059.00    1.59004   1.57751   65.155
 5060.00    1.58852   1.58236   64.700
 5061.00    1.60080   1.58616   64.747
 5062.00    1.60019   1.58276   65.641
 5063.00    1.56690   1.56371   67.585
 5064.00    1.51032   1.52997   70.015
 5065.00    1.47490   1.49719   70.784
 5066.00    1.49062   1.48107   69.885
 5067.00    1.51545   1.48214   68.819
 5068.00    1.52412   1.48996   68.620
 5069.00    1.53203   1.49769   68.291
 5070.00    1.54247   1.50449   67.836
 5071.00    1.54974   1.50761   -1.000
 5072.00    1.52854   1.50401   68.954
 5073.00    1.53354   1.49834   68.069
 5074.00    1.54568   1.49854   -1.000
 5075.00    1.54915   1.50497   -1.000
 5076.00    1.55234   1.50998   -1.000
 5077.00    1.55010   1.50456   -1.000
 5078.00    1.51883   1.48286   70.515
 5079.00    1.45183   1.44799   73.914
 5080.00    1.40771   1.41717   74.704
 5081.00    1.42932   1.40788   73.068
 5082.00    1.46283   1.41912   -1.000
 5083.00    1.48012   1.43877   -1.000
 5084.00    1.50061   1.46067   -1.000
 5085.00    1.53829   1.48499   -1.000
 5086.00    1.56272   1.50842   -1.000
 5087.00    1.56065   1.52470   67.478
 5088.00    1.56018   1.53282   67.131
 5089.00    1.56755   1.53751   66.641
 5090.00    1.58063   1.54299   66.276
 5091.00    1.58490   1.55069   65.933
 5092.00    1.58810   1.56096   65.159
 5093.00    1.60327   1.57179   64.578
 5094.00    1.64904   1.57646   -1.000
 5095.00    1.65964   1.56651   -1.000
 5096.00    1.57002   1.53958   68.031
 5097.00    1.53686   1.50358   69.689
 5098.00    1.48901   1.47151   71.145
 5099.00    1.48267   1.45549   71.337
 5100.00    1.51407   1.46237   -1.000
 5101.00    1.54907   1.48726   -1.000
 5102.00    1.58098   1.51356   -1.000
 5103.00    1.57097   1.52627   -1.000
 5104.00    1.56745   1.52374   -1.000
 5105.00    1.55226   1.51203   -1.000
 5106.00    1.51123   1.49522   69.983
 5107.00    1.49625   1.47664   70.864
 5108.00    1.48903   1.46204   70.727
 5109.00    1.49026   1.45662   70.263
 5110.00    1.49321   1.46287   69.756
 5111.00    1.50904   1.48037   68.736
 5112.00    1.53726   1.50413   67.899
 5113.00    1.55363   1.52638   67.071
 5114.00    1.57274   1.54339   66.472
 5115.00    1.58856   1.55664   66.123
 5116.00    1.59725   1.56808   65.413
 5117.00    1.61898   1.57713   -1.000
 5118.00    1.63419   1.58127   -1.000
 5119.00    1.61713   1.57741   -1.000
 5120.00    1.58420   1.56397   66.959
 5121.00    1.56360   1.54244   68.069
 5122.00    1.53045   1.51601   69.847
 5123.00    1.49045   1.48805   71.970
 5124.00    1.46199   1.46409   72.418
 5125.00    1.46980   1.45090   71.737
 5126.00    1.48724   1.44949   71.396
 5127.00    1.49331   1.45364   70.966
 5128.00    1.49186   1.45732   71.087
 5129.00    1.48613   1.46055   71.017
 5130.00    1.49739   1.46699   70.061
 5131.00    1.52528   1.47893   -1.000
 5132.00    1.54444   1.49466   -1.000
 5133.00    1.55600   1.50993   -1.000
 5134.00    1.56963   1.52148   -1.000
 5135.00    1.58196   1.52724   -1.000
 5136.00    1.58439   1.52376   -1.000
 5137.00    1.55959   1.50810   -1.000
 5138.00    1.51495   1.48468   70.937
 5139.00    1.49190   1.46483   70.999
 5140.00    1.50557   1.45654   -1.000
 5141.00    1.50051   1.45701   -1.000
 5142.00    1.48993   1.45883   72.082
 5143.00    1.47785   1.46109   71.607
 5144.00    1.49560   1.46728   70.370
 5145.00    1.52492   1.47453   -1.000
 5146.00    1.51298   1.47510   70.851
 5147.00    1.50026   1.46953   71.008
 5148.00    1.50696   1.46773   70.097
 5149.00    1.52206   1.47306   -1.000
 5150.00    1.51193   1.47612   70.631
 5151.00    1.47864   1.46970   71.941
 5152.00    1.46679   1.45845   72.384
 5153.00    1.46896   1.45147   71.987
 5154.00    1.49462   1.45479   70.572
 5155.00    1.52796   1.47110   -1.000
 5156.00    1.58006   1.49845   -1.000
 5157.00    1.61697   1.52841   -1.000
 5158.00    1.62183   1.55171   -1.000
 5159.00    1.61548   1.56435   -1.000
 5160.00    1.62576   1.56685   -1.000
 5161.00    1.60998   1.56054   -1.000
 5162.00    1.59579   1.54613   -1.000
 5163.00    1.57175   1.52331   -1.000
 5164.00    1.53382   1.48690   -1.000
 5165.00    1.45716   1.42623   76.350
 5166.00    1.31973   1.33931   84.430
 5167.00    1.21031   1.25081   -1.000
 5168.00    1.20100   1.20207   87.895
 5169.00    1.27435   1.21024   -1.000
 5170.00    1.32977   1.24020   -1.000
 5171.00    1.27782   1.23984   -1.000
 5172.00    1.18419   1.20559   93.260
 5173.00    1.17266   1.18666   89.048
 5174.00    1.28321   1.22749   -1.000
 5175.00    1.43809   1.31839   -1.000
 5176.00    1.52274   1.41090   -1.000
 5177.00    1.55327   1.47100   -1.000
 5178.00    1.56775   1.49690   -1.000
 5179.00    1.54746   1.49803   -1.000
 5180.00    1.51174   1.47377   -1.000
 5181.00    1.43994   1.41436   77.864
 5182.00    1.31021   1.32221   87.104
 5183.00    1.17875   1.22899   -1.000
 5184.00    1.16557   1.18569   89.013
 5185.00    1.27985   1.22188   -1.000
 5186.00    1.43176   1.31421   -1.000
 5187.00    1.51358   1.40771   -1.000
 5188.00    1.54244   1.46579   -1.000
 5189.00    1.54633   1.48914   -1.000
 5190.00    1.53890   1.48963   -1.000
 5191.00    1.49860   1.47140   72.227
 5192.00    1.45880   1.44338   74.212
 5193.00    1.45341   1.42449   73.538
 5194.00    1.48409   1.42553   -1.000
 5195.00    1.49775   1.44095   -1.000
 5196.00    1.51584   1.46155   -1.000
 5197.00    1.54224   1.48483   -1.000
 5198.00    1.56691   1.51066   -1.000
 5199.00    1.58301   1.53436   -1.000
 5200.00    1.60095   1.54928   -1.000
 5201.00    1.58973   1.55092   67.550
 5202.00    1.57844   1.53664   -1.000
 5203.00    1.53710   1.50618   70.401
 5204.00    1.48203   1.46392   72.651
 5205.00    1.44395   1.41983   74.887
 5206.00    1.43500   1.38567   -1.000
 5207.00    1.42921   1.36713   -1.000
 5208.00    1.42315   1.36208   -1.000
 5209.00    1.43473   1.37000   -1.000
 5210.00    1.47152   1.39668   -1.000
 5211.00    1.52721   1.44349   -1.000
 5212.00    1.58869   1.49856   -1.000
 5213.00    1.62476   1.54167   -1.000
 5214.00    1.62196   1.55731   -1.000
 5215.00    1.59210   1.54612   -1.000
 5216.00    1.56737   1.52564   68.503
 5217.00    1.56438   1.51765   67.869
 5218.00    1.58963   1.53168   -1.000
 5219.00    1.62370   1.56024   -1.000
 5220.00    1.64685   1.58875   -1.000
 5221.00    1.66249   1.60645   -1.000
 5222.00    1.65331   1.60752   -1.000
 5223.00    1.61677   1.58880   67.600
 5224.00    1.55519   1.54896   70.433
 5225.00    1.49038   1.49158   73.761
 5226.00    1.43324   1.43419   75.736
 5227.00    1.43523   1.40478   73.952
 5228.00    1.50347   1.42013   -1.000
 5229.00    1.58252   1.46994   -1.000
 5230.00    1.63085   1.52252   -1.000
 5231.00    1.64814   1.54930   -1.000
 5232.00    1.61971   1.54454   -1.000
 5233.00    1.58739   1.52420   -1.000
 5234.00    1.57614   1.51285   -1.000
 5235.00    1.59643   1.52538   -1.000
 5236.00    1.63338   1.55730   -1.000
 5237.00    1.66982   1.59248   -1.000
 5238.00    1.67284   1.61669   -1.000
 5239.00    1.66119   1.62638   64.398
 5240.00    1.66333   1.62687   64.266
 5241.00    1.66357   1.62385   63.872
 5242.00    1.66802   1.62061   63.996
 5243.00    1.66750   1.62037   63.850
 5244.00    1.67864   1.62308   -1.000
 5245.00    1.66782   1.62071   -1.000
 5246.00    1.62344   1.60443   67.194
 5247.00    1.58502   1.57758   68.728
 5248.00    1.57314   1.55337   68.829
 5249.00    1.57661   1.53970   68.958
 5250.00    1.56704   1.53452   69.420
 5251.00    1.55799   1.53521   69.048
 5252.00    1.58307   1.54149   68.056
 5253.00    1.60374   1.54970   -1.000
 5254.00    1.59513   1.55529   67.445
 5255.00    1.60309   1.56175   66.931
 5256.00    1.63874   1.57802   -1.000
 5257.00    1.68638   1.60513   -1.000
 5258.00    1.71088   1.63099   -1.000
 5259.00    1.70692   1.63994   -1.000
 5260.00    1.67375   1.62346   -1.000
 5261.00    1.60538   1.58269   68.333
 5262.00    1.54038   1.52631   71.611
 5263.00    1.49938   1.46685   74.040
 5264.00    1.46600   1.41681   75.513
 5265.00    1.43703   1.38694   -1.000
 5266.00    1.45292   1.38120   -1.000
 5267.00    1.49843   1.38818   -1.000
 5268.00    1.49898   1.38569   -1.000
 5269.00    1.43051   1.36510   -1.000
 5270.00    1.39706   1.34787   -1.000
 5271.00    1.46592   1.36482   -1.000
 5272.00    1.56089   1.41667   -1.000
 5273.00    1.59919   1.47177   -1.000
 5274.00    1.59975   1.50528   -1.000
 5275.00    1.60121   1.52181   -1.000
 5276.00    1.62246   1.54078   -1.000
 5277.00    1.67094   1.57253   -1.000
 5278.00    1.71099   1.60805   -1.000
 5279.00    1.72203   1.62779   -1.000
 5280.00    1.69153   1.62023   -1.000
 5281.00    1.65360   1.59205   -1.000
 5282.00    1.61177   1.55986   -1.000
 5283.00    1.59630   1.53888   -1.000
 5284.00    1.61471   1.54065   -1.000
 5285.00    1.66093   1.56871   -1.000
 5286.00    1.73258   1.61171   -1.000
 5287.00    1.75466   1.64967   -1.000
 5288.00    1.74058   1.67117   -1.000
 5289.00    1.73113   1.67980   -1.000
 5290.00    1.73955   1.68285   -1.000
 5291.00    1.75320   1.68219   -1.000
 5292.00    1.73956   1.67776   -1.000
 5293.00    1.72281   1.67064   -1.000
 5294.00    1.72076   1.65898   -1.000
 5295.00    1.68712   1.63642   -1.000
 5296.00    1.62512   1.59910   68.312
 5297.00    1.57078   1.55561   70.098
 5298.00    1.55386   1.52623   69.531
 5299.00    1.58932   1.52501   -1.000
 5300.00    1.63675   1.54500   -1.000
 5301.00    1.65553   1.56892   -1.000
 5302.00    1.66639   1.58958   -1.000
 5303.00    1.69588   1.61248   -1.000
 5304.00    1.73749   1.64001   -1.000
 5305.00    1.75862   1.66276   -1.000
 5306.00    1.74794   1.67098   -1.000
 5307.00    1.72720   1.66738   -1.000
 5308.00    1.72697   1.66403   -1.000
 5309.00    1.74919   1.66981   -1.000
 5310.00    1.76321   1.68194   -1.000
 5311.00    1.76126   1.69076   -1.000
 5312.00    1.75341   1.69063   -1.000
 5313.00    1.75608   1.68263   -1.000
 5314.00    1.75216   1.66994   -1.000
 5315.00    1.72880   1.65456   -1.000
 5316.00    1.71160   1.63948   -1.000
 5317.00    1.70408   1.63115   -1.000
 5318.00    1.71248   1.63410   -1.000
 5319.00    1.72650   1.64394   -1.000
 5320.00    1.72387   1.65027   -1.000
 5321.00    1.72922   1.64590   -1.000
 5322.00    1.71323   1.62991   -1.000
 5323.00    1.68706   1.60580   -1.000
 5324.00    1.66281   1.58090   -1.000
 5325.00    1.66722   1.55889   -1.000
 5326.00    1.65396   1.53120   -1.000
 5327.00    1.56002   1.48759   -1.000
 5328.00    1.47494   1.44044   75.383
 5329.00    1.48907   1.42418   -1.000
 5330.00    1.58439   1.45792   -1.000
 5331.00    1.66732   1.52052   -1.000
 5332.00    1.69167   1.57487   -1.000
 5333.00    1.68835   1.60621   -1.000
 5334.00    1.72161   1.62424   -1.000
 5335.00    1.73911   1.63805   -1.000
 5336.00    1.73807   1.64578   -1.000
 5337.00    1.72516   1.64298   -1.000
 5338.00    1.71131   1.62817   -1.000
 5339.00    1.68144   1.60244   -1.000
 5340.00    1.63531   1.57345   -1.000
 5341.00    1.62612   1.55760   -1.000
 5342.00    1.66781   1.56658   -1.000
 5343.00    1.71119   1.59243   -1.000
 5344.00    1.72272   1.61445   -1.000
 5345.00    1.70991   1.62026   -1.000
 5346.00    1.70207   1.61285   -1.000
 5347.00    1.69920   1.60094   -1.000
 5348.00    1.68515   1.59093   -1.000
 5349.00    1.67232   1.58753   -1.000
 5350.00    1.68099   1.59577   -1.000
 5351.00    1.71395   1.61593   -1.000
 5352.00    1.74680   1.64016   -1.000
 5353.00    1.76178   1.65970   -1.000
 5354.00    1.76195   1.67378   -1.000
 5355.00    1.78754   1.68753   -1.000
 5356.00    1.80444   1.70184   -1.000
 5357.00    1.80072   1.71215   -1.000
 5358.00    1.80150   1.71529   -1.000
 5359.00    1.79856   1.71169   -1.000
 5360.00    1.77998   1.70218   -1.000
 5361.00    1.75488   1.68697   -1.000
 5362.00    1.72934   1.66824   -1.000
 5363.00    1.72301   1.64926   -1.000
 5364.00    1.70203   1.63223   -1.000
 5365.00    1.69951   1.61954   -1.000
 5366.00    1.69493   1.61326   -1.000
 5367.00    1.69908   1.61095   -1.000
 5368.00    1.70096   1.60334   -1.000
 5369.00    1.67649   1.58092   -1.000
 5370.00    1.62390   1.54593   -1.000
 5371.00    1.59570   1.51671   -1.000
 5372.00    1.62704   1.51608   -1.000
 5373.00    1.69822   1.55100   -1.000
 5374.00    1.75850   1.60483   -1.000
 5375.00    1.78487   1.65183   -1.000
 5376.00    1.78084   1.67766   -1.000
 5377.00    1.77477   1.68510   -1.000
 5378.00    1.77219   1.68372   -1.000
 5379.00    1.76209   1.67928   -1.000
 5380.00    1.74720   1.67198   -1.000
 5381.00    1.73784   1.66088   -1.000
 5382.00    1.73179   1.64814   -1.000
 5383.00    1.72043   1.63937   -1.000
 5384.00    1.72759   1.64025   -1.000
 5385.00    1.75419   1.65122   -1.000
 5386.00    1.76734   1.66543   -1.000
 5387.00    1.76499   1.67343   -1.000
 5388.00    1.75072   1.67001   -1.000
 5389.00    1.72210   1.65633   -1.000
 5390.00    1.70046   1.63781   -1.000
 5391.00    1.69425   1.62063   -1.000
 5392.00    1.69142   1.60766   -1.000
 5393.00    1.68955   1.59870   -1.000
 5394.00    1.68574   1.59150   -1.000
 5395.00    1.66983   1.58043   -1.000
 5396.00    1.63491   1.56219   -1.000
 5397.00    1.60503   1.54496   -1.000
 5398.00    1.63470   1.54377   -1.000
 5399.00    1.69549   1.56425   -1.000
 5400.00    1.72924   1.59481   -1.000
 5401.00    1.73198   1.61782   -1.000
 5402.00    1.73023   1.62216   -1.000
 5403.00    1.69924   1.60331   -1.000
 5404.00    1.63093   1.56501   -1.000
 5405.00    1.59234   1.52479   -1.000
 5406.00    1.59928   1.50548   -1.000
 5407.00    1.63626   1.51443   -1.000
 5408.00    1.65187   1.53630   -1.000
 5409.00    1.63486   1.55101   -1.000
 5410.00    1.63012   1.55692   -1.000
 5411.00    1.66963   1.56908   -1.000
 5412.00    1.71956   1.59438   -1.000
 5413.00    1.75518   1.62160   -1.000
 5414.00    1.74236   1.63819   -1.000
 5415.00    1.74279   1.64581   -1.000
 5416.00    1.74895   1.65464   -1.000
 5417.00    1.75869   1.66677   -1.000
 5418.00    1.76760   1.67495   -1.000
 5419.00    1.75591   1.67474   -1.000
 5420.00    1.74420   1.66915   -1.000
 5421.00    1.75327   1.66281   -1.000
 5422.00    1.74773   1.65575   -1.000
 5423.00    1.73414   1.64550   -1.000
 5424.00    1.71953   1.63591   -1.000
 5425.00    1.70496   1.63733   -1.000
 5426.00    1.73961   1.65193   -1.000
 5427.00    1.77404   1.66349   -1.000
 5428.00    1.73616   1.65183   -1.000
 5429.00    1.66847   1.61898   -1.000
 5430.00    1.64795   1.58918   -1.000
 5431.00    1.68299   1.58099   -1.000
 5432.00    1.70817   1.58749   -1.000
 5433.00    1.68262   1.58871   -1.000
 5434.00    1.64898   1.57866   -1.000
 5435.00    1.65105   1.57112   -1.000
 5436.00    1.67534   1.58211   -1.000
 5437.00    1.71502   1.61420   -1.000
 5438.00    1.75931   1.65512   -1.000
 5439.00    1.79220   1.68931   -1.000
 5440.00    1.80997   1.71009   -1.000
 5441.00    1.81180   1.72032   -1.000
 5442.00    1.80509   1.72310   -1.000
 5443.00    1.79059   1.71519   -1.000
 5444.00    1.75510   1.69001   -1.000
 5445.00    1.70021   1.64698   -1.000
 5446.00    1.64072   1.59959   69.175
 5447.00    1.61175   1.57069   68.447
 5448.00    1.65014   1.57546   -1.000
 5449.00    1.71540   1.60807   -1.000
 5450.00    1.75050   1.64649   -1.000
 5451.00    1.74942   1.67079   -1.000
 5452.00    1.75014   1.67362   -1.000
 5453.00    1.73264   1.65568   -1.000
 5454.00    1.69016   1.62211   -1.000
 5455.00    1.64142   1.58690   -1.000
 5456.00    1.64629   1.57216   -1.000
 5457.00    1.69334   1.59113   -1.000
 5458.00    1.74909   1.63160   -1.000
 5459.00    1.76940   1.66591   -1.000
 5460.00    1.75534   1.67595   -1.000
 5461.00    1.73054   1.66271   -1.000
 5462.00    1.69309   1.63911   -1.000
 5463.00    1.67814   1.62079   -1.000
 5464.00    1.69523   1.61819   -1.000
 5465.00    1.71651   1.63047   -1.000
 5466.00    1.71272   1.64814   -1.000
 5467.00    1.72706   1.66279   -1.000
 5468.00    1.74119   1.67190   -1.000
 5469.00    1.74187   1.67511   -1.000
 5470.00    1.73285   1.67200   -1.000
 5471.00    1.72178   1.66417   -1.000
 5472.00    1.71158   1.65435   -1.000
 5473.00    1.70286   1.64276   -1.000
 5474.00    1.68632   1.62647   -1.000
 5475.00    1.65948   1.60287   -1.000
 5476.00    1.63249   1.57677   -1.000
 5477.00    1.61918   1.56271   -1.000
 5478.00    1.65632   1.57227   -1.000
 5479.00    1.70877   1.59812   -1.000
 5480.00    1.71099   1.61890   -1.000
 5481.00    1.68048   1.62314   -1.000
 5482.00    1.67198   1.62063   -1.000
 5483.00    1.68814   1.62752   -1.000
 5484.00    1.72536   1.64701   -1.000
 5485.00    1.75359   1.66707   -1.000
 5486.00    1.74540   1.67394   -1.000
 5487.00    1.72264   1.66591   -1.000
 5488.00    1.70385   1.65330   -1.000
 5489.00    1.70440   1.64751   -1.000
 5490.00    1.71073   1.65170   -1.000
 5491.00    1.71665   1.66068   -1.000
 5492.00    1.73248   1.66789   -1.000
 5493.00    1.73719   1.67091   -1.000
 5494.00    1.73243   1.67098   -1.000
 5495.00    1.74249   1.66867   -1.000
 5496.00    1.72749   1.66235   -1.000
 5497.00    1.70580   1.65364   -1.000
 5498.00    1.71671   1.64909   -1.000
 5499.00    1.73435   1.65103   -1.000
 5500.00    1.73594   1.65157   -1.000
 5501.00    1.70659   1.64310   -1.000
 5502.00    1.70574   1.63060   -1.000
 5503.00    1.70303   1.62473   -1.000
 5504.00    1.70521   1.62573   -1.000
 5505.00    1.70471   1.62419   -1.000
 5506.00    1.67426   1.61648   -1.000
 5507.00    1.67272   1.61070   -1.000
 5508.00    1.70504   1.61625   -1.000
 5509.00    1.72588   1.63009   -1.000
 5510.00    1.72769   1.63861   -1.000
 5511.00    1.69560   1.63210   -1.000
 5512.00    1.66340   1.61361   -1.000
 5513.00    1.64733   1.59569   -1.000
 5514.00    1.65759   1.59032   -1.000
 5515.00    1.69501   1.60055   -1.000
 5516.00    1.72207   1.62104   -1.000
 5517.00    1.74707   1.64491   -1.000
 5518.00    1.77396   1.66730   -1.000
 5519.00    1.78636   1.68446   -1.000
 5520.00    1.78886   1.69363   -1.000
 5521.00    1.78621   1.69533   -1.000
 5522.00    1.78127   1.69378   -1.000
 5523.00    1.77612   1.69198   -1.000
 5524.00    1.77453   1.68740   -1.000
 5525.00    1.75625   1.67405   -1.000
 5526.00    1.72244   1.64906   -1.000
 5527.00    1.67948   1.61803   -1.000
 5528.00    1.65205   1.59506   -1.000
 5529.00    1.67655   1.59418   -1.000
 5530.00    1.71430   1.61660   -1.000
 5531.00    1.74290   1.64715   -1.000
 5532.00    1.74864   1.66706   -1.000
 5533.00    1.73675   1.67011   -1.000
 5534.00    1.72280   1.66306   -1.000
 5535.00    1.73284   1.65583   -1.000
 5536.00    1.74589   1.65460   -1.000
 5537.00    1.75572   1.65974   -1.000
 5538.00    1.76613   1.66775   -1.000
 5539.00    1.77113   1.67650   -1.000
 5540.00    1.78894   1.68605   -1.000
 5541.00    1.79773   1.69339   -1.000
 5542.00    1.78953   1.69301   -1.000
 5543.00    1.77366   1.68494   -1.000
 5544.00    1.76136   1.67618   -1.000
 5545.00    1.76643   1.67318   -1.000
 5546.00    1.76495   1.67671   -1.000
 5547.00    1.77595   1.68470   -1.000
 5548.00    1.79365   1.69620   -1.000
 5549.00    1.81373   1.70883   -1.000
 5550.00    1.81131   1.71748   -1.000
 5551.00    1.81234   1.71890   -1.000
 5552.00    1.79943   1.71328   -1.000
 5553.00    1.78036   1.70305   -1.000
 5554.00    1.76680   1.69315   -1.000
 5555.00    1.76596   1.68852   -1.000
 5556.00    1.77960   1.68954   -1.000
 5557.00    1.78883   1.69267   -1.000
 5558.00    1.78479   1.69549   -1.000
 5559.00    1.78505   1.69807   -1.000
 5560.00    1.78038   1.69930   -1.000
 5561.00    1.77208   1.69575   -1.000
 5562.00    1.76261   1.68629   -1.000
 5563.00    1.75048   1.67479   -1.000
 5564.00    1.74045   1.66581   -1.000
 5565.00    1.73393   1.66036   -1.000
 5566.00    1.73727   1.65684   -1.000
 5567.00    1.74272   1.65402   -1.000
 5568.00    1.74206   1.65205   -1.000
 5569.00    1.73144   1.65118   -1.000
 5570.00    1.73514   1.65076   -1.000
 5571.00    1.74517   1.64925   -1.000
 5572.00    1.72594   1.64640   -1.000
 5573.00    1.67948   1.64520   66.001
 5574.00    1.54847   1.64946   -1.000
 5575.00    1.16177   1.65879   -1.000
 5576.00    0.66050   1.66852   -1.000
 5577.00    0.57013   1.67643   -1.000
 5578.00    1.01665   1.68406   -1.000
 5579.00    1.34733   1.69116   -1.000
 5580.00    1.75303   1.69501   -1.000
 5581.00    1.77049   1.69460   -1.000
 5582.00    1.76763   1.69151   -1.000
 5583.00    1.77448   1.68724   -1.000
 5584.00    1.76713   1.67988   -1.000
 5585.00    1.74680   1.66303   -1.000
 5586.00    1.70710   1.63224   -1.000
 5587.00    1.65456   1.59433   -1.000
 5588.00    1.64079   1.56547   -1.000
 5589.00    1.64649   1.55765   -1.000
 5590.00    1.67723   1.57077   -1.000
 5591.00    1.71318   1.59468   -1.000
 5592.00    1.72154   1.61597   -1.000
 5593.00    1.71725   1.62758   -1.000
 5594.00    1.71188   1.63350   -1.000
 5595.00    1.73127   1.64230   -1.000
 5596.00    1.75468   1.65443   -1.000
 5597.00    1.73382   1.66001   -1.000
 5598.00    1.69919   1.65208   -1.000
 5599.00    1.68760   1.63585   -1.000
 5600.00    1.67674   1.62015   -1.000
 5601.00    1.66921   1.60796   -1.000
 5602.00    1.66746   1.60219   -1.000
 5603.00    1.67830   1.61078   -1.000
 5604.00    1.72092   1.63771   -1.000
 5605.00    1.76328   1.67533   -1.000
 5606.00    1.78577   1.70941   -1.000
 5607.00    1.79161   1.73042   -1.000
 5608.00    1.78463   1.73881   -1.000
 5609.00    1.79103   1.74054   -1.000
 5610.00    1.79806   1.74119   -1.000
 5611.00    1.78954   1.74192   -1.000
 5612.00    1.78563   1.73713   -1.000
 5613.00    1.77147   1.71755   -1.000
 5614.00    1.72969   1.68025   -1.000
 5615.00    1.67916   1.63759   69.195
 5616.00    1.66529   1.61232   -1.000
 5617.00    1.70030   1.61736   -1.000
 5618.00    1.74506   1.64249   -1.000
 5619.00    1.75568   1.66783   -1.000
 5620.00    1.75997   1.68455   -1.000
 5621.00    1.76304   1.69392   -1.000
 5622.00    1.75847   1.69548   -1.000
 5623.00    1.74923   1.68593   -1.000
 5624.00    1.71783   1.66822   -1.000
 5625.00    1.70928   1.65435   -1.000
 5626.00    1.71515   1.65537   -1.000
 5627.00    1.74685   1.67095   -1.000
 5628.00    1.76363   1.69180   -1.000
 5629.00    1.78458   1.70988   -1.000
 5630.00    1.79132   1.72240   -1.000
 5631.00    1.78758   1.72858   -1.000
 5632.00    1.78606   1.72806   -1.000
 5633.00    1.77542   1.72222   -1.000
 5634.00    1.76804   1.71325   -1.000
 5635.00    1.77248   1.70221   -1.000
 5636.00    1.74799   1.69049   -1.000
 5637.00    1.72606   1.68101   -1.000
 5638.00    1.73327   1.67648   -1.000
 5639.00    1.73116   1.67654   -1.000
 5640.00    1.72946   1.67725   -1.000
 5641.00    1.73098   1.67591   -1.000
 5642.00    1.74551   1.67493   -1.000
 5643.00    1.74228   1.67767   -1.000
 5644.00    1.73958   1.68339   -1.000
 5645.00    1.75527   1.68948   -1.000
 5646.00    1.76446   1.69468   -1.000
 5647.00    1.76422   1.69790   -1.000
 5648.00    1.76713   1.69787   -1.000
 5649.00    1.77154   1.69547   -1.000
 5650.00    1.78001   1.69424   -1.000
 5651.00    1.78439   1.69702   -1.000
 5652.00    1.78322   1.70184   -1.000
 5653.00    1.79555   1.70334   -1.000
 5654.00    1.78740   1.69838   -1.000
 5655.00    1.76328   1.68723   -1.000
 5656.00    1.75043   1.66977   -1.000
 5657.00    1.71241   1.64572   -1.000
 5658.00    1.67443   1.62159   -1.000
 5659.00    1.67886   1.61006   -1.000
 5660.00    1.71116   1.61656   -1.000
 5661.00    1.72479   1.63211   -1.000
 5662.00    1.70738   1.64520   -1.000
 5663.00    1.70787   1.65557   -1.000
 5664.00    1.73599   1.66887   -1.000
 5665.00    1.75729   1.68327   -1.000
 5666.00    1.75580   1.69050   -1.000
 5667.00    1.74538   1.68779   -1.000
 5668.00    1.72598   1.68152   -1.000
 5669.00    1.72800   1.67928   -1.000
 5670.00    1.73674   1.68352   -1.000
 5671.00    1.75449   1.69259   -1.000
 5672.00    1.77616   1.70399   -1.000
 5673.00    1.79867   1.71491   -1.000
 5674.00    1.79852   1.72234   -1.000
 5675.00    1.78491   1.72521   -1.000
 5676.00    1.78766   1.72541   -1.000
 5677.00    1.79485   1.72513   -1.000
 5678.00    1.80052   1.72378   -1.000
 5679.00    1.78913   1.71915   -1.000
 5680.00    1.78500   1.71001   -1.000
 5681.00    1.77903   1.69648   -1.000
 5682.00    1.76338   1.68027   -1.000
 5683.00    1.75249   1.66641   -1.000
 5684.00    1.76331   1.66100   -1.000
 5685.00    1.76250   1.66414   -1.000
 5686.00    1.75883   1.66851   -1.000
 5687.00    1.73906   1.66793   -1.000
 5688.00    1.72914   1.66466   -1.000
 5689.00    1.74323   1.66604   -1.000
 5690.00    1.76706   1.67612   -1.000
 5691.00    1.79035   1.69211   -1.000
 5692.00    1.81029   1.70734   -1.000
 5693.00    1.80819   1.71717   -1.000
 5694.00    1.80576   1.72108   -1.000
 5695.00    1.80129   1.72093   -1.000
 5696.00    1.79275   1.71816   -1.000
 5697.00    1.77846   1.71261   -1.000
 5698.00    1.76482   1.70382   -1.000
 5699.00    1.75578   1.69248   -1.000
 5700.00    1.73827   1.68087   -1.000
 5701.00    1.71937   1.67182   -1.000
 5702.00    1.72142   1.66832   -1.000
 5703.00    1.73641   1.67154   -1.000
 5704.00    1.74775   1.67726   -1.000
 5705.00    1.74652   1.67815   -1.000
 5706.00    1.73039   1.66982   -1.000
 5707.00    1.71546   1.65354   -1.000
 5708.00    1.69040   1.63386   -1.000
 5709.00    1.66675   1.61625   -1.000
 5710.00    1.67146   1.60639   -1.000
 5711.00    1.68021   1.60872   -1.000
 5712.00    1.71052   1.62438   -1.000
 5713.00    1.75222   1.65063   -1.000
 5714.00    1.77776   1.67963   -1.000
 5715.00    1.78891   1.70183   -1.000
 5716.00    1.78611   1.71426   -1.000
 5717.00    1.79470   1.72101   -1.000
 5718.00    1.79442   1.72650   -1.000
 5719.00    1.80650   1.73277   -1.000
 5720.00    1.81153   1.74031   -1.000
 5721.00    1.82546   1.74814   -1.000
 5722.00    1.82967   1.75469   -1.000
 5723.00    1.83199   1.75890   -1.000
 5724.00    1.83046   1.75967   -1.000
 5725.00    1.81337   1.75501   -1.000
 5726.00    1.78643   1.74475   -1.000
 5727.00    1.76339   1.73385   65.076
 5728.00    1.78113   1.72886   -1.000
 5729.00    1.79785   1.73042   -1.000
 5730.00    1.79921   1.73307   -1.000
 5731.00    1.79229   1.73299   -1.000
 5732.00    1.79667   1.73291   -1.000
 5733.00    1.81192   1.73777   -1.000
 5734.00    1.82981   1.74713   -1.000
 5735.00    1.82749   1.75503   -1.000
 5736.00    1.82100   1.75675   -1.000
 5737.00    1.81874   1.75360   -1.000
 5738.00    1.81260   1.74982   -1.000
 5739.00    1.81078   1.74798   -1.000
 5740.00    1.81390   1.74767   -1.000
 5741.00    1.82516   1.74689   -1.000
 5742.00    1.81825   1.74539   -1.000
 5743.00    1.81259   1.74555   -1.000
 5744.00    1.81454   1.74922   -1.000
 5745.00    1.83025   1.75404   -1.000
 5746.00    1.82464   1.75477   -1.000
 5747.00    1.80225   1.74973   -1.000
 5748.00    1.80671   1.74445   -1.000
 5749.00    1.80738   1.74478   -1.000
 5750.00    1.80747   1.74806   -1.000
 5751.00    1.81142   1.74499   -1.000
 5752.00    1.78476   1.73095   -1.000
 5753.00    1.76300   1.71261   -1.000
 5754.00    1.75897   1.70303   -1.000
 5755.00    1.77129   1.71023   -1.000
 5756.00    1.80789   1.73036   -1.000
 5757.00    1.83471   1.75148   -1.000
 5758.00    1.85032   1.76311   -1.000
 5759.00    1.83464   1.76168   -1.000
 5760.00    1.81168   1.74959   -1.000
 5761.00    1.78668   1.73236   -1.000
 5762.00    1.76571   1.71754   -1.000
 5763.00    1.75997   1.71354   -1.000
 5764.00    1.77856   1.72453   -1.000
 5765.00    1.80553   1.74500   -1.000
 5766.00    1.82203   1.76374   -1.000
 5767.00    1.82555   1.77375   -1.000
 5768.00    1.82828   1.77610   -1.000
 5769.00    1.83140   1.77450   -1.000
 5770.00    1.81526   1.77113   -1.000
 5771.00    1.80720   1.76627   -1.000
 5772.00    1.79692   1.75973   64.069
 5773.00    1.79204   1.75244   -1.000
 5774.00    1.79388   1.74677   -1.000
 5775.00    1.79121   1.74491   -1.000
 5776.00    1.79543   1.74678   -1.000
 5777.00    1.79901   1.74903   -1.000
 5778.00    1.76488   1.74548   63.971
 5779.00    1.73791   1.73188   64.995
 5780.00    1.70736   1.71019   66.526
 5781.00    1.70812   1.68794   67.304
 5782.00    1.72872   1.67334   -1.000
 5783.00    1.74956   1.66927   -1.000
 5784.00    1.74725   1.67215   -1.000
 5785.00    1.75128   1.67796   -1.000
 5786.00    1.76867   1.68774   -1.000
 5787.00    1.78433   1.70317   -1.000
 5788.00    1.80874   1.71964   -1.000
 5789.00    1.81632   1.72959   -1.000
 5790.00    1.80451   1.73105   -1.000
 5791.00    1.79242   1.72914   -1.000
 5792.00    1.79247   1.73155   -1.000
 5793.00    1.79897   1.74144   -1.000
 5794.00    1.81834   1.75480   -1.000
 5795.00    1.81970   1.76477   -1.000
 5796.00    1.81124   1.76676   -1.000
 5797.00    1.80433   1.76171   -1.000
 5798.00    1.80268   1.75688   -1.000
 5799.00    1.81977   1.75978   -1.000
 5800.00    1.84796   1.77016   -1.000
 5801.00    1.86478   1.78079   -1.000
 5802.00    1.86083   1.78469   -1.000
 5803.00    1.85048   1.77969   -1.000
 5804.00    1.84042   1.76912   -1.000
 5805.00    1.81844   1.75957   -1.000
 5806.00    1.80388   1.75619   -1.000
 5807.00    1.82083   1.75902   -1.000
 5808.00    1.82648   1.76449   -1.000
 5809.00    1.83024   1.76965   -1.000
 5810.00    1.84793   1.77385   -1.000
 5811.00    1.84530   1.77689   -1.000
 5812.00    1.84758   1.77747   -1.000
 5813.00    1.84038   1.77428   -1.000
 5814.00    1.83544   1.76709   -1.000
 5815.00    1.82316   1.75770   -1.000
 5816.00    1.81891   1.75115   -1.000
 5817.00    1.81682   1.75317   -1.000
 5818.00    1.82736   1.76390   -1.000
 5819.00    1.84377   1.77648   -1.000
 5820.00    1.84457   1.78422   -1.000
 5821.00    1.84670   1.78607   -1.000
 5822.00    1.84675   1.78460   -1.000
 5823.00    1.85339   1.78246   -1.000
 5824.00    1.84928   1.78092   -1.000
 5825.00    1.85292   1.78058   -1.000
 5826.00    1.85892   1.78187   -1.000
 5827.00    1.86964   1.78451   -1.000
 5828.00    1.86571   1.78746   -1.000
 5829.00    1.86573   1.78960   -1.000
 5830.00    1.86924   1.79019   -1.000
 5831.00    1.86712   1.78931   -1.000
 5832.00    1.87036   1.78726   -1.000
 5833.00    1.86333   1.78395   -1.000
 5834.00    1.86206   1.77977   -1.000
 5835.00    1.86238   1.77684   -1.000
 5836.00    1.85496   1.77712   -1.000
 5837.00    1.86976   1.77955   -1.000
 5838.00    1.86322   1.78180   -1.000
 5839.00    1.84980   1.78399   -1.000
 5840.00    1.85375   1.78752   -1.000
 5841.00    1.87057   1.79152   -1.000
 5842.00    1.87381   1.79355   -1.000
 5843.00    1.87874   1.79228   -1.000
 5844.00    1.86864   1.78793   -1.000
 5845.00    1.85885   1.78120   -1.000
 5846.00    1.84564   1.77300   -1.000
 5847.00    1.81788   1.76553   -1.000
 5848.00    1.81481   1.76154   -1.000
 5849.00    1.82572   1.76100   -1.000
 5850.00    1.82174   1.75964   -1.000
 5851.00    1.81199   1.75291   -1.000
 5852.00    1.79874   1.74099   -1.000
 5853.00    1.76726   1.72889   64.651
 5854.00    1.76484   1.72075   -1.000
 5855.00    1.77794   1.71434   -1.000
 5856.00    1.76115   1.70339   -1.000
 5857.00    1.74057   1.68744   -1.000
 5858.00    1.73674   1.67660   -1.000
 5859.00    1.75750   1.68099   -1.000
 5860.00    1.78351   1.69802   -1.000
 5861.00    1.80160   1.71662   -1.000
 5862.00    1.79852   1.72945   -1.000
 5863.00    1.79211   1.73668   -1.000
 5864.00    1.79983   1.74036   -1.000
 5865.00    1.79187   1.73993   -1.000
 5866.00    1.78505   1.73530   -1.000
 5867.00    1.78369   1.73135   -1.000
 5868.00    1.78724   1.73422   -1.000
 5869.00    1.79925   1.74448   -1.000
 5870.00    1.82153   1.75631   -1.000
 5871.00    1.82384   1.76339   -1.000
 5872.00    1.82441   1.76414   -1.000
 5873.00    1.81597   1.76137   -1.000
 5874.00    1.81444   1.75848   -1.000
 5875.00    1.82694   1.75638   -1.000
 5876.00    1.83114   1.75388   -1.000
 5877.00    1.81710   1.74926   -1.000
 5878.00    1.80485   1.74181   -1.000
 5879.00    1.78258   1.73259   -1.000
 5880.00    1.75974   1.72391   64.454
 5881.00    1.76034   1.71756   -1.000
 5882.00    1.74630   1.71285   64.283
 5883.00    1.70809   1.70753   64.590
 5884.00    1.71510   1.70081   64.618
 5885.00    1.72090   1.69234   64.868
 5886.00    1.66995   1.67540   65.724
 5887.00    1.53805   1.63498   -1.000
 5888.00    1.30630   1.56217   -1.000
 5889.00    1.09362   1.47365   -1.000
 5890.00    1.11146   1.41002   -1.000
 5891.00    1.32205   1.40232   -1.000
 5892.00    1.51497   1.43923   -1.000
 5893.00    1.52327   1.47751   -1.000
 5894.00    1.38899   1.48510   -1.000
 5895.00    1.28497   1.46490   -1.000
 5896.00    1.32161   1.44708   -1.000
 5897.00    1.47575   1.46088   72.186
 5898.00    1.62747   1.50793   -1.000
 5899.00    1.70880   1.56539   -1.000
 5900.00    1.74071   1.61400   -1.000
 5901.00    1.75999   1.65084   -1.000
 5902.00    1.77438   1.67769   -1.000
 5903.00    1.78928   1.69483   -1.000
 5904.00    1.78478   1.70405   -1.000
 5905.00    1.77716   1.70892   -1.000
 5906.00    1.77912   1.71285   -1.000
 5907.00    1.77945   1.71762   -1.000
 5908.00    1.78634   1.72294   -1.000
 5909.00    1.79554   1.72767   -1.000
 5910.00    1.79506   1.73088   -1.000
 5911.00    1.78319   1.73107   -1.000
 5912.00    1.77753   1.72576   -1.000
 5913.00    1.76029   1.71413   -1.000
 5914.00    1.73145   1.70000   66.639
 5915.00    1.72987   1.69041   -1.000
 5916.00    1.74004   1.68987   -1.000
 5917.00    1.74944   1.69758   -1.000
 5918.00    1.75657   1.70949   -1.000
 5919.00    1.75744   1.72070   -1.000
 5920.00    1.76562   1.72756   -1.000
 5921.00    1.77284   1.72967   -1.000
 5922.00    1.77435   1.72949   -1.000
 5923.00    1.77982   1.72999   -1.000
 5924.00    1.78240   1.73284   -1.000
 5925.00    1.79552   1.73749   -1.000
 5926.00    1.79772   1.74152   -1.000
 5927.00    1.79231   1.74148   -1.000
 5928.00    1.77056   1.73535   -1.000
 5929.00    1.75307   1.72568   65.780
 5930.00    1.75800   1.71923   -1.000
 5931.00    1.76595   1.72068   -1.000
 5932.00    1.76885   1.72677   -1.000
 5933.00    1.77497   1.73002   -1.000
 5934.00    1.76951   1.72828   -1.000
 5935.00    1.76268   1.72691   65.747
 5936.00    1.76229   1.73079   65.261
 5937.00    1.78328   1.73847   -1.000
 5938.00    1.78619   1.74427   -1.000
 5939.00    1.78459   1.74377   -1.000
 5940.00    1.76419   1.73696   65.529
 5941.00    1.73691   1.72799   65.831
 5942.00    1.75210   1.72256   65.736
 5943.00    1.76748   1.72396   -1.000
 5944.00    1.77607   1.73055   -1.000
 5945.00    1.77101   1.73738   -1.000
 5946.00    1.77861   1.73957   -1.000
 5947.00    1.77328   1.73528   -1.000
 5948.00    1.75511   1.72753   66.279
 5949.00    1.74527   1.72246   66.340
 5950.00    1.75285   1.72282   65.944
 5951.00    1.76067   1.72469   -1.000
 5952.00    1.75122   1.72355   65.952
 5953.00    1.73837   1.72083   65.852
 5954.00    1.74775   1.72045   65.727
 5955.00    1.75594   1.72151   -1.000
 5956.00    1.75475   1.72069   66.071
 5957.00    1.73702   1.71929   66.131
 5958.00    1.74540   1.72199   65.827
 5959.00    1.77635   1.73054   -1.000
 5960.00    1.78948   1.74182   -1.000
 5961.00    1.79784   1.75125   -1.000
 5962.00    1.79967   1.75637   -1.000
 5963.00    1.79982   1.75695   -1.000
 5964.00    1.79157   1.75376   -1.000
 5965.00    1.76893   1.74863   64.903
 5966.00    1.76793   1.74470   65.148
 5967.00    1.77131   1.74460   64.935
 5968.00    1.78752   1.74811   -1.000
 5969.00    1.80453   1.75303   -1.000
 5970.00    1.79791   1.75785   -1.000
 5971.00    1.79934   1.76166   -1.000
 5972.00    1.80593   1.76302   -1.000
 5973.00    1.79450   1.76065   -1.000
 5974.00    1.77968   1.75364   65.015
 5975.00    1.76389   1.74219   65.506
 5976.00    1.74131   1.72955   65.969
 5977.00    1.74523   1.72156   66.239
 5978.00    1.76007   1.72230   -1.000
 5979.00    1.76662   1.73068   -1.000
 5980.00    1.77382   1.74092   65.069
 5981.00    1.77367   1.74579   65.278
 5982.00    1.77281   1.74090   65.863
 5983.00    1.75926   1.72818   66.441
 5984.00    1.74378   1.71554   66.730
 5985.00    1.74425   1.71112   66.411
 5986.00    1.76865   1.71665   -1.000
 5987.00    1.78214   1.72719   -1.000
 5988.00    1.79194   1.73701   -1.000
 5989.00    1.79043   1.74353   -1.000
 5990.00    1.78974   1.74646   -1.000
 5991.00    1.80052   1.74760   -1.000
 5992.00    1.79110   1.75087   -1.000
 5993.00    1.80381   1.75814   -1.000
 5994.00    1.81004   1.76524   -1.000
 5995.00    1.79849   1.76609   64.550
 5996.00    1.79610   1.75991   -1.000
 5997.00    1.78551   1.75152   65.247
 5998.00    1.78445   1.74636   -1.000
 5999.00    1.78920   1.74629   -1.000
 6000.00    1.78744   1.74837   -1.000
 6001.00    1.78380   1.74812   -1.000
 6002.00    1.77885   1.74403   -1.000
 6003.00    1.76967   1.73907   65.873
 6004.00    1.76938   1.73668   65.673
 6005.00    1.77167   1.73530   -1.000
 6006.00    1.76813   1.72957   -1.000
 6007.00    1.74159   1.71904   66.981
 6008.00    1.72931   1.71150   66.867
 6009.00    1.74309   1.71481   66.002
 6010.00    1.76897   1.72707   -1.000
 6011.00    1.77141   1.73791   -1.000
 6012.00    1.77185   1.74008   66.039
 6013.00    1.76888   1.73612   66.351
 6014.00    1.75455   1.73204   65.924
 6015.00    1.76035   1.73014   65.982
 6016.00    1.76180   1.72922   66.306
 6017.00    1.75167   1.72790   66.406
 6018.00    1.75646   1.72556   66.192
 6019.00    1.74720   1.72123   66.460
 6020.00    1.74167   1.71543   66.908
 6021.00    1.74369   1.71170   66.545
 6022.00    1.75327   1.71292   -1.000
 6023.00    1.74719   1.71822   65.986
 6024.00    1.75054   1.72585   65.902
 6025.00    1.76143   1.73550   65.457
 6026.00    1.77407   1.74591   65.303
 6027.00    1.77310   1.75477   64.847
 6028.00    1.78044   1.76197   64.592
 6029.00    1.78819   1.76850   64.527
 6030.00    1.78646   1.77369   64.556
 6031.00    1.78754   1.77709   64.727
 6032.00    1.79219   1.77992   64.565
 6033.00    1.80155   1.78296   64.258
 6034.00    1.79856   1.78567   64.117
 6035.00    1.79896   1.78725   64.105
 6036.00    1.80269   1.78727   63.968
 6037.00    1.80069   1.78535   64.071
 6038.00    1.79535   1.78140   64.479
 6039.00    1.78979   1.77611   64.565
 6040.00    1.78698   1.77134   64.790
 6041.00    1.77554   1.76893   64.595
 6042.00    1.78292   1.76939   64.526
 6043.00    1.79197   1.77273   64.153
 6044.00    1.79020   1.77883   63.621
 6045.00    1.80475   1.78582   63.743
 6046.00    1.80667   1.79124   63.740
 6047.00    1.80452   1.79483   63.620
 6048.00    1.80263   1.79748   63.711
 6049.00    1.80093   1.79907   63.955
 6050.00    1.80782   1.79902   64.082
 6051.00    1.80637   1.79710   64.130
 6052.00    1.80961   1.79311   64.265
 6053.00    1.79525   1.78702   64.548
 6054.00    1.77818   1.77936   64.731
 6055.00    1.77791   1.77175   65.120
 6056.00    1.78028   1.76677   65.287
 6057.00    1.78601   1.76661   65.136
 6058.00    1.77877   1.77106   64.761
 6059.00    1.78566   1.77741   64.436
 6060.00    1.79174   1.78225   64.571
 6061.00    1.79021   1.78255   64.718
 6062.00    1.77903   1.77590   65.765
 6063.00    1.73803   1.76203   67.088
 6064.00    1.72362   1.74519   64.363
 6065.00    1.68000   1.73415   -1.000
 6066.00    1.19130   1.73677   -1.000
 6067.00    0.89420   1.75248   -1.000
 6068.00    1.67107   1.77254   -1.000
 6069.00    1.81934   1.78848   -1.000
 6070.00    1.82940   1.79772   -1.000
 6071.00    1.82972   1.80153   62.056
 6072.00    1.89065   1.80170   -1.000
 6073.00    1.81194   1.80052   63.955
 6074.00    1.79864   1.79998   63.994
 6075.00    1.80140   1.79858   64.236
 6076.00    1.78790   1.79271   64.583
 6077.00    1.77431   1.78241   64.955
 6078.00    1.76663   1.77173   65.481
 6079.00    1.76559   1.76431   65.862
 6080.00    1.76193   1.75995   65.851
 6081.00    1.76922   1.75618   65.922
 6082.00    1.74718   1.75258   66.128
 6083.00    1.74405   1.75063   66.094
 6084.00    1.74183   1.75076   66.044
 6085.00    1.74162   1.75259   65.971
 6086.00    1.75296   1.75626   65.763
 6087.00    1.76451   1.76092   65.489
 6088.00    1.76184   1.76356   65.673
 6089.00    1.75360   1.76170   66.102
 6090.00    1.74546   1.75660   66.361
 6091.00    1.72391   1.75237   66.289
 6092.00    1.73379   1.75242   65.815
 6093.00    1.75427   1.75733   65.507
 6094.00    1.77198   1.76506   65.126
 6095.00    1.77833   1.77258   64.857
 6096.00    1.77431   1.77801   64.919
 6097.00    1.76797   1.78154   65.095
 6098.00    1.76821   1.78324   65.119
 6099.00    1.75954   1.78002   65.121
 6100.00    1.76251   1.76624   66.006
 6101.00    1.73535   1.74008   67.730
 6102.00    1.69437   1.71068   68.727
 6103.00    1.67661   1.69475   68.039
 6104.00    1.70818   1.70140   66.659
 6105.00    1.74825   1.72310   65.700
 6106.00    1.75582   1.74516   65.565
 6107.00    1.74910   1.75990   65.865
 6108.00    1.74219   1.76864   66.008
 6109.00    1.74729   1.77462   65.959
 6110.00    1.75361   1.77835   65.804
 6111.00    1.75458   1.77962   65.496
 6112.00    1.75918   1.78052   65.522
 6113.00    1.75634   1.78312   65.123
 6114.00    1.75597   1.78646   64.998
 6115.00    1.75677   1.78793   65.298
 6116.00    1.75352   1.78674   65.749
 6117.00    1.75366   1.78353   65.793
 6118.00    1.75133   1.77645   66.150
 6119.00    1.73970   1.76161   67.192
 6120.00    1.71349   1.73840   68.039
 6121.00    1.67639   1.71262   68.661
 6122.00    1.66083   1.69505   68.644
 6123.00    1.68631   1.69421   67.391
 6124.00    1.71774   1.70808   66.573
 6125.00    1.72646   1.72615   66.651
 6126.00    1.72259   1.73972   67.080
 6127.00    1.71609   1.74730   66.928
 6128.00    1.71710   1.75259   66.784
 6129.00    1.72259   1.75994   66.185
 6130.00    1.73586   1.77038   65.556
 6131.00    1.74550   1.78101   65.483
 6132.00    1.74282   1.78706   65.633
 6133.00    1.74331   1.78300   66.318
 6134.00    1.70970   1.76315   67.929
 6135.00    1.66060   1.72706   -1.000
 6136.00    1.62102   1.68657   -1.000
 6137.00    1.60079   1.66230   -1.000
 6138.00    1.62271   1.66627   69.704
 6139.00    1.66908   1.68963   67.730
 6140.00    1.69546   1.71265   67.128
 6141.00    1.69016   1.72573   67.335
 6142.00    1.67614   1.73486   -1.000
 6143.00    1.69009   1.74790   -1.000
 6144.00    1.72056   1.76309   65.848
 6145.00    1.73281   1.77343   65.838
 6146.00    1.72889   1.77570   66.181
 6147.00    1.71442   1.77173   -1.000
 6148.00    1.71033   1.76472   -1.000
 6149.00    1.70304   1.75735   -1.000
 6150.00    1.69052   1.75208   -1.000
 6151.00    1.69460   1.75105   -1.000
 6152.00    1.72263   1.75375   66.667
 6153.00    1.72212   1.75594   66.640
 6154.00    1.71318   1.75368   67.286
 6155.00    1.70310   1.74808   67.590
 6156.00    1.69839   1.74320   67.605
 6157.00    1.69663   1.73978   67.924
 6158.00    1.68135   1.73269   68.700
 6159.00    1.66626   1.71351   70.085
 6160.00    1.62431   1.67766   -1.000
 6161.00    1.57461   1.63278   -1.000
 6162.00    1.53728   1.59738   -1.000
 6163.00    1.54122   1.58733   73.601
 6164.00    1.57597   1.60286   71.468
 6165.00    1.60601   1.63036   70.504
 6166.00    1.62668   1.65399   70.284
 6167.00    1.62606   1.66392   70.521
 6168.00    1.60288   1.65909   71.537
 6169.00    1.59616   1.64882   72.218
 6170.00    1.59087   1.64752   -1.000
 6171.00    1.61889   1.66126   70.043
 6172.00    1.64039   1.68280   69.131
 6173.00    1.64219   1.70193   69.327
 6174.00    1.64357   1.71466   -1.000
 6175.00    1.63947   1.72189   -1.000
 6176.00    1.64482   1.72595   -1.000
 6177.00    1.65055   1.72944   -1.000
 6178.00    1.65865   1.73362   -1.000
 6179.00    1.67472   1.73797   -1.000
 6180.00    1.67952   1.74256   -1.000
 6181.00    1.67788   1.74843   -1.000
 6182.00    1.68561   1.75466   -1.000
 6183.00    1.68879   1.75808   -1.000
 6184.00    1.67872   1.75642   -1.000
 6185.00    1.66740   1.74962   -1.000
 6186.00    1.63639   1.73918   -1.000
 6187.00    1.62706   1.72737   -1.000
 6188.00    1.62740   1.71499   -1.000
 6189.00    1.61428   1.70008   -1.000
 6190.00    1.60635   1.68254   -1.000
 6191.00    1.58064   1.66969   -1.000
 6192.00    1.58795   1.67141   -1.000
 6193.00    1.60894   1.68848   -1.000
 6194.00    1.63830   1.71130   -1.000
 6195.00    1.65956   1.73003   -1.000
 6196.00    1.66246   1.74052   -1.000
 6197.00    1.65798   1.74204   -1.000
 6198.00    1.64484   1.73556   -1.000
 6199.00    1.62196   1.72567   -1.000
 6200.00    1.61147   1.72006   -1.000
 6201.00    1.61988   1.72351   -1.000
 6202.00    1.62755   1.73387   -1.000
 6203.00    1.64625   1.74541   -1.000
 6204.00    1.65071   1.75410   -1.000
 6205.00    1.66175   1.75941   -1.000
 6206.00    1.67948   1.76274   -1.000
 6207.00    1.67634   1.76502   -1.000
 6208.00    1.67394   1.76544   -1.000
 6209.00    1.67821   1.76218   -1.000
 6210.00    1.66526   1.75373   -1.000
 6211.00    1.64060   1.73934   -1.000
 6212.00    1.62375   1.71976   -1.000
 6213.00    1.60345   1.69921   -1.000
 6214.00    1.59455   1.68421   -1.000
 6215.00    1.59922   1.67859   -1.000
 6216.00    1.60498   1.68011   -1.000
 6217.00    1.61303   1.68261   -1.000
 6218.00    1.61879   1.68162   -1.000
 6219.00    1.61430   1.67841   -1.000
 6220.00    1.60820   1.67831   -1.000
 6221.00    1.62081   1.68433   -1.000
 6222.00    1.63460   1.69367   -1.000
 6223.00    1.62918   1.70160   -1.000
 6224.00    1.62598   1.70648   -1.000
 6225.00    1.63181   1.70894   -1.000
 6226.00    1.64027   1.70862   -1.000
 6227.00    1.63785   1.70272   -1.000
 6228.00    1.62747   1.68801   -1.000
 6229.00    1.60241   1.66576   -1.000
 6230.00    1.57201   1.64454   -1.000
 6231.00    1.56659   1.63545   -1.000
 6232.00    1.56879   1.64335   -1.000
 6233.00    1.59541   1.66383   -1.000
 6234.00    1.61461   1.68722   -1.000
 6235.00    1.62036   1.70439   -1.000
 6236.00    1.62490   1.71054   -1.000
 6237.00    1.62024   1.70640   -1.000
 6238.00    1.60526   1.69658   -1.000
 6239.00    1.59670   1.68608   -1.000
 6240.00    1.58165   1.67769   -1.000
 6241.00    1.57622   1.67109   -1.000
 6242.00    1.57574   1.66398   -1.000
 6243.00    1.57413   1.65534   -1.000
 6244.00    1.56118   1.64735   -1.000
 6245.00    1.56690   1.64402   -1.000
 6246.00    1.57910   1.64913   -1.000
 6247.00    1.59313   1.66347   -1.000
 6248.00    1.60790   1.68197   -1.000
 6249.00    1.62342   1.69530   -1.000
 6250.00    1.61924   1.69583   -1.000
 6251.00    1.59312   1.68271   -1.000
 6252.00    1.56632   1.66282   -1.000
 6253.00    1.55463   1.64576   -1.000
 6254.00    1.54652   1.63654   -1.000
 6255.00    1.54980   1.63310   -1.000
 6256.00    1.54135   1.63088   -1.000
 6257.00    1.52028   1.62880   -1.000
 6258.00    1.52019   1.63037   -1.000
 6259.00    1.54499   1.63930   -1.000
 6260.00    1.56378   1.65532   -1.000
 6261.00    1.58930   1.67459   -1.000
 6262.00    1.61195   1.69210   -1.000
 6263.00    1.61688   1.70342   -1.000
 6264.00    1.62427   1.70749   -1.000
 6265.00    1.60836   1.70826   -1.000
 6266.00    1.60716   1.71058   -1.000
 6267.00    1.61605   1.71463   -1.000
 6268.00    1.61398   1.71677   -1.000
 6269.00    1.60681   1.71548   -1.000
 6270.00    1.61050   1.71366   -1.000
 6271.00    1.62181   1.71444   -1.000
 6272.00    1.62079   1.71689   -1.000
 6273.00    1.61123   1.71665   -1.000
 6274.00    1.60446   1.71016   -1.000
 6275.00    1.57958   1.69749   -1.000
 6276.00    1.55990   1.68147   -1.000
 6277.00    1.54468   1.66526   -1.000
 6278.00    1.52008   1.65128   -1.000
 6279.00    1.51294   1.64178   -1.000
 6280.00    1.49806   1.63979   -1.000
 6281.00    1.48702   1.64751   -1.000
 6282.00    1.50263   1.66362   -1.000
 6283.00    1.51847   1.68354   -1.000
 6284.00    1.54265   1.70211   -1.000
 6285.00    1.56963   1.71636   -1.000
 6286.00    1.58908   1.72604   -1.000
 6287.00    1.61062   1.73174   -1.000
 6288.00    1.63157   1.73308   -1.000
 6289.00    1.63278   1.72948   -1.000
 6290.00    1.62778   1.72243   -1.000
 6291.00    1.62052   1.71533   -1.000
 6292.00    1.61697   1.71067   -1.000
 6293.00    1.61219   1.70844   -1.000
 6294.00    1.61157   1.70622   -1.000
 6295.00    1.60901   1.70097   -1.000
 6296.00    1.59353   1.69215   -1.000
 6297.00    1.57063   1.68314   -1.000
 6298.00    1.57035   1.67761   -1.000
 6299.00    1.57942   1.67497   -1.000
 6300.00    1.59405   1.67170   -1.000
 6301.00    1.58818   1.66779   -1.000
 6302.00    1.59006   1.66852   -1.000
 6303.00    1.60680   1.67815   -1.000
 6304.00    1.62616   1.69442   -1.000
 6305.00    1.63823   1.71145   -1.000
 6306.00    1.64264   1.72528   -1.000
 6307.00    1.64737   1.73453   -1.000
 6308.00    1.66411   1.73866   -1.000
 6309.00    1.66315   1.73829   -1.000
 6310.00    1.65041   1.73525   -1.000
 6311.00    1.64107   1.73116   -1.000
 6312.00    1.64012   1.72607   -1.000
 6313.00    1.64176   1.71880   -1.000
 6314.00    1.63137   1.70919   -1.000
 6315.00    1.62239   1.69949   -1.000
 6316.00    1.61672   1.69209   -1.000
 6317.00    1.61371   1.68787   -1.000
 6318.00    1.60097   1.68836   -1.000
 6319.00    1.61607   1.69557   -1.000
 6320.00    1.63900   1.70785   -1.000
 6321.00    1.65190   1.72027   -1.000
 6322.00    1.64928   1.73039   -1.000
 6323.00    1.65468   1.73965   -1.000
 6324.00    1.67488   1.74869   -1.000
 6325.00    1.68702   1.75559   -1.000
 6326.00    1.68565   1.75881   -1.000
 6327.00    1.68073   1.75912   -1.000
 6328.00    1.68107   1.75851   -1.000
 6329.00    1.68020   1.75846   -1.000
 6330.00    1.68883   1.75983   -1.000
 6331.00    1.69340   1.76249   -1.000
 6332.00    1.70098   1.76333   -1.000
 6333.00    1.68989   1.75731   -1.000
 6334.00    1.67262   1.74288   -1.000
 6335.00    1.70654   1.72548   71.148
 6336.00    1.65543   1.71405   -1.000
 6337.00    1.65419   1.71389   -1.000
 6338.00    1.68065   1.72350   69.749
 6339.00    1.68643   1.73767   68.974
 6340.00    1.70138   1.75097   68.683
 6341.00    1.71209   1.75875   68.340
 6342.00    1.70163   1.75890   68.435
 6343.00    1.68647   1.75414   -1.000
 6344.00    1.69138   1.75046   -1.000
 6345.00    1.69212   1.75217   -1.000
 6346.00    1.69215   1.75932   -1.000
 6347.00    1.71010   1.76928   -1.000
 6348.00    1.71500   1.77928   -1.000
 6349.00    1.71185   1.78708   -1.000
 6350.00    1.71713   1.79112   -1.000
 6351.00    1.71601   1.79062   -1.000
 6352.00    1.70287   1.78523   -1.000
 6353.00    1.69543   1.77551   -1.000
 6354.00    1.67861   1.76411   -1.000
 6355.00    1.66738   1.75460   -1.000
 6356.00    1.66630   1.74770   -1.000
 6357.00    1.66002   1.74083   -1.000
 6358.00    1.64400   1.73276   -1.000
 6359.00    1.62983   1.72533   -1.000
 6360.00    1.63111   1.71990   -1.000
 6361.00    1.64651   1.71608   -1.000
 6362.00    1.64209   1.71425   -1.000
 6363.00    1.64641   1.71607   -1.000
 6364.00    1.65464   1.72222   -1.000
 6365.00    1.66544   1.73169   -1.000
 6366.00    1.67934   1.74262   -1.000
 6367.00    1.69062   1.75280   -1.000
 6368.00    1.70217   1.76011   68.061
 6369.00    1.70644   1.76394   67.912
 6370.00    1.70700   1.76630   67.980
 6371.00    1.71927   1.76991   67.721
 6372.00    1.72769   1.77540   67.452
 6373.00    1.72158   1.78085   67.674
 6374.00    1.71610   1.78381   -1.000
 6375.00    1.71915   1.78325   -1.000
 6376.00    1.71528   1.77968   -1.000
 6377.00    1.71071   1.77434   -1.000
 6378.00    1.69371   1.76848   -1.000
 6379.00    1.67548   1.76292   -1.000
 6380.00    1.67842   1.75818   -1.000
 6381.00    1.68657   1.75495   -1.000
 6382.00    1.68378   1.75371   -1.000
 6383.00    1.67965   1.75421   -1.000
 6384.00    1.67466   1.75622   -1.000
 6385.00    1.66638   1.75976   -1.000
 6386.00    1.66255   1.76389   -1.000
 6387.00    1.66299   1.76684   -1.000
 6388.00    1.66180   1.76756   -1.000
 6389.00    1.65402   1.76565   -1.000
 6390.00    1.64287   1.75970   -1.000
 6391.00    1.62814   1.74826   -1.000
 6392.00    1.60452   1.73395   -1.000
 6393.00    1.58160   1.72451   -1.000
 6394.00    1.57924   1.72681   -1.000
 6395.00    1.59609   1.73942   -1.000
 6396.00    1.61062   1.75256   -1.000
 6397.00    1.60307   1.75571   -1.000
 6398.00    1.57795   1.74552   -1.000
 6399.00    1.54928   1.72929   -1.000
 6400.00    1.53570   1.72053   -1.000
 6401.00    1.53307   1.72761   -1.000
 6402.00    1.55312   1.74693   -1.000
 6403.00    1.58069   1.76750   -1.000
 6404.00    1.57786   1.77998   -1.000
 6405.00    1.56423   1.78100   -1.000
 6406.00    1.55693   1.77307   -1.000
 6407.00    1.53786   1.76292   -1.000
 6408.00    1.51315   1.75677   -1.000
 6409.00    1.50992   1.75531   -1.000
 6410.00    1.50845   1.75475   -1.000
 6411.00    1.49875   1.75354   -1.000
 6412.00    1.47804   1.75408   -1.000
 6413.00    1.46102   1.75782   -1.000
 6414.00    1.46267   1.76302   -1.000
 6415.00    1.45521   1.76730   -1.000
 6416.00    1.44644   1.76910   -1.000
 6417.00    1.43503   1.76680   -1.000
 6418.00    1.41941   1.75888   -1.000
 6419.00    1.39449   1.74666   -1.000
 6420.00    1.36102   1.73610   -1.000
 6421.00    1.35002   1.73479   -1.000
 6422.00    1.35201   1.74554   -1.000
 6423.00    1.35684   1.76317   -1.000
 6424.00    1.36752   1.77967   -1.000
 6425.00    1.35429   1.79117   -1.000
 6426.00    1.33915   1.79722   -1.000
 6427.00    1.33352   1.79648   -1.000
 6428.00    1.31473   1.78681   -1.000
