###################################################################
## OUTPUT of StarlightChains_v04.for    [Cid@UFSC - 01/Apr/2007] ##
###################################################################

## Some input info
NGC6362_a_1.cxt                          [arq_obs]
Base.BC03.S                              [arq_base]
NGC6362_a_1.msk                          [arq_masks]
StCv04.C99.config                        [arq_config]
  150                                    [N_base]
    0                                    [N_YAV_components = # of components with extra extinction!]
    0                                    [i_FitPowerLaw (1/0 = Yes/No)]
-9.99                                    [alpha_PowerLaw]
CCM                                      [red_law_option]
 1.458241                                [q_norm = A(l_norm)/A(V)]

## (Re)Sampling Parameters
 3359.00                                 [l_ini (A)]
 6428.00                                 [l_fin (A)]
    1.00                                 [dl    (A)]     (OBS: dl_cushion =    50.00 A)

## Normalization info
 4020.00                                 [l_norm (A) - for base]
 4010.00                                 [llow_norm (A) - window for f_obs]
 4060.00                                 [lupp_norm (A) - window for f_obs]
1.238399E-14                             [fobs_norm (in input units)]

## S/N
 4730.00                                 [llow_SN (A) - window for S/N]
 4780.00                                 [lupp_SN (A) - window for S/N]
  69.165                                 [S/N in S/N window]
  59.492                                 [S/N in norm. window]
  54.471                                 [S/N_err in S/N window]
  46.853                                 [S/N_err in norm. window]
  1.0000                                 [fscale_chi2]

## etc...
  2147483611                             [idum_orig]
  3058                                   [NOl_eff]
  2477                                   [Nl_eff]
   581    NSIGMA                         [Ntot_cliped & clip_method]
  2216970                                [Nglobal_steps]
   7                                     [N_chains]
  15                                     [NEX0s_base = N_base in EX0s-fits]
 0   0   1      376   2.0   8.436E+02    [Clip-Bug, RC-Crash & Burn-In warning-flags, n_censored_weights, wei_nsig_threshold & wei_limit]
    91     90.918     90.906      0.012  [idt_all, wdt_TotTime, wdt_UsrTime & wdt_SysTime (sec)]

## Synthesis Results - Best model ##

 1.38035E+00                             [chi2/Nl_eff]
     1.66164                             [adev (%)]

   101.19983                             [sum-of-x (%)]
 1.80639E-14                             [Flux_tot (units of input spectrum!)]
 3.52745E-10                             [Mini_tot (???)]
 1.79450E-10                             [Mcor_tot (???)]

 -12.87                                  [v0_min  (km/s)]
  68.49                                  [vd_min  (km/s)]
 0.2722                                  [AV_min  (mag)]
 0.0000                                  [YAV_min (mag)]

# j     x_j(%)      Mini_j(%)     Mcor_j(%)     age_j(yr)     Z_j      (L/M)_j    YAV?  Mstars   component_j        a/Fe...       SSP_chi2r SSP_adev(%)   SSP_AV   SSP_x(%)
  1      0.0000     0.0000E+00    0.0000E+00    1.000000E+06  0.00010  8.160E-03    0   1.0000   age020_m22            0.0000     1.8129E+02    11.6437   4.0000    72.5276
  2     17.4025     1.8504E-02    3.6373E-02    3.160000E+06  0.00010  4.759E-02    0   1.0000   age045_m22            0.0000     3.7489E+01     5.1692   1.8979    93.8838
  3      0.0000     0.0000E+00    0.0000E+00    5.010000E+06  0.00010  1.932E-02    0   0.9582   age055_m22            0.0000     1.3644E+02    11.7945   2.3186    78.0380
  4      0.0000     0.0000E+00    0.0000E+00    6.610000E+06  0.00010  9.973E-03    0   0.9297   age061_m22            0.0000     1.6661E+02    12.0116   3.9726    74.9948
  5      0.0000     0.0000E+00    0.0000E+00    8.710000E+06  0.00010  7.690E-03    0   0.9030   age067_m22            0.0000     1.5757E+02    11.7012   3.9593    75.5330
  6      0.0000     0.0000E+00    0.0000E+00    1.000000E+07  0.00010  6.375E-03    0   0.8902   age070_m22            0.0000     1.5212E+02    11.4279   3.9675    75.8342
  7      0.0000     0.0000E+00    0.0000E+00    1.445000E+07  0.00010  4.874E-03    0   0.8589   age078_m22            0.0000     1.0452E+02    10.0236   3.7679    79.0611
  8      0.0000     0.0000E+00    0.0000E+00    2.512000E+07  0.00010  4.103E-03    0   0.8174   age090_m22            0.0000     4.8448E+01     7.1330   3.3112    86.3982
  9      0.0000     0.0000E+00    0.0000E+00    4.000000E+07  0.00010  3.654E-03    0   0.7830   age104_m22            0.0000     8.7543E+01     5.4830   2.9681    91.9093
 10      0.0000     0.0000E+00    0.0000E+00    5.500000E+07  0.00010  3.093E-03    0   0.7597   age110_m22            0.0000     1.1180E+02     5.0466   2.8403    94.2878
 11      0.0000     0.0000E+00    0.0000E+00    1.015200E+08  0.00010  2.431E-03    0   0.7138   age116_m22            0.0000     1.8055E+02     5.1505   2.4634    97.9798
 12      0.0000     0.0000E+00    0.0000E+00    1.609000E+08  0.00010  1.319E-03    0   0.6775   age120_m22            0.0000     1.7372E+02     5.0787   1.9535   101.7408
 13      0.0000     0.0000E+00    0.0000E+00    2.861200E+08  0.00010  1.075E-03    0   0.6412   age125_m22            0.0000     4.1692E+02     7.6708   1.8883   109.7603
 14      0.0000     0.0000E+00    0.0000E+00    5.088000E+08  0.00010  7.183E-04    0   0.6083   age130_m22            0.0000     4.7734E+02     8.9888   1.5905   114.3132
 15      0.0000     0.0000E+00    0.0000E+00    9.047900E+08  0.00010  4.524E-04    0   0.5785   age135_m22            0.0000     4.7162E+02     9.3413   1.3703   116.5194
 16      0.0000     0.0000E+00    0.0000E+00    1.278050E+09  0.00010  3.018E-04    0   0.5588   age138_m22            0.0000     2.2818E+02     6.6064   0.9290   111.6457
 17      0.0000     0.0000E+00    0.0000E+00    1.434000E+09  0.00010  2.691E-04    0   0.5532   age139_m22            0.0000     1.8390E+02     6.0671   0.7879   110.6698
 18      0.0000     0.0000E+00    0.0000E+00    2.500000E+09  0.00010  1.582E-04    0   0.5296   age150_m22            0.0000     1.6057E+02     5.5822   0.7029   110.3309
 19      0.0000     0.0000E+00    0.0000E+00    4.250000E+09  0.00010  1.007E-04    0   0.5110   age158_m22            0.0000     8.8759E+01     4.3742   0.5928   107.1974
 20      0.0000     0.0000E+00    0.0000E+00    6.250000E+09  0.00010  6.869E-05    0   0.4985   age166_m22            0.0000     3.9573E+01     3.3373   0.5764   103.0473
 21      0.0000     0.0000E+00    0.0000E+00    7.500000E+09  0.00010  5.873E-05    0   0.4931   age171_m22            0.0000     3.4678E+01     3.3244   0.5769   102.0066
 22      0.0000     0.0000E+00    0.0000E+00    1.000000E+10  0.00010  4.481E-05    0   0.4854   age181_m22            0.0000     3.2347E+01     3.2596   0.5380   101.7003
 23      0.1495     2.1687E-01    2.0424E-01    1.300000E+10  0.00010  3.489E-05    0   0.4791   age193_m22            0.0000     2.7599E+01     3.0899   0.4827   101.1963
 24      0.1975     3.2931E-01    3.0852E-01    1.500000E+10  0.00010  3.035E-05    0   0.4766   age201_m22            0.0000     2.5197E+01     3.0169   0.4454   100.9482
 25      0.0000     0.0000E+00    0.0000E+00    1.800000E+10  0.00010  2.510E-05    0   0.4735   age213_m22            0.0000     1.9802E+01     2.8561   0.3831   100.1665
 26      0.0000     0.0000E+00    0.0000E+00    1.000000E+06  0.00040  8.458E-03    0   1.0000   age020_m32            0.0000     1.7885E+02    11.4732   4.0000    73.1992
 27      0.0000     0.0000E+00    0.0000E+00    3.160000E+06  0.00040  3.973E-02    0   1.0000   age045_m32            0.0000     5.0495E+01     7.5842   3.2195    85.9601
 28      0.0000     0.0000E+00    0.0000E+00    5.010000E+06  0.00040  1.935E-02    0   0.9532   age055_m32            0.0000     1.0496E+02    10.8858   3.5071    78.7444
 29      0.0000     0.0000E+00    0.0000E+00    6.610000E+06  0.00040  1.204E-02    0   0.9243   age061_m32            0.0000     1.2920E+02    11.1178   3.8205    77.1132
 30      0.0000     0.0000E+00    0.0000E+00    8.710000E+06  0.00040  9.433E-03    0   0.9001   age067_m32            0.0000     1.1300E+02    10.5970   3.7849    78.1784
 31      0.0000     0.0000E+00    0.0000E+00    1.000000E+07  0.00040  8.053E-03    0   0.8877   age070_m32            0.0000     1.0699E+02    10.3695   3.7451    78.7061
 32      0.0000     0.0000E+00    0.0000E+00    1.445000E+07  0.00040  7.027E-03    0   0.8578   age078_m32            0.0000     5.8134E+01     8.6237   3.1982    84.0912
 33      0.0000     0.0000E+00    0.0000E+00    2.512000E+07  0.00040  4.707E-03    0   0.8166   age090_m32            0.0000     4.9086E+01     6.9710   2.8654    88.8985
 34      0.0000     0.0000E+00    0.0000E+00    4.000000E+07  0.00040  3.714E-03    0   0.7827   age104_m32            0.0000     7.7805E+01     5.6307   2.6246    93.1245
 35      0.0000     0.0000E+00    0.0000E+00    5.500000E+07  0.00040  2.982E-03    0   0.7593   age110_m32            0.0000     1.0115E+02     5.2450   2.5419    94.9434
 36      0.0000     0.0000E+00    0.0000E+00    1.015200E+08  0.00040  2.188E-03    0   0.7143   age116_m32            0.0000     2.4999E+02     5.5301   2.1870   102.1018
 37      0.0000     0.0000E+00    0.0000E+00    1.609000E+08  0.00040  1.690E-03    0   0.6856   age120_m32            0.0000     3.6731E+02     6.6067   1.9262   106.5278
 38      0.0000     0.0000E+00    0.0000E+00    2.861200E+08  0.00040  1.152E-03    0   0.6509   age125_m32            0.0000     4.2847E+02     8.0811   1.6133   112.1042
 39      0.0000     0.0000E+00    0.0000E+00    5.088000E+08  0.00040  7.331E-04    0   0.6182   age130_m32            0.0000     4.4563E+02     8.8234   1.4095   114.5663
 40      0.0000     0.0000E+00    0.0000E+00    9.047900E+08  0.00040  3.960E-04    0   0.5890   age135_m32            0.0000     2.2063E+02     7.0031   0.9962   112.0417
 41      0.0000     0.0000E+00    0.0000E+00    1.278050E+09  0.00040  2.854E-04    0   0.5687   age138_m32            0.0000     1.8391E+02     5.9878   0.7509   111.9926
 42      0.0000     0.0000E+00    0.0000E+00    1.434000E+09  0.00040  2.531E-04    0   0.5632   age139_m32            0.0000     1.8034E+02     5.8989   0.6930   111.8310
 43      0.0000     0.0000E+00    0.0000E+00    2.500000E+09  0.00040  1.488E-04    0   0.5386   age150_m32            0.0000     1.2422E+02     5.0265   0.4553   109.3945
 44     37.6205     2.0961E+01    2.1422E+01    4.250000E+09  0.00040  9.082E-05    0   0.5199   age158_m32            0.0000     3.6587E+01     3.1150   0.4222   103.9419
 45      0.1678     1.3350E-01    1.3320E-01    6.250000E+09  0.00040  6.362E-05    0   0.5076   age166_m32            0.0000     8.9473E+00     2.5945   0.4367    98.6986
 46      0.0000     0.0000E+00    0.0000E+00    7.500000E+09  0.00040  5.289E-05    0   0.5027   age171_m32            0.0000     7.1216E+00     2.5143   0.4043    97.4370
 47      6.8138     8.6806E+00    8.4430E+00    1.000000E+10  0.00040  3.972E-05    0   0.4948   age181_m32            0.0000     6.6752E+00     2.3395   0.3388    96.3864
 48      1.3446     2.0726E+00    1.9841E+00    1.300000E+10  0.00040  3.283E-05    0   0.4870   age193_m32            0.0000     9.0398E+00     2.2471   0.2675    99.9573
 49      0.0000     0.0000E+00    0.0000E+00    1.500000E+10  0.00040  2.925E-05    0   0.4854   age201_m32            0.0000     1.6198E+01     2.4902   0.2331   102.0492
 50      0.0000     0.0000E+00    0.0000E+00    1.800000E+10  0.00040  2.469E-05    0   0.4819   age213_m32            0.0000     1.9756E+01     2.6082   0.1853   102.8172
 51      0.0000     0.0000E+00    0.0000E+00    1.000000E+06  0.00400  1.114E-02    0   1.0000   age020_m42            0.0000     1.7193E+02    11.5146   3.9521    73.7232
 52      0.0000     0.0000E+00    0.0000E+00    3.160000E+06  0.00400  4.073E-02    0   0.9999   age045_m42            0.0000     4.1714E+01     6.1828   2.8905    89.4331
 53      0.0000     0.0000E+00    0.0000E+00    5.010000E+06  0.00400  2.534E-02    0   0.9488   age055_m42            0.0000     6.7989E+01     8.9120   3.3532    81.9069
 54      0.0000     1.3971E-08    2.5321E-08    6.610000E+06  0.00400  2.583E-02    0   0.9220   age061_m42            0.0000     5.4601E+01     5.7215   2.7000    90.3122
 55      0.0000     0.0000E+00    0.0000E+00    8.710000E+06  0.00400  1.706E-02    0   0.8983   age067_m42            0.0000     4.6014E+01     7.7017   2.5684    87.1485
 56      0.0000     0.0000E+00    0.0000E+00    1.000000E+07  0.00400  1.271E-02    0   0.8862   age070_m42            0.0000     5.5475E+01     9.2988   2.5808    84.8761
 57      0.0000     0.0000E+00    0.0000E+00    1.445000E+07  0.00400  7.666E-03    0   0.8571   age078_m42            0.0000     7.7984E+01     9.8663   2.9941    81.8928
 58      0.0000     0.0000E+00    0.0000E+00    2.512000E+07  0.00400  5.070E-03    0   0.8174   age090_m42            0.0000     4.8827E+01     8.6587   2.4309    87.1720
 59      0.0000     0.0000E+00    0.0000E+00    4.000000E+07  0.00400  3.505E-03    0   0.7851   age104_m42            0.0000     3.8873E+01     6.8347   2.0724    91.6501
 60      0.0000     0.0000E+00    0.0000E+00    5.500000E+07  0.00400  3.059E-03    0   0.7629   age110_m42            0.0000     9.1758E+01     4.3837   2.0445    98.7005
 61      0.0000     0.0000E+00    0.0000E+00    1.015200E+08  0.00400  2.268E-03    0   0.7207   age116_m42            0.0000     3.1615E+02     6.0549   1.8426   107.4104
 62      0.0000     0.0000E+00    0.0000E+00    1.609000E+08  0.00400  1.720E-03    0   0.6930   age120_m42            0.0000     3.3351E+02     6.5723   1.6630   110.5876
 63      0.0000     0.0000E+00    0.0000E+00    2.861200E+08  0.00400  1.079E-03    0   0.6613   age125_m42            0.0000     3.0878E+02     7.1323   1.2762   112.6597
 64      0.0000     0.0000E+00    0.0000E+00    5.088000E+08  0.00400  6.261E-04    0   0.6313   age130_m42            0.0000     3.4854E+02     7.8507   1.0529   116.7679
 65      0.0000     0.0000E+00    0.0000E+00    9.047900E+08  0.00400  3.535E-04    0   0.6024   age135_m42            0.0000     1.8623E+02     6.2644   0.6947   115.9835
 66      0.0000     0.0000E+00    0.0000E+00    1.278050E+09  0.00400  2.677E-04    0   0.5837   age138_m42            0.0000     3.8363E+01     5.6189   0.0000   114.1721
 67      0.0000     0.0000E+00    0.0000E+00    1.434000E+09  0.00400  1.910E-04    0   0.5716   age139_m42            0.0000     6.0863E+01     5.3371   0.1867   114.8776
 68      0.1821     9.3854E-02    1.0079E-01    2.500000E+09  0.00400  9.818E-05    0   0.5463   age150_m42            0.0000     1.0592E+01     3.4337  -0.0225   108.4304
 69      0.0000     0.0000E+00    0.0000E+00    4.250000E+09  0.00400  5.491E-05    0   0.5269   age158_m42            0.0000     2.4271E+01     2.8765  -0.1153   104.6436
 70      0.0000     0.0000E+00    0.0000E+00    6.250000E+09  0.00400  3.857E-05    0   0.5151   age166_m42            0.0000     4.3161E+01     3.2161  -0.2375   103.4231
 71      5.9573     9.2956E+00    9.3371E+00    7.500000E+09  0.00400  3.243E-05    0   0.5110   age171_m42            0.0000     5.7327E+01     3.5189  -0.3178   103.0996
 72     26.0595     5.4401E+01    5.3767E+01    1.000000E+10  0.00400  2.424E-05    0   0.5028   age181_m42            0.0000     8.2701E+01     3.9149  -0.3990   102.7340
 73      0.0000     0.0000E+00    0.0000E+00    1.300000E+10  0.00400  1.883E-05    0   0.4927   age193_m42            0.0000     1.0849E+02     4.2010  -0.4365   102.5172
 74      0.0000     0.0000E+00    0.0000E+00    1.500000E+10  0.00400  1.685E-05    0   0.4919   age201_m42            0.0000     1.0155E+02     4.1111  -0.4303   102.4035
 75      0.0000     0.0000E+00    0.0000E+00    1.800000E+10  0.00400  1.452E-05    0   0.4874   age213_m42            0.0000     8.9744E+01     3.9695  -0.4128   102.4798
 76      0.0000     0.0000E+00    0.0000E+00    1.000000E+06  0.00800  1.286E-02    0   1.0000   age020_m52            0.0000     1.4932E+02    10.8823   3.9150    75.7486
 77      0.0000     0.0000E+00    0.0000E+00    3.160000E+06  0.00800  3.147E-02    0   0.9966   age045_m52            0.0000     1.3158E+02    10.7753   3.8278    77.1050
 78      0.0000     0.0000E+00    0.0000E+00    5.010000E+06  0.00800  2.664E-02    0   0.9443   age055_m52            0.0000     8.5976E+01     9.3449   3.4797    80.9255
 79      0.0000     0.0000E+00    0.0000E+00    6.610000E+06  0.00800  2.151E-02    0   0.9177   age061_m52            0.0000     5.1295E+01     7.9569   2.1537    87.7506
 80      0.0000     0.0000E+00    0.0000E+00    8.710000E+06  0.00800  1.628E-02    0   0.8948   age067_m52            0.0000     4.9798E+01     8.1094   2.5241    87.7333
 81      0.0000     0.0000E+00    0.0000E+00    1.000000E+07  0.00800  1.215E-02    0   0.8827   age070_m52            0.0000     5.9313E+01     8.7398   2.8758    85.6089
 82      0.0000     0.0000E+00    0.0000E+00    1.445000E+07  0.00800  8.739E-03    0   0.8552   age078_m52            0.0000     5.5525E+01     7.9175   2.9001    87.2541
 83      0.0000     0.0000E+00    0.0000E+00    2.512000E+07  0.00800  5.676E-03    0   0.8162   age090_m52            0.0000     8.2255E+01     6.8061   2.4642    92.5365
 84      0.0000     0.0000E+00    0.0000E+00    4.000000E+07  0.00800  3.939E-03    0   0.7841   age104_m52            0.0000     1.0962E+02     5.4540   2.2564    96.5974
 85      0.0000     0.0000E+00    0.0000E+00    5.500000E+07  0.00800  3.155E-03    0   0.7627   age110_m52            0.0000     1.4544E+02     4.8688   2.1884    99.6901
 86      0.0000     0.0000E+00    0.0000E+00    1.015200E+08  0.00800  2.206E-03    0   0.7226   age116_m52            0.0000     2.4007E+02     5.3491   1.9326   106.1658
 87      0.0000     0.0000E+00    0.0000E+00    1.609000E+08  0.00800  1.596E-03    0   0.6963   age120_m52            0.0000     2.7121E+02     6.0111   1.6740   109.6090
 88      0.0000     0.0000E+00    0.0000E+00    2.861200E+08  0.00800  1.002E-03    0   0.6665   age125_m52            0.0000     3.5912E+02     8.3109   1.2720   117.0875
 89      0.0000     0.0000E+00    0.0000E+00    5.088000E+08  0.00800  5.759E-04    0   0.6377   age130_m52            0.0000     3.2488E+02     9.7679   0.8477   125.0041
 90      0.0000     0.0000E+00    0.0000E+00    9.047900E+08  0.00800  2.972E-04    0   0.6086   age135_m52            0.0000     1.0571E+02     8.7089   0.3334   124.2837
 91      0.0000     0.0000E+00    0.0000E+00    1.278050E+09  0.00800  2.242E-04    0   0.5907   age138_m52            0.0000     3.0821E+01     6.1988  -0.1873   119.8200
 92      0.0000     0.0000E+00    0.0000E+00    1.434000E+09  0.00800  1.645E-04    0   0.5787   age139_m52            0.0000     2.4899E+01     5.4163  -0.0143   117.9334
 93      0.0000     0.0000E+00    0.0000E+00    2.500000E+09  0.00800  7.723E-05    0   0.5519   age150_m52            0.0000     4.2046E+01     4.5304  -0.3036   112.5721
 94      0.0000     0.0000E+00    0.0000E+00    4.250000E+09  0.00800  4.151E-05    0   0.5320   age158_m52            0.0000     5.4325E+01     4.1390  -0.3453   108.8518
 95      0.0000     0.0000E+00    0.0000E+00    6.250000E+09  0.00800  3.010E-05    0   0.5197   age166_m52            0.0000     1.0382E+02     4.7585  -0.5415   107.9318
 96      0.0000     0.0000E+00    0.0000E+00    7.500000E+09  0.00800  2.467E-05    0   0.5139   age171_m52            0.0000     1.1873E+02     4.9779  -0.5862   107.7524
 97      0.2656     7.2182E-01    7.1710E-01    1.000000E+10  0.00800  1.862E-05    0   0.5054   age181_m52            0.0000     1.6579E+02     5.7524  -0.7311   108.2205
 98      0.0000     0.0000E+00    0.0000E+00    1.300000E+10  0.00800  1.433E-05    0   0.4988   age193_m52            0.0000     2.3553E+02     6.4501  -0.8374   109.6907
 99      0.0030     1.2178E-02    1.1816E-02    1.500000E+10  0.00800  1.244E-05    0   0.4936   age201_m52            0.0000     2.6706E+02     6.6898  -0.8704   110.4837
100      0.0000     0.0000E+00    0.0000E+00    1.800000E+10  0.00800  1.070E-05    0   0.4888   age213_m52            0.0000     2.8448E+02     6.8962  -0.9086   110.5130
101      0.0000     0.0000E+00    0.0000E+00    1.000000E+06  0.02000  1.989E-02    0   1.0000   age020_m62            0.0000     1.7538E+02    11.4395   3.9091    74.6509
102      0.0000     0.0000E+00    0.0000E+00    3.160000E+06  0.02000  3.772E-02    0   0.9858   age045_m62            0.0000     1.3935E+02    11.0359   3.7657    76.6906
103      0.0000     0.0000E+00    0.0000E+00    5.010000E+06  0.02000  3.227E-02    0   0.9342   age055_m62            0.0000     4.8785E+01     7.5550   3.1819    85.3304
104      0.0000     0.0000E+00    0.0000E+00    6.610000E+06  0.02000  2.387E-02    0   0.9090   age061_m62            0.0000     6.5015E+01     9.7038   2.9704    83.3900
105      0.0000     0.0000E+00    0.0000E+00    8.710000E+06  0.02000  1.102E-02    0   0.8861   age067_m62            0.0000     1.8324E+02    15.7686   2.6785    76.2777
106      0.0000     0.0000E+00    0.0000E+00    1.000000E+07  0.02000  1.011E-02    0   0.8751   age070_m62            0.0000     1.3022E+02    13.2842   2.6644    79.7911
107      0.0000     0.0000E+00    0.0000E+00    1.445000E+07  0.02000  7.331E-03    0   0.8472   age078_m62            0.0000     9.4888E+01    11.1185   2.6497    82.3884
108      0.0000     0.0000E+00    0.0000E+00    2.512000E+07  0.02000  4.206E-03    0   0.8099   age090_m62            0.0000     1.0337E+02    11.0299   2.5565    82.2800
109      0.0000     0.0000E+00    0.0000E+00    4.000000E+07  0.02000  3.373E-03    0   0.7799   age104_m62            0.0000     5.8312E+01     6.3986   2.2542    93.8978
110      0.0000     0.0000E+00    0.0000E+00    5.500000E+07  0.02000  2.747E-03    0   0.7595   age110_m62            0.0000     1.0661E+02     5.1065   2.1294    99.1416
111      0.0000     0.0000E+00    0.0000E+00    1.015200E+08  0.02000  1.878E-03    0   0.7221   age116_m62            0.0000     2.6419E+02     5.7790   1.8974   107.0345
112      0.0000     0.0000E+00    0.0000E+00    1.609000E+08  0.02000  1.378E-03    0   0.6978   age120_m62            0.0000     3.6496E+02     7.0954   1.6726   112.4312
113      0.0000     0.0000E+00    0.0000E+00    2.861200E+08  0.02000  8.869E-04    0   0.6700   age125_m62            0.0000     5.1511E+02     9.5296   1.1848   121.7802
114      0.0000     0.0000E+00    0.0000E+00    5.088000E+08  0.02000  4.834E-04    0   0.6430   age130_m62            0.0000     3.5456E+02    10.5574   0.6772   128.3389
115      0.0000     0.0000E+00    0.0000E+00    9.047900E+08  0.02000  2.312E-04    0   0.6152   age135_m62            0.0000     1.1002E+02     7.8370   0.1772   124.3386
116      0.0000     0.0000E+00    0.0000E+00    1.278050E+09  0.02000  1.387E-04    0   0.5927   age138_m62            0.0000     2.3280E+01     5.3890  -0.1217   117.0293
117      0.0000     0.0000E+00    0.0000E+00    1.434000E+09  0.02000  1.168E-04    0   0.5865   age139_m62            0.0000     1.8876E+01     4.9849  -0.1321   114.9158
118      0.0000     0.0000E+00    0.0000E+00    2.500000E+09  0.02000  5.505E-05    0   0.5610   age150_m62            0.0000     5.7785E+01     5.1461  -0.4798   111.6426
119      0.0000     0.0000E+00    0.0000E+00    4.250000E+09  0.02000  3.070E-05    0   0.5407   age158_m62            0.0000     1.5584E+02     6.8363  -0.8096   113.7862
120      0.0000     0.0000E+00    0.0000E+00    6.250000E+09  0.02000  2.104E-05    0   0.5277   age166_m62            0.0000     2.3488E+02     7.6489  -0.9586   115.3358
121      0.0000     0.0000E+00    0.0000E+00    7.500000E+09  0.02000  1.770E-05    0   0.5223   age171_m62            0.0000     2.7165E+02     8.0115  -1.0000   116.1973
122      0.0000     0.0000E+00    0.0000E+00    1.000000E+10  0.02000  1.297E-05    0   0.5121   age181_m62            0.0000     3.8020E+02    12.0878  -1.0000   117.0362
123      0.0000     0.0000E+00    0.0000E+00    1.300000E+10  0.02000  9.691E-06    0   0.5047   age193_m62            0.0000     4.6938E+02    15.0348  -1.0000   117.5128
124      0.0000     0.0000E+00    0.0000E+00    1.500000E+10  0.02000  8.360E-06    0   0.4999   age201_m62            0.0000     5.4949E+02    17.5688  -1.0000   117.7856
125      0.0000     0.0000E+00    0.0000E+00    1.800000E+10  0.02000  6.911E-06    0   0.4946   age213_m62            0.0000     6.5046E+02    20.3443  -1.0000   118.1359
126      0.0000     0.0000E+00    0.0000E+00    1.000000E+06  0.05000  2.651E-02    0   0.9998   age020_m72            0.0000     1.6831E+02    10.9101   3.9009    75.8421
127      0.0000     0.0000E+00    0.0000E+00    3.160000E+06  0.05000  4.817E-02    0   0.9577   age045_m72            0.0000     8.8806E+01     9.4244   3.5957    80.4558
128      0.0000     0.0000E+00    0.0000E+00    5.010000E+06  0.05000  3.101E-02    0   0.9147   age055_m72            0.0000     7.5911E+01     9.3254   3.2355    82.8281
129      0.0000     0.0000E+00    0.0000E+00    6.610000E+06  0.05000  1.472E-02    0   0.8877   age061_m72            0.0000     1.5961E+02    13.3251   2.8507    78.9476
130      0.0000     0.0000E+00    0.0000E+00    8.710000E+06  0.05000  1.050E-02    0   0.8638   age067_m72            0.0000     1.2585E+02    10.8518   3.2077    81.0483
131      0.0000     0.0000E+00    0.0000E+00    1.000000E+07  0.05000  8.954E-03    0   0.8524   age070_m72            0.0000     1.0291E+02     9.0231   3.4560    82.4801
132      0.0000     0.0000E+00    0.0000E+00    1.445000E+07  0.05000  6.392E-03    0   0.8262   age078_m72            0.0000     8.7846E+01     8.2730   3.3865    84.0454
133      0.0000     0.0000E+00    0.0000E+00    2.512000E+07  0.05000  4.207E-03    0   0.7902   age090_m72            0.0000     4.8995E+01     6.4418   2.9594    89.6652
134      0.0000     0.0000E+00    0.0000E+00    4.000000E+07  0.05000  3.198E-03    0   0.7618   age104_m72            0.0000     1.4026E+02     4.5190   2.3200   101.2544
135      0.0000     0.0000E+00    0.0000E+00    5.500000E+07  0.05000  2.593E-03    0   0.7432   age110_m72            0.0000     2.0447E+02     5.1174   2.2003   103.7825
136      0.0000     0.0000E+00    0.0000E+00    1.015200E+08  0.05000  1.716E-03    0   0.7092   age116_m72            0.0000     3.1641E+02     6.2992   1.9541   108.1144
137      0.0000     0.0000E+00    0.0000E+00    1.609000E+08  0.05000  1.218E-03    0   0.6876   age120_m72            0.0000     4.2846E+02     7.6494   1.6156   113.8157
138      0.0000     0.0000E+00    0.0000E+00    2.861200E+08  0.05000  7.047E-04    0   0.6618   age125_m72            0.0000     4.8068E+02     9.8594   0.9595   123.0563
139      0.0000     0.0000E+00    0.0000E+00    5.088000E+08  0.05000  3.590E-04    0   0.6356   age130_m72            0.0000     2.9242E+02    10.1035   0.3511   128.3271
140      0.0000     0.0000E+00    0.0000E+00    9.047900E+08  0.05000  1.484E-04    0   0.6088   age135_m72            0.0000     3.4546E+01     7.0517  -0.2724   118.6972
141      1.7454     9.3609E-01    1.0901E+00    1.278050E+09  0.05000  9.435E-05    0   0.5924   age138_m72            0.0000     6.3765E+01     7.3381  -0.6582   115.7720
142      3.2906     2.1274E+00    2.4451E+00    1.434000E+09  0.05000  7.827E-05    0   0.5847   age139_m72            0.0000     7.5093E+01     6.9310  -0.6278   114.5009
143      0.0000     0.0000E+00    0.0000E+00    2.500000E+09  0.05000  3.759E-05    0   0.5583   age150_m72            0.0000     1.9808E+02     7.7178  -0.9519   114.4598
144      0.0000     0.0000E+00    0.0000E+00    4.250000E+09  0.05000  1.842E-05    0   0.5374   age158_m72            0.0000     3.5160E+02    13.6276  -1.0000   114.0225
145      0.0000     0.0000E+00    0.0000E+00    6.250000E+09  0.05000  1.207E-05    0   0.5242   age166_m72            0.0000     5.7040E+02    21.6797  -1.0000   113.1515
146      0.0000     0.0000E+00    0.0000E+00    7.500000E+09  0.05000  9.993E-06    0   0.5183   age171_m72            0.0000     6.0859E+02    23.0670  -1.0000   112.8249
147      0.0000     0.0000E+00    0.0000E+00    1.000000E+10  0.05000  7.291E-06    0   0.5081   age181_m72            0.0000     7.7425E+02    27.4290  -1.0000   112.2871
148      0.0000     0.0000E+00    0.0000E+00    1.300000E+10  0.05000  5.316E-06    0   0.5018   age193_m72            0.0000     1.0813E+03    33.4215  -1.0000   110.5919
149      0.0000     0.0000E+00    0.0000E+00    1.500000E+10  0.05000  4.497E-06    0   0.4972   age201_m72            0.0000     1.2342E+03    35.7848  -1.0000   110.1148
150      0.0000     0.0000E+00    0.0000E+00    1.800000E+10  0.05000  3.739E-06    0   0.4924   age213_m72            0.0000     1.4633E+03    38.7172  -1.0000   108.6880


## Synthesis Results - Average & Chains ##

# j      x_j: min, <> & last-chain-values for 1 ...  7 chains
  1      0.0000      0.0044      0.0000      0.0000      0.0000      0.0000      0.0000      0.0000      0.0000
  2     17.4025     15.2203     15.6229     15.9653     15.6491     15.6130     16.0795     15.5423     15.6634
  3      0.0000      0.0093      0.0100      0.0000      0.0000      0.0000      0.0000      0.0000      0.0000
  4      0.0000      0.0030      0.0000      0.0000      0.0000      0.0000      0.0000      0.0000      0.0147
  5      0.0000      0.0041      0.0000      0.0000      0.0000      0.0000      0.0000      0.0000      0.0000
  6      0.0000      0.0041      0.0000      0.0000      0.0000      0.0000      0.0000      0.0000      0.0000
  7      0.0000      0.0048      0.0000      0.0000      0.0000      0.0000      0.0000      0.0000      0.0000
  8      0.0000      0.0113      0.0000      0.0000      0.0000      0.0000      0.0000      0.0000      0.0000
  9      0.0000      0.0133      0.0000      0.0000      0.0000      0.0000      0.0000      0.0000      0.0000
 10      0.0000      0.0212      0.0000      0.0000      0.0000      0.0000      0.0000      0.0152      0.0675
 11      0.0000      0.0318      0.0000      0.0000      0.0000      0.0000      0.0000      0.0000      0.0319
 12      0.0000      0.0154      0.0000      0.0000      0.0000      0.0000      0.0000      0.0000      0.0000
 13      0.0000      0.0166      0.0000      0.0000      0.0000      0.0000      0.0000      0.0000      0.0031
 14      0.0000      0.0064      0.0000      0.0000      0.0000      0.0000      0.0000      0.0000      0.0000
 15      0.0000      0.0082      0.0000      0.0000      0.0000      0.0000      0.0000      0.0000      0.0000
 16      0.0000      0.0170      0.0000      0.0000      0.0000      0.0000      0.0000      0.0000      0.0000
 17      0.0000      0.0224      0.0000      0.0000      0.0000      0.0000      0.0000      0.0751      0.0000
 18      0.0000      0.0249      0.0000      0.0000      0.0000      0.0000      0.0000      0.0000      0.0484
 19      0.0000      0.0581      0.0000      0.0000      0.0000      0.0000      0.0000      0.0000      0.0000
 20      0.0000      0.2356      0.0000      0.2539      0.0000      0.8278      0.2449      0.0073      0.0000
 21      0.0000      0.3101      0.0000      0.0000      0.0000      0.0000      0.1582      1.0438      0.0000
 22      0.0000      0.2054      0.0000      0.0000      0.1646      0.1951      0.0000      0.0000      0.0000
 23      0.1495      0.2500      0.6362      0.0000      0.1335      0.0000      0.0423      0.1222      0.4702
 24      0.1975      0.2170      0.1929      0.2346      0.1078      0.0000      0.0000      0.0000      0.5081
 25      0.0000      0.4776      0.0019      0.0965      1.2952      0.0000      0.7305      0.2075      0.4933
 26      0.0000      0.0038      0.0000      0.0000      0.0000      0.0000      0.0000      0.0000      0.0000
 27      0.0000      0.0084      0.0791      0.0000      0.0000      0.0000      0.0000      0.0000      0.0000
 28      0.0000      0.0050      0.0000      0.0000      0.0000      0.0000      0.0000      0.0000      0.0041
 29      0.0000      0.0027      0.0000      0.0000      0.0000      0.0000      0.0000      0.0000      0.0000
 30      0.0000      0.0068      0.0000      0.0000      0.0000      0.0000      0.0000      0.0000      0.0000
 31      0.0000      0.0039      0.0000      0.0000      0.0000      0.0000      0.0000      0.0000      0.0000
 32      0.0000      0.0208      0.0000      0.0000      0.0000      0.0000      0.0000      0.2004      0.0000
 33      0.0000      0.0094      0.0000      0.0133      0.0000      0.0000      0.0000      0.0000      0.0000
 34      0.0000      0.0208      0.0000      0.0000      0.0963      0.0000      0.0056      0.0002      0.1813
 35      0.0000      0.0150      0.0000      0.0000      0.0000      0.0000      0.0298      0.0000      0.0000
 36      0.0000      0.0186      0.0000      0.0000      0.0000      0.0000      0.0000      0.0000      0.0000
 37      0.0000      0.0226      0.0000      0.0000      0.1005      0.0000      0.0000      0.0731      0.0000
 38      0.0000      0.0084      0.0000      0.0000      0.0000      0.0000      0.0507      0.0000      0.0055
 39      0.0000      0.0102      0.0000      0.0000      0.0000      0.0000      0.0000      0.0000      0.0000
 40      0.0000      0.0220      0.0000      0.0000      0.0000      0.0000      0.0135      0.0000      0.0000
 41      0.0000      0.0242      0.0000      0.0000      0.0000      0.0000      0.0000      0.0000      0.0367
 42      0.0000      0.0259      0.0000      0.0000      0.0000      0.0000      0.0000      0.0000      0.0000
 43      0.0000      0.0770      0.0000      0.0000      0.0000      0.0000      0.0000      0.0000      0.0000
 44     37.6205     39.1901     40.1484     39.8068     38.4210     39.2712     39.3661     39.9483     38.8572
 45      0.1678      1.1119      1.4762      1.2802      1.1740      1.9723      0.9300      0.8225      1.1270
 46      0.0000      1.4515      0.0000      1.0753      1.6466      1.4650      2.1411      2.6881      1.5182
 47      6.8138      1.9698      4.1553      2.3792      2.0004      2.8573      2.1660      1.7822      2.1638
 48      1.3446      0.5959      1.0853      0.1730      1.1467      0.2269      0.4237      0.0000      0.1213
 49      0.0000      0.2804      0.0000      0.2911      0.0000      0.0000      0.0000      0.5565      0.8192
 50      0.0000      0.1947      0.0915      1.3941      0.0000      0.0395      0.0948      0.0000      0.0778
 51      0.0000      0.0037      0.0000      0.0000      0.0000      0.0000      0.0000      0.0000      0.0000
 52      0.0000      0.0269      0.0000      0.0000      0.0000      0.0969      0.1171      0.0000      0.1370
 53      0.0000      0.0124      0.0000      0.0000      0.0000      0.0000      0.0018      0.0000      0.0000
 54      0.0000      0.0386      0.2338      0.0000      0.0000      0.0000      0.0223      0.0000      0.0000
 55      0.0000      0.0170      0.0000      0.0000      0.0268      0.0000      0.0000      0.0000      0.0007
 56      0.0000      0.0145      0.0000      0.0000      0.0000      0.0000      0.0000      0.0000      0.0000
 57      0.0000      0.0084      0.0000      0.0000      0.0000      0.0000      0.0000      0.0000      0.0000
 58      0.0000      0.0161      0.0000      0.0000      0.0000      0.0000      0.0000      0.0000      0.0000
 59      0.0000      0.0148      0.0000      0.0000      0.0000      0.0000      0.0000      0.0000      0.0000
 60      0.0000      0.0140      0.0000      0.0000      0.0000      0.0000      0.0042      0.0000      0.0000
 61      0.0000      0.0220      0.0000      0.0000      0.2422      0.0209      0.0000      0.0000      0.0000
 62      0.0000      0.0268      0.0000      0.0000      0.0000      0.0000      0.0000      0.0462      0.0000
 63      0.0000      0.0155      0.0000      0.0000      0.0000      0.0000      0.1257      0.0000      0.0000
 64      0.0000      0.0179      0.0000      0.0000      0.0656      0.0000      0.0000      0.0000      0.0000
 65      0.0000      0.0314      0.0000      0.0000      0.0000      0.2917      0.0000      0.0000      0.0000
 66      0.0000      0.0294      0.0000      0.0000      0.0000      0.0071      0.0000      0.0000      0.0000
 67      0.0000      0.0425      0.0000      0.0521      0.0000      0.0000      0.3284      0.0000      0.0000
 68      0.1821      0.2166      0.2022      0.0000      0.0000      1.0073      0.0410      0.2588      0.1497
 69      0.0000      0.1352      0.0000      0.0000      0.0469      0.0000      0.0000      0.0000      0.0000
 70      0.0000      0.2663      0.0000      0.1890      0.7229      0.0000      0.0000      0.2456      0.5868
 71      5.9573      8.3548      7.5672      8.2614      8.3918      8.6547      7.8313      8.2729      7.7433
 72     26.0595     26.3378     26.8337     26.5656     26.1753     27.1686     27.0984     26.3603     26.9816
 73      0.0000      0.1162      0.0000      0.3869      0.0102      0.1176      0.0000      0.1015      0.0000
 74      0.0000      0.1598      0.0697      0.0193      0.0927      0.0000      0.0000      0.0000      0.0000
 75      0.0000      0.0946      0.0000      0.2087      0.0000      0.0000      0.0000      0.0000      0.3215
 76      0.0000      0.0047      0.0000      0.0000      0.0000      0.0000      0.0000      0.0000      0.0000
 77      0.0000      0.0017      0.0000      0.0000      0.0000      0.0000      0.0000      0.0000      0.0000
 78      0.0000      0.0050      0.0000      0.0000      0.0000      0.0000      0.0000      0.0000      0.0000
 79      0.0000      0.0154      0.0000      0.0000      0.0000      0.0000      0.0000      0.0000      0.0000
 80      0.0000      0.0138      0.0000      0.0000      0.0306      0.0000      0.0000      0.0000      0.0000
 81      0.0000      0.0057      0.0000      0.0000      0.0000      0.0000      0.0000      0.0000      0.0000
 82      0.0000      0.0100      0.0000      0.0000      0.0000      0.0000      0.0000      0.0000      0.0000
 83      0.0000      0.0150      0.0000      0.0000      0.0000      0.0000      0.0000      0.0000      0.0000
 84      0.0000      0.0147      0.0594      0.0000      0.0000      0.0000      0.0000      0.0000      0.0000
 85      0.0000      0.0232      0.0137      0.0000      0.0000      0.0079      0.0000      0.0000      0.0000
 86      0.0000      0.0158      0.0000      0.0000      0.0000      0.0000      0.0000      0.0000      0.0149
 87      0.0000      0.0240      0.0000      0.0000      0.0000      0.0000      0.0000      0.0000      0.1918
 88      0.0000      0.0109      0.0000      0.0000      0.0000      0.0000      0.0000      0.0000      0.0000
 89      0.0000      0.0094      0.0000      0.0000      0.0000      0.0000      0.0000      0.0000      0.0000
 90      0.0000      0.0115      0.0000      0.0000      0.0333      0.0000      0.0000      0.0000      0.0183
 91      0.0000      0.0110      0.0000      0.1193      0.0550      0.0000      0.0000      0.0000      0.0000
 92      0.0000      0.0288      0.0000      0.0000      0.0000      0.0000      0.0000      0.0000      0.0000
 93      0.0000      0.0772      0.1151      0.0000      0.0000      0.0000      0.2147      0.0000      0.0000
 94      0.0000      0.3572      0.0000      0.2701      0.8405      0.0000      0.0000      0.0622      0.1696
 95      0.0000      0.2336      0.1046      0.3819      0.6488      0.1562      0.0000      0.0000      0.8924
 96      0.0000      0.1057      0.0000      0.4695      0.1905      0.0000      0.3073      0.0531      0.0000
 97      0.2656      0.2865      0.3256      0.0000      0.0000      0.0000      0.4049      0.3939      0.4467
 98      0.0000      0.0670      0.1450      0.0601      0.0000      0.0000      0.0000      0.0594      0.0643
 99      0.0030      0.1556      0.4646      0.0000      0.2142      0.0000      0.0000      0.3765      0.0000
100      0.0000      0.0874      0.1398      0.0000      0.0000      0.0555      0.0000      0.2277      0.0000
101      0.0000      0.0038      0.0000      0.0000      0.0000      0.0000      0.0000      0.0000      0.0000
102      0.0000      0.0035      0.0000      0.0000      0.0261      0.0000      0.0000      0.0000      0.0000
103      0.0000      0.0117      0.0000      0.0000      0.1145      0.0000      0.0000      0.0000      0.0000
104      0.0000      0.0060      0.0000      0.0460      0.0000      0.0000      0.0000      0.0000      0.0152
105      0.0000      0.0045      0.0000      0.0000      0.0000      0.0000      0.0000      0.0000      0.0000
106      0.0000      0.0067      0.0000      0.0000      0.0000      0.0000      0.0000      0.0000      0.0000
107      0.0000      0.0108      0.0000      0.0000      0.0000      0.0000      0.0000      0.0000      0.0000
108      0.0000      0.0044      0.0000      0.0000      0.0000      0.0000      0.0000      0.0000      0.0000
109      0.0000      0.0106      0.0000      0.0000      0.0000      0.0000      0.0000      0.0000      0.0000
110      0.0000      0.0076      0.0000      0.0000      0.0000      0.0000      0.0000      0.0000      0.0000
111      0.0000      0.0096      0.0000      0.0000      0.0000      0.0000      0.1062      0.0000      0.0000
112      0.0000      0.0091      0.0000      0.0000      0.0000      0.0077      0.0000      0.0603      0.0000
113      0.0000      0.0083      0.0000      0.0000      0.0000      0.0000      0.0000      0.0044      0.0640
114      0.0000      0.0087      0.0105      0.0000      0.0000      0.0212      0.0000      0.0000      0.0173
115      0.0000      0.0123      0.0000      0.0000      0.0000      0.0000      0.0148      0.0000      0.0000
116      0.0000      0.0415      0.0000      0.0000      0.1279      0.2208      0.0000      0.0000      0.0000
117      0.0000      0.0439      0.0000      0.0000      0.0000      0.0000      0.0000      0.0000      0.0000
118      0.0000      0.1147      0.0000      0.2653      0.0000      0.0000      0.3488      0.5260      0.0000
119      0.0000      0.0612      0.0915      0.0000      0.0000      0.0000      0.0040      0.1029      0.0000
120      0.0000      0.0437      0.0000      0.0067      0.0000      0.0000      0.0000      0.0000      0.0000
121      0.0000      0.0369      0.0000      0.0349      0.0000      0.0000      0.0000      0.0000      0.0000
122      0.0000      0.0284      0.0000      0.0000      0.0000      0.0508      0.0000      0.0000      0.0000
123      0.0000      0.0155      0.0000      0.0000      0.0764      0.0000      0.0000      0.0000      0.0000
124      0.0000      0.0251      0.0142      0.0000      0.0000      0.2043      0.0000      0.0000      0.0000
125      0.0000      0.0241      0.0000      0.0000      0.0000      0.0000      0.0000      0.0000      0.0000
126      0.0000      0.0033      0.0000      0.0000      0.0000      0.0000      0.0000      0.0067      0.0000
127      0.0000      0.0068      0.0000      0.0000      0.0000      0.0000      0.0000      0.0000      0.0000
128      0.0000      0.0090      0.0000      0.0000      0.0000      0.0000      0.0000      0.0000      0.0000
129      0.0000      0.0083      0.0000      0.0000      0.0000      0.0000      0.0220      0.0000      0.0000
130      0.0000      0.0031      0.0000      0.0000      0.0000      0.0000      0.0000      0.0000      0.0000
131      0.0000      0.0036      0.0000      0.0000      0.0000      0.0000      0.0000      0.0000      0.0000
132      0.0000      0.0064      0.0000      0.0000      0.0000      0.0000      0.0000      0.0000      0.0000
133      0.0000      0.0052      0.0000      0.0000      0.0000      0.0000      0.0000      0.0000      0.0000
134      0.0000      0.0126      0.0000      0.1296      0.0000      0.0000      0.0000      0.0000      0.0000
135      0.0000      0.0134      0.0000      0.0000      0.0000      0.0425      0.0000      0.0000      0.0000
136      0.0000      0.0101      0.0000      0.0000      0.1491      0.0000      0.0285      0.0000      0.0000
137      0.0000      0.0125      0.0000      0.0000      0.1279      0.0000      0.0000      0.0000      0.0874
138      0.0000      0.0092      0.0000      0.0000      0.0000      0.0000      0.0000      0.0000      0.0000
139      0.0000      0.0143      0.0000      0.0323      0.0000      0.0000      0.0020      0.0000      0.0266
140      0.0000      0.0382      0.0000      0.0000      0.0000      0.0000      0.0939      0.0000      0.0027
141      1.7454      0.1880      0.1574      0.3251      0.5123      0.2133      0.2550      0.3034      0.4291
142      3.2906      0.2763      1.1184      0.2733      0.3211      0.4174      1.0424      0.7496      0.6794
143      0.0000      0.1159      0.0868      0.1828      0.0596      0.0000      0.3473      0.0000      0.0000
144      0.0000      0.0611      0.0000      0.0000      0.0880      0.0000      0.0448      0.0000      0.0000
145      0.0000      0.0164      0.0000      0.0000      0.0003      0.0000      0.0000      0.0000      0.0464
146      0.0000      0.0245      0.0000      0.0000      0.0000      0.0000      0.0662      0.0713      0.0000
147      0.0000      0.0154      0.0000      0.0000      0.0000      0.1075      0.0000      0.0000      0.0000
148      0.0000      0.0105      0.0000      0.0699      0.0000      0.0000      0.0000      0.0000      0.0221
149      0.0000      0.0079      0.0000      0.0000      0.0000      0.0000      0.0000      0.0000      0.0000
150      0.0000      0.0086      0.0000      0.0000      0.0000      0.0000      0.0000      0.0000      0.0000

# j      m_j: min, <> & last-chain-values for 1 ...  7 chains
  1  0.0000E+00  5.0574E-05  0.0000E+00  0.0000E+00  0.0000E+00  0.0000E+00  0.0000E+00  0.0000E+00  0.0000E+00
  2  3.6373E-02  3.0097E-02  3.1062E-02  3.1605E-02  3.1204E-02  3.1420E-02  3.2639E-02  3.1100E-02  3.1069E-02
  3  0.0000E+00  4.3463E-05  4.6903E-05  0.0000E+00  0.0000E+00  0.0000E+00  0.0000E+00  0.0000E+00  0.0000E+00
  4  0.0000E+00  2.6173E-05  0.0000E+00  0.0000E+00  0.0000E+00  0.0000E+00  0.0000E+00  0.0000E+00  1.2965E-04
  5  0.0000E+00  4.5547E-05  0.0000E+00  0.0000E+00  0.0000E+00  0.0000E+00  0.0000E+00  0.0000E+00  0.0000E+00
  6  0.0000E+00  5.3507E-05  0.0000E+00  0.0000E+00  0.0000E+00  0.0000E+00  0.0000E+00  0.0000E+00  0.0000E+00
  7  0.0000E+00  7.9091E-05  0.0000E+00  0.0000E+00  0.0000E+00  0.0000E+00  0.0000E+00  0.0000E+00  0.0000E+00
  8  0.0000E+00  2.1234E-04  0.0000E+00  0.0000E+00  0.0000E+00  0.0000E+00  0.0000E+00  0.0000E+00  0.0000E+00
  9  0.0000E+00  2.6878E-04  0.0000E+00  0.0000E+00  0.0000E+00  0.0000E+00  0.0000E+00  0.0000E+00  0.0000E+00
 10  0.0000E+00  4.9076E-04  0.0000E+00  0.0000E+00  0.0000E+00  0.0000E+00  0.0000E+00  3.5572E-04  1.5654E-03
 11  0.0000E+00  8.7984E-04  0.0000E+00  0.0000E+00  0.0000E+00  0.0000E+00  0.0000E+00  0.0000E+00  8.8347E-04
 12  0.0000E+00  7.4545E-04  0.0000E+00  0.0000E+00  0.0000E+00  0.0000E+00  0.0000E+00  0.0000E+00  0.0000E+00
 13  0.0000E+00  9.2979E-04  0.0000E+00  0.0000E+00  0.0000E+00  0.0000E+00  0.0000E+00  0.0000E+00  1.7178E-04
 14  0.0000E+00  5.1099E-04  0.0000E+00  0.0000E+00  0.0000E+00  0.0000E+00  0.0000E+00  0.0000E+00  0.0000E+00
 15  0.0000E+00  9.8483E-04  0.0000E+00  0.0000E+00  0.0000E+00  0.0000E+00  0.0000E+00  0.0000E+00  0.0000E+00
 16  0.0000E+00  2.9632E-03  0.0000E+00  0.0000E+00  0.0000E+00  0.0000E+00  0.0000E+00  0.0000E+00  0.0000E+00
 17  0.0000E+00  4.3304E-03  0.0000E+00  0.0000E+00  0.0000E+00  0.0000E+00  0.0000E+00  1.4701E-02  0.0000E+00
 18  0.0000E+00  7.8430E-03  0.0000E+00  0.0000E+00  0.0000E+00  0.0000E+00  0.0000E+00  0.0000E+00  1.5294E-02
 19  0.0000E+00  2.7728E-02  0.0000E+00  0.0000E+00  0.0000E+00  0.0000E+00  0.0000E+00  0.0000E+00  0.0000E+00
 20  0.0000E+00  1.6093E-01  0.0000E+00  1.7361E-01  0.0000E+00  5.7533E-01  1.7167E-01  5.0525E-03  0.0000E+00
 21  0.0000E+00  2.4503E-01  0.0000E+00  0.0000E+00  0.0000E+00  0.0000E+00  1.2830E-01  8.3452E-01  0.0000E+00
 22  0.0000E+00  2.0940E-01  0.0000E+00  0.0000E+00  1.6917E-01  2.0235E-01  0.0000E+00  0.0000E+00  0.0000E+00
 23  2.0424E-01  3.2303E-01  8.2663E-01  0.0000E+00  1.7394E-01  0.0000E+00  5.6064E-02  1.5976E-01  6.0943E-01
 24  3.0852E-01  3.2061E-01  2.8663E-01  3.4701E-01  1.6061E-01  0.0000E+00  0.0000E+00  0.0000E+00  7.5312E-01
 25  0.0000E+00  8.4782E-01  3.4771E-03  1.7144E-01  2.3185E+00  0.0000E+00  1.3312E+00  3.7282E-01  8.7852E-01
 26  0.0000E+00  4.1790E-05  0.0000E+00  0.0000E+00  0.0000E+00  0.0000E+00  0.0000E+00  0.0000E+00  0.0000E+00
 27  0.0000E+00  1.9882E-05  1.8839E-04  0.0000E+00  0.0000E+00  0.0000E+00  0.0000E+00  0.0000E+00  0.0000E+00
 28  0.0000E+00  2.3139E-05  0.0000E+00  0.0000E+00  0.0000E+00  0.0000E+00  0.0000E+00  0.0000E+00  1.9223E-05
 29  0.0000E+00  1.9622E-05  0.0000E+00  0.0000E+00  0.0000E+00  0.0000E+00  0.0000E+00  0.0000E+00  0.0000E+00
 30  0.0000E+00  6.0881E-05  0.0000E+00  0.0000E+00  0.0000E+00  0.0000E+00  0.0000E+00  0.0000E+00  0.0000E+00
 31  0.0000E+00  4.0395E-05  0.0000E+00  0.0000E+00  0.0000E+00  0.0000E+00  0.0000E+00  0.0000E+00  0.0000E+00
 32  0.0000E+00  2.3921E-04  0.0000E+00  0.0000E+00  0.0000E+00  0.0000E+00  0.0000E+00  2.3297E-03  0.0000E+00
 33  0.0000E+00  1.5368E-04  0.0000E+00  2.1810E-04  0.0000E+00  0.0000E+00  0.0000E+00  0.0000E+00  0.0000E+00
 34  0.0000E+00  4.1225E-04  0.0000E+00  0.0000E+00  1.9267E-03  0.0000E+00  1.1386E-04  3.2127E-06  3.6061E-03
 35  0.0000E+00  3.6001E-04  0.0000E+00  0.0000E+00  0.0000E+00  0.0000E+00  7.3178E-04  0.0000E+00  0.0000E+00
 36  0.0000E+00  5.7087E-04  0.0000E+00  0.0000E+00  0.0000E+00  0.0000E+00  0.0000E+00  0.0000E+00  0.0000E+00
 37  0.0000E+00  8.6300E-04  0.0000E+00  0.0000E+00  3.8691E-03  0.0000E+00  0.0000E+00  2.8255E-03  0.0000E+00
 38  0.0000E+00  4.4429E-04  0.0000E+00  0.0000E+00  0.0000E+00  0.0000E+00  2.7695E-03  0.0000E+00  2.9337E-04
 39  0.0000E+00  8.1009E-04  0.0000E+00  0.0000E+00  0.0000E+00  0.0000E+00  0.0000E+00  0.0000E+00  0.0000E+00
 40  0.0000E+00  3.0748E-03  0.0000E+00  0.0000E+00  0.0000E+00  0.0000E+00  1.9439E-03  0.0000E+00  0.0000E+00
 41  0.0000E+00  4.5301E-03  0.0000E+00  0.0000E+00  0.0000E+00  0.0000E+00  0.0000E+00  0.0000E+00  6.9060E-03
 42  0.0000E+00  5.4272E-03  0.0000E+00  0.0000E+00  0.0000E+00  0.0000E+00  0.0000E+00  0.0000E+00  0.0000E+00
 43  0.0000E+00  2.6236E-02  0.0000E+00  0.0000E+00  0.0000E+00  0.0000E+00  0.0000E+00  0.0000E+00  0.0000E+00
 44  2.1422E+01  2.1112E+01  2.1747E+01  2.1468E+01  2.0871E+01  2.1530E+01  2.1769E+01  2.1777E+01  2.0997E+01
 45  1.3320E-01  8.3486E-01  1.1145E+00  9.6233E-01  8.8889E-01  1.5070E+00  7.1680E-01  6.2488E-01  8.4879E-01
 46  0.0000E+00  1.2983E+00  0.0000E+00  9.6286E-01  1.4851E+00  1.3335E+00  1.9659E+00  2.4330E+00  1.3621E+00
 47  8.4430E+00  2.3092E+00  4.8978E+00  2.7922E+00  2.3647E+00  3.4088E+00  2.6064E+00  2.1141E+00  2.5445E+00
 48  1.9841E+00  8.3191E-01  1.5233E+00  2.4183E-01  1.6142E+00  3.2232E-01  6.0710E-01  0.0000E+00  1.6981E-01
 49  0.0000E+00  4.3783E-01  0.0000E+00  4.5511E-01  0.0000E+00  0.0000E+00  0.0000E+00  8.7946E-01  1.2833E+00
 50  0.0000E+00  3.5767E-01  1.6907E-01  2.5636E+00  0.0000E+00  7.3839E-02  1.7882E-01  0.0000E+00  1.4340E-01
 51  0.0000E+00  3.0840E-05  0.0000E+00  0.0000E+00  0.0000E+00  0.0000E+00  0.0000E+00  0.0000E+00  0.0000E+00
 52  0.0000E+00  6.2080E-05  0.0000E+00  0.0000E+00  0.0000E+00  2.2791E-04  2.7771E-04  0.0000E+00  3.1747E-04
 53  0.0000E+00  4.3744E-05  0.0000E+00  0.0000E+00  0.0000E+00  0.0000E+00  6.3452E-06  0.0000E+00  0.0000E+00
 54  2.5321E-08  1.2970E-04  7.8977E-04  0.0000E+00  0.0000E+00  0.0000E+00  7.6985E-05  0.0000E+00  0.0000E+00
 55  0.0000E+00  8.4251E-05  0.0000E+00  0.0000E+00  1.3379E-04  0.0000E+00  0.0000E+00  0.0000E+00  3.3398E-06
 56  0.0000E+00  9.4895E-05  0.0000E+00  0.0000E+00  0.0000E+00  0.0000E+00  0.0000E+00  0.0000E+00  0.0000E+00
 57  0.0000E+00  8.8041E-05  0.0000E+00  0.0000E+00  0.0000E+00  0.0000E+00  0.0000E+00  0.0000E+00  0.0000E+00
 58  0.0000E+00  2.4427E-04  0.0000E+00  0.0000E+00  0.0000E+00  0.0000E+00  0.0000E+00  0.0000E+00  0.0000E+00
 59  0.0000E+00  3.1215E-04  0.0000E+00  0.0000E+00  0.0000E+00  0.0000E+00  0.0000E+00  0.0000E+00  0.0000E+00
 60  0.0000E+00  3.2964E-04  0.0000E+00  0.0000E+00  0.0000E+00  0.0000E+00  1.0004E-04  0.0000E+00  0.0000E+00
 61  0.0000E+00  6.5723E-04  0.0000E+00  0.0000E+00  7.3032E-03  6.3621E-04  0.0000E+00  0.0000E+00  0.0000E+00
 62  0.0000E+00  1.0147E-03  0.0000E+00  0.0000E+00  0.0000E+00  0.0000E+00  0.0000E+00  1.7718E-03  0.0000E+00
 63  0.0000E+00  8.9137E-04  0.0000E+00  0.0000E+00  0.0000E+00  0.0000E+00  7.4392E-03  0.0000E+00  0.0000E+00
 64  0.0000E+00  1.6979E-03  0.0000E+00  0.0000E+00  6.2795E-03  0.0000E+00  0.0000E+00  0.0000E+00  0.0000E+00
 65  0.0000E+00  5.0330E-03  0.0000E+00  0.0000E+00  0.0000E+00  4.7611E-02  0.0000E+00  0.0000E+00  0.0000E+00
 66  0.0000E+00  6.0307E-03  0.0000E+00  0.0000E+00  0.0000E+00  1.4883E-03  0.0000E+00  0.0000E+00  0.0000E+00
 67  0.0000E+00  1.1974E-02  0.0000E+00  1.4689E-02  0.0000E+00  0.0000E+00  9.4930E-02  0.0000E+00  0.0000E+00
 68  1.0079E-01  1.1343E-01  1.0644E-01  0.0000E+00  0.0000E+00  5.3680E-01  2.2031E-02  1.3715E-01  7.8639E-02
 69  0.0000E+00  1.2212E-01  0.0000E+00  0.0000E+00  4.2717E-02  0.0000E+00  0.0000E+00  0.0000E+00  0.0000E+00
 70  0.0000E+00  3.3466E-01  0.0000E+00  2.3780E-01  9.1614E-01  0.0000E+00  0.0000E+00  3.1233E-01  7.3971E-01
 71  9.3371E+00  1.2389E+01  1.1282E+01  1.2264E+01  1.2548E+01  1.3060E+01  1.1920E+01  1.2413E+01  1.1517E+01
 72  5.3767E+01  5.1411E+01  5.2666E+01  5.1914E+01  5.1522E+01  5.3971E+01  5.4298E+01  5.2068E+01  5.2830E+01
 73  0.0000E+00  2.8615E-01  0.0000E+00  9.5370E-01  2.5365E-02  2.9467E-01  0.0000E+00  2.5297E-01  0.0000E+00
 74  0.0000E+00  4.3887E-01  1.9260E-01  5.3082E-02  2.5681E-01  0.0000E+00  0.0000E+00  0.0000E+00  0.0000E+00
 75  0.0000E+00  2.9868E-01  0.0000E+00  6.5984E-01  0.0000E+00  0.0000E+00  0.0000E+00  0.0000E+00  1.0187E+00
 76  0.0000E+00  3.4138E-05  0.0000E+00  0.0000E+00  0.0000E+00  0.0000E+00  0.0000E+00  0.0000E+00  0.0000E+00
 77  0.0000E+00  4.9636E-06  0.0000E+00  0.0000E+00  0.0000E+00  0.0000E+00  0.0000E+00  0.0000E+00  0.0000E+00
 78  0.0000E+00  1.6685E-05  0.0000E+00  0.0000E+00  0.0000E+00  0.0000E+00  0.0000E+00  0.0000E+00  0.0000E+00
 79  0.0000E+00  6.1821E-05  0.0000E+00  0.0000E+00  0.0000E+00  0.0000E+00  0.0000E+00  0.0000E+00  0.0000E+00
 80  0.0000E+00  7.1503E-05  0.0000E+00  0.0000E+00  1.5957E-04  0.0000E+00  0.0000E+00  0.0000E+00  0.0000E+00
 81  0.0000E+00  3.8786E-05  0.0000E+00  0.0000E+00  0.0000E+00  0.0000E+00  0.0000E+00  0.0000E+00  0.0000E+00
 82  0.0000E+00  9.1827E-05  0.0000E+00  0.0000E+00  0.0000E+00  0.0000E+00  0.0000E+00  0.0000E+00  0.0000E+00
 83  0.0000E+00  2.0283E-04  0.0000E+00  0.0000E+00  0.0000E+00  0.0000E+00  0.0000E+00  0.0000E+00  0.0000E+00
 84  0.0000E+00  2.7564E-04  1.1183E-03  0.0000E+00  0.0000E+00  0.0000E+00  0.0000E+00  0.0000E+00  0.0000E+00
 85  0.0000E+00  5.2675E-04  3.1227E-04  0.0000E+00  0.0000E+00  1.8276E-04  0.0000E+00  0.0000E+00  0.0000E+00
 86  0.0000E+00  4.8674E-04  0.0000E+00  0.0000E+00  0.0000E+00  0.0000E+00  0.0000E+00  0.0000E+00  4.6098E-04
 87  0.0000E+00  9.8660E-04  0.0000E+00  0.0000E+00  0.0000E+00  0.0000E+00  0.0000E+00  0.0000E+00  7.8979E-03
 88  0.0000E+00  6.7977E-04  0.0000E+00  0.0000E+00  0.0000E+00  0.0000E+00  0.0000E+00  0.0000E+00  0.0000E+00
 89  0.0000E+00  9.7472E-04  0.0000E+00  0.0000E+00  0.0000E+00  0.0000E+00  0.0000E+00  0.0000E+00  0.0000E+00
 90  0.0000E+00  2.2185E-03  0.0000E+00  0.0000E+00  6.4787E-03  0.0000E+00  0.0000E+00  0.0000E+00  3.5316E-03
 91  0.0000E+00  2.7158E-03  0.0000E+00  2.9616E-02  1.3759E-02  0.0000E+00  0.0000E+00  0.0000E+00  0.0000E+00
 92  0.0000E+00  9.5295E-03  0.0000E+00  0.0000E+00  0.0000E+00  0.0000E+00  0.0000E+00  0.0000E+00  0.0000E+00
 93  0.0000E+00  5.1948E-02  7.7809E-02  0.0000E+00  0.0000E+00  0.0000E+00  1.4822E-01  0.0000E+00  0.0000E+00
 94  0.0000E+00  4.3081E-01  0.0000E+00  3.2617E-01  1.0222E+00  0.0000E+00  0.0000E+00  7.5910E-02  2.0513E-01
 95  0.0000E+00  3.7958E-01  1.7086E-01  6.2123E-01  1.0630E+00  2.5834E-01  0.0000E+00  0.0000E+00  1.4545E+00
 96  0.0000E+00  2.0727E-01  0.0000E+00  9.2137E-01  3.7655E-01  0.0000E+00  6.1846E-01  1.0540E-01  0.0000E+00
 97  7.1710E-01  7.3177E-01  8.3611E-01  0.0000E+00  0.0000E+00  0.0000E+00  1.0616E+00  1.0181E+00  1.1444E+00
 98  0.0000E+00  2.1957E-01  4.7772E-01  1.9704E-01  0.0000E+00  0.0000E+00  0.0000E+00  1.9674E-01  2.1139E-01
 99  1.1816E-02  5.8094E-01  1.7444E+00  0.0000E+00  8.0639E-01  0.0000E+00  0.0000E+00  1.4227E+00  0.0000E+00
100  0.0000E+00  3.7588E-01  6.0416E-01  0.0000E+00  0.0000E+00  2.4283E-01  0.0000E+00  9.9045E-01  0.0000E+00
101  0.0000E+00  1.7843E-05  0.0000E+00  0.0000E+00  0.0000E+00  0.0000E+00  0.0000E+00  0.0000E+00  0.0000E+00
102  0.0000E+00  8.6688E-06  0.0000E+00  0.0000E+00  6.4701E-05  0.0000E+00  0.0000E+00  0.0000E+00  0.0000E+00
103  0.0000E+00  3.1876E-05  0.0000E+00  0.0000E+00  3.1445E-04  0.0000E+00  0.0000E+00  0.0000E+00  0.0000E+00
104  0.0000E+00  2.1644E-05  0.0000E+00  1.6512E-04  0.0000E+00  0.0000E+00  0.0000E+00  0.0000E+00  5.4763E-05
105  0.0000E+00  3.3826E-05  0.0000E+00  0.0000E+00  0.0000E+00  0.0000E+00  0.0000E+00  0.0000E+00  0.0000E+00
106  0.0000E+00  5.4637E-05  0.0000E+00  0.0000E+00  0.0000E+00  0.0000E+00  0.0000E+00  0.0000E+00  0.0000E+00
107  0.0000E+00  1.1741E-04  0.0000E+00  0.0000E+00  0.0000E+00  0.0000E+00  0.0000E+00  0.0000E+00  0.0000E+00
108  0.0000E+00  8.0559E-05  0.0000E+00  0.0000E+00  0.0000E+00  0.0000E+00  0.0000E+00  0.0000E+00  0.0000E+00
109  0.0000E+00  2.3048E-04  0.0000E+00  0.0000E+00  0.0000E+00  0.0000E+00  0.0000E+00  0.0000E+00  0.0000E+00
110  0.0000E+00  1.9891E-04  0.0000E+00  0.0000E+00  0.0000E+00  0.0000E+00  0.0000E+00  0.0000E+00  0.0000E+00
111  0.0000E+00  3.4671E-04  0.0000E+00  0.0000E+00  0.0000E+00  0.0000E+00  3.9464E-03  0.0000E+00  0.0000E+00
112  0.0000E+00  4.3557E-04  0.0000E+00  0.0000E+00  0.0000E+00  3.7506E-04  0.0000E+00  2.9075E-03  0.0000E+00
113  0.0000E+00  5.9186E-04  0.0000E+00  0.0000E+00  0.0000E+00  0.0000E+00  0.0000E+00  3.1843E-04  4.5625E-03
114  0.0000E+00  1.0838E-03  1.3235E-03  0.0000E+00  0.0000E+00  2.6995E-03  0.0000E+00  0.0000E+00  2.1731E-03
115  0.0000E+00  3.0676E-03  0.0000E+00  0.0000E+00  0.0000E+00  0.0000E+00  3.8043E-03  0.0000E+00  0.0000E+00
116  0.0000E+00  1.6691E-02  0.0000E+00  0.0000E+00  5.1853E-02  9.0357E-02  0.0000E+00  0.0000E+00  0.0000E+00
117  0.0000E+00  2.0754E-02  0.0000E+00  0.0000E+00  0.0000E+00  0.0000E+00  0.0000E+00  0.0000E+00  0.0000E+00
118  0.0000E+00  1.1003E-01  0.0000E+00  2.5467E-01  0.0000E+00  0.0000E+00  3.4339E-01  5.1044E-01  0.0000E+00
119  0.0000E+00  1.0136E-01  1.5249E-01  0.0000E+00  0.0000E+00  0.0000E+00  6.8125E-03  1.7266E-01  0.0000E+00
120  0.0000E+00  1.0318E-01  0.0000E+00  1.5742E-02  0.0000E+00  0.0000E+00  0.0000E+00  0.0000E+00  0.0000E+00
121  0.0000E+00  1.0249E-01  0.0000E+00  9.7002E-02  0.0000E+00  0.0000E+00  0.0000E+00  0.0000E+00  0.0000E+00
122  0.0000E+00  1.0549E-01  0.0000E+00  0.0000E+00  0.0000E+00  1.9200E-01  0.0000E+00  0.0000E+00  0.0000E+00
123  0.0000E+00  7.6011E-02  0.0000E+00  0.0000E+00  3.7753E-01  0.0000E+00  0.0000E+00  0.0000E+00  0.0000E+00
124  0.0000E+00  1.4129E-01  8.0196E-02  0.0000E+00  0.0000E+00  1.1701E+00  0.0000E+00  0.0000E+00  0.0000E+00
125  0.0000E+00  1.6225E-01  0.0000E+00  0.0000E+00  0.0000E+00  0.0000E+00  0.0000E+00  0.0000E+00  0.0000E+00
126  0.0000E+00  1.1672E-05  0.0000E+00  0.0000E+00  0.0000E+00  0.0000E+00  0.0000E+00  2.4149E-05  0.0000E+00
127  0.0000E+00  1.2677E-05  0.0000E+00  0.0000E+00  0.0000E+00  0.0000E+00  0.0000E+00  0.0000E+00  0.0000E+00
128  0.0000E+00  2.5096E-05  0.0000E+00  0.0000E+00  0.0000E+00  0.0000E+00  0.0000E+00  0.0000E+00  0.0000E+00
129  0.0000E+00  4.6925E-05  0.0000E+00  0.0000E+00  0.0000E+00  0.0000E+00  1.2810E-04  0.0000E+00  0.0000E+00
130  0.0000E+00  2.3765E-05  0.0000E+00  0.0000E+00  0.0000E+00  0.0000E+00  0.0000E+00  0.0000E+00  0.0000E+00
131  0.0000E+00  3.2358E-05  0.0000E+00  0.0000E+00  0.0000E+00  0.0000E+00  0.0000E+00  0.0000E+00  0.0000E+00
132  0.0000E+00  7.8365E-05  0.0000E+00  0.0000E+00  0.0000E+00  0.0000E+00  0.0000E+00  0.0000E+00  0.0000E+00
133  0.0000E+00  9.2698E-05  0.0000E+00  0.0000E+00  0.0000E+00  0.0000E+00  0.0000E+00  0.0000E+00  0.0000E+00
134  0.0000E+00  2.8216E-04  0.0000E+00  2.9091E-03  0.0000E+00  0.0000E+00  0.0000E+00  0.0000E+00  0.0000E+00
135  0.0000E+00  3.6260E-04  0.0000E+00  0.0000E+00  0.0000E+00  1.1674E-03  0.0000E+00  0.0000E+00  0.0000E+00
136  0.0000E+00  3.9180E-04  0.0000E+00  0.0000E+00  5.8457E-03  0.0000E+00  1.1386E-03  0.0000E+00  0.0000E+00
137  0.0000E+00  6.6568E-04  0.0000E+00  0.0000E+00  6.8535E-03  0.0000E+00  0.0000E+00  0.0000E+00  4.6557E-03
138  0.0000E+00  8.1048E-04  0.0000E+00  0.0000E+00  0.0000E+00  0.0000E+00  0.0000E+00  0.0000E+00  0.0000E+00
139  0.0000E+00  2.3805E-03  0.0000E+00  5.3878E-03  0.0000E+00  0.0000E+00  3.4052E-04  0.0000E+00  4.4518E-03
140  0.0000E+00  1.4754E-02  0.0000E+00  0.0000E+00  0.0000E+00  0.0000E+00  3.7206E-02  0.0000E+00  1.0503E-03
141  1.0901E+00  1.1110E-01  9.3519E-02  1.9231E-01  3.0526E-01  1.2827E-01  1.5466E-01  1.8139E-01  2.5432E-01
142  2.4451E+00  1.9424E-01  7.9055E-01  1.9237E-01  2.2759E-01  2.9863E-01  7.5224E-01  5.3326E-01  4.7910E-01
143  0.0000E+00  1.6202E-01  1.2197E-01  2.5572E-01  8.4002E-02  0.0000E+00  4.9823E-01  0.0000E+00  0.0000E+00
144  0.0000E+00  1.6766E-01  0.0000E+00  0.0000E+00  2.4358E-01  0.0000E+00  1.2638E-01  0.0000E+00  0.0000E+00
145  0.0000E+00  6.7023E-02  0.0000E+00  0.0000E+00  1.0963E-03  0.0000E+00  0.0000E+00  0.0000E+00  1.9038E-01
146  0.0000E+00  1.1943E-01  0.0000E+00  0.0000E+00  0.0000E+00  0.0000E+00  3.3143E-01  3.5208E-01  0.0000E+00
147  0.0000E+00  1.0101E-01  0.0000E+00  0.0000E+00  0.0000E+00  7.1766E-01  0.0000E+00  0.0000E+00  0.0000E+00
148  0.0000E+00  9.3623E-02  0.0000E+00  6.2134E-01  0.0000E+00  0.0000E+00  0.0000E+00  0.0000E+00  1.9685E-01
149  0.0000E+00  8.2703E-02  0.0000E+00  0.0000E+00  0.0000E+00  0.0000E+00  0.0000E+00  0.0000E+00  0.0000E+00
150  0.0000E+00  1.0619E-01  0.0000E+00  0.0000E+00  0.0000E+00  0.0000E+00  0.0000E+00  0.0000E+00  0.0000E+00

# AV, chi2 & Mass for <> & i_chain = 1 ...  7 solutions
AV       0.2722      0.2620      0.2630      0.2591      0.2642      0.2617      0.2636      0.2596      0.2618
chi2 1.3804E+00  1.4090E+00  1.3945E+00  1.3992E+00  1.4020E+00  1.4011E+00  1.3971E+00  1.4012E+00  1.4009E+00
Mass 1.7945E-10  1.8710E-10  1.8634E-10  1.8616E-10  1.8608E-10  1.8377E-10  1.8266E-10  1.8431E-10  1.8648E-10
 -13.63                                  [v0_min (km/s) before EX0s...]
  69.21                                  [vd_min (km/s) before EX0s...]


## Synthetic spectrum (Best Model) ##l_obs f_obs f_syn wei
 3070    [Nl_obs]
 3359.00    0.00000   0.46106   -2.000
 3360.00    0.04239   0.44155   -1.000
 3361.00    0.28427   0.44740   -1.000
 3362.00    0.30571   0.47420   -1.000
 3363.00    0.34639   0.50749   -1.000
 3364.00    0.33084   0.52961   -1.000
 3365.00    0.35083   0.53240   -1.000
 3366.00    0.36539   0.52111   -1.000
 3367.00    0.35746   0.50412   -1.000
 3368.00    0.33949   0.48820   -1.000
 3369.00    0.34000   0.47469   -1.000
 3370.00    0.34346   0.46170   -1.000
 3371.00    0.32823   0.45409   -1.000
 3372.00    0.33358   0.45872   -1.000
 3373.00    0.36769   0.47758   -1.000
 3374.00    0.38750   0.50568   -1.000
 3375.00    0.40662   0.53355   -1.000
 3376.00    0.42218   0.54850   -1.000
 3377.00    0.41473   0.54436   -1.000
 3378.00    0.38889   0.52739   -1.000
 3379.00    0.39442   0.51071   -1.000
 3380.00    0.41423   0.50407   -1.000
 3381.00    0.42314   0.50896   -1.000
 3382.00    0.41692   0.52037   -1.000
 3383.00    0.43029   0.53158   -1.000
 3384.00    0.42840   0.54041   -1.000
 3385.00    0.45168   0.54668   -1.000
 3386.00    0.46077   0.54672   -1.000
 3387.00    0.46866   0.54176   -1.000
 3388.00    0.46457   0.53912   -1.000
 3389.00    0.45067   0.54168   -1.000
 3390.00    0.46372   0.54462   -1.000
 3391.00    0.47688   0.54146   -1.000
 3392.00    0.48937   0.53156   -1.000
 3393.00    0.48932   0.52600   -1.000
 3394.00    0.45873   0.53353   -1.000
 3395.00    0.47724   0.55125   -1.000
 3396.00    0.50602   0.57190   -1.000
 3397.00    0.51740   0.58907   -1.000
 3398.00    0.51406   0.59854   -1.000
 3399.00    0.53534   0.59816   -1.000
 3400.00    0.53210   0.58984   -1.000
 3401.00    0.51045   0.57588   -1.000
 3402.00    0.51700   0.55947   -1.000
 3403.00    0.50656   0.54767   -1.000
 3404.00    0.50407   0.54288   -1.000
 3405.00    0.49307   0.54190   -1.000
 3406.00    0.49647   0.53857   -1.000
 3407.00    0.48964   0.53241   -1.000
 3408.00    0.49332   0.52875   -1.000
 3409.00    0.50833   0.53258   -1.000
 3410.00    0.48662   0.53950   -1.000
 3411.00    0.47748   0.53992   -1.000
 3412.00    0.50846   0.53293   -1.000
 3413.00    0.45820   0.52479   -1.000
 3414.00    0.43706   0.52411   -1.000
 3415.00    0.47692   0.53286   -1.000
 3416.00    0.49728   0.54599   -1.000
 3417.00    0.50865   0.55956   -1.000
 3418.00    0.51771   0.57264   -1.000
 3419.00    0.50670   0.58405   -1.000
 3420.00    0.53551   0.59032   -1.000
 3421.00    0.54113   0.58737   -1.000
 3422.00    0.52472   0.57613   -1.000
 3423.00    0.53713   0.56443   -1.000
 3424.00    0.52670   0.55986   -1.000
 3425.00    0.53017   0.56259   -1.000
 3426.00    0.53959   0.56921   -1.000
 3427.00    0.55904   0.58062  126.092
 3428.00    0.56883   0.59752   -1.000
 3429.00    0.58783   0.61211   -1.000
 3430.00    0.58598   0.61312   -1.000
 3431.00    0.59223   0.59840   -1.000
 3432.00    0.56861   0.57982   -1.000
 3433.00    0.55250   0.57099   -1.000
 3434.00    0.54385   0.57662   -1.000
 3435.00    0.55541   0.58760   -1.000
 3436.00    0.57623   0.59030   -1.000
 3437.00    0.57541   0.58061  567.082
 3438.00    0.56158   0.56151  125.909
 3439.00    0.52000   0.53683  132.085
 3440.00    0.49294   0.51085  140.387
 3441.00    0.49650   0.49150  150.919
 3442.00    0.48344   0.48542  156.167
 3443.00    0.49583   0.49150  156.242
 3444.00    0.51317   0.50453  154.813
 3445.00    0.50641   0.52158  148.285
 3446.00    0.54213   0.54347  140.124
 3447.00    0.54925   0.56815  132.755
 3448.00    0.57597   0.58883  145.460
 3449.00    0.58491   0.59749   -1.000
 3450.00    0.57327   0.59006   -1.000
 3451.00    0.56755   0.57239   -1.000
 3452.00    0.55703   0.55660  843.598
 3453.00    0.57077   0.55198   -1.000
 3454.00    0.57134   0.55806   -1.000
 3455.00    0.56734   0.56693  843.598
 3456.00    0.57623   0.56972   -1.000
 3457.00    0.60243   0.56320   -1.000
 3458.00    0.60449   0.55129   -1.000
 3459.00    0.55250   0.53830   -1.000
 3460.00    0.54003   0.52797  125.750
 3461.00    0.54780   0.52804  127.143
 3462.00    0.55081   0.54120  142.321
 3463.00    0.54676   0.55670   -1.000
 3464.00    0.57296   0.56317   -1.000
 3465.00    0.55784   0.56131   -1.000
 3466.00    0.54711   0.56109   -1.000
 3467.00    0.56380   0.56949   -1.000
 3468.00    0.58564   0.58415  843.598
 3469.00    0.58594   0.59719   -1.000
 3470.00    0.61020   0.60081   -1.000
 3471.00    0.60297   0.59298   -1.000
 3472.00    0.58588   0.57635   -1.000
 3473.00    0.57535   0.55393   -1.000
 3474.00    0.55311   0.53170   -1.000
 3475.00    0.51767   0.51852  591.194
 3476.00    0.53101   0.52055  127.146
 3477.00    0.54053   0.53598  131.026
 3478.00    0.57134   0.55572  143.901
 3479.00    0.59099   0.57261   -1.000
 3480.00    0.57795   0.58297   -1.000
 3481.00    0.57065   0.58459   -1.000
 3482.00    0.60170   0.57913   -1.000
 3483.00    0.61312   0.57262   -1.000
 3484.00    0.62491   0.57265   -1.000
 3485.00    0.60642   0.58277   -1.000
 3486.00    0.60664   0.59571   -1.000
 3487.00    0.63299   0.59891   -1.000
 3488.00    0.61699   0.58784   -1.000
 3489.00    0.62395   0.56862   -1.000
 3490.00    0.57889   0.55409   -1.000
 3491.00    0.56448   0.55237   -1.000
 3492.00    0.56751   0.55858   -1.000
 3493.00    0.57217   0.56268   -1.000
 3494.00    0.57192   0.55949   -1.000
 3495.00    0.57564   0.55031   -1.000
 3496.00    0.57249   0.54342   -1.000
 3497.00    0.56003   0.54781   -1.000
 3498.00    0.56769   0.56200   -1.000
 3499.00    0.58621   0.57637   -1.000
 3500.00    0.59244   0.58371   -1.000
 3501.00    0.61919   0.58709   -1.000
 3502.00    0.65714   0.59149   -1.000
 3503.00    0.62991   0.59479   -1.000
 3504.00    0.60127   0.59227   -1.000
 3505.00    0.59347   0.58429   -1.000
 3506.00    0.60179   0.57656   -1.000
 3507.00    0.59971   0.57276   -1.000
 3508.00    0.60106   0.57153   -1.000
 3509.00    0.60031   0.56925   -1.000
 3510.00    0.61400   0.56428   -1.000
 3511.00    0.60640   0.55804   -1.000
 3512.00    0.60326   0.55062   -1.000
 3513.00    0.58794   0.54406   -1.000
 3514.00    0.59117   0.54590   -1.000
 3515.00    0.56144   0.56125  843.598
 3516.00    0.60582   0.58576   -1.000
 3517.00    0.63149   0.60544   -1.000
 3518.00    0.61856   0.60853   -1.000
 3519.00    0.60418   0.59516   -1.000
 3520.00    0.61646   0.57516   -1.000
 3521.00    0.57675   0.55813   -1.000
 3522.00    0.57619   0.54520   -1.000
 3523.00    0.55781   0.53234   -1.000
 3524.00    0.52932   0.52008   -1.000
 3525.00    0.53293   0.51532  125.963
 3526.00    0.52177   0.52447  129.943
 3527.00    0.54486   0.54551  142.973
 3528.00    0.55571   0.57010   -1.000
 3529.00    0.57877   0.58921   -1.000
 3530.00    0.59644   0.59871  843.598
 3531.00    0.61734   0.59987   -1.000
 3532.00    0.61144   0.59609   -1.000
 3533.00    0.63249   0.59194   -1.000
 3534.00    0.62476   0.59123   -1.000
 3535.00    0.60879   0.59525   -1.000
 3536.00    0.61452   0.60402   -1.000
 3537.00    0.60193   0.61557   -1.000
 3538.00    0.59729   0.62667   -1.000
 3539.00    0.70047   0.63300   -1.000
 3540.00    0.64753   0.63197   -1.000
 3541.00    0.63854   0.62805   -1.000
 3542.00    0.63035   0.62791  843.598
 3543.00    0.62906   0.63258   -1.000
 3544.00    0.62408   0.63735   -1.000
 3545.00    0.63647   0.63723  843.598
 3546.00    0.62776   0.63271   -1.000
 3547.00    0.63796   0.62783   -1.000
 3548.00    0.59969   0.62621   -1.000
 3549.00    0.62576   0.62854  843.598
 3550.00    0.62021   0.63219   -1.000
 3551.00    0.60736   0.63211   -1.000
 3552.00    0.60875   0.62486   -1.000
 3553.00    0.57574   0.61446   -1.000
 3554.00    0.59194   0.60826   -1.000
 3555.00    0.60417   0.60952   -1.000
 3556.00    0.59633   0.61522   -1.000
 3557.00    0.59258   0.61985   -1.000
 3558.00    0.58682   0.62061   -1.000
 3559.00    0.60067   0.62005   -1.000
 3560.00    0.60542   0.62279   -1.000
 3561.00    0.59210   0.62863   -1.000
 3562.00    0.62466   0.62985   -1.000
 3563.00    0.60527   0.61679   -1.000
 3564.00    0.60127   0.58945   -1.000
 3565.00    0.56266   0.56250  644.056
 3566.00    0.53183   0.54860  127.261
 3567.00    0.52738   0.54607  131.828
 3568.00    0.51703   0.54437   -1.000
 3569.00    0.49189   0.53597   -1.000
 3570.00    0.48922   0.52599   -1.000
 3571.00    0.50611   0.52383  136.186
 3572.00    0.52903   0.53007  131.654
 3573.00    0.54234   0.53886  138.292
 3574.00    0.54871   0.54621  843.598
 3575.00    0.54318   0.55279   -1.000
 3576.00    0.55986   0.55937  843.598
 3577.00    0.56202   0.56302  843.598
 3578.00    0.56091   0.55862   -1.000
 3579.00    0.55187   0.54442   -1.000
 3580.00    0.52951   0.52597  131.946
 3581.00    0.50082   0.51183  142.229
 3582.00    0.49353   0.50800  149.338
 3583.00    0.50852   0.51023  150.195
 3584.00    0.50730   0.50617  151.107
 3585.00    0.48655   0.49304  155.082
 3586.00    0.47892   0.48092  159.950
 3587.00    0.48536   0.48137  161.149
 3588.00    0.50378   0.49768  152.843
 3589.00    0.51295   0.52376  144.760
 3590.00    0.52249   0.55025   -1.000
 3591.00    0.56863   0.56913  137.242
 3592.00    0.55303   0.57777   -1.000
 3593.00    0.56965   0.58119   -1.000
 3594.00    0.58867   0.58768  843.598
 3595.00    0.57978   0.60029   -1.000
 3596.00    0.58637   0.61403   -1.000
 3597.00    0.61780   0.62461   -1.000
 3598.00    0.62668   0.63161   -1.000
 3599.00    0.62900   0.63415   -1.000
 3600.00    0.61147   0.62852   -1.000
 3601.00    0.61426   0.61286  843.598
 3602.00    0.60937   0.59302   -1.000
 3603.00    0.58345   0.57796   -1.000
 3604.00    0.58741   0.57285   -1.000
 3605.00    0.57694   0.57396   -1.000
 3606.00    0.56082   0.57328   -1.000
 3607.00    0.57867   0.56717   -1.000
 3608.00    0.55258   0.55841   -1.000
 3609.00    0.54691   0.55396   -1.000
 3610.00    0.54452   0.55770   -1.000
 3611.00    0.54894   0.56642   -1.000
 3612.00    0.56266   0.57584   -1.000
 3613.00    0.56863   0.58541   -1.000
 3614.00    0.58208   0.59723   -1.000
 3615.00    0.59831   0.60763   -1.000
 3616.00    0.59172   0.60430   -1.000
 3617.00    0.56933   0.58379   -1.000
 3618.00    0.54903   0.56072   -1.000
 3619.00    0.54465   0.55298   -1.000
 3620.00    0.54404   0.56534  135.111
 3621.00    0.56374   0.58751   -1.000
 3622.00    0.59750   0.60722   -1.000
 3623.00    0.61769   0.62064  843.598
 3624.00    0.62741   0.63365   -1.000
 3625.00    0.62320   0.65212   -1.000
 3626.00    0.65001   0.67279   -1.000
 3627.00    0.66236   0.68483   -1.000
 3628.00    0.67578   0.67561  843.598
 3629.00    0.62167   0.64342   -1.000
 3630.00    0.57786   0.60308   -1.000
 3631.00    0.54361   0.57557   -1.000
 3632.00    0.53229   0.57151   -1.000
 3633.00    0.55191   0.58410   -1.000
 3634.00    0.58053   0.59862   -1.000
 3635.00    0.59052   0.60723   -1.000
 3636.00    0.60901   0.61434   -1.000
 3637.00    0.62819   0.62699  843.598
 3638.00    0.61755   0.64354   -1.000
 3639.00    0.64244   0.65654   -1.000
 3640.00    0.64906   0.65910   -1.000
 3641.00    0.62324   0.64965   -1.000
 3642.00    0.63165   0.63262  843.598
 3643.00    0.60536   0.61528   -1.000
 3644.00    0.59730   0.60277   -1.000
 3645.00    0.57176   0.59489   -1.000
 3646.00    0.59296   0.58907   -1.000
 3647.00    0.56344   0.58589   -1.000
 3648.00    0.57231   0.58681   -1.000
 3649.00    0.57552   0.59212   -1.000
 3650.00    0.60282   0.60247  843.598
 3651.00    0.60362   0.61790   -1.000
 3652.00    0.62280   0.63574   -1.000
 3653.00    0.62951   0.65171   -1.000
 3654.00    0.64538   0.66375   -1.000
 3655.00    0.65827   0.67326   -1.000
 3656.00    0.65691   0.68179   -1.000
 3657.00    0.65810   0.68801   -1.000
 3658.00    0.66036   0.69075   -1.000
 3659.00    0.64815   0.69057   -1.000
 3660.00    0.64077   0.68695   -1.000
 3661.00    0.65093   0.67936   -1.000
 3662.00    0.65531   0.66999   -1.000
 3663.00    0.64722   0.66284   -1.000
 3664.00    0.64216   0.66103   -1.000
 3665.00    0.65191   0.66305   -1.000
 3666.00    0.66545   0.66409  843.598
 3667.00    0.68449   0.66013   -1.000
 3668.00    0.66716   0.65197   -1.000
 3669.00    0.63233   0.64649   -1.000
 3670.00    0.62698   0.64930   -1.000
 3671.00    0.63201   0.65963   -1.000
 3672.00    0.65068   0.67084   -1.000
 3673.00    0.64474   0.67622   -1.000
 3674.00    0.64952   0.67343   -1.000
 3675.00    0.66187   0.66298  843.598
 3676.00    0.64651   0.64712  843.598
 3677.00    0.62956   0.63026  843.598
 3678.00    0.61312   0.61808   -1.000
 3679.00    0.61855   0.61452   -1.000
 3680.00    0.60385   0.61839   -1.000
 3681.00    0.60867   0.62613   -1.000
 3682.00    0.63511   0.63366  843.598
 3683.00    0.64336   0.63622   -1.000
 3684.00    0.60662   0.62997   -1.000
 3685.00    0.61642   0.61604  843.598
 3686.00    0.60200   0.60416  843.598
 3687.00    0.59887   0.60532   -1.000
 3688.00    0.60682   0.62229   -1.000
 3689.00    0.62197   0.64682   -1.000
 3690.00    0.64907   0.66702   -1.000
 3691.00    0.66648   0.67633   -1.000
 3692.00    0.66229   0.67684   -1.000
 3693.00    0.65793   0.67450   -1.000
 3694.00    0.66586   0.67238   -1.000
 3695.00    0.66433   0.67012   -1.000
 3696.00    0.65261   0.66830   -1.000
 3697.00    0.67611   0.67288   -1.000
 3698.00    0.67849   0.68873   -1.000
 3699.00    0.68330   0.71015   -1.000
 3700.00    0.70120   0.72248   -1.000
 3701.00    0.70863   0.71122  819.797
 3702.00    0.68900   0.67530   -1.000
 3703.00    0.63479   0.62926   -1.000
 3704.00    0.60117   0.59185   -1.000
 3705.00    0.57815   0.57579  843.598
 3706.00    0.57459   0.58067   -1.000
 3707.00    0.58496   0.59542   -1.000
 3708.00    0.60888   0.60810  843.598
 3709.00    0.60574   0.61304   -1.000
 3710.00    0.63493   0.61368   -1.000
 3711.00    0.64840   0.61943   -1.000
 3712.00    0.67550   0.63749   -1.000
 3713.00    0.68900   0.66664   -1.000
 3714.00    0.70694   0.69783   -1.000
 3715.00    0.71997   0.71943  813.781
 3716.00    0.71261   0.72454   -1.000
 3717.00    0.70415   0.71045   -1.000
 3718.00    0.69776   0.67335   -1.000
 3719.00    0.62224   0.61627   -1.000
 3720.00    0.55446   0.55977   -1.000
 3721.00    0.51977   0.52906   -1.000
 3722.00    0.55028   0.53559  134.482
 3723.00    0.57460   0.57490  843.598
 3724.00    0.62487   0.62813  843.598
 3725.00    0.67702   0.66891   -1.000
 3726.00    0.69411   0.68665   -1.000
 3727.00    0.67957   0.69178   -1.000
 3728.00    0.69568   0.69569  843.598
 3729.00    0.68769   0.69765   -1.000
 3730.00    0.66612   0.68662   -1.000
 3731.00    0.65622   0.65152   -1.000
 3732.00    0.61008   0.59527   -1.000
 3733.00    0.53566   0.53529  764.427
 3734.00    0.50715   0.49157  125.822
 3735.00    0.51411   0.48003   -1.000
 3736.00    0.52866   0.50438   -1.000
 3737.00    0.56342   0.55466  137.233
 3738.00    0.59463   0.61588  131.378
 3739.00    0.64486   0.67165   -1.000
 3740.00    0.68790   0.70617   -1.000
 3741.00    0.71147   0.71362  843.598
 3742.00    0.70604   0.69932   -1.000
 3743.00    0.67135   0.67398  843.598
 3744.00    0.66190   0.64655   -1.000
 3745.00    0.62707   0.61966   -1.000
 3746.00    0.60104   0.59030   -1.000
 3747.00    0.57042   0.55566   -1.000
 3748.00    0.53646   0.52046  127.240
 3749.00    0.51610   0.50014  135.187
 3750.00    0.52806   0.51073  143.085
 3751.00    0.58196   0.55374   -1.000
 3752.00    0.64948   0.61496   -1.000
 3753.00    0.69735   0.67564   -1.000
 3754.00    0.73279   0.71955   -1.000
 3755.00    0.75828   0.73701   -1.000
 3756.00    0.71492   0.72568   -1.000
 3757.00    0.68532   0.69425   -1.000
 3758.00    0.67124   0.66259   -1.000
 3759.00    0.64415   0.64845   -1.000
 3760.00    0.64549   0.65374   -1.000
 3761.00    0.67990   0.66857   -1.000
 3762.00    0.70426   0.68298   -1.000
 3763.00    0.71297   0.69147   -1.000
 3764.00    0.70206   0.69172   -1.000
 3765.00    0.71601   0.68330   -1.000
 3766.00    0.69875   0.66721   -1.000
 3767.00    0.67597   0.64449   -1.000
 3768.00    0.64409   0.61718   -1.000
 3769.00    0.63731   0.59129   -1.000
 3770.00    0.61894   0.57818   -1.000
 3771.00    0.62185   0.58970   -1.000
 3772.00    0.65719   0.62383   -1.000
 3773.00    0.69472   0.66363   -1.000
 3774.00    0.71810   0.69387   -1.000
 3775.00    0.74944   0.71318   -1.000
 3776.00    0.75362   0.72899   -1.000
 3777.00    0.75943   0.74840   -1.000
 3778.00    0.76188   0.77168   -1.000
 3779.00    0.79620   0.79456  843.598
 3780.00    0.80875   0.81285   -1.000
 3781.00    0.82284   0.82321  801.108
 3782.00    0.81309   0.82546   -1.000
 3783.00    0.81476   0.82081   -1.000
 3784.00    0.81157   0.80802  792.771
 3785.00    0.78810   0.78579  812.573
 3786.00    0.76484   0.75827   -1.000
 3787.00    0.72892   0.73378   -1.000
 3788.00    0.71751   0.72007   -1.000
 3789.00    0.73589   0.71793   -1.000
 3790.00    0.73873   0.72096   -1.000
 3791.00    0.74523   0.72014   -1.000
 3792.00    0.71621   0.70849   -1.000
 3793.00    0.70103   0.68421   -1.000
 3794.00    0.67361   0.65009   -1.000
 3795.00    0.62497   0.61099   -1.000
 3796.00    0.58641   0.57068   -1.000
 3797.00    0.57829   0.53692   -1.000
 3798.00    0.57990   0.52761   -1.000
 3799.00    0.59944   0.55567   -1.000
 3800.00    0.63177   0.61299   -1.000
 3801.00    0.68954   0.67742   -1.000
 3802.00    0.73789   0.72930   -1.000
 3803.00    0.78366   0.76039   -1.000
 3804.00    0.80033   0.77237   -1.000
 3805.00    0.77177   0.77000  843.598
 3806.00    0.75939   0.76393   -1.000
 3807.00    0.76580   0.76741  843.598
 3808.00    0.78003   0.78414   -1.000
 3809.00    0.78541   0.80549   -1.000
 3810.00    0.81947   0.81717  843.598
 3811.00    0.81116   0.80872  843.598
 3812.00    0.77224   0.78083   -1.000
 3813.00    0.74797   0.74522  843.598
 3814.00    0.72860   0.71790   -1.000
 3815.00    0.69641   0.71066   -1.000
 3816.00    0.73382   0.72125   -1.000
 3817.00    0.73160   0.73409  843.598
 3818.00    0.73436   0.73300  843.598
 3819.00    0.71422   0.71579  843.598
 3820.00    0.70126   0.69782  843.598
 3821.00    0.70179   0.69420   -1.000
 3822.00    0.71075   0.70023   -1.000
 3823.00    0.69652   0.69722  843.598
 3824.00    0.70179   0.67753   -1.000
 3825.00    0.64943   0.65268  843.598
 3826.00    0.63224   0.63535  131.221
 3827.00    0.61059   0.62746  133.873
 3828.00    0.61150   0.62386  132.596
 3829.00    0.62191   0.61835  130.425
 3830.00    0.59628   0.60530  128.399
 3831.00    0.57830   0.58014  130.228
 3832.00    0.55874   0.54277  136.439
 3833.00    0.51455   0.50130  147.353
 3834.00    0.49769   0.47099   -1.000
 3835.00    0.51258   0.46169   -1.000
 3836.00    0.52841   0.47189   -1.000
 3837.00    0.52313   0.49403   -1.000
 3838.00    0.54631   0.52115   -1.000
 3839.00    0.56796   0.55178  145.753
 3840.00    0.60412   0.58900  142.824
 3841.00    0.63900   0.63318  138.289
 3842.00    0.70001   0.67922   -1.000
 3843.00    0.75064   0.71898   -1.000
 3844.00    0.77166   0.74624   -1.000
 3845.00    0.79853   0.76301   -1.000
 3846.00    0.80025   0.77510   -1.000
 3847.00    0.77358   0.78300   -1.000
 3848.00    0.78416   0.78330  843.598
 3849.00    0.77001   0.77832   -1.000
 3850.00    0.76848   0.77714   -1.000
 3851.00    0.77097   0.78598   -1.000
 3852.00    0.77735   0.79999   -1.000
 3853.00    0.79031   0.80730   -1.000
 3854.00    0.79412   0.80155   -1.000
 3855.00    0.75765   0.78662   -1.000
 3856.00    0.74227   0.76901   -1.000
 3857.00    0.72656   0.75162   -1.000
 3858.00    0.70985   0.73646   -1.000
 3859.00    0.70328   0.73034   -1.000
 3860.00    0.70934   0.74024   -1.000
 3861.00    0.73028   0.76419   -1.000
 3862.00    0.77107   0.79025   -1.000
 3863.00    0.80818   0.80548  843.598
 3864.00    0.81080   0.80800  843.598
 3865.00    0.80865   0.80510  843.598
 3866.00    0.79822   0.80387   -1.000
 3867.00    0.78988   0.80640   -1.000
 3868.00    0.79035   0.80786   -1.000
 3869.00    0.79162   0.80017   -1.000
 3870.00    0.75811   0.78049   -1.000
 3871.00    0.72361   0.75503   -1.000
 3872.00    0.70047   0.73633   -1.000
 3873.00    0.71254   0.73580   -1.000
 3874.00    0.72719   0.75158   -1.000
 3875.00    0.76164   0.76579   -1.000
 3876.00    0.76143   0.76200  843.598
 3877.00    0.72166   0.74269   -1.000
 3878.00    0.69842   0.72473   -1.000
 3879.00    0.70236   0.71969   -1.000
 3880.00    0.71729   0.72350   -1.000
 3881.00    0.71560   0.72453   -1.000
 3882.00    0.70336   0.71778   -1.000
 3883.00    0.71481   0.70455   -1.000
 3884.00    0.70435   0.68218   -1.000
 3885.00    0.67320   0.64556   -1.000
 3886.00    0.64402   0.59787   -1.000
 3887.00    0.60315   0.55353   -1.000
 3888.00    0.57442   0.52961   -1.000
 3889.00    0.58798   0.53705   -1.000
 3890.00    0.63429   0.57516   -1.000
 3891.00    0.68576   0.62847   -1.000
 3892.00    0.70560   0.67382   -1.000
 3893.00    0.71051   0.69945   -1.000
 3894.00    0.73251   0.71158   -1.000
 3895.00    0.72488   0.72233   -1.000
 3896.00    0.75856   0.73685   -1.000
 3897.00    0.77582   0.75053   -1.000
 3898.00    0.75044   0.75774   -1.000
 3899.00    0.75950   0.76075  830.000
 3900.00    0.77973   0.76659   -1.000
 3901.00    0.81722   0.77553   -1.000
 3902.00    0.81006   0.78074   -1.000
 3903.00    0.77972   0.77770  830.287
 3904.00    0.75619   0.76965   -1.000
 3905.00    0.76524   0.76557  843.598
 3906.00    0.75466   0.77372   -1.000
 3907.00    0.78730   0.79689   -1.000
 3908.00    0.80349   0.82770   -1.000
 3909.00    0.82332   0.85318   79.331
 3910.00    0.83548   0.86729   77.547
 3911.00    0.86295   0.87136   76.878
 3912.00    0.85731   0.86687   76.144
 3913.00    0.85595   0.85619   75.716
 3914.00    0.85511   0.84484   76.660
 3915.00    0.81828   0.83754   78.280
 3916.00    0.81870   0.83342   80.125
 3917.00    0.81301   0.82741   81.117
 3918.00    0.80138   0.81632   82.215
 3919.00    0.77449   0.80193   84.680
 3920.00    0.76292   0.78944   88.483
 3921.00    0.77042   0.78374   92.720
 3922.00    0.76193   0.78541   94.531
 3923.00    0.75837   0.78917   -1.000
 3924.00    0.75060   0.78678   -1.000
 3925.00    0.73964   0.77148   -1.000
 3926.00    0.69312   0.74054   -1.000
 3927.00    0.65478   0.69586   -1.000
 3928.00    0.60895   0.64179   -1.000
 3929.00    0.53664   0.58088   13.897
 3930.00    0.47329   0.51191   16.296
 3931.00    0.39743   0.43663   19.064
 3932.00    0.32778   0.36687   22.567
 3933.00    0.30822   0.32458   26.382
 3934.00    0.30994   0.32890   28.767
 3935.00    0.35909   0.37844   27.492
 3936.00    0.41448   0.45368   23.816
 3937.00    0.48461   0.53498   19.677
 3938.00    0.56900   0.60941   16.159
 3939.00    0.63898   0.66942   13.651
 3940.00    0.66268   0.71190   -1.000
 3941.00    0.69005   0.73652   -1.000
 3942.00    0.69987   0.74763   -1.000
 3943.00    0.72074   0.75357   -1.000
 3944.00    0.74632   0.76297  106.422
 3945.00    0.77150   0.77879  100.930
 3946.00    0.77754   0.79552   91.583
 3947.00    0.78093   0.80590   86.350
 3948.00    0.78927   0.80971   85.501
 3949.00    0.80154   0.81150   84.885
 3950.00    0.82213   0.81320   81.697
 3951.00    0.82354   0.81428   79.034
 3952.00    0.80450   0.81697   79.470
 3953.00    0.82722   0.82309   80.666
 3954.00    0.83895   0.82738   79.173
 3955.00    0.82800   0.82318   77.169
 3956.00    0.81103   0.81248   78.083
 3957.00    0.80461   0.80353   81.015
 3958.00    0.79966   0.79789   82.293
 3959.00    0.79609   0.78552   80.764
 3960.00    0.76657   0.75727   82.732
 3961.00    0.71072   0.71657   91.794
 3962.00    0.66203   0.67392  103.799
 3963.00    0.62136   0.63288  114.809
 3964.00    0.56464   0.58501  120.341
 3965.00    0.50189   0.51956   13.083
 3966.00    0.43224   0.43724   15.336
 3967.00    0.36591   0.35618   18.941
 3968.00    0.32284   0.30292   23.168
 3969.00    0.31124   0.29555   25.559
 3970.00    0.34711   0.33516   23.684
 3971.00    0.42805   0.40686   19.496
 3972.00    0.50635   0.48924   16.016
 3973.00    0.57772   0.56720   13.401
 3974.00    0.64242   0.63526  111.836
 3975.00    0.71836   0.69249  102.145
 3976.00    0.75932   0.73984   92.045
 3977.00    0.78243   0.77899   84.854
 3978.00    0.82630   0.81174   79.883
 3979.00    0.84144   0.83583   75.702
 3980.00    0.84165   0.84730   71.615
 3981.00    0.85622   0.84824   70.817
 3982.00    0.85099   0.84733   71.340
 3983.00    0.85347   0.85321   72.749
 3984.00    0.88435   0.86670   72.184
 3985.00    0.87894   0.88145   70.655
 3986.00    0.89317   0.89311   69.262
 3987.00    0.90935   0.90282   68.149
 3988.00    0.91749   0.91170   66.833
 3989.00    0.92132   0.91898   66.204
 3990.00    0.94032   0.92606   66.469
 3991.00    0.93552   0.93548   66.032
 3992.00    0.95844   0.94594   64.472
 3993.00    0.97075   0.95142   62.901
 3994.00    0.95072   0.94629   63.708
 3995.00    0.92632   0.93119   65.271
 3996.00    0.92213   0.91432   66.774
 3997.00    0.90093   0.90641   68.050
 3998.00    0.92096   0.91215   68.609
 3999.00    0.93529   0.92784   67.020
 4000.00    0.95218   0.94563   63.894
 4001.00    0.97795   0.95767   61.743
 4002.00    0.98661   0.95869   60.778
 4003.00    0.96963   0.94717   59.910
 4004.00    0.94733   0.92661   61.135
 4005.00    0.91238   0.90952   65.388
 4006.00    0.91134   0.91049   68.756
 4007.00    0.92782   0.92973   68.156
 4008.00    0.98406   0.95409   64.134
 4009.00    0.98208   0.97145   61.614
 4010.00    0.98704   0.97894   60.831
 4011.00    0.99957   0.97991   60.176
 4012.00    1.00850   0.97882   59.983
 4013.00    0.94049   0.97941   60.427
 4014.00    1.01123   0.98277   60.755
 4015.00    1.00784   0.98709   60.287
 4016.00    0.97682   0.99042   59.418
 4017.00    0.97893   0.99375   59.956
 4018.00    1.00657   0.99910   60.706
 4019.00    0.98671   1.00503   60.398
 4020.00    1.00000   1.00748   59.445
 4021.00    1.01462   1.00419   59.605
 4022.00    1.00701   0.99662   60.498
 4023.00    0.97994   0.98767   60.845
 4024.00    0.99220   0.98208   61.244
 4025.00    1.00410   0.98602   61.727
 4026.00    1.00243   0.99934   60.164
 4027.00    1.00647   1.01078   57.998
 4028.00    1.01027   1.00721   56.835
 4029.00    0.98753   0.98686   57.374
 4030.00    0.96496   0.95912   59.781
 4031.00    0.94422   0.93648   63.930
 4032.00    0.92484   0.92701   66.609
 4033.00    0.92219   0.93176   67.386
 4034.00    0.95619   0.94838   66.509
 4035.00    0.97533   0.97411   64.312
 4036.00    1.00987   1.00480   61.107
 4037.00    1.04412   1.03137   58.090
 4038.00    1.03151   1.04329   56.053
 4039.00    1.01156   1.03979   55.859
 4040.00    1.01627   1.02986   57.070
 4041.00    1.00127   1.01985   58.442
 4042.00    1.01925   1.00563   59.071
 4043.00    0.98862   0.97819   59.352
 4044.00    0.93612   0.94110   62.259
 4045.00    0.89893   0.91486   68.424
 4046.00    0.89069   0.91723   73.733
 4047.00    0.93594   0.94637   70.646
 4048.00    1.00121   0.98374   63.711
 4049.00    1.02738   1.01135   59.858
 4050.00    1.03568   1.02349   58.160
 4051.00    1.02349   1.02260   57.495
 4052.00    1.01593   1.01270   57.902
 4053.00    0.99090   0.99977   59.514
 4054.00    0.99765   0.99009   61.059
 4055.00    1.00538   0.98499   62.004
 4056.00    0.99058   0.98272   62.494
 4057.00    0.98805   0.98426   62.916
 4058.00    0.98713   0.99243   63.580
 4059.00    1.00915   1.00374   62.820
 4060.00    1.00885   1.00607   60.518
 4061.00    0.99359   0.99065   59.321
 4062.00    0.96816   0.96203   60.357
 4063.00    0.93608   0.93472   64.837
 4064.00    0.93277   0.92199   69.352
 4065.00    0.93298   0.92635   68.253
 4066.00    0.95822   0.94059   64.855
 4067.00    0.98306   0.95649   63.280
 4068.00    1.00904   0.96817   61.567
 4069.00    1.00819   0.96932   59.571
 4070.00    1.00213   0.95735   58.814
 4071.00    0.98051   0.94124   61.163
 4072.00    0.97474   0.93508   63.987
 4073.00    0.98707   0.94067   63.522
 4074.00    0.97161   0.94417   61.160
 4075.00    0.96113   0.93275   60.833
 4076.00    0.92342   0.90978   63.810
 4077.00    0.91637   0.89236   69.310
 4078.00    0.90892   0.89624   71.413
 4079.00    0.91189   0.92241   69.044
 4080.00    0.95825   0.95515   64.276
 4081.00    0.99427   0.97547   59.835
 4082.00    0.99856   0.97643   58.019
 4083.00    0.99474   0.96523   59.007
 4084.00    0.97116   0.95509   61.049
 4085.00    0.97112   0.95579   61.986
 4086.00    0.99670   0.96849   61.061
 4087.00    1.01700   0.98658   58.986
 4088.00    1.04663   1.00040   56.711
 4089.00    1.04740   1.00372   54.883
 4090.00    1.03484   0.99779   55.131
 4091.00    1.02927   0.98830   56.281
 4092.00    1.01090   0.97780   57.337
 4093.00    1.01133   0.96472   57.985
 4094.00    0.98780   0.94678   58.036
 4095.00    0.95900   0.92333   59.106
 4096.00    0.93984   0.89596   61.842
 4097.00    0.91146   0.86469   63.920
 4098.00    0.87569   0.82543   -1.000
 4099.00    0.82313   0.77349   -1.000
 4100.00    0.77046   0.71563   -1.000
 4101.00    0.73002   0.67496   -1.000
 4102.00    0.73510   0.67465   -1.000
 4103.00    0.76104   0.71756   -1.000
 4104.00    0.83130   0.78302   -1.000
 4105.00    0.87390   0.84322   66.813
 4106.00    0.90989   0.88375   63.211
 4107.00    0.92580   0.90586   61.271
 4108.00    0.92768   0.91586   60.964
 4109.00    0.95031   0.92090   61.546
 4110.00    0.95524   0.92728   62.755
 4111.00    0.94800   0.93800   63.688
 4112.00    0.96059   0.95273   62.903
 4113.00    0.98337   0.96971   61.475
 4114.00    1.00477   0.98607   60.417
 4115.00    0.99218   0.99699   59.487
 4116.00    1.01660   0.99821   58.904
 4117.00    0.98743   0.99034   59.191
 4118.00    0.96925   0.97891   60.455
 4119.00    0.96243   0.97110   62.511
 4120.00    0.96958   0.97048   63.254
 4121.00    0.96785   0.97417   62.468
 4122.00    0.98518   0.97854   61.818
 4123.00    0.98884   0.98431   61.878
 4124.00    0.99988   0.99217   61.217
 4125.00    0.99908   0.99798   60.127
 4126.00    1.01470   0.99674   59.917
 4127.00    0.99446   0.98939   60.722
 4128.00    0.99141   0.98196   62.039
 4129.00    0.97622   0.97667   62.560
 4130.00    0.97707   0.96903   62.876
 4131.00    0.95504   0.95686   63.666
 4132.00    0.95170   0.94697   65.676
 4133.00    0.94879   0.94915   67.759
 4134.00    0.95062   0.96559   67.960
 4135.00    0.97289   0.98992   65.738
 4136.00    1.01700   1.01395   62.410
 4137.00    1.01525   1.03319   60.364
 4138.00    1.03756   1.04647   59.381
 4139.00    1.04472   1.05075   58.452
 4140.00    1.04122   1.04053   58.214
 4141.00    1.00963   1.01556   59.396
 4142.00    0.97371   0.98455   62.522
 4143.00    0.92987   0.96290   67.823
 4144.00    0.93845   0.96303   71.451
 4145.00    0.96443   0.98195   68.913
 4146.00    0.99137   1.00348   64.757
 4147.00    1.01718   1.01442   62.318
 4148.00    1.00748   1.01488   61.650
 4149.00    0.99514   1.01308   62.808
 4150.00    0.99529   1.01378   64.574
 4151.00    0.99386   1.01417   65.394
 4152.00    0.99998   1.00943   64.932
 4153.00    0.99053   0.99981   64.554
 4154.00    0.97335   0.99133   65.148
 4155.00    0.98153   0.99006   66.224
 4156.00    0.97544   0.99695   64.598
 4157.00    1.04479   1.00913   64.033
 4158.00    1.32995   1.02254   -1.000
 4159.00    1.26937   1.03324   -1.000
 4160.00    0.63434   1.03945   -1.000
 4161.00    0.83003   1.04290   -1.000
 4162.00    1.12842   1.04660   -1.000
 4163.00    1.04325   1.05116   59.661
 4164.00    1.03082   1.05375   60.004
 4165.00    1.02080   1.05070   60.992
 4166.00    1.01614   1.04254   61.905
 4167.00    1.01768   1.03458   63.300
 4168.00    1.02086   1.02987   64.280
 4169.00    1.00821   1.02329   63.816
 4170.00    0.99300   1.00658   62.707
 4171.00    0.95322   0.97928   63.333
 4172.00    0.92606   0.95366   67.081
 4173.00    0.91725   0.94465   71.195
 4174.00    0.93378   0.95557   71.482
 4175.00    0.96369   0.97431   68.942
 4176.00    0.96541   0.98696   66.440
 4177.00    0.96623   0.99191   66.340
 4178.00    0.98862   0.99670   66.733
 4179.00    0.99417   1.00483   66.456
 4180.00    1.00713   1.01117   65.421
 4181.00    0.97786   1.01122   64.781
 4182.00    1.00108   1.00940   64.822
 4183.00    1.00294   1.01159   64.139
 4184.00    0.99641   1.01530   62.854
 4185.00    0.98933   1.01347   61.737
 4186.00    0.97074   1.00451   61.805
 4187.00    0.95984   0.99549   63.873
 4188.00    0.96428   0.99425   65.720
 4189.00    0.98017   1.00035   65.186
 4190.00    0.99433   1.00845   63.711
 4191.00    1.00230   1.01659   63.304
 4192.00    1.00783   1.02511   62.469
 4193.00    1.02258   1.03086   61.117
 4194.00    1.00926   1.02739   60.295
 4195.00    0.98940   1.01200   62.012
 4196.00    0.97181   0.98987   65.277
 4197.00    0.95152   0.96917   67.470
 4198.00    0.92731   0.95484   68.678
 4199.00    0.91906   0.94867   68.847
 4200.00    0.93667   0.94937   68.106
 4201.00    0.94352   0.95339   67.012
 4202.00    0.94077   0.95963   66.814
 4203.00    0.95392   0.97006   66.389
 4204.00    0.96166   0.98427   65.349
 4205.00    0.97514   0.99942   64.870
 4206.00    0.98861   1.01346   63.620
 4207.00    0.99867   1.02405   62.029
 4208.00    1.02286   1.02889   60.813
 4209.00    1.00595   1.02945   60.495
 4210.00    0.99968   1.03054   60.739
 4211.00    1.00931   1.03455   60.619
 4212.00    1.00706   1.03660   60.194
 4213.00    1.00172   1.02870   60.529
 4214.00    0.96604   1.01094   -1.000
 4215.00    0.94280   0.99333   -1.000
 4216.00    0.94864   0.98790   67.199
 4217.00    0.95390   0.99886   65.007
 4218.00    0.97150   1.01858   60.881
 4219.00    1.00694   1.03561   58.152
 4220.00    1.03576   1.04332   56.513
 4221.00    1.01618   1.03833   55.883
 4222.00    0.99895   1.01717   56.365
 4223.00    0.95390   0.97892   58.657
 4224.00    0.90978   0.92996   62.755
 4225.00    0.86254   0.88496   68.947
 4226.00    0.81256   0.86324   -1.000
 4227.00    0.81700   0.87902   -1.000
 4228.00    0.86069   0.92595   -1.000
 4229.00    0.92191   0.97752   -1.000
 4230.00    0.97776   1.00897   61.922
 4231.00    0.98655   1.01476   58.614
 4232.00    0.98713   1.00458   58.094
 4233.00    0.97519   0.99081   59.369
 4234.00    0.97199   0.98099   60.936
 4235.00    0.95274   0.97674   61.563
 4236.00    0.94393   0.97689   62.994
 4237.00    0.94354   0.98180   64.150
 4238.00    0.95724   0.99174   63.714
 4239.00    0.96483   1.00469   62.235
 4240.00    0.97359   1.01748   61.337
 4241.00    0.96798   1.02783   -1.000
 4242.00    0.99038   1.03528   59.340
 4243.00    1.01114   1.04022   59.069
 4244.00    1.01699   1.04077   58.070
 4245.00    0.99449   1.03222   56.844
 4246.00    0.97696   1.01355   57.393
 4247.00    0.93580   0.99211   -1.000
 4248.00    0.92079   0.97724   -1.000
 4249.00    0.92986   0.97271   63.932
 4250.00    0.93308   0.97734   64.543
 4251.00    0.95196   0.98730   64.485
 4252.00    0.96849   0.99539   62.664
 4253.00    0.96408   0.99628   60.888
 4254.00    0.95731   0.99425   61.180
 4255.00    0.95634   0.99799   62.835
 4256.00    0.97683   1.00684   62.095
 4257.00    0.98030   1.00941   59.687
 4258.00    0.97648   0.99794   59.143
 4259.00    0.94878   0.97989   61.352
 4260.00    0.93486   0.97148   64.746
 4261.00    0.93125   0.98277   -1.000
 4262.00    0.95787   1.00889   -1.000
 4263.00    0.98284   1.03599   -1.000
 4264.00    1.02139   1.05242   57.262
 4265.00    1.00891   1.05590   55.886
 4266.00    1.00897   1.04989   55.718
 4267.00    0.98910   1.03692   56.605
 4268.00    0.97776   1.01652   58.469
 4269.00    0.94082   0.98893   60.255
 4270.00    0.91816   0.95816   62.565
 4271.00    0.89641   0.93250   66.660
 4272.00    0.89049   0.92063   70.804
 4273.00    0.88108   0.92500   -1.000
 4274.00    0.89217   0.94175   -1.000
 4275.00    0.92631   0.96711   68.358
 4276.00    0.94925   0.99687   -1.000
 4277.00    0.98507   1.02156   61.105
 4278.00    1.00032   1.03117   58.222
 4279.00    0.97290   1.02517   58.100
 4280.00    0.95733   1.01262   -1.000
 4281.00    0.94120   1.00360   -1.000
 4282.00    0.94871   1.00069   -1.000
 4283.00    0.96114   0.99950   62.145
 4284.00    0.94611   0.99557   61.567
 4285.00    0.93412   0.98681   -1.000
 4286.00    0.92376   0.97236   64.140
 4287.00    0.90462   0.95225   -1.000
 4288.00    0.88988   0.92807   66.729
 4289.00    0.86298   0.90763   -1.000
 4290.00    0.83924   0.90301   -1.000
 4291.00    0.86016   0.91727   -1.000
 4292.00    0.89447   0.93837   69.429
 4293.00    0.91378   0.95047   65.007
 4294.00    0.92152   0.94936   63.665
 4295.00    0.91284   0.94008   64.201
 4296.00    0.90091   0.92508   65.254
 4297.00    0.86638   0.90144   66.736
 4298.00    0.82272   0.86949   -1.000
 4299.00    0.78530   0.83739   -1.000
 4300.00    0.76475   0.81589   -1.000
 4301.00    0.76220   0.80959   -1.000
 4302.00    0.76769   0.81586   -1.000
 4303.00    0.78179   0.82937   -1.000
 4304.00    0.80850   0.84236   78.194
 4305.00    0.81520   0.84539   77.238
 4306.00    0.78465   0.83525   -1.000
 4307.00    0.75381   0.81910   -1.000
 4308.00    0.74668   0.81005   -1.000
 4309.00    0.74572   0.81661   -1.000
 4310.00    0.76790   0.83650   -1.000
 4311.00    0.81372   0.86013   -1.000
 4312.00    0.83235   0.88251   -1.000
 4313.00    0.85299   0.90746   -1.000
 4314.00    0.89308   0.94201   -1.000
 4315.00    0.95280   0.98680   64.638
 4316.00    1.00320   1.03186   59.039
 4317.00    1.02210   1.06324   54.559
 4318.00    1.04127   1.07445   52.555
 4319.00    1.04309   1.06904   52.484
 4320.00    1.02975   1.05316   53.284
 4321.00    1.00616   1.02912   54.485
 4322.00    0.97703   0.99645   56.315
 4323.00    0.93595   0.95787   59.066
 4324.00    0.88757   0.92425   63.392
 4325.00    0.86807   0.91197   -1.000
 4326.00    0.87970   0.93027   -1.000
 4327.00    0.92415   0.96876   67.680
 4328.00    0.98207   1.00500   60.552
 4329.00    1.00441   1.02409   56.117
 4330.00    0.99483   1.02856   54.929
 4331.00    0.99220   1.02884   55.126
 4332.00    0.99727   1.02956   54.845
 4333.00    1.00891   1.02687   53.901
 4334.00    1.00329   1.01364   53.333
 4335.00    0.97676   0.98314   53.202
 4336.00    0.93881   0.93061   54.080
 4337.00    0.88848   0.86002   57.474
 4338.00    0.81587   0.78740   63.017
 4339.00    0.74924   0.73407   68.904
 4340.00    0.73180   0.71816   74.645
 4341.00    0.74644   0.74690   76.650
 4342.00    0.79209   0.80717   71.272
 4343.00    0.87392   0.87248   64.256
 4344.00    0.92101   0.92487   60.203
 4345.00    0.94206   0.96312   58.241
 4346.00    0.96571   0.99281   56.652
 4347.00    0.98857   1.01545   55.670
 4348.00    0.99706   1.02656   55.072
 4349.00    0.99383   1.01970   54.177
 4350.00    0.96702   0.99694   54.284
 4351.00    0.94388   0.97276   57.192
 4352.00    0.93447   0.96460   61.479
 4353.00    0.93186   0.97888   62.510
 4354.00    0.95725   1.00630   60.072
 4355.00    0.98598   1.03177   57.339
 4356.00    0.99239   1.04670   55.539
 4357.00    1.01033   1.05141   54.363
 4358.00    1.01827   1.05065   54.341
 4359.00    1.01059   1.05127   55.490
 4360.00    1.02763   1.05825   56.201
 4361.00    1.03233   1.07048   55.188
 4362.00    1.03226   1.08286   53.513
 4363.00    1.04661   1.09189   52.876
 4364.00    1.04928   1.09550   52.650
 4365.00    1.06467   1.09091   52.071
 4366.00    1.04526   1.07783   52.001
 4367.00    1.01371   1.06156   53.549
 4368.00    1.01247   1.04866   55.513
 4369.00    1.01200   1.04138   56.193
 4370.00    1.00307   1.03721   55.682
 4371.00    1.00267   1.03101   55.325
 4372.00    0.99087   1.01836   55.264
 4373.00    0.97862   0.99954   55.792
 4374.00    0.96667   0.98336   58.010
 4375.00    0.95046   0.98245   60.337
 4376.00    0.97690   1.00032   60.482
 4377.00    1.00858   1.02642   58.078
 4378.00    1.03608   1.04543   55.164
 4379.00    1.03434   1.04824   54.105
 4380.00    1.02465   1.03182   54.377
 4381.00    0.99725   0.99652   55.329
 4382.00    0.94739   0.94918   57.879
 4383.00    0.89112   0.90895   64.143
 4384.00    0.87224   0.89713   71.458
 4385.00    0.89979   0.91811   72.581
 4386.00    0.95366   0.95455   66.178
 4387.00    0.99215   0.98491   59.899
 4388.00    0.99445   1.00057   57.774
 4389.00    1.00064   1.00564   57.733
 4390.00    0.98778   1.00807   58.346
 4391.00    0.99251   1.01259   58.556
 4392.00    1.00882   1.01647   57.479
 4393.00    1.01863   1.01428   56.183
 4394.00    0.99675   1.00887   56.484
 4395.00    0.99588   1.01086   57.714
 4396.00    1.00528   1.02303   57.577
 4397.00    1.01145   1.03469   55.033
 4398.00    1.02414   1.03503   53.379
 4399.00    1.01162   1.02584   54.020
 4400.00    0.99500   1.01776   55.981
 4401.00    1.00835   1.01610   57.675
 4402.00    1.01331   1.01482   57.114
 4403.00    0.99884   1.00638   56.084
 4404.00    0.96702   0.99393   57.907
 4405.00    0.96124   0.98760   61.268
 4406.00    0.96480   0.99188   61.937
 4407.00    0.97880   1.00211   59.960
 4408.00    0.98550   1.01515   59.020
 4409.00    1.00744   1.03372   58.483
 4410.00    1.03285   1.05664   56.324
 4411.00    1.05695   1.07415   53.910
 4412.00    1.06951   1.07614   52.055
 4413.00    1.06962   1.05995   51.384
 4414.00    1.03212   1.03213   52.678
 4415.00    0.99551   1.00781   55.658
 4416.00    0.98500   1.00191   57.748
 4417.00    1.00416   1.01790   57.539
 4418.00    1.04448   1.04674   55.595
 4419.00    1.06950   1.07352   53.292
 4420.00    1.06449   1.08629   51.749
 4421.00    1.06155   1.08421   51.960
 4422.00    1.06562   1.07649   53.295
 4423.00    1.05044   1.07142   54.289
 4424.00    1.04635   1.06912   54.051
 4425.00    1.04599   1.06609   53.776
 4426.00    1.03202   1.06317   53.955
 4427.00    1.04397   1.06370   54.208
 4428.00    1.04645   1.06800   53.867
 4429.00    1.03141   1.07316   53.636
 4430.00    1.03528   1.07665   54.139
 4431.00    1.04199   1.07706   54.346
 4432.00    1.03860   1.07193   53.747
 4433.00    1.03157   1.05905   53.308
 4434.00    1.01773   1.04343   54.960
 4435.00    1.00303   1.03788   57.630
 4436.00    1.01892   1.05163   58.407
 4437.00    1.05479   1.07899   56.224
 4438.00    1.08290   1.10355   52.801
 4439.00    1.09533   1.11070   50.515
 4440.00    1.09149   1.09658   50.261
 4441.00    1.05958   1.06934   51.770
 4442.00    1.02136   1.04511   54.229
 4443.00    0.99533   1.03892   56.552
 4444.00    1.01038   1.05412   56.876
 4445.00    1.04244   1.07991   54.863
 4446.00    1.06940   1.10104   52.526
 4447.00    1.07690   1.11075   51.452
 4448.00    1.07274   1.11185   51.421
 4449.00    1.06496   1.10930   51.519
 4450.00    1.06504   1.10543   52.066
 4451.00    1.06119   1.10015   52.588
 4452.00    1.05505   1.08970   52.243
 4453.00    1.04572   1.07046   52.546
 4454.00    1.02314   1.04731   54.398
 4455.00    1.01331   1.03198   56.901
 4456.00    1.00882   1.03104   58.178
 4457.00    1.01431   1.03935   57.320
 4458.00    1.03583   1.04743   56.289
 4459.00    1.02956   1.05094   56.259
 4460.00    1.01853   1.05211   56.541
 4461.00    1.01422   1.05525   57.119
 4462.00    1.02403   1.06292   57.636
 4463.00    1.04256   1.07377   56.600
 4464.00    1.06838   1.08333   54.421
 4465.00    1.06685   1.08694   53.079
 4466.00    1.06018   1.08249   52.930
 4467.00    1.05323   1.07218   52.966
 4468.00    1.03654   1.06286   53.534
 4469.00    1.03503   1.06236   54.549
 4470.00    1.03929   1.07439   54.930
 4471.00    1.05447   1.09545   54.230
 4472.00    1.08365   1.11786   52.574
 4473.00    1.10873   1.13436   50.759
 4474.00    1.11735   1.14250   49.354
 4475.00    1.11230   1.14466   48.874
 4476.00    1.12623   1.14462   48.937
 4477.00    1.12299   1.14251   48.546
 4478.00    1.11755   1.13377   48.249
 4479.00    1.11646   1.11483   48.636
 4480.00    1.09099   1.09123   50.352
 4481.00    1.04578   1.07590   52.629
 4482.00    1.03928   1.07851   54.187
 4483.00    1.07307   1.09785   53.727
 4484.00    1.10416   1.12354   51.550
 4485.00    1.12079   1.14291   49.576
 4486.00    1.12494   1.14769   48.459
 4487.00    1.12278   1.13791   48.456
 4488.00    1.10722   1.12134   49.496
 4489.00    1.08282   1.10877   51.357
 4490.00    1.08526   1.10724   52.607
 4491.00    1.08985   1.11503   52.160
 4492.00    1.09989   1.12289   50.805
 4493.00    1.09607   1.12284   49.951
 4494.00    1.08415   1.11656   50.589
 4495.00    1.07458   1.11211   52.100
 4496.00    1.07864   1.11449   53.267
 4497.00    1.09376   1.12179   52.813
 4498.00    1.10398   1.12868   51.065
 4499.00    1.10830   1.13037   49.594
 4500.00    1.10390   1.12823   49.027
 4501.00    1.10979   1.13006   49.532
 4502.00    1.12387   1.14149   49.833
 4503.00    1.13938   1.15928   48.658
 4504.00    1.15219   1.17441   47.000
 4505.00    1.16505   1.18032   46.107
 4506.00    1.16089   1.17675   46.336
 4507.00    1.15275   1.16924   47.249
 4508.00    1.15439   1.16456   47.757
 4509.00    1.15252   1.16534   47.826
 4510.00    1.15366   1.16810   47.486
 4511.00    1.15262   1.16747   47.150
 4512.00    1.14918   1.16184   47.493
 4513.00    1.13085   1.15333   48.400
 4514.00    1.11816   1.14515   49.278
 4515.00    1.12279   1.13987   49.630
 4516.00    1.11725   1.13743   49.424
 4517.00    1.10448   1.13503   49.368
 4518.00    1.09228   1.13164   49.922
 4519.00    1.10369   1.12977   50.245
 4520.00    1.11760   1.13042   49.482
 4521.00    1.11555   1.13013   48.505
 4522.00    1.11133   1.12542   48.559
 4523.00    1.09475   1.11766   49.638
 4524.00    1.08419   1.10978   50.669
 4525.00    1.08518   1.10112   51.152
 4526.00    1.07173   1.08862   51.972
 4527.00    1.05199   1.07256   53.510
 4528.00    1.04669   1.05930   55.041
 4529.00    1.04319   1.05533   55.778
 4530.00    1.04904   1.06047   55.458
 4531.00    1.06011   1.06646   54.522
 4532.00    1.06223   1.06426   53.524
 4533.00    1.04697   1.05391   53.199
 4534.00    1.02791   1.04609   54.543
 4535.00    1.02723   1.05275   56.388
 4536.00    1.05846   1.07624   55.888
 4537.00    1.09776   1.10781   52.884
 4538.00    1.12602   1.13357   49.754
 4539.00    1.13300   1.14489   48.274
 4540.00    1.12236   1.14367   48.591
 4541.00    1.12308   1.13870   49.719
 4542.00    1.11888   1.13623   49.787
 4543.00    1.11965   1.13517   49.441
 4544.00    1.12099   1.13173   49.239
 4545.00    1.12640   1.12583   67.927
 4546.00    1.01742   1.11881   -2.000
 4547.00    0.42657   1.10855   -2.000
 4548.00    0.36366   1.09382   -2.000
 4549.00    0.21336   1.08118   -1.000
 4550.00    0.70220   1.08022   -1.000
 4551.00    0.37228   1.08986   -1.000
 4552.00    0.84518   1.09773   -1.000
 4553.00    1.08101   1.09567   51.577
 4554.00    1.05654   1.08879   52.338
 4555.00    1.06796   1.08860   52.859
 4556.00    1.08869   1.10133   52.183
 4557.00    1.11069   1.12239   50.369
 4558.00    1.11808   1.14239   48.347
 4559.00    1.13191   1.15630   47.390
 4560.00    1.13944   1.16368   47.554
 4561.00    1.13261   1.16337   47.562
 4562.00    1.11897   1.15415   47.573
 4563.00    1.10622   1.13980   48.574
 4564.00    1.09346   1.12899   49.790
 4565.00    1.10302   1.12863   50.683
 4566.00    1.12437   1.13856   50.264
 4567.00    1.13822   1.15170   49.046
 4568.00    1.15253   1.15938   47.746
 4569.00    1.15136   1.15650   47.188
 4570.00    1.13256   1.14416   47.612
 4571.00    1.11906   1.13003   48.762
 4572.00    1.10594   1.12518   50.049
 4573.00    1.11975   1.13341   49.858
 4574.00    1.13906   1.14649   48.450
 4575.00    1.15118   1.15443   47.671
 4576.00    1.14167   1.15509   47.631
 4577.00    1.11998   1.15056   47.836
 4578.00    1.11787   1.14109   48.109
 4579.00    1.11972   1.12718   48.878
 4580.00    1.10747   1.11248   50.285
 4581.00    1.10463   1.10139   51.381
 4582.00    1.10368   1.09553   51.362
 4583.00    1.09282   1.09498   50.687
 4584.00    1.08979   1.09910   50.272
 4585.00    1.09453   1.10626   50.369
 4586.00    1.10471   1.11473   50.674
 4587.00    1.11787   1.12375   50.082
 4588.00    1.13920   1.13183   48.822
 4589.00    1.15780   1.13647   47.754
 4590.00    1.15044   1.13613   47.582
 4591.00    1.13024   1.13166   48.203
 4592.00    1.11455   1.12673   49.090
 4593.00    1.11234   1.12558   49.959
 4594.00    1.11910   1.12910   50.098
 4595.00    1.12214   1.13503   49.716
 4596.00    1.13765   1.14085   49.317
 4597.00    1.14344   1.14455   49.158
 4598.00    1.14974   1.14439   49.054
 4599.00    1.13888   1.13999   48.944
 4600.00    1.13127   1.13321   49.316
 4601.00    1.12518   1.12762   49.763
 4602.00    1.11797   1.12602   49.937
 4603.00    1.12126   1.12852   49.479
 4604.00    1.12801   1.13318   48.921
 4605.00    1.13558   1.13823   48.931
 4606.00    1.13833   1.14390   48.872
 4607.00    1.14409   1.15112   48.389
 4608.00    1.14942   1.15972   47.475
 4609.00    1.16607   1.16712   46.462
 4610.00    1.16393   1.16943   45.863
 4611.00    1.16032   1.16610   45.986
 4612.00    1.16338   1.16063   46.579
 4613.00    1.15361   1.15686   47.115
 4614.00    1.14690   1.15544   47.444
 4615.00    1.14584   1.15447   47.270
 4616.00    1.15254   1.15216   46.865
 4617.00    1.13558   1.14859   46.649
 4618.00    1.14463   1.14553   46.906
 4619.00    1.14729   1.14561   47.255
 4620.00    1.16019   1.15077   47.257
 4621.00    1.17158   1.15941   46.848
 4622.00    1.17805   1.16654   46.132
 4623.00    1.16673   1.16847   46.031
 4624.00    1.16904   1.16609   46.139
 4625.00    1.17293   1.16218   46.233
 4626.00    1.16547   1.15855   46.621
 4627.00    1.15253   1.15540   46.775
 4628.00    1.15354   1.15275   46.763
 4629.00    1.14863   1.15184   47.027
 4630.00    1.15099   1.15443   47.155
 4631.00    1.14902   1.15919   46.956
 4632.00    1.15744   1.16143   46.445
 4633.00    1.15719   1.15860   46.561
 4634.00    1.14446   1.15352   47.194
 4635.00    1.13299   1.14993   47.740
 4636.00    1.14872   1.14798   47.763
 4637.00    1.14789   1.14622   48.095
 4638.00    1.13461   1.14511   48.709
 4639.00    1.13217   1.14701   48.965
 4640.00    1.13944   1.15324   48.924
 4641.00    1.16148   1.16196   48.181
 4642.00    1.17901   1.16878   47.034
 4643.00    1.18291   1.16949   46.325
 4644.00    1.17173   1.16290   46.417
 4645.00    1.15033   1.15067   47.209
 4646.00    1.13657   1.13697   48.494
 4647.00    1.13111   1.12835   49.846
 4648.00    1.13011   1.12947   50.203
 4649.00    1.13730   1.13864   49.436
 4650.00    1.14858   1.14940   48.302
 4651.00    1.14845   1.15601   47.580
 4652.00    1.14913   1.15659   47.431
 4653.00    1.15626   1.15204   47.339
 4654.00    1.13971   1.14477   47.821
 4655.00    1.11514   1.13865   48.873
 4656.00    1.10668   1.13864   49.513
 4657.00    1.12590   1.14823   49.207
 4658.00    1.16347   1.16597   47.768
 4659.00    1.18998   1.18404   45.960
 4660.00    1.20118   1.19362   44.835
 4661.00    1.19967   1.19178   44.675
 4662.00    1.18441   1.18213   45.164
 4663.00    1.17964   1.16963   46.213
 4664.00    1.17021   1.15597   47.160
 4665.00    1.15724   1.13945   47.371
 4666.00    1.13295   1.11974   48.057
 4667.00    1.10219   1.10243   49.970
 4668.00    1.10253   1.09592   52.079
 4669.00    1.11341   1.10331   52.403
 4670.00    1.11993   1.11978   50.981
 4671.00    1.14800   1.13709   48.897
 4672.00    1.15883   1.14943   47.477
 4673.00    1.16862   1.15634   47.074
 4674.00    1.16244   1.16121   47.079
 4675.00    1.16969   1.16641   47.044
 4676.00    1.17850   1.16949   46.501
 4677.00    1.18896   1.16606   45.806
 4678.00    1.17379   1.15584   45.916
 4679.00    1.16206   1.14326   46.826
 4680.00    1.15057   1.13327   47.773
 4681.00    1.14122   1.12867   48.582
 4682.00    1.14634   1.13025   49.094
 4683.00    1.14907   1.13656   48.620
 4684.00    1.15250   1.14407   47.458
 4685.00    1.17129   1.14939   46.755
 4686.00    1.18153   1.15168   46.819
 4687.00    1.17315   1.15196   46.864
 4688.00    1.16530   1.15142   47.098
 4689.00    1.17266   1.15044   47.138
 4690.00    1.17567   1.14894   47.139
 4691.00    1.16516   1.14798   47.436
 4692.00    1.16982   1.14949   47.571
 4693.00    1.18902   1.15357   47.090
 4694.00    1.19447   1.15808   46.400
 4695.00    1.20289   1.16082   45.407
 4696.00    1.20970   1.15965   44.767
 4697.00    1.20591   1.15285   44.886
 4698.00    1.18487   1.14186   46.045
 4699.00    1.15751   1.13049   47.444
 4700.00    1.14815   1.12093   48.117
 4701.00    1.14762   1.11265   47.848
 4702.00    1.14612   1.10591   48.096
 4703.00    1.14653   1.10394   48.892
 4704.00    1.13949   1.10863   49.236
 4705.00    1.14065   1.11548   48.454
 4706.00    1.15322   1.11731   47.699
 4707.00    1.14631   1.11258   48.178
 4708.00    1.12612   1.10739   49.122
 4709.00    1.12047   1.10858   49.671
 4710.00    1.13749   1.11714   49.507
 4711.00    1.15883   1.12847   48.199
 4712.00    1.17332   1.13631   46.852
 4713.00    1.17741   1.13744   46.277
 4714.00    1.16324   1.13500   46.603
 4715.00    1.16519   1.13559   47.437
 4716.00    1.17342   1.14232   47.568
 4717.00    1.16772   1.15212   46.742
 4718.00    1.17453   1.16027   45.829
 4719.00    1.18639   1.16472   45.463
 4720.00    1.18619   1.16595   45.292
 4721.00    1.18047   1.16528   45.137
 4722.00    1.17707   1.16466   45.446
 4723.00    1.17839   1.16573   45.785
 4724.00    1.18832   1.16752   45.599
 4725.00    1.19025   1.16647   45.129
 4726.00    1.18553   1.15945   45.117
 4727.00    1.17211   1.14711   46.073
 4728.00    1.15957   1.13432   47.750
 4729.00    1.14911   1.12595   48.939
 4730.00    1.14500   1.12301   48.932
 4731.00    1.14939   1.12471   48.464
 4732.00    1.15809   1.13015   48.063
 4733.00    1.15397   1.13672   47.513
 4734.00    1.15808   1.14077   47.075
 4735.00    1.16442   1.14099   46.790
 4736.00    1.15494   1.13916   46.530
 4737.00    1.14427   1.13829   46.920
 4738.00    1.16073   1.14003   47.054
 4739.00    1.16593   1.14336   46.534
 4740.00    1.16589   1.14615   46.457
 4741.00    1.16159   1.14833   46.698
 4742.00    1.17101   1.15133   46.793
 4743.00    1.17945   1.15525   46.479
 4744.00    1.18705   1.15883   45.985
 4745.00    1.17954   1.16147   45.989
 4746.00    1.18046   1.16428   46.044
 4747.00    1.18638   1.16856   45.755
 4748.00    1.19703   1.17350   45.305
 4749.00    1.19630   1.17734   45.154
 4750.00    1.18691   1.17914   45.203
 4751.00    1.18597   1.17808   45.241
 4752.00    1.18249   1.17342   45.525
 4753.00    1.17807   1.16623   46.019
 4754.00    1.17895   1.15964   46.428
 4755.00    1.17999   1.15649   46.755
 4756.00    1.16804   1.15738   46.733
 4757.00    1.15924   1.16086   46.871
 4758.00    1.15777   1.16478   47.198
 4759.00    1.15592   1.16683   47.296
 4760.00    1.15188   1.16413   46.967
 4761.00    1.14827   1.15466   46.830
 4762.00    1.14488   1.14001   47.441
 4763.00    1.13283   1.12593   48.572
 4764.00    1.12972   1.11805   49.295
 4765.00    1.12961   1.11785   49.449
 4766.00    1.12916   1.12381   49.367
 4767.00    1.14357   1.13428   49.055
 4768.00    1.15385   1.14720   48.424
 4769.00    1.15612   1.15861   47.383
 4770.00    1.15389   1.16427   46.657
 4771.00    1.15350   1.16394   46.627
 4772.00    1.14975   1.16208   46.981
 4773.00    1.15341   1.16359   47.399
 4774.00    1.15856   1.16901   47.001
 4775.00    1.16543   1.17472   46.053
 4776.00    1.17187   1.17738   45.628
 4777.00    1.17147   1.17610   45.617
 4778.00    1.17416   1.17143   45.739
 4779.00    1.17347   1.16517   46.013
 4780.00    1.15421   1.16036   46.500
 4781.00    1.14698   1.15819   46.817
 4782.00    1.14421   1.15660   46.957
 4783.00    1.14146   1.15375   47.167
 4784.00    1.13963   1.14997   47.526
 4785.00    1.14937   1.14610   47.572
 4786.00    1.15521   1.14272   47.699
 4787.00    1.14714   1.14095   48.128
 4788.00    1.12415   1.14191   48.442
 4789.00    1.13006   1.14577   48.443
 4790.00    1.14192   1.15237   48.232
 4791.00    1.14821   1.16128   47.942
 4792.00    1.16222   1.17162   47.473
 4793.00    1.17093   1.18224   46.736
 4794.00    1.17485   1.19133   45.734
 4795.00    1.19071   1.19605   44.908
 4796.00    1.18823   1.19425   44.647
 4797.00    1.17527   1.18677   45.003
 4798.00    1.15297   1.17727   45.845
 4799.00    1.15302   1.17063   46.721
 4800.00    1.16448   1.17038   47.329
 4801.00    1.16678   1.17605   47.072
 4802.00    1.17348   1.18259   46.194
 4803.00    1.17479   1.18401   45.480
 4804.00    1.17114   1.17904   45.430
 4805.00    1.16490   1.17209   45.957
 4806.00    1.15578   1.16800   46.557
 4807.00    1.16142   1.16789   47.009
 4808.00    1.16657   1.17044   47.069
 4809.00    1.16153   1.17402   46.963
 4810.00    1.16674   1.17725   46.766
 4811.00    1.17062   1.17964   46.376
 4812.00    1.16853   1.18191   46.027
 4813.00    1.17240   1.18504   45.776
 4814.00    1.17863   1.18917   45.700
 4815.00    1.18492   1.19387   45.602
 4816.00    1.18840   1.19842   45.446
 4817.00    1.18776   1.20162   45.179
 4818.00    1.18184   1.20252   44.897
 4819.00    1.18021   1.20134   44.698
 4820.00    1.18819   1.19797   44.655
 4821.00    1.19125   1.19049   44.656
 4822.00    1.18087   1.17764   44.982
 4823.00    1.16597   1.16298   46.040
 4824.00    1.15968   1.15410   46.988
 4825.00    1.16496   1.15550   47.066
 4826.00    1.16698   1.16348   46.348
 4827.00    1.17659   1.17044   45.606
 4828.00    1.17537   1.17232   45.640
 4829.00    1.16749   1.17020   46.131
 4830.00    1.17105   1.16644   46.468
 4831.00    1.16833   1.16202   46.505
 4832.00    1.17066   1.15843   46.855
 4833.00    1.17379   1.15782   47.003
 4834.00    1.18077   1.16042   46.389
 4835.00    1.18840   1.16394   45.742
 4836.00    1.17776   1.16586   45.497
 4837.00    1.17652   1.16508   45.534
 4838.00    1.18111   1.16146   45.729
 4839.00    1.16431   1.15567   46.284
 4840.00    1.15401   1.14990   47.085
 4841.00    1.14871   1.14647   47.262
 4842.00    1.15712   1.14576   47.175
 4843.00    1.16659   1.14685   46.961
 4844.00    1.16977   1.14941   46.629
 4845.00    1.17510   1.15299   46.183
 4846.00    1.18615   1.15469   45.501
 4847.00    1.17569   1.15153   45.177
 4848.00    1.16207   1.14549   45.890
 4849.00    1.14852   1.14170   46.636
 4850.00    1.15417   1.14164   46.757
 4851.00    1.15614   1.14167   46.209
 4852.00    1.15511   1.13691   45.995
 4853.00    1.15625   1.12427   46.196
 4854.00    1.13221   1.10416   46.570
 4855.00    1.11085   1.08167   47.779
 4856.00    1.09878   1.06194   49.163
 4857.00    1.08668   1.04180   49.332
 4858.00    1.06091   1.00790   48.885
 4859.00    0.98467   0.94974   49.870
 4860.00    0.88339   0.87852   53.616
 4861.00    0.84575   0.82746   59.655
 4862.00    0.88050   0.82599   -1.000
 4863.00    0.94021   0.87326   -1.000
 4864.00    1.00887   0.94073   -1.000
 4865.00    1.06496   1.00082   -1.000
 4866.00    1.09625   1.04398   49.896
 4867.00    1.10618   1.07240   48.717
 4868.00    1.11122   1.08854   48.168
 4869.00    1.11547   1.09177   47.922
 4870.00    1.10588   1.08271   48.221
 4871.00    1.10169   1.06905   49.408
 4872.00    1.09300   1.06344   50.669
 4873.00    1.09283   1.07279   50.557
 4874.00    1.11446   1.09135   49.286
 4875.00    1.11995   1.10788   48.314
 4876.00    1.12287   1.11709   47.856
 4877.00    1.13285   1.12256   47.578
 4878.00    1.14248   1.13019   47.400
 4879.00    1.15507   1.14107   46.812
 4880.00    1.15103   1.15045   46.271
 4881.00    1.15247   1.15298   46.505
 4882.00    1.14766   1.14853   47.216
 4883.00    1.14338   1.14163   47.602
 4884.00    1.14420   1.13567   47.523
 4885.00    1.14606   1.13126   47.691
 4886.00    1.13510   1.12818   48.339
 4887.00    1.13829   1.12561   48.702
 4888.00    1.14423   1.12107   48.540
 4889.00    1.14279   1.11194   48.429
 4890.00    1.12138   1.10061   48.990
 4891.00    1.12337   1.09650   50.018
 4892.00    1.13153   1.10881   49.981
 4893.00    1.16416   1.13640   48.288
 4894.00    1.19112   1.16775   46.081
 4895.00    1.20081   1.19149   44.560
 4896.00    1.20644   1.20371   43.634
 4897.00    1.20937   1.20572   43.304
 4898.00    1.20332   1.20018   43.341
 4899.00    1.18120   1.19072   44.110
 4900.00    1.16910   1.18187   45.149
 4901.00    1.17111   1.17599   45.769
 4902.00    1.16840   1.17175   45.689
 4903.00    1.16472   1.16838   45.687
 4904.00    1.17287   1.16921   46.153
 4905.00    1.18996   1.17660   45.877
 4906.00    1.19295   1.18572   44.979
 4907.00    1.19219   1.18854   44.496
 4908.00    1.18636   1.18172   44.755
 4909.00    1.17092   1.16833   45.704
 4910.00    1.15253   1.15517   46.993
 4911.00    1.15647   1.14914   47.757
 4912.00    1.17260   1.15290   47.378
 4913.00    1.17463   1.16325   46.556
 4914.00    1.18397   1.17441   45.872
 4915.00    1.19522   1.18087   45.270
 4916.00    1.19971   1.17701   44.829
 4917.00    1.18271   1.15868   44.914
 4918.00    1.14767   1.12779   46.198
 4919.00    1.10354   1.09445   48.553
 4920.00    1.08120   1.07224   50.964
 4921.00    1.09657   1.06881   51.951
 4922.00    1.11581   1.07990   50.724
 4923.00    1.12833   1.09514   48.898
 4924.00    1.13805   1.10949   47.946
 4925.00    1.15517   1.12536   47.766
 4926.00    1.16851   1.14451   47.283
 4927.00    1.16784   1.16405   46.172
 4928.00    1.18624   1.18005   45.258
 4929.00    1.19926   1.19027   44.754
 4930.00    1.20417   1.19327   44.425
 4931.00    1.20713   1.18703   44.150
 4932.00    1.18169   1.17125   44.432
 4933.00    1.15270   1.15149   45.480
 4934.00    1.14696   1.13776   47.058
 4935.00    1.15572   1.13489   47.534
 4936.00    1.14882   1.13643   46.873
 4937.00    1.13910   1.13256   46.654
 4938.00    1.13330   1.12345   47.725
 4939.00    1.12919   1.11956   49.082
 4940.00    1.14749   1.12913   49.048
 4941.00    1.16375   1.14986   47.626
 4942.00    1.17432   1.17183   46.064
 4943.00    1.18605   1.18622   45.076
 4944.00    1.18244   1.19086   44.575
 4945.00    1.17632   1.18914   44.513
 4946.00    1.18550   1.18676   44.772
 4947.00    1.19840   1.18823   44.921
 4948.00    1.20867   1.19398   44.625
 4949.00    1.21062   1.20036   44.118
 4950.00    1.20793   1.20346   43.897
 4951.00    1.19591   1.20240   43.726
 4952.00    1.19670   1.19860   43.861
 4953.00    1.19842   1.19274   44.151
 4954.00    1.18874   1.18222   44.617
 4955.00    1.17368   1.16179   45.167
 4956.00    1.14205   1.13121   46.228
 4957.00    1.10656   1.10300   48.360
 4958.00    1.09325   1.09504   50.459
 4959.00    1.11962   1.11258   50.125
 4960.00    1.16032   1.14315   47.627
 4961.00    1.18313   1.16942   45.726
 4962.00    1.18875   1.18303   45.103
 4963.00    1.17793   1.18493   45.195
 4964.00    1.16919   1.17883   45.527
 4965.00    1.16013   1.16857   46.028
 4966.00    1.14629   1.15857   46.910
 4967.00    1.13783   1.15221   47.614
 4968.00    1.13813   1.15027   47.763
 4969.00    1.15001   1.15233   47.653
 4970.00    1.16093   1.15783   47.348
 4971.00    1.16198   1.16553   46.875
 4972.00    1.17274   1.17369   46.371
 4973.00    1.18450   1.18060   45.828
 4974.00    1.18590   1.18462   45.369
 4975.00    1.19329   1.18474   45.128
 4976.00    1.19870   1.18093   45.329
 4977.00    1.18456   1.17394   45.773
 4978.00    1.18259   1.16505   46.365
 4979.00    1.16364   1.15430   47.094
 4980.00    1.14422   1.13929   47.721
 4981.00    1.11525   1.11824   48.374
 4982.00    1.09353   1.09505   49.755
 4983.00    1.09027   1.07909   51.388
 4984.00    1.09499   1.07827   51.785
 4985.00    1.10804   1.09260   51.023
 4986.00    1.12385   1.11504   49.691
 4987.00    1.14052   1.13658   48.149
 4988.00    1.15183   1.14975   46.875
 4989.00    1.15420   1.15145   46.632
 4990.00    1.14905   1.14518   47.176
 4991.00    1.15101   1.13855   47.719
 4992.00    1.14822   1.13691   47.851
 4993.00    1.14862   1.14021   47.525
 4994.00    1.15893   1.14586   47.267
 4995.00    1.15591   1.15198   47.205
 4996.00    1.15665   1.15650   47.015
 4997.00    1.15769   1.15580   46.776
 4998.00    1.14420   1.14657   46.936
 4999.00    1.13299   1.13014   47.487
 5000.00    1.13381   1.11413   48.375
 5001.00    1.13228   1.10640   49.075
 5002.00    1.13200   1.10751   49.247
 5003.00    1.13970   1.11084   48.895
 5004.00    1.13894   1.10875   48.533
 5005.00    1.12792   1.09941   48.983
 5006.00    1.11755   1.08996   50.112
 5007.00    1.11704   1.09031   50.643
 5008.00    1.12927   1.10211   49.756
 5009.00    1.14683   1.11640   48.295
 5010.00    1.14900   1.12215   47.545
 5011.00    1.12540   1.11469   47.898
 5012.00    1.09325   1.09814   49.149
 5013.00    1.08068   1.08187   50.914
 5014.00    1.08439   1.07357   52.287
 5015.00    1.09330   1.07408   52.389
 5016.00    1.10454   1.07800   51.433
 5017.00    1.11461   1.08028   50.333
 5018.00    1.12503   1.08217   49.915
 5019.00    1.12386   1.08844   49.879
 5020.00    1.12925   1.09902   49.453
 5021.00    1.13409   1.10859   49.004
 5022.00    1.13493   1.11444   49.071
 5023.00    1.14139   1.11954   49.212
 5024.00    1.14904   1.12691   49.025
 5025.00    1.14106   1.13410   48.560
 5026.00    1.14338   1.13667   48.185
 5027.00    1.15114   1.13493   48.281
 5028.00    1.14872   1.13332   48.517
 5029.00    1.15344   1.13524   48.240
 5030.00    1.16702   1.14126   47.437
 5031.00    1.18100   1.15017   46.703
 5032.00    1.18136   1.15895   45.967
 5033.00    1.17636   1.16247   45.383
 5034.00    1.16857   1.15651   45.311
 5035.00    1.14362   1.14275   46.423
 5036.00    1.12634   1.12821   48.197
 5037.00    1.12332   1.11753   49.283
 5038.00    1.11878   1.10725   49.607
 5039.00    1.10170   1.09101   50.105
 5040.00    1.07189   1.07103   51.739
 5041.00    1.05481   1.05988   53.848
 5042.00    1.08118   1.06847   54.418
 5043.00    1.11247   1.09505   52.403
 5044.00    1.14580   1.12749   49.303
 5045.00    1.17261   1.15362   47.034
 5046.00    1.16885   1.16723   45.825
 5047.00    1.19938   1.16684   44.264
 5048.00    0.90987   1.15437   -1.000
 5049.00    0.42757   1.13550   -1.000
 5050.00    0.14513   1.11808   -1.000
 5051.00    0.29344   1.10912   -1.000
 5052.00    0.90188   1.11303   -1.000
 5053.00    1.15366   1.12862   48.037
 5054.00    1.17442   1.14787   46.847
 5055.00    1.18802   1.16243   45.910
 5056.00    1.19952   1.17052   45.376
 5057.00    1.20295   1.17491   45.162
 5058.00    1.19969   1.17801   45.190
 5059.00    1.19444   1.18048   45.276
 5060.00    1.18520   1.18194   45.284
 5061.00    1.17419   1.18121   45.046
 5062.00    1.17734   1.17574   44.985
 5063.00    1.16875   1.16339   45.448
 5064.00    1.14227   1.14687   46.599
 5065.00    1.12948   1.13337   48.196
 5066.00    1.13853   1.12782   49.053
 5067.00    1.15187   1.12879   48.735
 5068.00    1.15850   1.13183   48.020
 5069.00    1.16091   1.13461   47.721
 5070.00    1.15685   1.13667   47.519
 5071.00    1.16384   1.13671   47.226
 5072.00    1.15629   1.13423   47.431
 5073.00    1.15326   1.13179   47.818
 5074.00    1.15812   1.13217   47.470
 5075.00    1.16024   1.13448   47.035
 5076.00    1.16621   1.13454   46.897
 5077.00    1.16218   1.12802   46.857
 5078.00    1.13869   1.11395   47.188
 5079.00    1.10739   1.09743   48.534
 5080.00    1.09619   1.08700   50.707
 5081.00    1.10610   1.08674   51.775
 5082.00    1.12035   1.09368   51.085
 5083.00    1.12406   1.10364   49.980
 5084.00    1.12541   1.11534   49.208
 5085.00    1.14174   1.12811   48.349
 5086.00    1.16337   1.13936   47.495
 5087.00    1.16868   1.14680   47.036
 5088.00    1.16542   1.15100   46.908
 5089.00    1.17039   1.15421   46.718
 5090.00    1.17049   1.15783   46.403
 5091.00    1.17281   1.16224   46.126
 5092.00    1.18333   1.16728   45.884
 5093.00    1.19175   1.17140   45.428
 5094.00    1.20125   1.17115   44.986
 5095.00    1.19978   1.16331   45.188
 5096.00    1.17895   1.14819   46.006
 5097.00    1.15190   1.13029   47.000
 5098.00    1.13886   1.11596   48.109
 5099.00    1.13798   1.11064   49.161
 5100.00    1.14674   1.11609   49.542
 5101.00    1.15367   1.12834   48.661
 5102.00    1.16203   1.13994   47.287
 5103.00    1.16879   1.14544   46.624
 5104.00    1.17071   1.14397   46.733
 5105.00    1.16162   1.13686   47.271
 5106.00    1.14745   1.12602   47.880
 5107.00    1.13358   1.11484   48.471
 5108.00    1.12160   1.10772   49.076
 5109.00    1.12603   1.10728   49.180
 5110.00    1.12876   1.11350   48.918
 5111.00    1.14030   1.12466   48.573
 5112.00    1.15704   1.13765   47.963
 5113.00    1.17443   1.14926   47.344
 5114.00    1.18303   1.15822   46.768
 5115.00    1.17918   1.16507   46.308
 5116.00    1.18745   1.17040   46.018
 5117.00    1.19852   1.17375   45.595
 5118.00    1.19022   1.17391   45.184
 5119.00    1.17788   1.16982   45.186
 5120.00    1.17446   1.16142   45.665
 5121.00    1.16662   1.14965   46.336
 5122.00    1.14888   1.13592   47.086
 5123.00    1.12211   1.12222   48.186
 5124.00    1.11138   1.11158   49.593
 5125.00    1.11648   1.10633   50.244
 5126.00    1.12835   1.10543   49.988
 5127.00    1.13103   1.10582   49.681
 5128.00    1.12883   1.10604   49.401
 5129.00    1.13620   1.10736   49.376
 5130.00    1.13689   1.11154   49.367
 5131.00    1.13370   1.11853   48.876
 5132.00    1.14978   1.12653   48.083
 5133.00    1.16660   1.13365   47.578
 5134.00    1.16935   1.13858   47.148
 5135.00    1.16696   1.13983   46.722
 5136.00    1.16336   1.13569   46.526
 5137.00    1.15161   1.12621   47.114
 5138.00    1.13469   1.11461   48.198
 5139.00    1.12574   1.10576   49.081
 5140.00    1.12281   1.10254   49.331
 5141.00    1.12220   1.10361   49.011
 5142.00    1.11657   1.10625   49.155
 5143.00    1.11606   1.10981   49.855
 5144.00    1.12261   1.11433   49.861
 5145.00    1.13400   1.11779   49.147
 5146.00    1.12305   1.11805   48.795
 5147.00    1.12086   1.11654   49.096
 5148.00    1.13577   1.11627   49.316
 5149.00    1.14201   1.11664   48.896
 5150.00    1.13174   1.11414   48.524
 5151.00    1.11812   1.10803   48.897
 5152.00    1.11193   1.10167   49.729
 5153.00    1.11806   1.09915   50.216
 5154.00    1.11999   1.10308   50.108
 5155.00    1.14250   1.11411   49.325
 5156.00    1.16880   1.12980   48.141
 5157.00    1.19036   1.14515   46.913
 5158.00    1.19388   1.15608   45.952
 5159.00    1.18943   1.16136   45.479
 5160.00    1.19483   1.16153   45.392
 5161.00    1.19207   1.15729   45.506
 5162.00    1.18894   1.14886   45.741
 5163.00    1.17130   1.13496   46.192
 5164.00    1.14653   1.11082   46.860
 5165.00    1.09801   1.07095   48.363
 5166.00    1.02971   1.01880   51.777
 5167.00    0.97157   0.97175   56.921
 5168.00    0.95732   0.94960   61.378
 5169.00    0.98710   0.95430   61.524
 5170.00    0.99914   0.96566   58.487
 5171.00    0.97868   0.96439   56.981
 5172.00    0.95411   0.95551   59.451
 5173.00    0.95853   0.96153   63.539
 5174.00    1.01293   0.99538   62.742
 5175.00    1.08134   1.04545   56.874
 5176.00    1.12390   1.08990   51.752
 5177.00    1.13996   1.11701   49.217
 5178.00    1.14013   1.12741   48.342
 5179.00    1.13719   1.12366   48.140
 5180.00    1.12430   1.10378   48.468
 5181.00    1.08406   1.06522   49.840
 5182.00    1.01371   1.01464   52.948
 5183.00    0.95580   0.97231   58.479
 5184.00    0.96481   0.96121   63.758
 5185.00    1.01994   0.98715   62.842
 5186.00    1.07778   1.03258   56.698
 5187.00    1.10885   1.07287   51.383
 5188.00    1.12694   1.09601   49.039
 5189.00    1.14088   1.10434   48.349
 5190.00    1.13337   1.10276   48.105
 5191.00    1.11618   1.09407   48.430
 5192.00    1.09771   1.08361   49.704
 5193.00    1.08789   1.07839   51.157
 5194.00    1.09707   1.08098   51.251
 5195.00    1.11435   1.08871   50.470
 5196.00    1.12671   1.09864   49.683
 5197.00    1.13776   1.11024   48.958
 5198.00    1.14866   1.12314   48.044
 5199.00    1.17024   1.13475   47.182
 5200.00    1.18234   1.14126   46.686
 5201.00    1.17469   1.13956   46.555
 5202.00    1.15622   1.12822   46.822
 5203.00    1.13701   1.10826   47.550
 5204.00    1.11835   1.08392   48.586
 5205.00    1.09362   1.06189   50.007
 5206.00    1.07496   1.04756   51.566
 5207.00    1.06578   1.04174   52.136
 5208.00    1.06683   1.04265   52.364
 5209.00    1.07596   1.05085   52.674
 5210.00    1.09565   1.06873   52.200
 5211.00    1.12429   1.09487   50.728
 5212.00    1.15986   1.12182   48.771
 5213.00    1.19421   1.13991   46.841
 5214.00    1.19551   1.14374   45.639
 5215.00    1.17479   1.13642   45.759
 5216.00    1.16574   1.12795   46.712
 5217.00    1.16800   1.12794   47.441
 5218.00    1.17649   1.13871   47.302
 5219.00    1.18514   1.15505   46.431
 5220.00    1.19690   1.16965   45.634
 5221.00    1.21662   1.17759   45.196
 5222.00    1.20797   1.17616   44.975
 5223.00    1.16548   1.16332   45.349
 5224.00    1.13601   1.13801   46.527
 5225.00    1.10798   1.10407   48.326
 5226.00    1.08440   1.07376   50.529
 5227.00    1.09352   1.06232   52.210
 5228.00    1.11038   1.07519   51.777
 5229.00    1.14949   1.10204   49.317
 5230.00    1.17796   1.12523   47.074
 5231.00    1.18610   1.13368   45.952
 5232.00    1.18409   1.12857   45.693
 5233.00    1.17479   1.11977   46.354
 5234.00    1.16725   1.11816   47.234
 5235.00    1.17257   1.12825   47.389
 5236.00    1.18643   1.14590   46.550
 5237.00    1.19029   1.16309   45.432
 5238.00    1.20115   1.17431   44.763
 5239.00    1.20701   1.17899   44.605
 5240.00    1.21158   1.17959   44.705
 5241.00    1.21760   1.17855   44.690
 5242.00    1.22276   1.17765   44.472
 5243.00    1.21338   1.17805   44.444
 5244.00    1.21045   1.17866   44.404
 5245.00    1.20413   1.17577   44.324
 5246.00    1.18153   1.16699   44.944
 5247.00    1.16853   1.15480   46.234
 5248.00    1.16036   1.14422   47.428
 5249.00    1.15575   1.13793   47.815
 5250.00    1.15079   1.13557   47.894
 5251.00    1.14694   1.13627   48.141
 5252.00    1.15250   1.13909   48.067
 5253.00    1.15501   1.14224   47.510
 5254.00    1.15857   1.14500   46.978
 5255.00    1.17104   1.14978   46.857
 5256.00    1.18914   1.15916   46.626
 5257.00    1.20132   1.17143   45.736
 5258.00    1.20905   1.18056   44.529
 5259.00    1.21487   1.18011   43.906
 5260.00    1.20640   1.16697   44.109
 5261.00    1.17509   1.14262   45.108
 5262.00    1.13560   1.11221   46.847
 5263.00    1.10769   1.08250   49.026
 5264.00    1.09416   1.05978   50.914
 5265.00    1.08924   1.04811   52.154
 5266.00    1.09316   1.04640   52.547
 5267.00    1.09741   1.04692   51.907
 5268.00    1.08342   1.04121   50.966
 5269.00    1.06403   1.03043   51.496
 5270.00    1.06115   1.02709   53.347
 5271.00    1.08435   1.04147   53.337
 5272.00    1.12403   1.06828   50.703
 5273.00    1.14574   1.09305   48.249
 5274.00    1.15815   1.10825   47.329
 5275.00    1.17037   1.11793   47.241
 5276.00    1.17073   1.13000   47.178
 5277.00    1.18612   1.14696   46.491
 5278.00    1.20647   1.16322   45.076
 5279.00    1.21101   1.17028   44.024
 5280.00    1.20922   1.16459   43.994
 5281.00    1.18671   1.15017   44.849
 5282.00    1.15555   1.13492   46.012
 5283.00    1.15168   1.12677   46.959
 5284.00    1.16847   1.13121   47.363
 5285.00    1.18759   1.14802   46.727
 5286.00    1.20674   1.17008   45.407
 5287.00    1.19531   1.18835   43.978
 5288.00    1.20531   1.19867   43.345
 5289.00    1.21590   1.20273   43.437
 5290.00    1.21284   1.20346   43.510
 5291.00    1.21549   1.20223   43.320
 5292.00    1.22219   1.19969   43.176
 5293.00    1.21626   1.19576   43.334
 5294.00    1.21157   1.18851   43.708
 5295.00    1.19722   1.17536   44.244
 5296.00    1.16191   1.15654   45.270
 5297.00    1.13832   1.13765   46.877
 5298.00    1.14154   1.12695   48.310
 5299.00    1.15252   1.12805   48.455
 5300.00    1.16714   1.13703   47.453
 5301.00    1.17334   1.14775   46.459
 5302.00    1.17856   1.15803   46.006
 5303.00    1.19019   1.16905   45.530
 5304.00    1.19953   1.18008   44.485
 5305.00    1.21298   1.18745   43.542
 5306.00    1.21751   1.18926   43.239
 5307.00    1.21170   1.18815   43.521
 5308.00    1.20848   1.18877   43.925
 5309.00    1.21614   1.19313   43.830
 5310.00    1.22455   1.19884   43.405
 5311.00    1.22274   1.20206   43.072
 5312.00    1.22724   1.20076   43.026
 5313.00    1.22194   1.19504   43.218
 5314.00    1.22607   1.18588   43.426
 5315.00    1.22315   1.17508   43.702
 5316.00    1.20938   1.16637   44.105
 5317.00    1.20387   1.16419   44.513
 5318.00    1.20132   1.16943   44.637
 5319.00    1.20528   1.17753   44.398
 5320.00    1.21519   1.18194   44.160
 5321.00    1.21130   1.17875   44.223
 5322.00    1.19762   1.16820   44.499
 5323.00    1.19204   1.15361   44.964
 5324.00    1.19596   1.13894   45.682
 5325.00    1.18086   1.12445   46.224
 5326.00    1.15671   1.10606   46.328
 5327.00    1.12422   1.08295   47.204
 5328.00    1.09371   1.06513   49.753
 5329.00    1.09283   1.06649   51.885
 5330.00    1.12815   1.08908   50.888
 5331.00    1.16846   1.11986   48.067
 5332.00    1.18855   1.14425   46.114
 5333.00    1.20223   1.15802   45.365
 5334.00    1.19999   1.16490   44.940
 5335.00    1.19840   1.16803   44.444
 5336.00    1.20354   1.16772   44.153
 5337.00    1.19609   1.16353   44.304
 5338.00    1.18238   1.15522   44.602
 5339.00    1.17757   1.14379   45.031
 5340.00    1.16672   1.13366   45.982
 5341.00    1.15902   1.13135   46.915
 5342.00    1.16976   1.13917   46.876
 5343.00    1.18648   1.15152   45.835
 5344.00    1.19693   1.15990   44.870
 5345.00    1.19838   1.16053   44.640
 5346.00    1.19241   1.15575   44.862
 5347.00    1.18661   1.14995   45.159
 5348.00    1.18025   1.14650   45.401
 5349.00    1.18060   1.14747   45.754
 5350.00    1.19122   1.15383   45.959
 5351.00    1.20186   1.16422   45.483
 5352.00    1.21050   1.17503   44.508
 5353.00    1.22066   1.18362   43.804
 5354.00    1.23061   1.19058   43.555
 5355.00    1.22643   1.19752   43.282
 5356.00    1.22716   1.20399   42.785
 5357.00    1.23536   1.20813   42.391
 5358.00    1.23904   1.20883   42.328
 5359.00    1.23072   1.20608   42.394
 5360.00    1.22608   1.19997   42.522
 5361.00    1.21130   1.19078   42.920
 5362.00    1.20168   1.17980   43.585
 5363.00    1.20116   1.16906   44.258
 5364.00    1.19415   1.16050   44.668
 5365.00    1.18142   1.15547   44.935
 5366.00    1.17909   1.15357   45.202
 5367.00    1.18363   1.15164   45.187
 5368.00    1.18805   1.14506   45.133
 5369.00    1.17228   1.13149   45.457
 5370.00    1.15191   1.11464   46.399
 5371.00    1.14412   1.10408   47.754
 5372.00    1.14756   1.10869   48.303
 5373.00    1.16736   1.12871   47.064
 5374.00    1.20042   1.15487   44.976
 5375.00    1.22992   1.17624   43.576
 5376.00    1.23524   1.18798   43.054
 5377.00    1.23580   1.19160   43.064
 5378.00    1.22917   1.19042   43.126
 5379.00    1.22243   1.18636   43.187
 5380.00    1.21327   1.18031   43.389
 5381.00    1.19740   1.17350   43.770
 5382.00    1.19216   1.16791   44.207
 5383.00    1.19563   1.16588   44.490
 5384.00    1.19725   1.16900   44.529
 5385.00    1.19892   1.17641   44.367
 5386.00    1.20193   1.18435   43.965
 5387.00    1.21193   1.18838   43.754
 5388.00    1.21530   1.18638   43.877
 5389.00    1.20299   1.17930   44.241
 5390.00    1.19580   1.16993   44.849
 5391.00    1.18922   1.16089   45.416
 5392.00    1.17924   1.15350   45.706
 5393.00    1.17562   1.14785   45.776
 5394.00    1.17126   1.14231   45.875
 5395.00    1.16137   1.13425   46.159
 5396.00    1.14781   1.12394   46.693
 5397.00    1.14647   1.11697   47.548
 5398.00    1.15997   1.11961   47.875
 5399.00    1.17784   1.13172   46.859
 5400.00    1.18761   1.14597   45.460
 5401.00    1.19277   1.15411   44.876
 5402.00    1.18905   1.15156   44.881
 5403.00    1.16827   1.13804   45.162
 5404.00    1.14501   1.11843   46.229
 5405.00    1.13487   1.10223   47.740
 5406.00    1.13785   1.09749   48.719
 5407.00    1.14733   1.10381   48.551
 5408.00    1.15369   1.11320   47.639
 5409.00    1.15391   1.11909   47.033
 5410.00    1.15275   1.12317   47.212
 5411.00    1.16557   1.13075   47.205
 5412.00    1.18901   1.14219   46.240
 5413.00    1.20015   1.15267   45.091
 5414.00    1.20549   1.15897   44.450
 5415.00    1.20202   1.16305   44.343
 5416.00    1.19963   1.16804   44.379
 5417.00    1.20120   1.17369   44.152
 5418.00    1.19866   1.17759   43.845
 5419.00    1.19721   1.17859   43.887
 5420.00    1.20356   1.17718   44.259
 5421.00    1.20515   1.17389   44.586
 5422.00    1.20440   1.16861   44.537
 5423.00    1.19600   1.16225   44.345
 5424.00    1.19207   1.15824   44.719
 5425.00    1.19657   1.15998   45.222
 5426.00    1.19645   1.16564   45.006
 5427.00    1.19390   1.16730   44.302
 5428.00    1.17896   1.15907   44.159
 5429.00    1.16102   1.14493   45.072
 5430.00    1.15179   1.13468   46.492
 5431.00    1.15775   1.13278   47.018
 5432.00    1.16443   1.13421   46.412
 5433.00    1.15618   1.13249   46.113
 5434.00    1.14950   1.12860   46.589
 5435.00    1.15300   1.12952   47.187
 5436.00    1.16214   1.14000   47.231
 5437.00    1.17405   1.15779   46.503
 5438.00    1.19394   1.17622   45.306
 5439.00    1.21424   1.18995   44.256
 5440.00    1.22641   1.19798   43.552
 5441.00    1.23796   1.20167   43.123
 5442.00    1.24212   1.20087   42.968
 5443.00    1.22347   1.19318   42.952
 5444.00    1.19740   1.17658   43.265
 5445.00    1.16983   1.15347   44.215
 5446.00    1.14157   1.13224   45.862
 5447.00    1.13430   1.12292   47.523
 5448.00    1.14828   1.12965   47.760
 5449.00    1.16900   1.14699   46.523
 5450.00    1.18658   1.16457   45.129
 5451.00    1.19694   1.17440   44.448
 5452.00    1.19308   1.17333   44.345
 5453.00    1.17770   1.16187   44.620
 5454.00    1.16230   1.14438   45.463
 5455.00    1.14498   1.12975   46.718
 5456.00    1.14179   1.12768   47.847
 5457.00    1.15466   1.14044   47.683
 5458.00    1.18167   1.15983   46.268
 5459.00    1.19137   1.17431   44.872
 5460.00    1.18762   1.17772   44.326
 5461.00    1.18152   1.17143   44.634
 5462.00    1.17898   1.16131   45.400
 5463.00    1.17854   1.15405   46.101
 5464.00    1.18285   1.15366   46.463
 5465.00    1.18385   1.15939   46.133
 5466.00    1.18897   1.16735   45.558
 5467.00    1.19115   1.17421   45.247
 5468.00    1.18629   1.17885   44.843
 5469.00    1.18057   1.18099   44.546
 5470.00    1.18167   1.18023   44.785
 5471.00    1.18206   1.17669   45.259
 5472.00    1.17390   1.17096   45.519
 5473.00    1.16989   1.16292   45.718
 5474.00    1.16445   1.15168   46.116
 5475.00    1.14688   1.13782   46.722
 5476.00    1.13091   1.12584   47.621
 5477.00    1.13337   1.12223   48.467
 5478.00    1.15115   1.12924   48.394
 5479.00    1.16044   1.14156   47.195
 5480.00    1.16220   1.15114   46.094
 5481.00    1.16745   1.15522   46.072
 5482.00    1.16969   1.15764   46.617
 5483.00    1.17620   1.16282   46.746
 5484.00    1.18169   1.17059   46.134
 5485.00    1.18572   1.17683   45.208
 5486.00    1.18774   1.17790   44.642
 5487.00    1.18419   1.17428   44.830
 5488.00    1.17487   1.16974   45.437
 5489.00    1.17256   1.16791   45.833
 5490.00    1.17558   1.16954   45.909
 5491.00    1.18054   1.17290   45.683
 5492.00    1.18167   1.17588   45.342
 5493.00    1.18259   1.17724   45.123
 5494.00    1.18699   1.17643   45.144
 5495.00    1.18379   1.17291   45.197
 5496.00    1.17306   1.16713   45.194
 5497.00    1.16801   1.16156   45.416
 5498.00    1.17765   1.15887   45.753
 5499.00    1.17918   1.15845   45.687
 5500.00    1.17181   1.15680   45.235
 5501.00    1.17064   1.15262   45.304
 5502.00    1.16531   1.14902   45.951
 5503.00    1.17104   1.14867   46.256
 5504.00    1.17576   1.14939   45.996
 5505.00    1.17660   1.14738   45.794
 5506.00    1.16856   1.14306   46.195
 5507.00    1.15669   1.14113   46.735
 5508.00    1.16253   1.14467   46.585
 5509.00    1.17465   1.15090   45.905
 5510.00    1.17882   1.15403   45.523
 5511.00    1.16903   1.15115   45.683
 5512.00    1.15210   1.14446   46.403
 5513.00    1.14127   1.13903   47.241
 5514.00    1.13527   1.13887   47.772
 5515.00    1.14518   1.14470   47.513
 5516.00    1.17063   1.15446   46.730
 5517.00    1.18735   1.16526   45.979
 5518.00    1.19423   1.17465   45.174
 5519.00    1.20172   1.18096   44.385
 5520.00    1.20614   1.18376   44.074
 5521.00    1.20296   1.18412   44.106
 5522.00    1.20142   1.18342   44.192
 5523.00    1.20483   1.18143   44.325
 5524.00    1.19823   1.17593   44.429
 5525.00    1.18309   1.16476   44.631
 5526.00    1.16951   1.14885   45.134
 5527.00    1.15266   1.13349   46.048
 5528.00    1.14543   1.12601   47.214
 5529.00    1.15540   1.13058   47.803
 5530.00    1.16439   1.14423   47.156
 5531.00    1.17680   1.15848   45.936
 5532.00    1.18552   1.16601   45.130
 5533.00    1.17891   1.16574   45.021
 5534.00    1.17622   1.16195   45.359
 5535.00    1.17854   1.15996   45.660
 5536.00    1.18258   1.16217   45.621
 5537.00    1.18713   1.16719   45.304
 5538.00    1.19579   1.17237   45.098
 5539.00    1.20243   1.17650   44.941
 5540.00    1.20757   1.17955   44.577
 5541.00    1.20270   1.18072   44.187
 5542.00    1.19930   1.17905   44.088
 5543.00    1.20199   1.17543   44.413
 5544.00    1.20008   1.17251   44.883
 5545.00    1.18446   1.17228   45.110
 5546.00    1.17981   1.17475   45.052
 5547.00    1.19210   1.17905   44.934
 5548.00    1.21402   1.18435   44.713
 5549.00    1.21834   1.18916   44.314
 5550.00    1.21725   1.19169   43.915
 5551.00    1.21587   1.19117   43.727
 5552.00    1.21003   1.18819   43.859
 5553.00    1.20445   1.18423   44.205
 5554.00    1.20024   1.18103   44.678
 5555.00    1.19965   1.17981   44.999
 5556.00    1.19359   1.18040   45.015
 5557.00    1.18783   1.18179   44.887
 5558.00    1.19353   1.18324   44.787
 5559.00    1.19009   1.18420   44.726
 5560.00    1.18512   1.18349   44.676
 5561.00    1.19273   1.18023   44.724
 5562.00    1.18938   1.17524   44.915
 5563.00    1.17065   1.17048   45.302
 5564.00    1.15741   1.16704   45.677
 5565.00    1.16376   1.16448   45.864
 5566.00    1.17733   1.16202   45.963
 5567.00    1.17406   1.15954   46.026
 5568.00    1.16335   1.15732   45.976
 5569.00    1.16063   1.15553   45.873
 5570.00    1.16753   1.15383   45.929
 5571.00    1.17045   1.15168   45.962
 5572.00    1.14022   1.14955   45.946
 5573.00    1.04873   1.14926   -1.000
 5574.00    0.49594   1.15198   -1.000
 5575.00   -0.85274   1.15662    0.000
 5576.00   -2.42951   1.16152    0.000
 5577.00   -3.69668   1.16622    0.000
 5578.00   -3.57595   1.17062    0.000
 5579.00   -1.21205   1.17377    0.000
 5580.00    1.72919   1.17475   -1.000
 5581.00    2.35605   1.17404   -1.000
 5582.00    1.58147   1.17276   -1.000
 5583.00    1.23722   1.17063   -1.000
 5584.00    1.19796   1.16514   45.285
 5585.00    1.17623   1.15350   45.440
 5586.00    1.15568   1.13632   46.208
 5587.00    1.13626   1.11893   47.366
 5588.00    1.12786   1.10815   48.482
 5589.00    1.13255   1.10754   49.092
 5590.00    1.13343   1.11563   48.808
 5591.00    1.14680   1.12720   47.992
 5592.00    1.15772   1.13663   47.242
 5593.00    1.15051   1.14175   46.929
 5594.00    1.14785   1.14469   47.026
 5595.00    1.14748   1.14814   46.918
 5596.00    1.15180   1.15120   46.353
 5597.00    1.15420   1.15075   45.855
 5598.00    1.14856   1.14601   46.020
 5599.00    1.14350   1.13939   46.735
 5600.00    1.14299   1.13316   47.358
 5601.00    1.13840   1.12874   47.497
 5602.00    1.13000   1.12889   47.641
 5603.00    1.13089   1.13657   47.901
 5604.00    1.15174   1.15125   47.460
 5605.00    1.17554   1.16831   46.292
 5606.00    1.18559   1.18245   45.142
 5607.00    1.19743   1.19112   44.444
 5608.00    1.20439   1.19514   44.217
 5609.00    1.20057   1.19674   44.245
 5610.00    1.19851   1.19735   44.334
 5611.00    1.19920   1.19613   44.337
 5612.00    1.19537   1.19013   44.224
 5613.00    1.18030   1.17683   44.309
 5614.00    1.16673   1.15808   44.994
 5615.00    1.15268   1.14146   46.373
 5616.00    1.13535   1.13535   47.670
 5617.00    1.14034   1.14147   47.774
 5618.00    1.15845   1.15371   46.821
 5619.00    1.17049   1.16490   45.982
 5620.00    1.18410   1.17207   45.714
 5621.00    1.18269   1.17504   45.563
 5622.00    1.17690   1.17367   45.335
 5623.00    1.17122   1.16837   45.382
 5624.00    1.15636   1.16200   46.055
 5625.00    1.15616   1.15896   46.964
 5626.00    1.16588   1.16159   47.131
 5627.00    1.17169   1.16841   46.490
 5628.00    1.17813   1.17598   45.756
 5629.00    1.18542   1.18183   45.188
 5630.00    1.19402   1.18536   44.793
 5631.00    1.19533   1.18683   44.604
 5632.00    1.19542   1.18652   44.451
 5633.00    1.19196   1.18462   44.415
 5634.00    1.18627   1.18139   44.669
 5635.00    1.18739   1.17719   45.015
 5636.00    1.18272   1.17286   45.309
 5637.00    1.17276   1.16938   45.625
 5638.00    1.17178   1.16728   45.947
 5639.00    1.17025   1.16615   46.057
 5640.00    1.17110   1.16521   46.013
 5641.00    1.17767   1.16457   46.096
 5642.00    1.17129   1.16518   46.178
 5643.00    1.15489   1.16726   46.059
 5644.00    1.15820   1.16998   45.846
 5645.00    1.17333   1.17256   45.723
 5646.00    1.17654   1.17457   45.496
 5647.00    1.17718   1.17562   45.288
 5648.00    1.18269   1.17558   45.178
 5649.00    1.18434   1.17504   45.092
 5650.00    1.18261   1.17503   45.143
 5651.00    1.17952   1.17598   45.189
 5652.00    1.18481   1.17686   44.947
 5653.00    1.18724   1.17603   44.727
 5654.00    1.17765   1.17224   44.809
 5655.00    1.16767   1.16468   45.117
 5656.00    1.15743   1.15318   45.534
 5657.00    1.14030   1.14008   46.257
 5658.00    1.12441   1.13071   47.517
 5659.00    1.12303   1.12930   48.567
 5660.00    1.12641   1.13461   48.355
 5661.00    1.13081   1.14181   47.354
 5662.00    1.13775   1.14811   46.856
 5663.00    1.14394   1.15425   46.885
 5664.00    1.15423   1.16079   46.581
 5665.00    1.16222   1.16572   45.938
 5666.00    1.16207   1.16684   45.584
 5667.00    1.16295   1.16495   45.699
 5668.00    1.15517   1.16314   45.981
 5669.00    1.15323   1.16377   46.116
 5670.00    1.16301   1.16701   46.049
 5671.00    1.17204   1.17161   45.806
 5672.00    1.17467   1.17614   45.435
 5673.00    1.16823   1.17960   44.996
 5674.00    1.17145   1.18160   44.553
 5675.00    1.18165   1.18245   44.408
 5676.00    1.17882   1.18292   44.530
 5677.00    1.18174   1.18321   44.497
 5678.00    1.18338   1.18250   44.386
 5679.00    1.17626   1.17969   44.512
 5680.00    1.17460   1.17416   44.725
 5681.00    1.16969   1.16626   44.956
 5682.00    1.16375   1.15787   45.394
 5683.00    1.15507   1.15193   45.945
 5684.00    1.15126   1.15042   46.207
 5685.00    1.15995   1.15234   46.048
 5686.00    1.15966   1.15441   45.804
 5687.00    1.14684   1.15451   45.874
 5688.00    1.14388   1.15372   46.322
 5689.00    1.15405   1.15490   46.633
 5690.00    1.16515   1.15963   46.329
 5691.00    1.17874   1.16676   45.559
 5692.00    1.18850   1.17368   44.966
 5693.00    1.18249   1.17847   44.653
 5694.00    1.17820   1.18080   44.503
 5695.00    1.18068   1.18122   44.520
 5696.00    1.17905   1.18017   44.567
 5697.00    1.17198   1.17758   44.660
 5698.00    1.16561   1.17320   44.993
 5699.00    1.15854   1.16747   45.506
 5700.00    1.14731   1.16185   45.956
 5701.00    1.14385   1.15819   46.411
 5702.00    1.15008   1.15758   46.733
 5703.00    1.15420   1.15926   46.571
 5704.00    1.15550   1.16079   46.105
 5705.00    1.15258   1.15956   45.854
 5706.00    1.14218   1.15443   46.031
 5707.00    1.12980   1.14597   46.581
 5708.00    1.11339   1.13606   47.393
 5709.00    1.10182   1.12778   48.195
 5710.00    1.10449   1.12445   48.637
 5711.00    1.11162   1.12782   48.642
 5712.00    1.12625   1.13713   48.262
 5713.00    1.14297   1.14939   47.426
 5714.00    1.15716   1.16091   46.296
 5715.00    1.16863   1.16925   45.422
 5716.00    1.17522   1.17432   45.090
 5717.00    1.17314   1.17749   44.994
 5718.00    1.16944   1.18021   44.869
 5719.00    1.17361   1.18325   44.675
 5720.00    1.18154   1.18660   44.406
 5721.00    1.19104   1.18969   44.166
 5722.00    1.19536   1.19198   44.029
 5723.00    1.19107   1.19314   43.952
 5724.00    1.19185   1.19267   43.895
 5725.00    1.18848   1.19003   43.943
 5726.00    1.17816   1.18577   44.226
 5727.00    1.16213   1.18179   44.675
 5728.00    1.15946   1.17979   45.077
 5729.00    1.17007   1.17979   45.047
 5730.00    1.17086   1.18052   44.754
 5731.00    1.16903   1.18116   44.736
 5732.00    1.18135   1.18235   44.948
 5733.00    1.19701   1.18495   44.928
 5734.00    1.18860   1.18831   44.564
 5735.00    1.17547   1.19070   44.214
 5736.00    1.17285   1.19121   44.147
 5737.00    1.17979   1.19047   44.211
 5738.00    1.18332   1.18960   44.314
 5739.00    1.17777   1.18920   44.389
 5740.00    1.17577   1.18902   44.456
 5741.00    1.18112   1.18858   44.538
 5742.00    1.18834   1.18807   44.624
 5743.00    1.18552   1.18820   44.596
 5744.00    1.18249   1.18907   44.519
 5745.00    1.18780   1.18964   44.300
 5746.00    1.18830   1.18889   44.012
 5747.00    1.18529   1.18732   44.082
 5748.00    1.18763   1.18651   44.476
 5749.00    1.18558   1.18683   44.756
 5750.00    1.18242   1.18635   44.635
 5751.00    1.18100   1.18285   44.429
 5752.00    1.16814   1.17666   44.608
 5753.00    1.15198   1.17113   45.109
 5754.00    1.14866   1.17005   45.606
 5755.00    1.15676   1.17463   45.763
 5756.00    1.17072   1.18259   45.365
 5757.00    1.18432   1.19005   44.590
 5758.00    1.18832   1.19389   43.939
 5759.00    1.18471   1.19285   43.847
 5760.00    1.17544   1.18759   44.241
 5761.00    1.16213   1.18046   44.807
 5762.00    1.15539   1.17506   45.414
 5763.00    1.15731   1.17465   45.791
 5764.00    1.16309   1.17971   45.544
 5765.00    1.17912   1.18733   44.811
 5766.00    1.19330   1.19369   44.155
 5767.00    1.19563   1.19692   43.882
 5768.00    1.19525   1.19749   43.823
 5769.00    1.18843   1.19668   43.762
 5770.00    1.18076   1.19514   43.788
 5771.00    1.18628   1.19282   43.922
 5772.00    1.18498   1.18970   44.131
 5773.00    1.17745   1.18638   44.401
 5774.00    1.17894   1.18388   44.575
 5775.00    1.17866   1.18291   44.642
 5776.00    1.17684   1.18304   44.603
 5777.00    1.17624   1.18248   44.419
 5778.00    1.17352   1.17925   44.302
 5779.00    1.16532   1.17287   44.383
 5780.00    1.15589   1.16488   44.845
 5781.00    1.13911   1.15792   45.751
 5782.00    1.12938   1.15406   46.535
 5783.00    1.14251   1.15359   46.689
 5784.00    1.14794   1.15528   46.511
 5785.00    1.14847   1.15806   46.337
 5786.00    1.15950   1.16192   46.170
 5787.00    1.16472   1.16680   45.787
 5788.00    1.17030   1.17144   45.196
 5789.00    1.17361   1.17413   44.748
 5790.00    1.16977   1.17466   44.660
 5791.00    1.16334   1.17496   44.823
 5792.00    1.17006   1.17727   44.866
 5793.00    1.18536   1.18198   44.597
 5794.00    1.19763   1.18732   44.252
 5795.00    1.19942   1.19086   43.977
 5796.00    1.18873   1.19139   43.856
 5797.00    1.18518   1.18993   44.017
 5798.00    1.18951   1.18906   44.307
 5799.00    1.19651   1.19052   44.288
 5800.00    1.20104   1.19370   43.833
 5801.00    1.20109   1.19654   43.231
 5802.00    1.20012   1.19730   42.936
 5803.00    1.19471   1.19563   43.142
 5804.00    1.18210   1.19270   43.511
 5805.00    1.17428   1.19041   43.856
 5806.00    1.17603   1.18999   44.118
 5807.00    1.17779   1.19118   44.125
 5808.00    1.18364   1.19292   43.969
 5809.00    1.19384   1.19442   43.822
 5810.00    1.19693   1.19550   43.772
 5811.00    1.19635   1.19602   43.752
 5812.00    1.20202   1.19558   43.632
 5813.00    1.19654   1.19379   43.483
 5814.00    1.18537   1.19075   43.487
 5815.00    1.18436   1.18762   43.752
 5816.00    1.19126   1.18633   44.033
 5817.00    1.19913   1.18805   43.966
 5818.00    1.19977   1.19185   43.672
 5819.00    1.19696   1.19554   43.407
 5820.00    1.19967   1.19766   43.188
 5821.00    1.20671   1.19828   43.017
 5822.00    1.20282   1.19815   43.005
 5823.00    1.20217   1.19777   43.137
 5824.00    1.20438   1.19745   43.154
 5825.00    1.20239   1.19753   43.072
 5826.00    1.20358   1.19828   43.000
 5827.00    1.21183   1.19945   42.942
 5828.00    1.21328   1.20050   42.936
 5829.00    1.20496   1.20097   42.995
 5830.00    1.20711   1.20083   42.982
 5831.00    1.21067   1.20021   42.945
 5832.00    1.20647   1.19909   42.921
 5833.00    1.20497   1.19749   42.943
 5834.00    1.20201   1.19594   43.161
 5835.00    1.19469   1.19535   43.330
 5836.00    1.20039   1.19609   43.257
 5837.00    1.20683   1.19760   43.138
 5838.00    1.19786   1.19906   43.193
 5839.00    1.19483   1.20013   43.320
 5840.00    1.19956   1.20082   43.273
 5841.00    1.19939   1.20096   43.013
 5842.00    1.20590   1.20027   42.742
 5843.00    1.20762   1.19874   42.665
 5844.00    1.20371   1.19657   42.766
 5845.00    1.19538   1.19398   42.929
 5846.00    1.18584   1.19134   43.169
 5847.00    1.18884   1.18922   43.421
 5848.00    1.18963   1.18781   43.632
 5849.00    1.18062   1.18634   43.690
 5850.00    1.17563   1.18347   43.697
 5851.00    1.17163   1.17856   43.884
 5852.00    1.16552   1.17250   44.159
 5853.00    1.15968   1.16703   44.531
 5854.00    1.15499   1.16267   44.847
 5855.00    1.15288   1.15791   44.964
 5856.00    1.14740   1.15141   45.018
 5857.00    1.14562   1.14503   45.312
 5858.00    1.15064   1.14285   45.777
 5859.00    1.14886   1.14682   45.754
 5860.00    1.15436   1.15465   45.241
 5861.00    1.17181   1.16250   44.779
 5862.00    1.16677   1.16824   44.554
 5863.00    1.15800   1.17167   44.393
 5864.00    1.16169   1.17287   44.275
 5865.00    1.15934   1.17188   44.331
 5866.00    1.15333   1.16986   44.483
 5867.00    1.14776   1.16908   44.676
 5868.00    1.16324   1.17110   44.743
 5869.00    1.17739   1.17539   44.455
 5870.00    1.17925   1.17981   44.041
 5871.00    1.18594   1.18230   43.782
 5872.00    1.18466   1.18230   43.709
 5873.00    1.18233   1.18062   43.785
 5874.00    1.18410   1.17842   43.843
 5875.00    1.18100   1.17632   43.799
 5876.00    1.17946   1.17431   43.845
 5877.00    1.17870   1.17198   44.022
 5878.00    1.17149   1.16894   44.140
 5879.00    1.16406   1.16529   44.362
 5880.00    1.15787   1.16146   44.693
 5881.00    1.15222   1.15751   44.808
 5882.00    1.15279   1.15304   44.717
 5883.00    1.15689   1.14788   44.660
 5884.00    1.15076   1.14199   44.784
 5885.00    1.11307   1.13370   44.898
 5886.00    1.00052   1.11806   -1.000
 5887.00    0.71086   1.08967   -1.000
 5888.00    0.21546   1.05011   -1.000
 5889.00   -0.18740   1.01228    0.000
 5890.00   -0.35141   0.99265    0.000
 5891.00   -0.13393   0.99639    0.000
 5892.00    0.42563   1.01211   -1.000
 5893.00    0.73959   1.02267   -1.000
 5894.00    0.59395   1.02047   -1.000
 5895.00    0.31765   1.01222   -1.000
 5896.00    0.23185   1.01110   -1.000
 5897.00    0.44744   1.02454   -1.000
 5898.00    0.84337   1.04917   -1.000
 5899.00    1.12663   1.07649   49.177
 5900.00    1.18902   1.10047   -1.000
 5901.00    1.16444   1.11934   46.463
 5902.00    1.14762   1.13308   45.560
 5903.00    1.14740   1.14211   45.090
 5904.00    1.14578   1.14750   44.998
 5905.00    1.13579   1.15077   44.979
 5906.00    1.14467   1.15317   45.019
 5907.00    1.15756   1.15527   45.040
 5908.00    1.15431   1.15722   44.974
 5909.00    1.15722   1.15886   44.872
 5910.00    1.15980   1.15954   44.918
 5911.00    1.15393   1.15832   45.039
 5912.00    1.15305   1.15458   45.085
 5913.00    1.14485   1.14896   45.204
 5914.00    1.11925   1.14348   45.668
 5915.00    1.10737   1.14039   46.176
 5916.00    1.12376   1.14074   46.241
 5917.00    1.14342   1.14411   46.019
 5918.00    1.15214   1.14900   45.801
 5919.00    1.15304   1.15358   45.629
 5920.00    1.14483   1.15650   45.483
 5921.00    1.13899   1.15764   45.345
 5922.00    1.14034   1.15788   45.278
 5923.00    1.13536   1.15838   45.324
 5924.00    1.13520   1.15984   45.234
 5925.00    1.14866   1.16192   45.060
 5926.00    1.16059   1.16331   44.959
 5927.00    1.15653   1.16257   44.909
 5928.00    1.14637   1.15949   44.947
 5929.00    1.14453   1.15577   45.182
 5930.00    1.14057   1.15385   45.542
 5931.00    1.13565   1.15455   45.665
 5932.00    1.13499   1.15644   45.355
 5933.00    1.13865   1.15769   45.023
 5934.00    1.14970   1.15812   45.151
 5935.00    1.15840   1.15895   45.509
 5936.00    1.15741   1.16078   45.675
 5937.00    1.15204   1.16258   45.518
 5938.00    1.15252   1.16278   45.149
 5939.00    1.16146   1.16077   44.887
 5940.00    1.16416   1.15751   44.928
 5941.00    1.14924   1.15468   45.289
 5942.00    1.13722   1.15364   45.650
 5943.00    1.13759   1.15467   45.717
 5944.00    1.13658   1.15685   45.530
 5945.00    1.13756   1.15852   45.248
 5946.00    1.14459   1.15834   45.037
 5947.00    1.14875   1.15647   45.043
 5948.00    1.14465   1.15454   45.353
 5949.00    1.13829   1.15399   45.821
 5950.00    1.13568   1.15459   46.086
 5951.00    1.13399   1.15499   45.963
 5952.00    1.12631   1.15452   45.747
 5953.00    1.12254   1.15371   45.752
 5954.00    1.12819   1.15305   45.799
 5955.00    1.13525   1.15230   45.718
 5956.00    1.14055   1.15152   45.687
 5957.00    1.14192   1.15174   45.808
 5958.00    1.15020   1.15393   45.938
 5959.00    1.16022   1.15784   45.850
 5960.00    1.16138   1.16219   45.452
 5961.00    1.16581   1.16562   44.956
 5962.00    1.17454   1.16731   44.682
 5963.00    1.16567   1.16700   44.596
 5964.00    1.14838   1.16511   44.642
 5965.00    1.14815   1.16270   44.839
 5966.00    1.15208   1.16107   45.040
 5967.00    1.15083   1.16098   45.190
 5968.00    1.15208   1.16230   45.201
 5969.00    1.15121   1.16443   44.936
 5970.00    1.14744   1.16667   44.714
 5971.00    1.15494   1.16828   44.681
 5972.00    1.16575   1.16864   44.623
 5973.00    1.16081   1.16727   44.546
 5974.00    1.14315   1.16396   44.670
 5975.00    1.13183   1.15926   44.999
 5976.00    1.13033   1.15478   45.354
 5977.00    1.12955   1.15255   45.685
 5978.00    1.13890   1.15355   45.941
 5979.00    1.15112   1.15683   45.900
 5980.00    1.15080   1.15998   45.557
 5981.00    1.15443   1.16056   45.283
 5982.00    1.15167   1.15776   45.290
 5983.00    1.13515   1.15306   45.567
 5984.00    1.13255   1.14931   45.973
 5985.00    1.13597   1.14857   46.275
 5986.00    1.13745   1.15078   46.265
 5987.00    1.14723   1.15433   45.888
 5988.00    1.15159   1.15754   45.506
 5989.00    1.15067   1.15958   45.321
 5990.00    1.15363   1.16073   45.135
 5991.00    1.15683   1.16212   45.074
 5992.00    1.15970   1.16476   45.187
 5993.00    1.16764   1.16822   45.103
 5994.00    1.16968   1.17060   44.768
 5995.00    1.15784   1.17042   44.527
 5996.00    1.15170   1.16812   44.669
 5997.00    1.15619   1.16549   45.010
 5998.00    1.16225   1.16399   45.252
 5999.00    1.16280   1.16359   45.384
 6000.00    1.15727   1.16310   45.373
 6001.00    1.15348   1.16161   45.350
 6002.00    1.15263   1.15941   45.534
 6003.00    1.14856   1.15755   45.753
 6004.00    1.14726   1.15629   45.797
 6005.00    1.15065   1.15450   45.709
 6006.00    1.14423   1.15123   45.665
 6007.00    1.12663   1.14757   45.878
 6008.00    1.12179   1.14620   46.306
 6009.00    1.13817   1.14850   46.513
 6010.00    1.14361   1.15283   46.171
 6011.00    1.14555   1.15618   45.637
 6012.00    1.14943   1.15707   45.452
 6013.00    1.14634   1.15623   45.694
 6014.00    1.14625   1.15507   46.002
 6015.00    1.13774   1.15414   45.967
 6016.00    1.13796   1.15319   45.830
 6017.00    1.13880   1.15180   45.963
 6018.00    1.13530   1.14976   46.114
 6019.00    1.14658   1.14729   46.076
 6020.00    1.14985   1.14514   46.088
 6021.00    1.13805   1.14416   46.338
 6022.00    1.14128   1.14470   46.376
 6023.00    1.14889   1.14667   46.084
 6024.00    1.14091   1.15001   45.887
 6025.00    1.13726   1.15443   45.827
 6026.00    1.14674   1.15911   45.647
 6027.00    1.15451   1.16323   45.434
 6028.00    1.16567   1.16654   45.226
 6029.00    1.17419   1.16915   44.976
 6030.00    1.16759   1.17109   44.864
 6031.00    1.16229   1.17247   44.852
 6032.00    1.16693   1.17362   44.920
 6033.00    1.16921   1.17481   44.927
 6034.00    1.17110   1.17592   44.764
 6035.00    1.16943   1.17644   44.606
 6036.00    1.16304   1.17591   44.552
 6037.00    1.16764   1.17426   44.503
 6038.00    1.17228   1.17177   44.487
 6039.00    1.16794   1.16896   44.662
 6040.00    1.16662   1.16622   44.840
 6041.00    1.16349   1.16377   44.944
 6042.00    1.16058   1.16235   44.961
 6043.00    1.16482   1.16321   44.865
 6044.00    1.16895   1.16667   44.716
 6045.00    1.17229   1.17127   44.401
 6046.00    1.17538   1.17507   44.250
 6047.00    1.16892   1.17727   44.297
 6048.00    1.16005   1.17809   44.255
 6049.00    1.16025   1.17796   44.241
 6050.00    1.17069   1.17727   44.357
 6051.00    1.18660   1.17621   44.489
 6052.00    1.18888   1.17459   44.550
 6053.00    1.17557   1.17214   44.611
 6054.00    1.16635   1.16906   44.755
 6055.00    1.16569   1.16619   44.920
 6056.00    1.16512   1.16457   45.114
 6057.00    1.16375   1.16475   45.312
 6058.00    1.16193   1.16643   45.321
 6059.00    1.15827   1.16863   45.140
 6060.00    1.16444   1.16998   44.894
 6061.00    1.16959   1.16903   44.821
 6062.00    1.16018   1.16487   44.922
 6063.00    1.14978   1.15801   45.320
 6064.00    1.13656   1.15101   46.143
 6065.00    1.12608   1.14749   45.710
 6066.00    1.11636   1.14958   55.943
 6067.00    1.11097   1.15618   23.896
 6068.00    1.12002   1.16402   20.400
 6069.00    1.13870   1.17036   48.668
 6070.00    1.14750   1.17436   44.918
 6071.00    1.16895   1.17655   44.308
 6072.00    1.09254   1.17772   -1.000
 6073.00    0.72448   1.17818   -1.000
 6074.00    0.77740   1.17765   -1.000
 6075.00    1.16929   1.17564   44.459
 6076.00    1.17211   1.17219   44.551
 6077.00    1.16296   1.16812   44.755
 6078.00    1.16451   1.16456   45.005
 6079.00    1.16080   1.16201   45.314
 6080.00    1.15590   1.16011   45.633
 6081.00    1.15206   1.15830   45.769
 6082.00    1.15467   1.15657   45.785
 6083.00    1.15762   1.15542   45.879
 6084.00    1.15649   1.15533   45.945
 6085.00    1.15599   1.15643   45.915
 6086.00    1.14952   1.15840   45.872
 6087.00    1.14535   1.16039   45.777
 6088.00    1.14846   1.16133   45.610
 6089.00    1.14523   1.16070   45.569
 6090.00    1.14668   1.15906   45.780
 6091.00    1.14690   1.15777   46.024
 6092.00    1.14289   1.15802   46.095
 6093.00    1.14674   1.16000   45.911
 6094.00    1.15292   1.16297   45.633
 6095.00    1.15871   1.16599   45.397
 6096.00    1.16484   1.16847   45.168
 6097.00    1.16671   1.16986   45.090
 6098.00    1.15910   1.16911   45.172
 6099.00    1.15425   1.16453   45.246
 6100.00    1.15260   1.15509   45.254
 6101.00    1.14986   1.14240   45.540
 6102.00    1.15255   1.13143   46.427
 6103.00    1.15769   1.12745   47.400
 6104.00    1.16291   1.13185   47.544
 6105.00    1.16334   1.14127   46.827
 6106.00    1.15843   1.15098   46.002
 6107.00    1.15081   1.15842   45.607
 6108.00    1.14845   1.16343   45.659
 6109.00    1.14632   1.16649   45.820
 6110.00    1.14414   1.16781   45.857
 6111.00    1.14538   1.16792   45.787
 6112.00    1.14655   1.16781   45.629
 6113.00    1.15079   1.16828   45.522
 6114.00    1.15883   1.16918   45.405
 6115.00    1.15613   1.16980   45.213
 6116.00    1.14477   1.16938   45.265
 6117.00    1.14301   1.16702   45.525
 6118.00    1.14062   1.16145   45.709
 6119.00    1.13012   1.15175   45.837
 6120.00    1.12101   1.13885   46.304
 6121.00    1.11570   1.12664   46.971
 6122.00    1.11077   1.12007   47.487
 6123.00    1.11770   1.12162   47.714
 6124.00    1.13178   1.12932   47.298
 6125.00    1.13909   1.13865   46.560
 6126.00    1.13991   1.14579   46.283
 6127.00    1.13649   1.14985   46.456
 6128.00    1.13836   1.15256   46.571
 6129.00    1.14675   1.15615   46.463
 6130.00    1.15211   1.16110   46.218
 6131.00    1.15283   1.16576   45.789
 6132.00    1.14839   1.16736   45.530
 6133.00    1.14351   1.16309   45.554
 6134.00    1.13110   1.15136   45.829
 6135.00    1.11074   1.13413   46.598
 6136.00    1.09625   1.11789   47.865
 6137.00    1.08574   1.10973   49.196
 6138.00    1.08799   1.11147   49.851
 6139.00    1.10333   1.11866   49.193
 6140.00    1.11869   1.12592   47.790
 6141.00    1.11787   1.13195   46.863
 6142.00    1.10928   1.13856   46.711
 6143.00    1.12126   1.14634   46.826
 6144.00    1.14348   1.15321   46.612
 6145.00    1.15332   1.15683   46.057
 6146.00    1.14948   1.15670   45.751
 6147.00    1.14822   1.15412   45.861
 6148.00    1.14554   1.15081   46.130
 6149.00    1.14168   1.14816   46.449
 6150.00    1.14010   1.14714   46.754
 6151.00    1.13790   1.14788   46.884
 6152.00    1.13847   1.14927   46.778
 6153.00    1.14114   1.14961   46.516
 6154.00    1.13942   1.14812   46.318
 6155.00    1.13118   1.14548   46.513
 6156.00    1.12890   1.14274   46.860
 6157.00    1.12649   1.13951   46.978
 6158.00    1.12351   1.13324   47.081
 6159.00    1.11395   1.12099   47.447
 6160.00    1.09187   1.10277   48.177
 6161.00    1.06329   1.08356   49.401
 6162.00    1.04531   1.07077   50.910
 6163.00    1.04904   1.06877   51.876
 6164.00    1.06228   1.07595   51.651
 6165.00    1.07444   1.08664   50.461
 6166.00    1.08069   1.09506   49.348
 6167.00    1.08531   1.09811   48.921
 6168.00    1.08072   1.09674   48.915
 6169.00    1.06510   1.09512   49.324
 6170.00    1.06019   1.09733   49.932
 6171.00    1.07945   1.10418   49.974
 6172.00    1.09991   1.11331   49.234
 6173.00    1.10768   1.12182   48.379
 6174.00    1.11371   1.12815   48.096
 6175.00    1.11070   1.13222   48.190
 6176.00    1.10524   1.13464   48.139
 6177.00    1.10882   1.13619   48.023
 6178.00    1.11503   1.13745   47.916
 6179.00    1.11613   1.13885   47.727
 6180.00    1.11635   1.14075   47.516
 6181.00    1.11874   1.14305   47.360
 6182.00    1.12206   1.14501   47.174
 6183.00    1.12238   1.14570   47.000
 6184.00    1.11904   1.14459   46.998
 6185.00    1.11501   1.14174   47.145
 6186.00    1.11432   1.13752   47.421
 6187.00    1.10861   1.13212   47.889
 6188.00    1.10222   1.12524   48.408
 6189.00    1.08311   1.11680   48.884
 6190.00    1.07392   1.10876   49.290
 6191.00    1.07501   1.10478   49.785
 6192.00    1.07159   1.10724   50.296
 6193.00    1.08190   1.11496   50.135
 6194.00    1.09831   1.12430   49.157
 6195.00    1.11072   1.13193   48.104
 6196.00    1.11522   1.13628   47.609
 6197.00    1.11290   1.13702   47.461
 6198.00    1.10265   1.13496   47.596
 6199.00    1.08868   1.13223   48.060
 6200.00    1.08609   1.13124   48.551
 6201.00    1.09029   1.13312   48.706
 6202.00    1.10351   1.13712   48.399
 6203.00    1.11173   1.14157   47.816
 6204.00    1.11857   1.14517   47.447
 6205.00    1.12765   1.14757   47.423
 6206.00    1.12605   1.14894   47.389
 6207.00    1.11460   1.14945   47.340
 6208.00    1.11095   1.14884   47.441
 6209.00    1.10452   1.14653   47.544
 6210.00    1.09543   1.14192   47.629
 6211.00    1.09319   1.13498   47.976
 6212.00    1.08718   1.12672   48.400
 6213.00    1.07703   1.11908   48.818
 6214.00    1.07280   1.11382   49.441
 6215.00    1.07160   1.11134   50.090
 6216.00    1.06901   1.11038   50.381
 6217.00    1.07843   1.10938   50.085
 6218.00    1.09624   1.10803   49.575
 6219.00    1.08532   1.10749   49.691
 6220.00    1.06059   1.10898   49.833
 6221.00    1.05788   1.11226   49.499
 6222.00    1.08021   1.11596   49.463
 6223.00    1.08883   1.11879   51.467
 6224.00    1.17517   1.12038   -1.000
 6225.00    1.29568   1.12074   -1.000
 6226.00    1.18829   1.11929   -1.000
 6227.00    1.07998   1.11481   49.112
 6228.00    1.09329   1.10689   49.248
 6229.00    1.06907   1.09729   49.747
 6230.00    1.04589   1.08976   50.530
 6231.00    1.03525   1.08777   51.282
 6232.00    1.02888   1.09216   -1.000
 6233.00    1.02583   1.10056   -1.000
 6234.00    1.01946   1.10909   -1.000
 6235.00    1.01402   1.11454   -1.000
 6236.00    1.01358   1.11575   -1.000
 6237.00    1.02957   1.11360   -1.000
 6238.00    1.05475   1.11008   49.198
 6239.00    1.05679   1.10687   49.705
 6240.00    1.04631   1.10437   50.222
 6241.00    1.04379   1.10178   50.600
 6242.00    1.04291   1.09812   50.669
 6243.00    1.04594   1.09326   50.828
 6244.00    1.05531   1.08845   51.218
 6245.00    1.06087   1.08609   51.364
 6246.00    1.06733   1.08812   51.158
 6247.00    1.07302   1.09445   50.723
 6248.00    1.07335   1.10233   50.138
 6249.00    1.07538   1.10758   49.546
 6250.00    1.07404   1.10726   49.267
 6251.00    1.06661   1.10165   49.499
 6252.00    1.04869   1.09384   50.217
 6253.00    1.03151   1.08744   51.031
 6254.00    1.02952   1.08415   51.493
 6255.00    1.02217   1.08333   51.726
 6256.00    0.99860   1.08356   -1.000
 6257.00    0.97218   1.08434   -1.000
 6258.00    0.96984   1.08637   -1.000
 6259.00    0.99699   1.09046   -1.000
 6260.00    1.03713   1.09661   52.064
 6261.00    1.06723   1.10370   51.245
 6262.00    1.07577   1.11001   50.517
 6263.00    1.07646   1.11426   49.789
 6264.00    1.07378   1.11654   49.260
 6265.00    1.06810   1.11799   49.361
 6266.00    1.06573   1.11942   49.768
 6267.00    1.06743   1.12043   49.821
 6268.00    1.07050   1.12019   49.490
 6269.00    1.07856   1.11880   49.379
 6270.00    1.08434   1.11734   49.633
 6271.00    1.08074   1.11643   49.733
 6272.00    1.07867   1.11514   49.593
 6273.00    1.07772   1.11167   49.443
 6274.00    1.07036   1.10500   49.448
 6275.00    1.05987   1.09590   49.706
 6276.00    1.05279   1.08657   50.103
 6277.00    1.04453   1.07911   50.697
 6278.00    1.02382   1.07479   51.766
 6279.00    1.01325   1.07420   -1.000
 6280.00    1.01105   1.07746   -1.000
 6281.00    1.01620   1.08422   -1.000
 6282.00    1.03096   1.09327   -1.000
 6283.00    1.03893   1.10267   -1.000
 6284.00    1.04228   1.11067   -1.000
 6285.00    1.04847   1.11631   -1.000
 6286.00    1.04896   1.11953   -1.000
 6287.00    1.04768   1.12054   -1.000
 6288.00    1.05025   1.11955   -1.000
 6289.00    1.06905   1.11715   49.029
 6290.00    1.08829   1.11430   49.117
 6291.00    1.09230   1.11199   49.477
 6292.00    1.07542   1.11057   49.882
 6293.00    1.05672   1.10952   50.120
 6294.00    1.06186   1.10782   50.178
 6295.00    1.06286   1.10483   50.248
 6296.00    1.04626   1.10091   50.480
 6297.00    1.04129   1.09722   50.868
 6298.00    1.03917   1.09454   51.075
 6299.00    1.06144   1.09261   51.062
 6300.00    1.09433   1.09113   50.912
 6301.00    1.12995   1.09098   50.683
 6302.00    1.14461   1.09363   50.761
 6303.00    1.13406   1.09935   51.311
 6304.00    1.10609   1.10654   51.431
 6305.00    1.07880   1.11312   50.746
 6306.00    1.05239   1.11783   -1.000
 6307.00    1.04301   1.12066   -1.000
 6308.00    1.05671   1.12212   49.072
 6309.00    1.10002   1.12262   48.791
 6310.00    1.11830   1.12233   48.875
 6311.00    1.10064   1.12110   49.163
 6312.00    1.08669   1.11862   49.438
 6313.00    1.07762   1.11502   49.622
 6314.00    1.06641   1.11086   49.756
 6315.00    1.05908   1.10682   49.980
 6316.00    1.06544   1.10358   50.347
 6317.00    1.07044   1.10208   50.403
 6318.00    1.07948   1.10329   50.350
 6319.00    1.07802   1.10721   50.357
 6320.00    1.07201   1.11254   50.319
 6321.00    1.07908   1.11780   49.920
 6322.00    1.08690   1.12249   49.340
 6323.00    1.09473   1.12674   49.003
 6324.00    1.10309   1.13038   48.845
 6325.00    1.09946   1.13281   48.635
 6326.00    1.08553   1.13374   48.414
 6327.00    1.08476   1.13365   48.328
 6328.00    1.07873   1.13331   48.211
 6329.00    1.07113   1.13338   48.082
 6330.00    1.08160   1.13391   48.146
 6331.00    1.10829   1.13409   48.176
 6332.00    1.12702   1.13238   48.115
 6333.00    1.13079   1.12771   47.968
 6334.00    1.11634   1.12089   47.992
 6335.00    1.09892   1.11464   48.132
 6336.00    1.10269   1.11173   48.699
 6337.00    1.11007   1.11311   49.453
 6338.00    1.10261   1.11771   49.245
 6339.00    1.11665   1.12341   48.764
 6340.00    1.13251   1.12821   48.246
 6341.00    1.13030   1.13078   47.844
 6342.00    1.12165   1.13079   47.632
 6343.00    1.12064   1.12910   47.516
 6344.00    1.11735   1.12725   47.748
 6345.00    1.11456   1.12680   48.045
 6346.00    1.11376   1.12857   47.995
 6347.00    1.11098   1.13243   47.795
 6348.00    1.11207   1.13729   47.493
 6349.00    1.12872   1.14158   47.223
 6350.00    1.14453   1.14398   47.140
 6351.00    1.13900   1.14387   47.111
 6352.00    1.12705   1.14144   47.064
 6353.00    1.12238   1.13757   47.189
 6354.00    1.10721   1.13345   47.409
 6355.00    1.08777   1.12991   47.772
 6356.00    1.08329   1.12685   48.286
 6357.00    1.08889   1.12387   48.516
 6358.00    1.10309   1.12086   48.565
 6359.00    1.11245   1.11803   48.900
 6360.00    1.11229   1.11559   49.334
 6361.00    1.10873   1.11378   49.336
 6362.00    1.11392   1.11311   49.131
 6363.00    1.12827   1.11411   49.028
 6364.00    1.14282   1.11671   48.935
 6365.00    1.15462   1.12024   48.688
 6366.00    1.16029   1.12378   48.362
 6367.00    1.15581   1.12642   48.077
 6368.00    1.14751   1.12766   47.800
 6369.00    1.14327   1.12780   47.486
 6370.00    1.14666   1.12792   47.253
 6371.00    1.14690   1.12910   47.212
 6372.00    1.15076   1.13143   47.171
 6373.00    1.15821   1.13393   46.986
 6374.00    1.14518   1.13541   46.934
 6375.00    1.13471   1.13529   47.041
 6376.00    1.14113   1.13381   47.098
 6377.00    1.13325   1.13155   47.236
 6378.00    1.11842   1.12891   47.445
 6379.00    1.11369   1.12615   47.726
 6380.00    1.11421   1.12355   47.995
 6381.00    1.11019   1.12153   48.103
 6382.00    1.11039   1.12051   48.153
 6383.00    1.11456   1.12071   48.205
 6384.00    1.11501   1.12207   48.135
 6385.00    1.10960   1.12410   48.150
 6386.00    1.10757   1.12601   48.350
 6387.00    1.10690   1.12711   48.386
 6388.00    1.10854   1.12698   48.417
 6389.00    1.10262   1.12528   48.581
 6390.00    1.08778   1.12162   48.842
 6391.00    1.08286   1.11633   49.255
 6392.00    1.07473   1.11125   49.713
 6393.00    1.06716   1.10896   50.376
 6394.00    1.06081   1.11070   51.014
 6395.00    1.06080   1.11495   51.173
 6396.00    1.06969   1.11820   50.719
 6397.00    1.07073   1.11754   50.210
 6398.00    1.06395   1.11322   50.337
 6399.00    1.05593   1.10861   50.861
 6400.00    1.04023   1.10755   -1.000
 6401.00    1.01812   1.11152   -1.000
 6402.00    1.02362   1.11871   -1.000
 6403.00    1.04409   1.12560   -1.000
 6404.00    1.05087   1.12917   -1.000
 6405.00    1.04401   1.12845   -1.000
 6406.00    1.03818   1.12456   -1.000
 6407.00    1.03274   1.12015   -1.000
 6408.00    1.02334   1.11753   -1.000
 6409.00    1.01601   1.11693   -1.000
 6410.00    1.00813   1.11742   -1.000
 6411.00    0.99577   1.11822   -1.000
 6412.00    0.98476   1.11926   -1.000
 6413.00    0.98203   1.12067   -1.000
 6414.00    0.98759   1.12216   -1.000
 6415.00    0.99128   1.12335   -1.000
 6416.00    0.98126   1.12375   -1.000
 6417.00    0.96813   1.12264   -1.000
 6418.00    0.95956   1.11952   -1.000
 6419.00    0.94566   1.11528   -1.000
 6420.00    0.92992   1.11238   -1.000
 6421.00    0.92328   1.11326   -1.000
 6422.00    0.93041   1.11817   -1.000
 6423.00    0.93430   1.12524   -1.000
 6424.00    0.92514   1.13203   -1.000
 6425.00    0.92111   1.13681   -1.000
 6426.00    0.91734   1.13865   -1.000
 6427.00    0.90931   1.13677   -1.000
 6428.00    0.89877   1.13117   -1.000
