###################################################################
## OUTPUT of StarlightChains_v04.for    [Cid@UFSC - 01/Apr/2007] ##
###################################################################

## Some input info
NGC6342_a_1.cxt                          [arq_obs]
Base.BC03.S                              [arq_base]
NGC6342_a_1.msk                          [arq_masks]
StCv04.C99.config                        [arq_config]
  150                                    [N_base]
    0                                    [N_YAV_components = # of components with extra extinction!]
    0                                    [i_FitPowerLaw (1/0 = Yes/No)]
-9.99                                    [alpha_PowerLaw]
CCM                                      [red_law_option]
 1.458241                                [q_norm = A(l_norm)/A(V)]

## (Re)Sampling Parameters
 3359.00                                 [l_ini (A)]
 6428.00                                 [l_fin (A)]
    1.00                                 [dl    (A)]     (OBS: dl_cushion =    50.00 A)

## Normalization info
 4020.00                                 [l_norm (A) - for base]
 4010.00                                 [llow_norm (A) - window for f_obs]
 4060.00                                 [lupp_norm (A) - window for f_obs]
2.158412E-15                             [fobs_norm (in input units)]

## S/N
 4730.00                                 [llow_SN (A) - window for S/N]
 4780.00                                 [lupp_SN (A) - window for S/N]
  41.172                                 [S/N in S/N window]
  28.335                                 [S/N in norm. window]
 118.442                                 [S/N_err in S/N window]
  81.514                                 [S/N_err in norm. window]
  1.0000                                 [fscale_chi2]

## etc...
  2147483615                             [idum_orig]
  3065                                   [NOl_eff]
  1148                                   [Nl_eff]
  1917    NSIGMA                         [Ntot_cliped & clip_method]
  4074560                                [Nglobal_steps]
   7                                     [N_chains]
  31                                     [NEX0s_base = N_base in EX0s-fits]
 0   0   1      115   2.0   8.710E+02    [Clip-Bug, RC-Crash & Burn-In warning-flags, n_censored_weights, wei_nsig_threshold & wei_limit]
   144    144.451    144.451      0.000  [idt_all, wdt_TotTime, wdt_UsrTime & wdt_SysTime (sec)]

## Synthesis Results - Best model ##

 2.73338E+00                             [chi2/Nl_eff]
     1.39027                             [adev (%)]

    96.89577                             [sum-of-x (%)]
 8.72518E-15                             [Flux_tot (units of input spectrum!)]
 2.99442E-10                             [Mini_tot (???)]
 1.50286E-10                             [Mcor_tot (???)]

  -2.24                                  [v0_min  (km/s)]
  63.86                                  [vd_min  (km/s)]
 1.0635                                  [AV_min  (mag)]
 0.0000                                  [YAV_min (mag)]

# j     x_j(%)      Mini_j(%)     Mcor_j(%)     age_j(yr)     Z_j      (L/M)_j    YAV?  Mstars   component_j        a/Fe...       SSP_chi2r SSP_adev(%)   SSP_AV   SSP_x(%)
  1      0.0000     0.0000E+00    0.0000E+00    1.000000E+06  0.00010  8.160E-03    0   1.0000   age020_m22            0.0000     2.0263E+03    28.0521   4.0000    80.4307
  2      1.1376     7.1883E-04    1.4323E-03    3.160000E+06  0.00010  4.759E-02    0   1.0000   age045_m22            0.0000     7.4471E+01     6.7204   2.9490    93.0019
  3      0.0000     0.0000E+00    0.0000E+00    5.010000E+06  0.00010  1.932E-02    0   0.9582   age055_m22            0.0000     3.5324E+02    13.5345   3.3865    73.8047
  4      0.0000     0.0000E+00    0.0000E+00    6.610000E+06  0.00010  9.973E-03    0   0.9297   age061_m22            0.0000     1.9052E+03    26.9863   4.0000    83.1507
  5      0.0000     0.0000E+00    0.0000E+00    8.710000E+06  0.00010  7.690E-03    0   0.9030   age067_m22            0.0000     1.8424E+03    26.5197   4.0000    83.8924
  6      0.0000     0.0000E+00    0.0000E+00    1.000000E+07  0.00010  6.375E-03    0   0.8902   age070_m22            0.0000     1.8395E+03    26.4428   4.0000    84.4475
  7      0.0000     0.0000E+00    0.0000E+00    1.445000E+07  0.00010  4.874E-03    0   0.8589   age078_m22            0.0000     1.2237E+03    21.7296   4.0000    87.8010
  8      0.0000     0.0000E+00    0.0000E+00    2.512000E+07  0.00010  4.103E-03    0   0.8174   age090_m22            0.0000     3.0559E+02    12.1028   4.0000    92.1204
  9      0.0000     0.0000E+00    0.0000E+00    4.000000E+07  0.00010  3.654E-03    0   0.7830   age104_m22            0.0000     9.0831E+01     8.1370   3.9785    93.3324
 10      0.0000     0.0000E+00    0.0000E+00    5.500000E+07  0.00010  3.093E-03    0   0.7597   age110_m22            0.0000     9.0138E+01     7.8281   3.8515    96.2308
 11      0.0000     0.0000E+00    0.0000E+00    1.015200E+08  0.00010  2.431E-03    0   0.7138   age116_m22            0.0000     1.1181E+02     8.0922   3.4560   101.4363
 12      0.0000     0.0000E+00    0.0000E+00    1.609000E+08  0.00010  1.319E-03    0   0.6775   age120_m22            0.0000     1.0248E+02     7.6013   2.9941   103.1173
 13      0.0000     0.0000E+00    0.0000E+00    2.861200E+08  0.00010  1.075E-03    0   0.6412   age125_m22            0.0000     2.8370E+02    10.9452   2.9498   112.6220
 14      0.0000     0.0000E+00    0.0000E+00    5.088000E+08  0.00010  7.183E-04    0   0.6083   age130_m22            0.0000     3.6720E+02    12.1599   2.6940   115.9092
 15      0.0000     0.0000E+00    0.0000E+00    9.047900E+08  0.00010  4.524E-04    0   0.5785   age135_m22            0.0000     3.8184E+02    12.2485   2.4862   117.5628
 16      0.0000     0.0000E+00    0.0000E+00    1.278050E+09  0.00010  3.018E-04    0   0.5588   age138_m22            0.0000     1.7808E+02     8.4970   2.0267   111.8624
 17      0.0000     0.0000E+00    0.0000E+00    1.434000E+09  0.00010  2.691E-04    0   0.5532   age139_m22            0.0000     1.4758E+02     7.7639   1.8855   110.5084
 18      0.0000     0.0000E+00    0.0000E+00    2.500000E+09  0.00010  1.582E-04    0   0.5296   age150_m22            0.0000     1.2848E+02     7.3211   1.7754   110.8207
 19      0.0000     0.0000E+00    0.0000E+00    4.250000E+09  0.00010  1.007E-04    0   0.5110   age158_m22            0.0000     7.4358E+01     5.9195   1.6658   106.8650
 20      0.0000     0.0000E+00    0.0000E+00    6.250000E+09  0.00010  6.869E-05    0   0.4985   age166_m22            0.0000     4.2191E+01     4.9423   1.6540   101.7249
 21      0.0000     0.0000E+00    0.0000E+00    7.500000E+09  0.00010  5.873E-05    0   0.4931   age171_m22            0.0000     4.1000E+01     4.9973   1.6475   100.8122
 22      1.1607     7.7894E-01    7.5335E-01    1.000000E+10  0.00010  4.481E-05    0   0.4854   age181_m22            0.0000     3.9815E+01     4.9242   1.6097   100.4457
 23      0.0193     1.6667E-02    1.5910E-02    1.300000E+10  0.00010  3.489E-05    0   0.4791   age193_m22            0.0000     3.6889E+01     4.7312   1.5575    99.7333
 24      0.0158     1.5626E-02    1.4839E-02    1.500000E+10  0.00010  3.035E-05    0   0.4766   age201_m22            0.0000     3.5151E+01     4.6346   1.5219    99.3989
 25      0.2716     3.2534E-01    3.0694E-01    1.800000E+10  0.00010  2.510E-05    0   0.4735   age213_m22            0.0000     3.1745E+01     4.4448   1.4612    98.4281
 26      0.0000     0.0000E+00    0.0000E+00    1.000000E+06  0.00040  8.458E-03    0   1.0000   age020_m32            0.0000     2.0526E+03    28.1249   4.0000    81.2188
 27      0.0000     0.0000E+00    0.0000E+00    3.160000E+06  0.00040  3.973E-02    0   1.0000   age045_m32            0.0000     2.4967E+02    10.9306   4.0000    89.7219
 28      0.0000     0.0000E+00    0.0000E+00    5.010000E+06  0.00040  1.935E-02    0   0.9532   age055_m32            0.0000     7.5118E+02    17.5127   4.0000    84.7488
 29      0.0000     0.0000E+00    0.0000E+00    6.610000E+06  0.00040  1.204E-02    0   0.9243   age061_m32            0.0000     1.4326E+03    23.5070   4.0000    85.3756
 30      0.0000     0.0000E+00    0.0000E+00    8.710000E+06  0.00040  9.433E-03    0   0.9001   age067_m32            0.0000     1.3029E+03    22.4568   4.0000    86.6574
 31      0.0000     0.0000E+00    0.0000E+00    1.000000E+07  0.00040  8.053E-03    0   0.8877   age070_m32            0.0000     1.2002E+03    21.6035   4.0000    87.0437
 32      0.0000     0.0000E+00    0.0000E+00    1.445000E+07  0.00040  7.027E-03    0   0.8578   age078_m32            0.0000     2.6626E+02    11.4153   4.0000    86.9620
 33      0.0000     0.0000E+00    0.0000E+00    2.512000E+07  0.00040  4.707E-03    0   0.8166   age090_m32            0.0000     1.2571E+02     9.3526   3.8972    87.9645
 34      0.0000     0.0000E+00    0.0000E+00    4.000000E+07  0.00040  3.714E-03    0   0.7827   age104_m32            0.0000     9.0802E+01     8.1496   3.6335    94.2590
 35      0.0000     0.0000E+00    0.0000E+00    5.500000E+07  0.00040  2.982E-03    0   0.7593   age110_m32            0.0000     8.8879E+01     7.9124   3.5492    96.6214
 36      0.0000     0.0000E+00    0.0000E+00    1.015200E+08  0.00040  2.188E-03    0   0.7143   age116_m32            0.0000     1.4894E+02     8.6604   3.1994   105.5144
 37      0.0000     0.0000E+00    0.0000E+00    1.609000E+08  0.00040  1.690E-03    0   0.6856   age120_m32            0.0000     2.3152E+02     9.9370   2.9380   111.0700
 38      0.0000     0.0000E+00    0.0000E+00    2.861200E+08  0.00040  1.152E-03    0   0.6509   age125_m32            0.0000     3.0852E+02    11.2404   2.6940   114.3396
 39      0.0000     0.0000E+00    0.0000E+00    5.088000E+08  0.00040  7.331E-04    0   0.6182   age130_m32            0.0000     3.4661E+02    11.7763   2.5210   115.7518
 40      0.0000     0.0000E+00    0.0000E+00    9.047900E+08  0.00040  3.960E-04    0   0.5890   age135_m32            0.0000     1.8843E+02     8.8766   2.1226   111.1616
 41      0.0000     0.0000E+00    0.0000E+00    1.278050E+09  0.00040  2.854E-04    0   0.5687   age138_m32            0.0000     1.5285E+02     7.7984   1.8307   112.5395
 42      0.0000     0.0000E+00    0.0000E+00    1.434000E+09  0.00040  2.531E-04    0   0.5632   age139_m32            0.0000     1.4834E+02     7.6824   1.7686   112.5010
 43      2.0125     4.0671E-01    4.3646E-01    2.500000E+09  0.00040  1.488E-04    0   0.5386   age150_m32            0.0000     1.0652E+02     6.6077   1.5366   109.4546
 44     18.6420     6.1726E+00    6.3942E+00    4.250000E+09  0.00040  9.082E-05    0   0.5199   age158_m32            0.0000     3.9497E+01     4.5216   1.5083   102.5062
 45     10.7028     5.0589E+00    5.1165E+00    6.250000E+09  0.00040  6.362E-05    0   0.5076   age166_m32            0.0000     2.7484E+01     4.0339   1.5210    96.3383
 46      6.8411     3.8896E+00    3.8959E+00    7.500000E+09  0.00040  5.289E-05    0   0.5027   age171_m32            0.0000     2.6860E+01     3.9406   1.4959    94.6381
 47     10.2033     7.7248E+00    7.6157E+00    1.000000E+10  0.00040  3.972E-05    0   0.4948   age181_m32            0.0000     2.5268E+01     3.7751   1.4434    93.0121
 48      0.0140     1.2793E-02    1.2414E-02    1.300000E+10  0.00040  3.283E-05    0   0.4870   age193_m32            0.0000     2.1657E+01     3.6221   1.3697    97.1329
 49      0.0034     3.5080E-03    3.3928E-03    1.500000E+10  0.00040  2.925E-05    0   0.4854   age201_m32            0.0000     2.4715E+01     3.7622   1.3333    99.6077
 50      0.0000     0.0000E+00    0.0000E+00    1.800000E+10  0.00040  2.469E-05    0   0.4819   age213_m32            0.0000     2.6498E+01     3.8029   1.2853   100.5315
 51      0.0000     0.0000E+00    0.0000E+00    1.000000E+06  0.00400  1.114E-02    0   1.0000   age020_m42            0.0000     1.8357E+03    26.5710   4.0000    81.6089
 52      0.0000     0.0000E+00    0.0000E+00    3.160000E+06  0.00400  4.073E-02    0   0.9999   age045_m42            0.0000     1.0088E+02     8.0217   3.9579    87.7331
 53      0.0000     0.0000E+00    0.0000E+00    5.010000E+06  0.00400  2.534E-02    0   0.9488   age055_m42            0.0000     4.4077E+02    13.7857   4.0000    86.7503
 54      0.0000     0.0000E+00    0.0000E+00    6.610000E+06  0.00400  2.583E-02    0   0.9220   age061_m42            0.0000     8.6448E+01     7.8639   3.7310    90.3619
 55      0.0000     0.0000E+00    0.0000E+00    8.710000E+06  0.00400  1.706E-02    0   0.8983   age067_m42            0.0000     1.3659E+02     9.6893   3.5921    86.3813
 56      0.0000     0.0000E+00    0.0000E+00    1.000000E+07  0.00400  1.271E-02    0   0.8862   age070_m42            0.0000     1.9389E+02    11.3474   3.6017    83.6047
 57      0.0000     0.0000E+00    0.0000E+00    1.445000E+07  0.00400  7.666E-03    0   0.8571   age078_m42            0.0000     2.4082E+02    12.0257   4.0000    79.9335
 58      0.0000     0.0000E+00    0.0000E+00    2.512000E+07  0.00400  5.070E-03    0   0.8174   age090_m42            0.0000     1.7469E+02    10.7704   3.4701    85.2932
 59      0.0000     0.0000E+00    0.0000E+00    4.000000E+07  0.00400  3.505E-03    0   0.7851   age104_m42            0.0000     1.2039E+02     8.9364   3.1427    89.0254
 60      0.0000     0.0000E+00    0.0000E+00    5.500000E+07  0.00400  3.059E-03    0   0.7629   age110_m42            0.0000     6.7285E+01     6.6713   3.1036    98.4868
 61      0.0000     0.0000E+00    0.0000E+00    1.015200E+08  0.00400  2.268E-03    0   0.7207   age116_m42            0.0000     1.9108E+02     9.0885   2.8781   110.8178
 62      0.0000     0.0000E+00    0.0000E+00    1.609000E+08  0.00400  1.720E-03    0   0.6930   age120_m42            0.0000     2.2327E+02     9.6959   2.7279   113.1703
 63      0.0000     0.0000E+00    0.0000E+00    2.861200E+08  0.00400  1.079E-03    0   0.6613   age125_m42            0.0000     2.0722E+02     9.3639   2.3835   113.1444
 64      0.0000     0.0000E+00    0.0000E+00    5.088000E+08  0.00400  6.261E-04    0   0.6313   age130_m42            0.0000     2.5701E+02    10.0444   2.1568   117.7459
 65      0.0000     0.0000E+00    0.0000E+00    9.047900E+08  0.00400  3.535E-04    0   0.6024   age135_m42            0.0000     1.4466E+02     7.5643   1.8107   115.2427
 66      0.0000     0.0000E+00    0.0000E+00    1.278050E+09  0.00400  2.677E-04    0   0.5837   age138_m42            0.0000     4.4005E+01     4.6709   1.2218   108.4754
 67      0.0000     0.0000E+00    0.0000E+00    1.434000E+09  0.00400  1.910E-04    0   0.5716   age139_m42            0.0000     6.4561E+01     5.3414   1.3666   110.4409
 68      0.0000     0.0000E+00    0.0000E+00    2.500000E+09  0.00400  9.818E-05    0   0.5463   age150_m42            0.0000     1.0847E+01     2.3807   1.1871   101.5068
 69      0.0000     0.0000E+00    0.0000E+00    4.250000E+09  0.00400  5.491E-05    0   0.5269   age158_m42            0.0000     4.7074E+00     1.7305   1.0970    97.1513
 70      0.0026     2.0647E-03    2.1191E-03    6.250000E+09  0.00400  3.857E-05    0   0.5151   age166_m42            0.0000     7.6823E+00     2.1714   0.9880    95.3288
 71      0.0000     0.0000E+00    0.0000E+00    7.500000E+09  0.00400  3.243E-05    0   0.5110   age171_m42            0.0000     1.0830E+01     2.5184   0.9166    94.6438
 72     14.0655     1.7449E+01    1.7481E+01    1.000000E+10  0.00400  2.424E-05    0   0.5028   age181_m42            0.0000     1.6671E+01     3.0497   0.8472    93.7697
 73     11.8845     1.8980E+01    1.8632E+01    1.300000E+10  0.00400  1.883E-05    0   0.4927   age193_m42            0.0000     2.3190E+01     3.5234   0.8172    93.1255
 74      0.1856     3.3132E-01    3.2473E-01    1.500000E+10  0.00400  1.685E-05    0   0.4919   age201_m42            0.0000     2.1890E+01     3.4338   0.8209    93.1531
 75      0.0023     4.8574E-03    4.7172E-03    1.800000E+10  0.00400  1.452E-05    0   0.4874   age213_m42            0.0000     1.9823E+01     3.2805   0.8331    93.4618
 76      0.0000     0.0000E+00    0.0000E+00    1.000000E+06  0.00800  1.286E-02    0   1.0000   age020_m52            0.0000     1.7179E+03    25.4149   4.0000    83.6980
 77      0.0000     0.0000E+00    0.0000E+00    3.160000E+06  0.00800  3.147E-02    0   0.9966   age045_m52            0.0000     1.4678E+03    23.6477   4.0000    85.0396
 78      0.0000     0.0000E+00    0.0000E+00    5.010000E+06  0.00800  2.664E-02    0   0.9443   age055_m52            0.0000     6.7446E+02    16.5135   4.0000    86.6615
 79      0.0000     0.0000E+00    0.0000E+00    6.610000E+06  0.00800  2.151E-02    0   0.9177   age061_m52            0.0000     1.7103E+02     9.9279   3.2372    83.9434
 80      0.0000     0.0000E+00    0.0000E+00    8.710000E+06  0.00800  1.628E-02    0   0.8948   age067_m52            0.0000     1.6635E+02    10.3215   3.5825    85.2894
 81      0.0000     0.0000E+00    0.0000E+00    1.000000E+07  0.00800  1.215E-02    0   0.8827   age070_m52            0.0000     1.9645E+02    11.1021   3.9379    82.8147
 82      0.0000     0.0000E+00    0.0000E+00    1.445000E+07  0.00800  8.739E-03    0   0.8552   age078_m52            0.0000     1.6132E+02    10.2885   3.9551    85.1748
 83      0.0000     0.0000E+00    0.0000E+00    2.512000E+07  0.00800  5.676E-03    0   0.8162   age090_m52            0.0000     1.0960E+02     8.9013   3.4870    92.9215
 84      0.0000     0.0000E+00    0.0000E+00    4.000000E+07  0.00800  3.939E-03    0   0.7841   age104_m52            0.0000     8.7043E+01     7.7147   3.2920    97.2776
 85      0.0000     0.0000E+00    0.0000E+00    5.500000E+07  0.00800  3.155E-03    0   0.7627   age110_m52            0.0000     8.8328E+01     7.3415   3.2276   100.8780
 86      0.0000     0.0000E+00    0.0000E+00    1.015200E+08  0.00800  2.206E-03    0   0.7226   age116_m52            0.0000     1.3785E+02     7.9497   2.9741   108.6030
 87      0.0000     0.0000E+00    0.0000E+00    1.609000E+08  0.00800  1.596E-03    0   0.6963   age120_m52            0.0000     1.6662E+02     8.5152   2.7406   111.4545
 88      0.0000     0.0000E+00    0.0000E+00    2.861200E+08  0.00800  1.002E-03    0   0.6665   age125_m52            0.0000     2.7287E+02    10.7223   2.4049   117.0295
 89      0.0000     0.0000E+00    0.0000E+00    5.088000E+08  0.00800  5.759E-04    0   0.6377   age130_m52            0.0000     3.1127E+02    11.1410   2.0554   121.8022
 90      0.0000     0.0000E+00    0.0000E+00    9.047900E+08  0.00800  2.972E-04    0   0.6086   age135_m52            0.0000     1.6093E+02     8.2578   1.6133   116.0687
 91      0.0000     0.0000E+00    0.0000E+00    1.278050E+09  0.00800  2.242E-04    0   0.5907   age138_m52            0.0000     5.1572E+01     4.8286   1.0775   110.6780
 92      0.0000     0.0000E+00    0.0000E+00    1.434000E+09  0.00800  1.645E-04    0   0.5787   age139_m52            0.0000     4.0697E+01     4.3846   1.2328   109.6003
 93      0.0000     0.0000E+00    0.0000E+00    2.500000E+09  0.00800  7.723E-05    0   0.5519   age150_m52            0.0000     1.9299E+01     3.1074   0.9499   103.3587
 94      0.0000     0.0000E+00    0.0000E+00    4.250000E+09  0.00800  4.151E-05    0   0.5320   age158_m52            0.0000     1.5446E+01     2.9865   0.9011    99.8778
 95      0.0054     5.4249E-03    5.6175E-03    6.250000E+09  0.00800  3.010E-05    0   0.5197   age166_m52            0.0000     2.4586E+01     3.7292   0.7252    98.0460
 96      0.0054     6.5628E-03    6.7199E-03    7.500000E+09  0.00800  2.467E-05    0   0.5139   age171_m52            0.0000     2.7940E+01     3.9629   0.6860    97.6512
 97      5.5971     9.0394E+00    9.1027E+00    1.000000E+10  0.00800  1.862E-05    0   0.5054   age181_m52            0.0000     4.1045E+01     4.7739   0.5612    97.3469
 98      5.6421     1.1840E+01    1.1767E+01    1.300000E+10  0.00800  1.433E-05    0   0.4988   age193_m52            0.0000     5.7121E+01     5.5853   0.4728    97.8869
 99      3.0018     7.2563E+00    7.1365E+00    1.500000E+10  0.00800  1.244E-05    0   0.4936   age201_m52            0.0000     6.3836E+01     5.8622   0.4459    98.3107
100      1.6835     4.7315E+00    4.6081E+00    1.800000E+10  0.00800  1.070E-05    0   0.4888   age213_m52            0.0000     6.8929E+01     6.0835   0.4124    98.1939
101      0.0000     0.0000E+00    0.0000E+00    1.000000E+06  0.02000  1.989E-02    0   1.0000   age020_m62            0.0000     1.7242E+03    25.6241   4.0000    82.2647
102      0.0000     0.0000E+00    0.0000E+00    3.160000E+06  0.02000  3.772E-02    0   0.9858   age045_m62            0.0000     1.3305E+03    22.7835   4.0000    84.1160
103      0.0000     0.0000E+00    0.0000E+00    5.010000E+06  0.02000  3.227E-02    0   0.9342   age055_m62            0.0000     2.1666E+02    10.6398   4.0000    88.4570
104      0.0000     0.0000E+00    0.0000E+00    6.610000E+06  0.02000  2.387E-02    0   0.9090   age061_m62            0.0000     2.2698E+02    11.9624   4.0000    81.4342
105      0.0000     0.0000E+00    0.0000E+00    8.710000E+06  0.02000  1.102E-02    0   0.8861   age067_m62            0.0000     5.7347E+02    17.9846   3.7058    72.9020
106      0.0000     0.0000E+00    0.0000E+00    1.000000E+07  0.02000  1.011E-02    0   0.8751   age070_m62            0.0000     4.1264E+02    15.4047   3.7036    76.5485
107      0.0000     0.0000E+00    0.0000E+00    1.445000E+07  0.02000  7.331E-03    0   0.8472   age078_m62            0.0000     2.9969E+02    13.2718   3.7044    79.0308
108      0.0000     0.0000E+00    0.0000E+00    2.512000E+07  0.02000  4.206E-03    0   0.8099   age090_m62            0.0000     3.1850E+02    13.5008   3.6346    77.8618
109      0.0000     0.0000E+00    0.0000E+00    4.000000E+07  0.02000  3.373E-03    0   0.7799   age104_m62            0.0000     1.0817E+02     8.6375   3.3244    91.7935
110      0.0000     0.0000E+00    0.0000E+00    5.500000E+07  0.02000  2.747E-03    0   0.7595   age110_m62            0.0000     8.0302E+01     7.4127   3.1917    98.6376
111      0.0000     0.0000E+00    0.0000E+00    1.015200E+08  0.02000  1.878E-03    0   0.7221   age116_m62            0.0000     1.4261E+02     8.1559   2.9462   109.1853
112      0.0000     0.0000E+00    0.0000E+00    1.609000E+08  0.02000  1.378E-03    0   0.6978   age120_m62            0.0000     2.2536E+02     9.7257   2.7420   114.6769
113      0.0000     0.0000E+00    0.0000E+00    2.861200E+08  0.02000  8.869E-04    0   0.6700   age125_m62            0.0000     3.9015E+02    12.1940   2.3126   122.8034
114      0.0000     0.0000E+00    0.0000E+00    5.088000E+08  0.02000  4.834E-04    0   0.6430   age130_m62            0.0000     3.5120E+02    11.5398   1.9120   124.0768
115      0.0000     0.0000E+00    0.0000E+00    9.047900E+08  0.02000  2.312E-04    0   0.6152   age135_m62            0.0000     1.5186E+02     7.6347   1.4081   118.3125
116      0.0000     0.0000E+00    0.0000E+00    1.278050E+09  0.02000  1.387E-04    0   0.5927   age138_m62            0.0000     4.7761E+01     4.4970   1.1199   109.2574
117      0.0000     0.0000E+00    0.0000E+00    1.434000E+09  0.02000  1.168E-04    0   0.5865   age139_m62            0.0000     3.5431E+01     3.9315   1.1154   106.6484
118      0.0000     0.0000E+00    0.0000E+00    2.500000E+09  0.02000  5.505E-05    0   0.5610   age150_m62            0.0000     2.9916E+01     3.9494   0.7915   101.8886
119      0.0000     0.0000E+00    0.0000E+00    4.250000E+09  0.02000  3.070E-05    0   0.5407   age158_m62            0.0000     5.9977E+01     5.6330   0.5087   101.8887
120      0.0000     0.0000E+00    0.0000E+00    6.250000E+09  0.02000  2.104E-05    0   0.5277   age166_m62            0.0000     8.0384E+01     6.5169   0.3808   102.3561
121      0.0055     9.3062E-03    9.6847E-03    7.500000E+09  0.02000  1.770E-05    0   0.5223   age171_m62            0.0000     9.4216E+01     7.0038   0.2922   102.9050
122      0.0019     4.4530E-03    4.5437E-03    1.000000E+10  0.02000  1.297E-05    0   0.5121   age181_m62            0.0000     1.2491E+02     7.9570   0.1331   103.7027
123      0.0055     1.7011E-02    1.7106E-02    1.300000E+10  0.02000  9.691E-06    0   0.5047   age193_m62            0.0000     1.4658E+02     8.5170   0.0495   104.2432
124      0.0000     0.0000E+00    0.0000E+00    1.500000E+10  0.02000  8.360E-06    0   0.4999   age201_m62            0.0000     1.6764E+02     9.0456  -0.0239   104.7653
125      0.0025     1.0745E-02    1.0589E-02    1.800000E+10  0.02000  6.911E-06    0   0.4946   age213_m62            0.0000     1.9644E+02     9.7246  -0.1035   105.4853
126      0.0000     0.0000E+00    0.0000E+00    1.000000E+06  0.05000  2.651E-02    0   0.9998   age020_m72            0.0000     1.6997E+03    25.2736   4.0000    83.3822
127      0.0000     0.0000E+00    0.0000E+00    3.160000E+06  0.05000  4.817E-02    0   0.9577   age045_m72            0.0000     8.5993E+02    18.6102   4.0000    87.7058
128      0.0000     0.0000E+00    0.0000E+00    5.010000E+06  0.05000  3.101E-02    0   0.9147   age055_m72            0.0000     3.6096E+02    12.6665   4.0000    85.3990
129      0.0000     0.0000E+00    0.0000E+00    6.610000E+06  0.05000  1.472E-02    0   0.8877   age061_m72            0.0000     4.5260E+02    15.4407   3.9224    74.6208
130      0.0000     0.0000E+00    0.0000E+00    8.710000E+06  0.05000  1.050E-02    0   0.8638   age067_m72            0.0000     4.3600E+02    13.7494   4.0000    82.0834
131      0.0000     0.0000E+00    0.0000E+00    1.000000E+07  0.05000  8.954E-03    0   0.8524   age070_m72            0.0000     6.5490E+02    16.1526   4.0000    87.4610
132      0.0000     0.0000E+00    0.0000E+00    1.445000E+07  0.05000  6.392E-03    0   0.8262   age078_m72            0.0000     5.2916E+02    14.5928   4.0000    88.2854
133      0.0000     0.0000E+00    0.0000E+00    2.512000E+07  0.05000  4.207E-03    0   0.7902   age090_m72            0.0000     1.3608E+02     8.7800   4.0000    87.0811
134      0.0000     0.0000E+00    0.0000E+00    4.000000E+07  0.05000  3.198E-03    0   0.7618   age104_m72            0.0000     8.3811E+01     7.0262   3.4094   100.7137
135      0.0000     0.0000E+00    0.0000E+00    5.500000E+07  0.05000  2.593E-03    0   0.7432   age110_m72            0.0000     1.1022E+02     7.5807   3.2691   104.8351
136      0.0000     0.0000E+00    0.0000E+00    1.015200E+08  0.05000  1.716E-03    0   0.7092   age116_m72            0.0000     1.7899E+02     8.8474   3.0126   110.5984
137      0.0000     0.0000E+00    0.0000E+00    1.609000E+08  0.05000  1.218E-03    0   0.6876   age120_m72            0.0000     2.7707E+02    10.6668   2.6932   116.3923
138      0.0000     0.0000E+00    0.0000E+00    2.861200E+08  0.05000  7.047E-04    0   0.6618   age125_m72            0.0000     4.0080E+02    12.2384   2.1190   123.0778
139      0.0000     0.0000E+00    0.0000E+00    5.088000E+08  0.05000  3.590E-04    0   0.6356   age130_m72            0.0000     3.2291E+02    10.6821   1.5882   124.0852
140      0.0000     0.0000E+00    0.0000E+00    9.047900E+08  0.05000  1.484E-04    0   0.6088   age135_m72            0.0000     8.2882E+01     5.7008   1.0103   109.7554
141      0.0000     0.0000E+00    0.0000E+00    1.278050E+09  0.05000  9.435E-05    0   0.5924   age138_m72            0.0000     7.2579E+01     5.7029   0.6633   104.6993
142      0.0000     0.0000E+00    0.0000E+00    1.434000E+09  0.05000  7.827E-05    0   0.5847   age139_m72            0.0000     6.2732E+01     5.4351   0.6879   103.4701
143      0.7493     5.9946E-01    6.6684E-01    2.500000E+09  0.05000  3.759E-05    0   0.5583   age150_m72            0.0000     8.2387E+01     6.5435   0.3923   101.6899
144      2.7683     4.5194E+00    4.8392E+00    4.250000E+09  0.05000  1.842E-05    0   0.5374   age158_m72            0.0000     1.2622E+02     7.8234   0.0783   101.4597
145      0.0079     1.9663E-02    2.0537E-02    6.250000E+09  0.05000  1.207E-05    0   0.5242   age166_m72            0.0000     1.7821E+02     9.1084  -0.1697   102.0013
146      0.2550     7.6751E-01    7.9261E-01    7.500000E+09  0.05000  9.993E-06    0   0.5183   age171_m72            0.0000     1.8750E+02     9.2946  -0.2155   102.1075
147      0.0000     0.0000E+00    0.0000E+00    1.000000E+10  0.05000  7.291E-06    0   0.5081   age181_m72            0.0000     2.3151E+02    10.2047  -0.3502   102.8350
148      0.0000     0.0000E+00    0.0000E+00    1.300000E+10  0.05000  5.316E-06    0   0.5018   age193_m72            0.0000     3.1194E+02    11.6458  -0.5537   103.9758
149      0.0000     0.0000E+00    0.0000E+00    1.500000E+10  0.05000  4.497E-06    0   0.4972   age201_m72            0.0000     3.5736E+02    12.3747  -0.6381   104.9023
150      0.0000     0.0000E+00    0.0000E+00    1.800000E+10  0.05000  3.739E-06    0   0.4924   age213_m72            0.0000     4.2065E+02    13.3413  -0.7563   105.8326


## Synthesis Results - Average & Chains ##

# j      x_j: min, <> & last-chain-values for 1 ...  7 chains
  1      0.0000      0.0106      0.0000      0.0000      0.0000      0.0000      0.0000      0.0498      0.0248
  2      1.1376      0.1030      0.2390      0.0000      0.1465      0.0704      0.0000      0.5293      0.0000
  3      0.0000      0.0417      0.0087      0.0264      0.0319      0.0512      0.0000      0.0000      0.1062
  4      0.0000      0.0253      0.0239      0.0235      0.2148      0.0000      0.0000      0.0000      0.0000
  5      0.0000      0.0168      0.0000      0.0000      0.0000      0.0000      0.0000      0.1069      0.0000
  6      0.0000      0.0150      0.0000      0.0000      0.0000      0.1186      0.0000      0.0000      0.0000
  7      0.0000      0.0173      0.0165      0.0000      0.0000      0.0229      0.0729      0.0000      0.0000
  8      0.0000      0.0171      0.0000      0.0818      0.0000      0.0188      0.0115      0.0000      0.0000
  9      0.0000      0.0161      0.0000      0.0000      0.0656      0.0000      0.0000      0.0000      0.0000
 10      0.0000      0.0209      0.0000      0.0000      0.0000      0.0000      0.0430      0.0000      0.0000
 11      0.0000      0.0208      0.0000      0.0000      0.0000      0.0000      0.0000      0.0000      0.0000
 12      0.0000      0.0097      0.0000      0.0000      0.0000      0.1519      0.0000      0.0000      0.0000
 13      0.0000      0.0075      0.0000      0.0000      0.0000      0.0000      0.0000      0.0340      0.0752
 14      0.0000      0.0049      0.0000      0.0000      0.0000      0.0000      0.0000      0.0000      0.0000
 15      0.0000      0.0074      0.0000      0.0000      0.0000      0.0000      0.0000      0.0000      0.0000
 16      0.0000      0.0096      0.0000      0.0000      0.0000      0.0000      0.0000      0.0836      0.0000
 17      0.0000      0.0116      0.0000      0.0000      0.0000      0.0000      0.0000      0.1096      0.0000
 18      0.0000      0.0233      0.0000      0.0000      0.1950      0.0000      0.0000      0.0000      0.0000
 19      0.0000      0.0540      0.0000      0.1676      0.0145      0.0000      0.0000      0.0000      0.0380
 20      0.0000      0.1659      0.1642      0.0148      0.0000      0.0959      0.0804      0.0500      0.1151
 21      0.0000      0.2073      0.0000      0.2787      0.1708      0.5062      0.0000      0.3305      0.2431
 22      1.1607      0.2664      0.2823      0.2206      1.0032      0.0000      0.0000      0.1874      0.5339
 23      0.0193      0.3793      0.8113      0.0638      0.8545      0.1444      0.5831      0.1922      0.5469
 24      0.0158      0.4906      0.4539      0.4063      0.7365      0.9286      0.4638      0.3558      0.6930
 25      0.2716      0.8325      0.6372      1.1362      0.9570      0.6505      1.2170      0.9114      0.5112
 26      0.0000      0.0105      0.0000      0.0000      0.0000      0.0000      0.0000      0.0000      0.0000
 27      0.0000      0.0276      0.0000      0.0000      0.0000      0.0000      0.0000      0.0000      0.0976
 28      0.0000      0.0168      0.0113      0.0022      0.0000      0.0000      0.0910      0.0000      0.0000
 29      0.0000      0.0108      0.0370      0.0000      0.0000      0.0418      0.0000      0.0000      0.0000
 30      0.0000      0.0172      0.0000      0.0236      0.0000      0.0000      0.0253      0.0000      0.0132
 31      0.0000      0.0167      0.0000      0.0000      0.0000      0.0070      0.0000      0.0000      0.0000
 32      0.0000      0.0337      0.0000      0.0446      0.0000      0.0000      0.0000      0.0000      0.1067
 33      0.0000      0.0191      0.0000      0.0000      0.0000      0.0000      0.0000      0.0657      0.0000
 34      0.0000      0.0177      0.0342      0.1160      0.0765      0.0000      0.0082      0.0000      0.0000
 35      0.0000      0.0166      0.0000      0.0000      0.0000      0.0000      0.0000      0.0000      0.1284
 36      0.0000      0.0098      0.0000      0.0000      0.0000      0.0000      0.0000      0.0000      0.0000
 37      0.0000      0.0123      0.0000      0.0968      0.0000      0.1698      0.0000      0.1121      0.0000
 38      0.0000      0.0056      0.0000      0.0000      0.0000      0.0000      0.0000      0.0000      0.0000
 39      0.0000      0.0061      0.0000      0.0000      0.0000      0.0000      0.0000      0.0000      0.0000
 40      0.0000      0.0093      0.0000      0.0000      0.0000      0.0000      0.0000      0.0000      0.0000
 41      0.0000      0.0204      0.0000      0.0000      0.0000      0.0000      0.0000      0.0000      0.0000
 42      0.0000      0.0241      0.0000      0.0000      0.0000      0.0000      0.1312      0.0000      0.0397
 43      2.0125      4.1692      3.3420      3.9741      3.5038      4.0196      3.8339      4.1018      3.0640
 44     18.6420     17.3989     17.3782     16.9895     17.2150     17.4452     17.5724     17.6435     18.1349
 45     10.7028      5.7901      6.2842      5.9901      6.3376      6.2530      6.1520      6.2278      6.0244
 46      6.8411      2.6205      3.4751      3.4168      2.4985      3.2891      4.5197      3.1404      3.0938
 47     10.2033     12.5407     13.0253     14.0522     12.5953     12.6113     12.2012     13.4258     12.4361
 48      0.0140      1.0173      0.9340      1.2188      0.9666      1.5701      0.8080      0.9814      2.2871
 49      0.0034      0.4900      1.3613      0.0000      0.1952      0.3442      0.7185      0.0027      0.0000
 50      0.0000      0.4153      0.1648      0.4008      0.5182      0.1266      0.0000      0.2998      0.0870
 51      0.0000      0.0089      0.0000      0.0000      0.0000      0.0000      0.0000      0.0000      0.0000
 52      0.0000      0.0164      0.0000      0.0000      0.0000      0.0745      0.0000      0.0000      0.0000
 53      0.0000      0.0158      0.1708      0.0000      0.0000      0.0000      0.0000      0.0000      0.0000
 54      0.0000      0.0227      0.0000      0.2508      0.0000      0.0000      0.0469      0.0000      0.0000
 55      0.0000      0.0246      0.0000      0.0000      0.0000      0.0000      0.0000      0.0000      0.0000
 56      0.0000      0.0274      0.0225      0.0000      0.0000      0.0000      0.0000      0.0000      0.0000
 57      0.0000      0.0159      0.0000      0.0071      0.0000      0.0000      0.0519      0.0000      0.0000
 58      0.0000      0.0141      0.0794      0.0000      0.0000      0.0000      0.0000      0.0000      0.0627
 59      0.0000      0.0118      0.0000      0.0000      0.0000      0.0000      0.0000      0.0000      0.0000
 60      0.0000      0.0076      0.0000      0.0614      0.0000      0.0000      0.0000      0.0000      0.0000
 61      0.0000      0.0073      0.0000      0.0000      0.0000      0.0000      0.0000      0.0000      0.0000
 62      0.0000      0.0090      0.0000      0.0000      0.0000      0.0203      0.0000      0.0000      0.0000
 63      0.0000      0.0102      0.0000      0.0000      0.0000      0.0000      0.0000      0.0000      0.0000
 64      0.0000      0.0117      0.0000      0.0000      0.0000      0.0000      0.0000      0.0000      0.0000
 65      0.0000      0.0218      0.0000      0.0000      0.0000      0.0000      0.0338      0.0000      0.0000
 66      0.0000      0.0378      0.0904      0.0000      0.0000      0.0000      0.1339      0.0000      0.0570
 67      0.0000      0.0352      0.0000      0.0000      0.1031      0.0223      0.0000      0.0063      0.0000
 68      0.0000      0.0795      0.0000      0.0000      0.2881      0.0000      0.0000      0.0322      0.0000
 69      0.0000      0.2109      0.1717      0.0000      0.1204      0.0000      0.4073      0.2393      0.0614
 70      0.0026      0.2384      0.7258      0.1570      0.4392      0.0682      0.0747      0.0000      0.7585
 71      0.0000      0.2024      0.0480      0.1184      0.2063      0.0000      0.1467      0.0000      0.0767
 72     14.0655     17.6323     16.0607     16.7932     17.4885     17.4309     17.4338     16.5989     16.9054
 73     11.8845     11.1226     11.2109     11.0105     11.3705     11.2771     11.1078     10.0819     10.8776
 74      0.1856      0.7145      0.6582      1.0346      0.7674      0.4988      0.0000      1.1009      0.7558
 75      0.0023      0.1807      0.3959      0.0000      0.1374      0.1001      0.0000      0.5119      0.0000
 76      0.0000      0.0098      0.0000      0.0000      0.0000      0.0000      0.0000      0.1259      0.0000
 77      0.0000      0.0087      0.0000      0.0135      0.0000      0.0482      0.0000      0.0000      0.0000
 78      0.0000      0.0155      0.0000      0.0206      0.0672      0.0288      0.0000      0.0000      0.0000
 79      0.0000      0.0137      0.0000      0.0000      0.0198      0.0000      0.0231      0.0000      0.0000
 80      0.0000      0.0197      0.0000      0.0000      0.0000      0.0000      0.0000      0.0195      0.0000
 81      0.0000      0.0072      0.0039      0.0000      0.0000      0.0000      0.0000      0.0902      0.0000
 82      0.0000      0.0143      0.0000      0.0000      0.0000      0.0000      0.0838      0.0046      0.0000
 83      0.0000      0.0150      0.0000      0.0000      0.2004      0.0000      0.0000      0.0000      0.0000
 84      0.0000      0.0141      0.0000      0.0000      0.0000      0.0000      0.0236      0.0000      0.0000
 85      0.0000      0.0148      0.0000      0.1173      0.0000      0.0000      0.0000      0.0000      0.0000
 86      0.0000      0.0076      0.0000      0.0000      0.0000      0.0000      0.0000      0.0000      0.0000
 87      0.0000      0.0123      0.0013      0.0000      0.0000      0.0000      0.0000      0.0000      0.0000
 88      0.0000      0.0047      0.0000      0.0054      0.0282      0.0000      0.0000      0.0000      0.0000
 89      0.0000      0.0064      0.0000      0.0000      0.0000      0.0000      0.0000      0.0000      0.0000
 90      0.0000      0.0092      0.0000      0.0000      0.0145      0.0000      0.0000      0.0000      0.0000
 91      0.0000      0.0168      0.0000      0.0000      0.0000      0.1145      0.0000      0.0100      0.0000
 92      0.0000      0.0246      0.0000      0.0000      0.0000      0.0000      0.1108      0.0000      0.0000
 93      0.0000      0.0999      0.1278      0.0473      0.0000      0.0000      0.0143      0.0347      0.0000
 94      0.0000      0.2115      0.0000      0.0000      0.1338      0.0000      0.1470      0.0000      0.0000
 95      0.0054      0.3419      0.1968      0.0619      0.0000      0.5857      0.1849      0.3927      0.3696
 96      0.0054      0.3114      0.3269      0.3400      0.0000      0.7162      0.3082      0.6519      0.3315
 97      5.5971      8.3895      8.6347      8.1774      7.8895      8.2799      8.4791      8.4865      8.5071
 98      5.6421      4.1685      3.7320      4.7597      4.2383      4.2499      4.1698      3.9900      3.7188
 99      3.0018      0.6266      0.4862      0.5470      0.7223      1.0518      0.4820      0.7397      0.7505
100      1.6835      0.5516      0.7717      0.7743      1.1299      0.6004      0.7367      0.8324      0.6897
101      0.0000      0.0074      0.0000      0.0000      0.0000      0.0000      0.0000      0.0000      0.0000
102      0.0000      0.0091      0.0000      0.0000      0.0000      0.0468      0.0000      0.0000      0.0000
103      0.0000      0.0202      0.0000      0.0000      0.0000      0.0000      0.0000      0.0000      0.1103
104      0.0000      0.0269      0.0000      0.0000      0.0176      0.0000      0.0000      0.0000      0.0000
105      0.0000      0.0135      0.0556      0.1323      0.0000      0.0000      0.0000      0.0000      0.0000
106      0.0000      0.0161      0.0038      0.0000      0.0000      0.0000      0.0000      0.0000      0.0922
107      0.0000      0.0285      0.0000      0.0013      0.0000      0.2474      0.0000      0.0000      0.0000
108      0.0000      0.0122      0.0000      0.0000      0.0000      0.0000      0.0000      0.0000      0.0000
109      0.0000      0.0115      0.0000      0.0000      0.0000      0.0000      0.0000      0.0000      0.0168
110      0.0000      0.0088      0.0000      0.0000      0.0000      0.0000      0.0121      0.0122      0.0000
111      0.0000      0.0063      0.0000      0.0000      0.0000      0.0000      0.0000      0.0000      0.0000
112      0.0000      0.0066      0.0000      0.0000      0.0000      0.0000      0.0000      0.0000      0.0000
113      0.0000      0.0043      0.0000      0.0000      0.0172      0.0000      0.0000      0.0675      0.0018
114      0.0000      0.0067      0.0000      0.0000      0.0000      0.0000      0.0000      0.0000      0.0000
115      0.0000      0.0099      0.0000      0.0000      0.0000      0.0000      0.0000      0.0000      0.0000
116      0.0000      0.0151      0.0000      0.0000      0.0000      0.0074      0.0000      0.0000      0.0000
117      0.0000      0.0193      0.0000      0.0000      0.0000      0.0000      0.0000      0.0000      0.0000
118      0.0000      0.0502      0.0000      0.0000      0.0000      0.0000      0.0000      0.0000      0.0000
119      0.0000      0.1120      0.0057      0.1422      0.0000      0.0000      0.1108      0.0000      0.0135
120      0.0000      0.1357      0.0912      0.0615      0.0000      0.0000      0.0000      0.0000      0.3288
121      0.0055      0.1419      0.2682      0.3795      0.0000      0.0048      0.2128      0.0000      0.1082
122      0.0019      0.3667      0.8125      0.3289      0.0574      0.4285      0.4190      0.8834      0.5884
123      0.0055      0.2449      0.2060      0.0983      0.6682      0.0000      0.2699      0.3120      0.1028
124      0.0000      0.3149      0.0672      0.1521      0.2613      0.4867      0.4585      0.4233      0.3898
125      0.0025      0.1641      0.2802      0.2647      0.0000      0.0000      0.1065      0.1870      0.3616
126      0.0000      0.0082      0.0000      0.0000      0.0000      0.0000      0.0000      0.0000      0.0000
127      0.0000      0.0140      0.0000      0.0209      0.0000      0.0000      0.2022      0.0263      0.0000
128      0.0000      0.0131      0.0982      0.0000      0.1036      0.0000      0.0000      0.0000      0.0000
129      0.0000      0.0261      0.0000      0.0000      0.0053      0.0000      0.0000      0.1595      0.1704
130      0.0000      0.0266      0.0000      0.0000      0.0000      0.0000      0.0000      0.0000      0.0000
131      0.0000      0.0173      0.0000      0.0000      0.0000      0.0000      0.0000      0.0000      0.0000
132      0.0000      0.0136      0.0000      0.0000      0.0000      0.0000      0.0996      0.0000      0.0000
133      0.0000      0.0077      0.1061      0.0000      0.0000      0.0000      0.0000      0.0000      0.0000
134      0.0000      0.0063      0.0000      0.0000      0.0000      0.0000      0.0000      0.0000      0.0000
135      0.0000      0.0057      0.0000      0.0011      0.0000      0.0000      0.0000      0.0000      0.0000
136      0.0000      0.0078      0.0000      0.0000      0.0000      0.0000      0.0000      0.0000      0.0000
137      0.0000      0.0059      0.0000      0.0000      0.0000      0.0000      0.0000      0.0000      0.0000
138      0.0000      0.0047      0.0000      0.0000      0.0000      0.0000      0.0000      0.0000      0.0000
139      0.0000      0.0055      0.0000      0.0000      0.0000      0.0000      0.0081      0.0000      0.0000
140      0.0000      0.0179      0.0000      0.0000      0.0000      0.0000      0.0000      0.0000      0.0000
141      0.0000      0.0346      0.0000      0.0000      0.0000      0.0000      0.0000      0.0000      0.0308
142      0.0000      0.0576      0.0000      0.0000      0.0000      0.0000      0.0000      0.0000      0.0000
143      0.7493      0.3982      0.6646      0.8265      0.6830      0.4137      0.5785      0.3423      0.9997
144      2.7683      0.3929      0.6459      0.4053      0.4200      0.3824      0.8653      0.6888      0.3262
145      0.0079      0.1400      0.2324      0.1769      0.0000      0.1065      0.1889      0.0339      0.1260
146      0.2550      0.5683      0.5554      0.8106      0.7224      0.6222      0.5301      0.6249      0.5384
147      0.0000      0.0721      0.0748      0.0000      0.0000      0.0000      0.0000      0.0000      0.1276
148      0.0000      0.0716      0.0696      0.0000      0.0935      0.0000      0.0607      0.0000      0.0765
149      0.0000      0.0848      0.0000      0.0148      0.0000      0.2207      0.0000      0.0923      0.0000
150      0.0000      0.0953      0.0000      0.0000      0.1462      0.0909      0.0711      0.1238      0.0000

# j      m_j: min, <> & last-chain-values for 1 ...  7 chains
  1  0.0000E+00  7.6396E-05  0.0000E+00  0.0000E+00  0.0000E+00  0.0000E+00  0.0000E+00  3.5759E-04  1.7988E-04
  2  1.4323E-03  1.2764E-04  2.9735E-04  0.0000E+00  1.8020E-04  8.7099E-05  0.0000E+00  6.5162E-04  0.0000E+00
  3  0.0000E+00  1.2212E-04  2.5529E-05  7.7659E-05  9.2710E-05  1.4945E-04  0.0000E+00  0.0000E+00  3.1216E-04
  4  0.0000E+00  1.3922E-04  1.3177E-04  1.2989E-04  1.1723E-03  0.0000E+00  0.0000E+00  0.0000E+00  0.0000E+00
  5  0.0000E+00  1.1647E-04  0.0000E+00  0.0000E+00  0.0000E+00  0.0000E+00  0.0000E+00  7.3511E-04  0.0000E+00
  6  0.0000E+00  1.2358E-04  0.0000E+00  0.0000E+00  0.0000E+00  9.7583E-04  0.0000E+00  0.0000E+00  0.0000E+00
  7  0.0000E+00  1.7930E-04  1.7174E-04  0.0000E+00  0.0000E+00  2.3768E-04  7.6438E-04  0.0000E+00  0.0000E+00
  8  0.0000E+00  2.0079E-04  0.0000E+00  9.6569E-04  0.0000E+00  2.2033E-04  1.3678E-04  0.0000E+00  0.0000E+00
  9  0.0000E+00  2.0288E-04  0.0000E+00  0.0000E+00  8.2320E-04  0.0000E+00  0.0000E+00  0.0000E+00  0.0000E+00
 10  0.0000E+00  3.0255E-04  0.0000E+00  0.0000E+00  0.0000E+00  0.0000E+00  6.2873E-04  0.0000E+00  0.0000E+00
 11  0.0000E+00  3.5948E-04  0.0000E+00  0.0000E+00  0.0000E+00  0.0000E+00  0.0000E+00  0.0000E+00  0.0000E+00
 12  0.0000E+00  2.9361E-04  0.0000E+00  0.0000E+00  0.0000E+00  4.5956E-03  0.0000E+00  0.0000E+00  0.0000E+00
 13  0.0000E+00  2.6377E-04  0.0000E+00  0.0000E+00  0.0000E+00  0.0000E+00  0.0000E+00  1.1867E-03  2.6572E-03
 14  0.0000E+00  2.4459E-04  0.0000E+00  0.0000E+00  0.0000E+00  0.0000E+00  0.0000E+00  0.0000E+00  0.0000E+00
 15  0.0000E+00  5.5558E-04  0.0000E+00  0.0000E+00  0.0000E+00  0.0000E+00  0.0000E+00  0.0000E+00  0.0000E+00
 16  0.0000E+00  1.0450E-03  0.0000E+00  0.0000E+00  0.0000E+00  0.0000E+00  0.0000E+00  9.0726E-03  0.0000E+00
 17  0.0000E+00  1.4035E-03  0.0000E+00  0.0000E+00  0.0000E+00  0.0000E+00  0.0000E+00  1.3198E-02  0.0000E+00
 18  0.0000E+00  4.6077E-03  0.0000E+00  0.0000E+00  3.8211E-02  0.0000E+00  0.0000E+00  0.0000E+00  0.0000E+00
 19  0.0000E+00  1.6173E-02  0.0000E+00  5.0383E-02  4.2950E-03  0.0000E+00  0.0000E+00  0.0000E+00  1.1433E-02
 20  0.0000E+00  7.1011E-02  7.0561E-02  6.3598E-03  0.0000E+00  4.1011E-02  3.4740E-02  2.1252E-02  4.9491E-02
 21  0.0000E+00  1.0263E-01  0.0000E+00  1.3860E-01  8.3934E-02  2.5034E-01  0.0000E+00  1.6257E-01  1.2093E-01
 22  7.5335E-01  1.7018E-01  1.8104E-01  1.4157E-01  6.3610E-01  0.0000E+00  0.0000E+00  1.1891E-01  3.4267E-01
 23  1.5910E-02  3.0715E-01  6.5956E-01  5.1911E-02  6.8685E-01  1.1677E-01  4.7660E-01  1.5464E-01  4.4490E-01
 24  1.4839E-02  4.5433E-01  4.2201E-01  3.7801E-01  6.7694E-01  8.5902E-01  4.3351E-01  3.2731E-01  6.4479E-01
 25  3.0694E-01  9.2621E-01  7.1168E-01  1.2697E+00  1.0567E+00  7.2290E-01  1.3665E+00  1.0073E+00  5.7134E-01
 26  0.0000E+00  7.3054E-05  0.0000E+00  0.0000E+00  0.0000E+00  0.0000E+00  0.0000E+00  0.0000E+00  0.0000E+00
 27  0.0000E+00  4.0934E-05  0.0000E+00  0.0000E+00  0.0000E+00  0.0000E+00  0.0000E+00  0.0000E+00  1.4555E-04
 28  0.0000E+00  4.8766E-05  3.3069E-05  6.2997E-06  0.0000E+00  0.0000E+00  2.6696E-04  0.0000E+00  0.0000E+00
 29  0.0000E+00  4.8684E-05  1.6822E-04  0.0000E+00  0.0000E+00  1.8889E-04  0.0000E+00  0.0000E+00  0.0000E+00
 30  0.0000E+00  9.6675E-05  0.0000E+00  1.3350E-04  0.0000E+00  0.0000E+00  1.4364E-04  0.0000E+00  7.4498E-05
 31  0.0000E+00  1.0845E-04  0.0000E+00  0.0000E+00  0.0000E+00  4.5376E-05  0.0000E+00  0.0000E+00  0.0000E+00
 32  0.0000E+00  2.4291E-04  0.0000E+00  3.2261E-04  0.0000E+00  0.0000E+00  0.0000E+00  0.0000E+00  7.7156E-04
 33  0.0000E+00  1.9530E-04  0.0000E+00  0.0000E+00  0.0000E+00  0.0000E+00  0.0000E+00  6.6739E-04  0.0000E+00
 34  0.0000E+00  2.2029E-04  4.2611E-04  1.4480E-03  9.4339E-04  0.0000E+00  1.0331E-04  0.0000E+00  0.0000E+00
 35  0.0000E+00  2.4884E-04  0.0000E+00  0.0000E+00  0.0000E+00  0.0000E+00  0.0000E+00  0.0000E+00  1.9376E-03
 36  0.0000E+00  1.8850E-04  0.0000E+00  0.0000E+00  0.0000E+00  0.0000E+00  0.0000E+00  0.0000E+00  0.0000E+00
 37  0.0000E+00  2.9429E-04  0.0000E+00  2.3262E-03  0.0000E+00  4.0572E-03  0.0000E+00  2.6652E-03  0.0000E+00
 38  0.0000E+00  1.8718E-04  0.0000E+00  0.0000E+00  0.0000E+00  0.0000E+00  0.0000E+00  0.0000E+00  0.0000E+00
 39  0.0000E+00  3.0171E-04  0.0000E+00  0.0000E+00  0.0000E+00  0.0000E+00  0.0000E+00  0.0000E+00  0.0000E+00
 40  0.0000E+00  8.1484E-04  0.0000E+00  0.0000E+00  0.0000E+00  0.0000E+00  0.0000E+00  0.0000E+00  0.0000E+00
 41  0.0000E+00  2.3986E-03  0.0000E+00  0.0000E+00  0.0000E+00  0.0000E+00  0.0000E+00  0.0000E+00  0.0000E+00
 42  0.0000E+00  3.1678E-03  0.0000E+00  0.0000E+00  0.0000E+00  0.0000E+00  1.7374E-02  0.0000E+00  5.2276E-03
 43  4.3646E-01  8.9004E-01  7.1618E-01  8.5215E-01  7.4234E-01  8.5706E-01  8.2602E-01  8.6987E-01  6.5707E-01
 44  6.3942E+00  5.8742E+00  5.8897E+00  5.7615E+00  5.7683E+00  5.8827E+00  5.9877E+00  5.9175E+00  6.1505E+00
 45  5.1165E+00  2.7246E+00  2.9684E+00  2.8312E+00  2.9598E+00  2.9388E+00  2.9217E+00  2.9113E+00  2.8477E+00
 46  3.8959E+00  1.4690E+00  1.9555E+00  1.9239E+00  1.3900E+00  1.8415E+00  2.5570E+00  1.7488E+00  1.7422E+00
 47  7.6157E+00  9.2137E+00  9.6063E+00  1.0370E+01  9.1840E+00  9.2542E+00  9.0471E+00  9.7989E+00  9.1784E+00
 48  1.2414E-02  8.9000E-01  8.2031E-01  1.0711E+00  8.3924E-01  1.3719E+00  7.1343E-01  8.5292E-01  2.0101E+00
 49  3.3928E-03  4.7958E-01  1.3374E+00  0.0000E+00  1.8960E-01  3.3645E-01  7.0974E-01  2.5842E-03  0.0000E+00
 50  0.0000E+00  4.7808E-01  1.9044E-01  4.6344E-01  5.9205E-01  1.4555E-01  0.0000E+00  3.4283E-01  1.0058E-01
 51  0.0000E+00  4.6940E-05  0.0000E+00  0.0000E+00  0.0000E+00  0.0000E+00  0.0000E+00  0.0000E+00  0.0000E+00
 52  0.0000E+00  2.3679E-05  0.0000E+00  0.0000E+00  0.0000E+00  1.0780E-04  0.0000E+00  0.0000E+00  0.0000E+00
 53  0.0000E+00  3.4795E-05  3.7868E-04  0.0000E+00  0.0000E+00  0.0000E+00  0.0000E+00  0.0000E+00  0.0000E+00
 54  0.0000E+00  4.7751E-05  0.0000E+00  5.3040E-04  0.0000E+00  0.0000E+00  9.9750E-05  0.0000E+00  0.0000E+00
 55  0.0000E+00  7.6362E-05  0.0000E+00  0.0000E+00  0.0000E+00  0.0000E+00  0.0000E+00  0.0000E+00  0.0000E+00
 56  0.0000E+00  1.1259E-04  9.3051E-05  0.0000E+00  0.0000E+00  0.0000E+00  0.0000E+00  0.0000E+00  0.0000E+00
 57  0.0000E+00  1.0505E-04  0.0000E+00  4.7289E-05  0.0000E+00  0.0000E+00  3.4520E-04  0.0000E+00  0.0000E+00
 58  0.0000E+00  1.3448E-04  7.5751E-04  0.0000E+00  0.0000E+00  0.0000E+00  0.0000E+00  0.0000E+00  5.9874E-04
 59  0.0000E+00  1.5606E-04  0.0000E+00  0.0000E+00  0.0000E+00  0.0000E+00  0.0000E+00  0.0000E+00  0.0000E+00
 60  0.0000E+00  1.1222E-04  0.0000E+00  9.0733E-04  0.0000E+00  0.0000E+00  0.0000E+00  0.0000E+00  0.0000E+00
 61  0.0000E+00  1.3751E-04  0.0000E+00  0.0000E+00  0.0000E+00  0.0000E+00  0.0000E+00  0.0000E+00  0.0000E+00
 62  0.0000E+00  2.1439E-04  0.0000E+00  0.0000E+00  0.0000E+00  4.8119E-04  0.0000E+00  0.0000E+00  0.0000E+00
 63  0.0000E+00  3.6953E-04  0.0000E+00  0.0000E+00  0.0000E+00  0.0000E+00  0.0000E+00  0.0000E+00  0.0000E+00
 64  0.0000E+00  6.9312E-04  0.0000E+00  0.0000E+00  0.0000E+00  0.0000E+00  0.0000E+00  0.0000E+00  0.0000E+00
 65  0.0000E+00  2.1912E-03  0.0000E+00  0.0000E+00  0.0000E+00  0.0000E+00  3.4264E-03  0.0000E+00  0.0000E+00
 66  0.0000E+00  4.8595E-03  1.1673E-02  0.0000E+00  0.0000E+00  0.0000E+00  1.7379E-02  0.0000E+00  7.3583E-03
 67  0.0000E+00  6.2165E-03  0.0000E+00  0.0000E+00  1.8067E-02  3.9379E-03  0.0000E+00  1.1062E-03  0.0000E+00
 68  0.0000E+00  2.6083E-02  0.0000E+00  0.0000E+00  9.3835E-02  0.0000E+00  0.0000E+00  1.0505E-02  0.0000E+00
 69  0.0000E+00  1.1935E-01  9.7570E-02  0.0000E+00  6.7622E-02  0.0000E+00  2.3266E-01  1.3453E-01  3.4896E-02
 70  2.1191E-03  1.8774E-01  5.7389E-01  1.2418E-01  3.4333E-01  5.3630E-02  5.9358E-02  0.0000E+00  6.0013E-01
 71  0.0000E+00  1.8813E-01  4.4749E-02  1.1054E-01  1.9031E-01  0.0000E+00  1.3763E-01  0.0000E+00  7.1590E-02
 72  1.7481E+01  2.1571E+01  1.9723E+01  2.0635E+01  2.1233E+01  2.1298E+01  2.1525E+01  2.0172E+01  2.0775E+01
 73  1.8632E+01  1.7164E+01  1.7367E+01  1.7067E+01  1.7415E+01  1.7382E+01  1.7300E+01  1.5456E+01  1.6863E+01
 74  3.2473E-01  1.2301E+00  1.1377E+00  1.7893E+00  1.3113E+00  8.5773E-01  0.0000E+00  1.8830E+00  1.3073E+00
 75  4.7172E-03  3.5768E-01  7.8671E-01  0.0000E+00  2.6994E-01  1.9802E-01  0.0000E+00  1.0068E+00  0.0000E+00
 76  0.0000E+00  4.5052E-05  0.0000E+00  0.0000E+00  0.0000E+00  0.0000E+00  0.0000E+00  5.7377E-04  0.0000E+00
 77  0.0000E+00  1.6266E-05  0.0000E+00  2.5242E-05  0.0000E+00  9.0004E-05  0.0000E+00  0.0000E+00  0.0000E+00
 78  0.0000E+00  3.2412E-05  0.0000E+00  4.3264E-05  1.3941E-04  6.0109E-05  0.0000E+00  0.0000E+00  0.0000E+00
 79  0.0000E+00  3.4508E-05  0.0000E+00  0.0000E+00  4.9348E-05  0.0000E+00  5.8579E-05  0.0000E+00  0.0000E+00
 80  0.0000E+00  6.3848E-05  0.0000E+00  0.0000E+00  0.0000E+00  0.0000E+00  0.0000E+00  6.2701E-05  0.0000E+00
 81  0.0000E+00  3.0852E-05  1.6829E-05  0.0000E+00  0.0000E+00  0.0000E+00  0.0000E+00  3.8405E-04  0.0000E+00
 82  0.0000E+00  8.2701E-05  0.0000E+00  0.0000E+00  0.0000E+00  0.0000E+00  4.8834E-04  2.6488E-05  0.0000E+00
 83  0.0000E+00  1.2733E-04  0.0000E+00  0.0000E+00  1.6866E-03  0.0000E+00  0.0000E+00  0.0000E+00  0.0000E+00
 84  0.0000E+00  1.6535E-04  0.0000E+00  0.0000E+00  0.0000E+00  0.0000E+00  2.7907E-04  0.0000E+00  0.0000E+00
 85  0.0000E+00  2.1057E-04  0.0000E+00  1.6801E-03  0.0000E+00  0.0000E+00  0.0000E+00  0.0000E+00  0.0000E+00
 86  0.0000E+00  1.4686E-04  0.0000E+00  0.0000E+00  0.0000E+00  0.0000E+00  0.0000E+00  0.0000E+00  0.0000E+00
 87  0.0000E+00  3.1531E-04  3.2985E-05  0.0000E+00  0.0000E+00  0.0000E+00  0.0000E+00  0.0000E+00  0.0000E+00
 88  0.0000E+00  1.8597E-04  0.0000E+00  2.1120E-04  1.0963E-03  0.0000E+00  0.0000E+00  0.0000E+00  0.0000E+00
 89  0.0000E+00  4.1752E-04  0.0000E+00  0.0000E+00  0.0000E+00  0.0000E+00  0.0000E+00  0.0000E+00  0.0000E+00
 90  0.0000E+00  1.1109E-03  0.0000E+00  0.0000E+00  1.7387E-03  0.0000E+00  0.0000E+00  0.0000E+00  0.0000E+00
 91  0.0000E+00  2.6144E-03  0.0000E+00  0.0000E+00  0.0000E+00  1.7769E-02  0.0000E+00  1.5360E-03  0.0000E+00
 92  0.0000E+00  5.0998E-03  0.0000E+00  0.0000E+00  0.0000E+00  0.0000E+00  2.3203E-02  0.0000E+00  0.0000E+00
 93  0.0000E+00  4.2112E-02  5.4076E-02  2.0026E-02  0.0000E+00  0.0000E+00  6.0825E-03  1.4528E-02  0.0000E+00
 94  0.0000E+00  1.5988E-01  0.0000E+00  0.0000E+00  1.0035E-01  0.0000E+00  1.1213E-01  0.0000E+00  0.0000E+00
 95  5.6175E-03  3.4818E-01  2.0119E-01  6.3287E-02  0.0000E+00  5.9573E-01  1.9000E-01  3.9723E-01  3.7803E-01
 96  6.7199E-03  3.8259E-01  4.0321E-01  4.1957E-01  0.0000E+00  8.7882E-01  3.8219E-01  7.9564E-01  4.0911E-01
 97  9.1027E+00  1.3430E+01  1.3876E+01  1.3149E+01  1.2534E+01  1.3239E+01  1.3699E+01  1.3496E+01  1.3680E+01
 98  1.1767E+01  8.5577E+00  7.6907E+00  9.8146E+00  8.6351E+00  8.7141E+00  8.6393E+00  8.1370E+00  7.6690E+00
 99  7.1365E+00  1.4663E+00  1.1422E+00  1.2858E+00  1.6776E+00  2.4583E+00  1.1384E+00  1.7196E+00  1.7644E+00
100  4.6081E+00  1.4861E+00  2.0872E+00  2.0953E+00  3.0212E+00  1.6156E+00  2.0032E+00  2.2280E+00  1.8665E+00
101  0.0000E+00  2.1879E-05  0.0000E+00  0.0000E+00  0.0000E+00  0.0000E+00  0.0000E+00  0.0000E+00  0.0000E+00
102  0.0000E+00  1.4013E-05  0.0000E+00  0.0000E+00  0.0000E+00  7.2101E-05  0.0000E+00  0.0000E+00  0.0000E+00
103  0.0000E+00  3.4544E-05  0.0000E+00  0.0000E+00  0.0000E+00  0.0000E+00  0.0000E+00  0.0000E+00  1.8912E-04
104  0.0000E+00  6.0434E-05  0.0000E+00  0.0000E+00  3.9328E-05  0.0000E+00  0.0000E+00  0.0000E+00  0.0000E+00
105  0.0000E+00  6.4152E-05  2.6461E-04  6.3033E-04  0.0000E+00  0.0000E+00  0.0000E+00  0.0000E+00  0.0000E+00
106  0.0000E+00  8.2437E-05  1.9471E-05  0.0000E+00  0.0000E+00  0.0000E+00  0.0000E+00  0.0000E+00  4.7307E-04
107  0.0000E+00  1.9455E-04  0.0000E+00  8.7698E-06  0.0000E+00  1.6839E-03  0.0000E+00  0.0000E+00  0.0000E+00
108  0.0000E+00  1.3882E-04  0.0000E+00  0.0000E+00  0.0000E+00  0.0000E+00  0.0000E+00  0.0000E+00  0.0000E+00
109  0.0000E+00  1.5674E-04  0.0000E+00  0.0000E+00  0.0000E+00  0.0000E+00  0.0000E+00  0.0000E+00  2.3060E-04
110  0.0000E+00  1.4362E-04  0.0000E+00  0.0000E+00  0.0000E+00  0.0000E+00  1.9866E-04  1.9836E-04  0.0000E+00
111  0.0000E+00  1.4174E-04  0.0000E+00  0.0000E+00  0.0000E+00  0.0000E+00  0.0000E+00  0.0000E+00  0.0000E+00
112  0.0000E+00  1.9736E-04  0.0000E+00  0.0000E+00  0.0000E+00  0.0000E+00  0.0000E+00  0.0000E+00  0.0000E+00
113  0.0000E+00  1.9376E-04  0.0000E+00  0.0000E+00  7.5966E-04  0.0000E+00  0.0000E+00  2.9879E-03  7.9729E-05
114  0.0000E+00  5.2344E-04  0.0000E+00  0.0000E+00  0.0000E+00  0.0000E+00  0.0000E+00  0.0000E+00  0.0000E+00
115  0.0000E+00  1.5490E-03  0.0000E+00  0.0000E+00  0.0000E+00  0.0000E+00  0.0000E+00  0.0000E+00  0.0000E+00
116  0.0000E+00  3.8047E-03  0.0000E+00  0.0000E+00  0.0000E+00  1.8721E-03  0.0000E+00  0.0000E+00  0.0000E+00
117  0.0000E+00  5.7126E-03  0.0000E+00  0.0000E+00  0.0000E+00  0.0000E+00  0.0000E+00  0.0000E+00  0.0000E+00
118  0.0000E+00  3.0192E-02  0.0000E+00  0.0000E+00  0.0000E+00  0.0000E+00  0.0000E+00  0.0000E+00  0.0000E+00
119  0.0000E+00  1.1631E-01  5.8924E-03  1.4839E-01  0.0000E+00  0.0000E+00  1.1614E-01  0.0000E+00  1.4053E-02
120  0.0000E+00  2.0072E-01  1.3542E-01  9.1328E-02  0.0000E+00  0.0000E+00  0.0000E+00  0.0000E+00  4.8852E-01
121  9.6847E-03  2.4696E-01  4.6862E-01  6.6336E-01  0.0000E+00  8.3824E-03  3.7385E-01  0.0000E+00  1.8912E-01
122  4.5437E-03  8.5381E-01  1.8992E+00  7.6935E-01  1.3256E-01  9.9665E-01  9.8469E-01  2.0435E+00  1.3764E+00
123  1.7106E-02  7.5208E-01  6.3518E-01  3.0327E-01  2.0368E+00  0.0000E+00  8.3670E-01  9.5209E-01  3.1732E-01
124  0.0000E+00  1.1106E+00  2.3788E-01  5.3894E-01  9.1456E-01  1.7144E+00  1.6320E+00  1.4831E+00  1.3811E+00
125  1.0589E-02  6.9266E-01  1.1873E+00  1.1223E+00  0.0000E+00  0.0000E+00  4.5352E-01  7.8422E-01  1.5333E+00
126  0.0000E+00  1.8172E-05  0.0000E+00  0.0000E+00  0.0000E+00  0.0000E+00  0.0000E+00  0.0000E+00  0.0000E+00
127  0.0000E+00  1.6382E-05  0.0000E+00  2.4644E-05  0.0000E+00  0.0000E+00  2.3932E-04  3.0688E-05  0.0000E+00
128  0.0000E+00  2.2840E-05  1.7155E-04  0.0000E+00  1.7883E-04  0.0000E+00  0.0000E+00  0.0000E+00  0.0000E+00
129  0.0000E+00  9.2732E-05  0.0000E+00  0.0000E+00  1.8555E-05  0.0000E+00  0.0000E+00  5.6338E-04  6.0879E-04
130  0.0000E+00  1.2925E-04  0.0000E+00  0.0000E+00  0.0000E+00  0.0000E+00  0.0000E+00  0.0000E+00  0.0000E+00
131  0.0000E+00  9.7015E-05  0.0000E+00  0.0000E+00  0.0000E+00  0.0000E+00  0.0000E+00  0.0000E+00  0.0000E+00
132  0.0000E+00  1.0370E-04  0.0000E+00  0.0000E+00  0.0000E+00  0.0000E+00  7.6607E-04  0.0000E+00  0.0000E+00
133  0.0000E+00  8.4821E-05  1.1796E-03  0.0000E+00  0.0000E+00  0.0000E+00  0.0000E+00  0.0000E+00  0.0000E+00
134  0.0000E+00  8.8649E-05  0.0000E+00  0.0000E+00  0.0000E+00  0.0000E+00  0.0000E+00  0.0000E+00  0.0000E+00
135  0.0000E+00  9.6596E-05  0.0000E+00  1.8844E-05  0.0000E+00  0.0000E+00  0.0000E+00  0.0000E+00  0.0000E+00
136  0.0000E+00  1.9004E-04  0.0000E+00  0.0000E+00  0.0000E+00  0.0000E+00  0.0000E+00  0.0000E+00  0.0000E+00
137  0.0000E+00  1.9724E-04  0.0000E+00  0.0000E+00  0.0000E+00  0.0000E+00  0.0000E+00  0.0000E+00  0.0000E+00
138  0.0000E+00  2.6072E-04  0.0000E+00  0.0000E+00  0.0000E+00  0.0000E+00  0.0000E+00  0.0000E+00  0.0000E+00
139  0.0000E+00  5.7762E-04  0.0000E+00  0.0000E+00  0.0000E+00  0.0000E+00  8.5825E-04  0.0000E+00  0.0000E+00
140  0.0000E+00  4.3404E-03  0.0000E+00  0.0000E+00  0.0000E+00  0.0000E+00  0.0000E+00  0.0000E+00  0.0000E+00
141  0.0000E+00  1.2813E-02  0.0000E+00  0.0000E+00  0.0000E+00  0.0000E+00  0.0000E+00  0.0000E+00  1.1448E-02
142  0.0000E+00  2.5375E-02  0.0000E+00  0.0000E+00  0.0000E+00  0.0000E+00  0.0000E+00  0.0000E+00  0.0000E+00
143  6.6684E-01  3.4878E-01  5.8443E-01  7.2724E-01  5.9380E-01  3.6193E-01  5.1144E-01  2.9785E-01  8.7969E-01
144  4.8392E+00  6.7602E-01  1.1156E+00  7.0042E-01  7.1724E-01  6.5715E-01  1.5027E+00  1.1775E+00  5.6376E-01
145  2.0537E-02  3.5853E-01  5.9768E-01  4.5514E-01  0.0000E+00  2.7236E-01  4.8827E-01  8.6289E-02  3.2418E-01
146  7.9261E-01  1.7384E+00  1.7056E+00  2.4905E+00  2.1930E+00  1.9010E+00  1.6364E+00  1.8989E+00  1.6543E+00
147  0.0000E+00  2.9638E-01  3.0849E-01  0.0000E+00  0.0000E+00  0.0000E+00  0.0000E+00  0.0000E+00  5.2667E-01
148  0.0000E+00  3.9838E-01  3.8921E-01  0.0000E+00  5.1676E-01  0.0000E+00  3.4115E-01  0.0000E+00  4.2803E-01
149  0.0000E+00  5.5292E-01  0.0000E+00  9.7115E-02  0.0000E+00  1.4376E+00  0.0000E+00  5.9819E-01  0.0000E+00
150  0.0000E+00  7.4046E-01  0.0000E+00  0.0000E+00  1.1270E+00  7.0523E-01  5.5705E-01  9.5485E-01  0.0000E+00

# AV, chi2 & Mass for <> & i_chain = 1 ...  7 solutions
AV       1.0635      1.0623      1.0615      1.0625      1.0657      1.0649      1.0613      1.0654      1.0620
chi2 2.7334E+00  2.8214E+00  2.7943E+00  2.7956E+00  2.8032E+00  2.8036E+00  2.7978E+00  2.8028E+00  2.7992E+00
Mass 1.5029E-10  1.5242E-10  1.5168E-10  1.5180E-10  1.5430E-10  1.5315E-10  1.5084E-10  1.5409E-10  1.5168E-10
  -2.69                                  [v0_min (km/s) before EX0s...]
  62.79                                  [vd_min (km/s) before EX0s...]


## Synthetic spectrum (Best Model) ##l_obs f_obs f_syn wei
 3070    [Nl_obs]
 3359.00    0.17202   0.34534   -1.000
 3360.00    0.19475   0.32062   -1.000
 3361.00    0.20915   0.32299   -1.000
 3362.00    0.17931   0.34855   -1.000
 3363.00    0.19022   0.38361   -1.000
 3364.00    0.16368   0.40950   -1.000
 3365.00    0.20155   0.41561   -1.000
 3366.00    0.25227   0.40629   -1.000
 3367.00    0.23252   0.38986   -1.000
 3368.00    0.20804   0.37322   -1.000
 3369.00    0.21429   0.35863   -1.000
 3370.00    0.20145   0.34348   -1.000
 3371.00    0.18906   0.33363   -1.000
 3372.00    0.20634   0.33706   -1.000
 3373.00    0.22727   0.35594   -1.000
 3374.00    0.23553   0.38491   -1.000
 3375.00    0.25722   0.41483   -1.000
 3376.00    0.28201   0.43265   -1.000
 3377.00    0.29999   0.43086   -1.000
 3378.00    0.30344   0.41404   -1.000
 3379.00    0.29107   0.39549   -1.000
 3380.00    0.30034   0.38655   -1.000
 3381.00    0.31077   0.38965   -1.000
 3382.00    0.28340   0.40063   -1.000
 3383.00    0.26834   0.41235   -1.000
 3384.00    0.26314   0.42205   -1.000
 3385.00    0.27277   0.42945   -1.000
 3386.00    0.29822   0.42960   -1.000
 3387.00    0.31689   0.42334   -1.000
 3388.00    0.28701   0.41924   -1.000
 3389.00    0.25544   0.42218   -1.000
 3390.00    0.27849   0.42685   -1.000
 3391.00    0.31796   0.42527   -1.000
 3392.00    0.29031   0.41452   -1.000
 3393.00    0.26731   0.40607   -1.000
 3394.00    0.30226   0.41122   -1.000
 3395.00    0.36702   0.42837   -1.000
 3396.00    0.39477   0.44993   -1.000
 3397.00    0.39068   0.46909   -1.000
 3398.00    0.34415   0.48265   -1.000
 3399.00    0.36860   0.48770   -1.000
 3400.00    0.42750   0.48355   -1.000
 3401.00    0.41195   0.47152   -1.000
 3402.00    0.39877   0.45457   -1.000
 3403.00    0.38023   0.44084   -1.000
 3404.00    0.34395   0.43366   -1.000
 3405.00    0.33269   0.43192   -1.000
 3406.00    0.34161   0.42939   -1.000
 3407.00    0.34933   0.42378   -1.000
 3408.00    0.30788   0.41931   -1.000
 3409.00    0.33977   0.42235   -1.000
 3410.00    0.38618   0.43027   -1.000
 3411.00    0.38344   0.43109   -1.000
 3412.00    0.37309   0.42150   -1.000
 3413.00    0.38577   0.40800   -1.000
 3414.00    0.35450   0.40271   -1.000
 3415.00    0.34616   0.41118   -1.000
 3416.00    0.37343   0.42729   -1.000
 3417.00    0.41549   0.44408   -1.000
 3418.00    0.41445   0.45922   -1.000
 3419.00    0.45669   0.47211  220.770
 3420.00    0.44280   0.47976   -1.000
 3421.00    0.42695   0.47699   -1.000
 3422.00    0.44678   0.46350   -1.000
 3423.00    0.45211   0.44860  230.985
 3424.00    0.44303   0.44255  224.334
 3425.00    0.44682   0.44561  219.637
 3426.00    0.45512   0.45267  282.779
 3427.00    0.41247   0.46410   -1.000
 3428.00    0.43235   0.48197   -1.000
 3429.00    0.45142   0.49939   -1.000
 3430.00    0.46914   0.50401   -1.000
 3431.00    0.46568   0.49020   -1.000
 3432.00    0.43273   0.46944   -1.000
 3433.00    0.42068   0.45777   -1.000
 3434.00    0.44765   0.46257   -1.000
 3435.00    0.46093   0.47443   -1.000
 3436.00    0.42434   0.47731   -1.000
 3437.00    0.41284   0.46667   -1.000
 3438.00    0.42016   0.44639   -1.000
 3439.00    0.41158   0.42078  264.325
 3440.00    0.37102   0.39403   -1.000
 3441.00    0.33087   0.37368   -1.000
 3442.00    0.32034   0.36647   -1.000
 3443.00    0.33953   0.37172   -1.000
 3444.00    0.38881   0.38443  242.398
 3445.00    0.41445   0.40156   -1.000
 3446.00    0.41551   0.42437  292.127
 3447.00    0.42736   0.45106   -1.000
 3448.00    0.43960   0.47459   -1.000
 3449.00    0.45158   0.48766   -1.000
 3450.00    0.45627   0.48477   -1.000
 3451.00    0.44181   0.46903   -1.000
 3452.00    0.43139   0.45263   -1.000
 3453.00    0.44854   0.44730  870.978
 3454.00    0.47012   0.45365   -1.000
 3455.00    0.45498   0.46314   -1.000
 3456.00    0.45539   0.46551   -1.000
 3457.00    0.48493   0.45754   -1.000
 3458.00    0.46564   0.44435   -1.000
 3459.00    0.45895   0.43084   -1.000
 3460.00    0.42504   0.41967  288.594
 3461.00    0.41493   0.41813  870.978
 3462.00    0.41391   0.43027   -1.000
 3463.00    0.44031   0.44621   -1.000
 3464.00    0.45979   0.45438   -1.000
 3465.00    0.43858   0.45276   -1.000
 3466.00    0.48296   0.45195   -1.000
 3467.00    0.51752   0.46100   -1.000
 3468.00    0.51908   0.47736   -1.000
 3469.00    0.50839   0.49225   -1.000
 3470.00    0.48437   0.49732   -1.000
 3471.00    0.48859   0.49000  870.978
 3472.00    0.46594   0.47233   -1.000
 3473.00    0.44647   0.44753  637.558
 3474.00    0.42302   0.42305  222.820
 3475.00    0.38094   0.40833   -1.000
 3476.00    0.40435   0.41034  294.845
 3477.00    0.42103   0.42845   -1.000
 3478.00    0.42056   0.45194   -1.000
 3479.00    0.45905   0.47143   -1.000
 3480.00    0.47033   0.48291   -1.000
 3481.00    0.49402   0.48459   -1.000
 3482.00    0.50316   0.47880   -1.000
 3483.00    0.48473   0.47140   -1.000
 3484.00    0.49635   0.46935   -1.000
 3485.00    0.47801   0.47780  870.978
 3486.00    0.51228   0.49147   -1.000
 3487.00    0.55040   0.49614   -1.000
 3488.00    0.50779   0.48494   -1.000
 3489.00    0.47347   0.46343   -1.000
 3490.00    0.46590   0.44560   -1.000
 3491.00    0.47513   0.44188   -1.000
 3492.00    0.51046   0.44884   -1.000
 3493.00    0.52483   0.45608   -1.000
 3494.00    0.49060   0.45692   -1.000
 3495.00    0.44092   0.45062   -1.000
 3496.00    0.46297   0.44382   -1.000
 3497.00    0.46025   0.44641   -1.000
 3498.00    0.44330   0.45925   -1.000
 3499.00    0.48385   0.47475   -1.000
 3500.00    0.53842   0.48501   -1.000
 3501.00    0.50681   0.49135   -1.000
 3502.00    0.50828   0.49812   -1.000
 3503.00    0.51041   0.50314   -1.000
 3504.00    0.52791   0.50149   -1.000
 3505.00    0.54126   0.49287   -1.000
 3506.00    0.50585   0.48350   -1.000
 3507.00    0.51096   0.47840   -1.000
 3508.00    0.50436   0.47631   -1.000
 3509.00    0.48277   0.47361   -1.000
 3510.00    0.49969   0.46822   -1.000
 3511.00    0.49893   0.46108   -1.000
 3512.00    0.51230   0.45199   -1.000
 3513.00    0.48366   0.44260   -1.000
 3514.00    0.44302   0.44205  870.978
 3515.00    0.45798   0.45775  870.978
 3516.00    0.48671   0.48620  870.978
 3517.00    0.51043   0.51146  870.978
 3518.00    0.52305   0.51813   -1.000
 3519.00    0.57795   0.50444   -1.000
 3520.00    0.55155   0.48160   -1.000
 3521.00    0.49053   0.46104   -1.000
 3522.00    0.44761   0.44499  606.104
 3523.00    0.46345   0.42934   -1.000
 3524.00    0.46085   0.41439   -1.000
 3525.00    0.42816   0.40796   -1.000
 3526.00    0.44195   0.41756   -1.000
 3527.00    0.45663   0.44091   -1.000
 3528.00    0.45790   0.46881   -1.000
 3529.00    0.46270   0.49085   -1.000
 3530.00    0.48228   0.50212   -1.000
 3531.00    0.50853   0.50351   -1.000
 3532.00    0.50353   0.49860   -1.000
 3533.00    0.50169   0.49326   -1.000
 3534.00    0.52384   0.49279   -1.000
 3535.00    0.56135   0.49804   -1.000
 3536.00    0.53659   0.50891   -1.000
 3537.00    0.52297   0.52299  870.978
 3538.00    0.53899   0.53586  870.978
 3539.00    0.54459   0.54277  870.978
 3540.00    0.53847   0.54037  870.978
 3541.00    0.53013   0.53409   -1.000
 3542.00    0.53474   0.53308  870.978
 3543.00    0.52433   0.53906   -1.000
 3544.00    0.53667   0.54592   -1.000
 3545.00    0.53857   0.54684   -1.000
 3546.00    0.52668   0.54159   -1.000
 3547.00    0.54517   0.53481   -1.000
 3548.00    0.55721   0.53163   -1.000
 3549.00    0.56807   0.53382   -1.000
 3550.00    0.56597   0.53833   -1.000
 3551.00    0.54757   0.53890   -1.000
 3552.00    0.53225   0.53038  870.978
 3553.00    0.53172   0.51695   -1.000
 3554.00    0.52793   0.50834   -1.000
 3555.00    0.53925   0.50967   -1.000
 3556.00    0.50580   0.51692   -1.000
 3557.00    0.49300   0.52283   -1.000
 3558.00    0.49191   0.52419   -1.000
 3559.00    0.50373   0.52391   -1.000
 3560.00    0.49252   0.52708   -1.000
 3561.00    0.46839   0.53392   -1.000
 3562.00    0.49399   0.53622   -1.000
 3563.00    0.52107   0.52309  584.771
 3564.00    0.51630   0.49294   -1.000
 3565.00    0.49928   0.46170   -1.000
 3566.00    0.44213   0.44579  226.869
 3567.00    0.43668   0.44400  228.329
 3568.00    0.40064   0.44319   -1.000
 3569.00    0.42069   0.43463  235.753
 3570.00    0.42833   0.42460  227.253
 3571.00    0.44757   0.42429   -1.000
 3572.00    0.45118   0.43382   -1.000
 3573.00    0.45419   0.44588   -1.000
 3574.00    0.46625   0.45549   -1.000
 3575.00    0.46478   0.46284   -1.000
 3576.00    0.46663   0.46857  870.978
 3577.00    0.46422   0.46977  600.044
 3578.00    0.46389   0.46239  233.688
 3579.00    0.44540   0.44484  250.667
 3580.00    0.41023   0.42301  260.610
 3581.00    0.39342   0.40632  262.006
 3582.00    0.39136   0.40160  264.791
 3583.00    0.41501   0.40507   -1.000
 3584.00    0.45894   0.40335   -1.000
 3585.00    0.41577   0.39234   -1.000
 3586.00    0.37200   0.38106  263.179
 3587.00    0.39167   0.38153   -1.000
 3588.00    0.42305   0.39943   -1.000
 3589.00    0.45200   0.42948   -1.000
 3590.00    0.45358   0.46056   -1.000
 3591.00    0.46721   0.48228   -1.000
 3592.00    0.48961   0.49077  193.812
 3593.00    0.50093   0.49271  189.598
 3594.00    0.50134   0.49918  182.460
 3595.00    0.53311   0.51439   -1.000
 3596.00    0.57700   0.53162   -1.000
 3597.00    0.59065   0.54404   -1.000
 3598.00    0.60762   0.55160   -1.000
 3599.00    0.59910   0.55499   -1.000
 3600.00    0.59320   0.55028   -1.000
 3601.00    0.60000   0.53382   -1.000
 3602.00    0.57686   0.51142   -1.000
 3603.00    0.54931   0.49325   -1.000
 3604.00    0.50169   0.48569   -1.000
 3605.00    0.48159   0.48539  195.461
 3606.00    0.49837   0.48353   -1.000
 3607.00    0.52285   0.47539   -1.000
 3608.00    0.48172   0.46392   -1.000
 3609.00    0.45607   0.45802  204.236
 3610.00    0.47761   0.46342   -1.000
 3611.00    0.49283   0.47630   -1.000
 3612.00    0.50071   0.48989  187.269
 3613.00    0.50275   0.50253  182.731
 3614.00    0.51521   0.51650  178.314
 3615.00    0.51367   0.52805  183.442
 3616.00    0.51694   0.52325  200.199
 3617.00    0.50384   0.49767   55.669
 3618.00    0.47966   0.46792   30.552
 3619.00    0.44971   0.45612  198.219
 3620.00    0.44699   0.46981   -1.000
 3621.00    0.46800   0.49691   -1.000
 3622.00    0.52021   0.52152  170.926
 3623.00    0.55691   0.53818   -1.000
 3624.00    0.56147   0.55338  160.862
 3625.00    0.60653   0.57466   -1.000
 3626.00    0.65453   0.59886   -1.000
 3627.00    0.65483   0.61428   -1.000
 3628.00    0.62949   0.60629   -1.000
 3629.00    0.57599   0.57093  191.787
 3630.00    0.51539   0.52339  203.238
 3631.00    0.50706   0.48942   -1.000
 3632.00    0.49588   0.48308   -1.000
 3633.00    0.48723   0.49671  189.717
 3634.00    0.47806   0.51315   -1.000
 3635.00    0.48349   0.52378   -1.000
 3636.00    0.52274   0.53321  168.608
 3637.00    0.55218   0.54874  161.674
 3638.00    0.57959   0.56842  158.023
 3639.00    0.59584   0.58469  159.274
 3640.00    0.57087   0.59034   -1.000
 3641.00    0.59124   0.58263  170.472
 3642.00    0.60698   0.56529   -1.000
 3643.00    0.56666   0.54583   -1.000
 3644.00    0.52004   0.52999  185.835
 3645.00    0.49100   0.51823   -1.000
 3646.00    0.49721   0.50826  191.234
 3647.00    0.50113   0.50146  189.499
 3648.00    0.49239   0.50086  183.397
 3649.00    0.50110   0.50733  175.421
 3650.00    0.53732   0.52110  167.285
 3651.00    0.59792   0.54108   -1.000
 3652.00    0.63139   0.56309   -1.000
 3653.00    0.59713   0.58170  156.324
 3654.00    0.60310   0.59540  155.375
 3655.00    0.64395   0.60643   -1.000
 3656.00    0.64910   0.61705   -1.000
 3657.00    0.63708   0.62577  150.006
 3658.00    0.65087   0.63033   -1.000
 3659.00    0.65418   0.63163   -1.000
 3660.00    0.65689   0.62911   -1.000
 3661.00    0.63886   0.62089  154.358
 3662.00    0.60335   0.60901  156.524
 3663.00    0.56936   0.59909   -1.000
 3664.00    0.59967   0.59613  155.359
 3665.00    0.64377   0.59876   -1.000
 3666.00    0.65785   0.60062   -1.000
 3667.00    0.63340   0.59641   -1.000
 3668.00    0.59261   0.58608  164.180
 3669.00    0.57085   0.57766  161.221
 3670.00    0.59388   0.57954  156.073
 3671.00    0.61741   0.59142   -1.000
 3672.00    0.63836   0.60506   -1.000
 3673.00    0.65818   0.61269   -1.000
 3674.00    0.65838   0.61165   -1.000
 3675.00    0.66040   0.60176   -1.000
 3676.00    0.64718   0.58447   -1.000
 3677.00    0.60412   0.56431   -1.000
 3678.00    0.56338   0.54755  172.777
 3679.00    0.56170   0.53968   -1.000
 3680.00    0.56673   0.54110   -1.000
 3681.00    0.57818   0.54906   -1.000
 3682.00    0.57350   0.55931  162.858
 3683.00    0.57495   0.56551  167.863
 3684.00    0.59139   0.56172   -1.000
 3685.00    0.58384   0.54713   -1.000
 3686.00    0.54223   0.53138  180.795
 3687.00    0.51293   0.52729  173.034
 3688.00    0.53258   0.54077  161.463
 3689.00    0.58551   0.56682   -1.000
 3690.00    0.60882   0.59330  150.350
 3691.00    0.62433   0.60888  152.646
 3692.00    0.62994   0.61010   -1.000
 3693.00    0.62246   0.60348   -1.000
 3694.00    0.60656   0.59773  156.292
 3695.00    0.62394   0.59610   -1.000
 3696.00    0.63889   0.59776   -1.000
 3697.00    0.64019   0.60477   -1.000
 3698.00    0.67274   0.61992   -1.000
 3699.00    0.70444   0.63833   -1.000
 3700.00    0.72173   0.64904   -1.000
 3701.00    0.72847   0.63966   -1.000
 3702.00    0.66158   0.60664   -1.000
 3703.00    0.59094   0.56116   -1.000
 3704.00    0.54229   0.52043   -1.000
 3705.00    0.55637   0.49758   -1.000
 3706.00    0.54405   0.49439   -1.000
 3707.00    0.53393   0.50270   -1.000
 3708.00    0.54855   0.51420   -1.000
 3709.00    0.54630   0.52505   -1.000
 3710.00    0.57584   0.53607   -1.000
 3711.00    0.61695   0.55182   -1.000
 3712.00    0.63082   0.57581   -1.000
 3713.00    0.69086   0.60462   -1.000
 3714.00    0.71768   0.62951   -1.000
 3715.00    0.70064   0.64209   -1.000
 3716.00    0.70809   0.63824   -1.000
 3717.00    0.69796   0.61643   -1.000
 3718.00    0.62088   0.57525   -1.000
 3719.00    0.52582   0.51848   52.228
 3720.00    0.48919   0.46480   32.691
 3721.00    0.46008   0.43875   -1.000
 3722.00    0.46309   0.45096  175.971
 3723.00    0.52844   0.49308   -1.000
 3724.00    0.61427   0.54405   -1.000
 3725.00    0.63548   0.57935   -1.000
 3726.00    0.61760   0.59107   -1.000
 3727.00    0.61043   0.59126   -1.000
 3728.00    0.61813   0.59243   -1.000
 3729.00    0.65957   0.59474   -1.000
 3730.00    0.66883   0.58791   -1.000
 3731.00    0.62478   0.55940   -1.000
 3732.00    0.56822   0.50863   22.692
 3733.00    0.49507   0.45149   24.768
 3734.00    0.42772   0.40694   24.861
 3735.00    0.41757   0.39049   23.172
 3736.00    0.45195   0.40797   32.210
 3737.00    0.48292   0.45224   -1.000
 3738.00    0.50422   0.50933  169.305
 3739.00    0.57218   0.56368  162.854
 3740.00    0.64198   0.59933   -1.000
 3741.00    0.65286   0.60800   -1.000
 3742.00    0.61184   0.59248   -1.000
 3743.00    0.60641   0.56384   -1.000
 3744.00    0.59001   0.53404   -1.000
 3745.00    0.52002   0.50942   50.881
 3746.00    0.49646   0.48733   22.617
 3747.00    0.46281   0.46168   23.638
 3748.00    0.42016   0.43495   35.439
 3749.00    0.42752   0.42096  203.942
 3750.00    0.45704   0.43367   -1.000
 3751.00    0.51128   0.47452   -1.000
 3752.00    0.58186   0.53094   -1.000
 3753.00    0.63364   0.58745   -1.000
 3754.00    0.68422   0.62885   -1.000
 3755.00    0.69792   0.64372   -1.000
 3756.00    0.66481   0.62880   -1.000
 3757.00    0.60523   0.59439  193.565
 3758.00    0.57386   0.56179  187.942
 3759.00    0.58639   0.54891   -1.000
 3760.00    0.58565   0.55640   -1.000
 3761.00    0.59147   0.57166   -1.000
 3762.00    0.60793   0.58285   -1.000
 3763.00    0.61678   0.58721   -1.000
 3764.00    0.63895   0.58621   -1.000
 3765.00    0.64197   0.58013   -1.000
 3766.00    0.61185   0.56968   -1.000
 3767.00    0.58806   0.55631   -1.000
 3768.00    0.59539   0.54081   -1.000
 3769.00    0.59111   0.52608   -1.000
 3770.00    0.57500   0.51957   -1.000
 3771.00    0.58136   0.53130   -1.000
 3772.00    0.63115   0.56074   -1.000
 3773.00    0.67102   0.59450   -1.000
 3774.00    0.69736   0.61908   -1.000
 3775.00    0.69158   0.63228   -1.000
 3776.00    0.68741   0.64094   -1.000
 3777.00    0.69085   0.65298   -1.000
 3778.00    0.70155   0.67079   -1.000
 3779.00    0.72451   0.69103   -1.000
 3780.00    0.72273   0.70854  138.453
 3781.00    0.74019   0.71892  137.971
 3782.00    0.76448   0.72209   -1.000
 3783.00    0.75802   0.71886   -1.000
 3784.00    0.74567   0.70631   -1.000
 3785.00    0.71966   0.68282   -1.000
 3786.00    0.66355   0.65410  169.399
 3787.00    0.63629   0.62818  171.188
 3788.00    0.63072   0.61227   -1.000
 3789.00    0.61394   0.60873  167.281
 3790.00    0.60347   0.61257  167.262
 3791.00    0.61423   0.61474  171.367
 3792.00    0.62449   0.60722   -1.000
 3793.00    0.60378   0.58807   -1.000
 3794.00    0.57402   0.56150  190.663
 3795.00    0.56431   0.53220   -1.000
 3796.00    0.56204   0.50138   -1.000
 3797.00    0.54482   0.47263   -1.000
 3798.00    0.52788   0.46126   -1.000
 3799.00    0.54790   0.48206   -1.000
 3800.00    0.57187   0.53086   -1.000
 3801.00    0.61125   0.58817   -1.000
 3802.00    0.65533   0.63526  153.991
 3803.00    0.66930   0.66292  154.437
 3804.00    0.67768   0.67211  158.252
 3805.00    0.67311   0.66706  163.201
 3806.00    0.62268   0.65751   -1.000
 3807.00    0.60521   0.65706   -1.000
 3808.00    0.64303   0.67078   -1.000
 3809.00    0.68669   0.69097  153.860
 3810.00    0.69445   0.70354  159.040
 3811.00    0.69210   0.69763  168.275
 3812.00    0.67126   0.67301  178.640
 3813.00    0.62326   0.63926   -1.000
 3814.00    0.57241   0.60983   -1.000
 3815.00    0.55768   0.59713   -1.000
 3816.00    0.58444   0.60286   -1.000
 3817.00    0.59924   0.61390  190.942
 3818.00    0.60896   0.61290  203.238
 3819.00    0.60145   0.59521  207.480
 3820.00    0.55136   0.57617   -1.000
 3821.00    0.51765   0.57199   -1.000
 3822.00    0.56339   0.57882  203.866
 3823.00    0.58357   0.57830   49.566
 3824.00    0.53957   0.56116   23.045
 3825.00    0.48593   0.53724   23.253
 3826.00    0.47568   0.51928   22.970
 3827.00    0.47329   0.51061   22.593
 3828.00    0.48918   0.50832   22.486
 3829.00    0.50593   0.50675   23.076
 3830.00    0.50792   0.49957   24.461
 3831.00    0.45743   0.48191   25.956
 3832.00    0.41973   0.45397   26.190
 3833.00    0.42615   0.42240   25.424
 3834.00    0.42500   0.40010   24.581
 3835.00    0.43647   0.39472   24.483
 3836.00    0.44860   0.40288   25.052
 3837.00    0.43864   0.41660   25.223
 3838.00    0.42385   0.43190   24.332
 3839.00    0.42310   0.45157   36.603
 3840.00    0.44451   0.48134   -1.000
 3841.00    0.48123   0.52232   -1.000
 3842.00    0.55446   0.56825  179.010
 3843.00    0.61893   0.60905  177.167
 3844.00    0.62206   0.63620  177.166
 3845.00    0.61504   0.65119   -1.000
 3846.00    0.63234   0.66173   -1.000
 3847.00    0.63981   0.66941   -1.000
 3848.00    0.61649   0.66973   -1.000
 3849.00    0.59993   0.66394   -1.000
 3850.00    0.61220   0.66101   -1.000
 3851.00    0.62248   0.66811   -1.000
 3852.00    0.64591   0.68158   -1.000
 3853.00    0.66121   0.68949   -1.000
 3854.00    0.62736   0.68411   -1.000
 3855.00    0.59720   0.66913   -1.000
 3856.00    0.56595   0.65086   -1.000
 3857.00    0.54158   0.63097   22.188
 3858.00    0.53820   0.61165   22.795
 3859.00    0.51982   0.60149   35.349
 3860.00    0.50698   0.60975   -1.000
 3861.00    0.53420   0.63617   -1.000
 3862.00    0.60352   0.66878   -1.000
 3863.00    0.65627   0.69013   -1.000
 3864.00    0.67393   0.69435   -1.000
 3865.00    0.66894   0.69043   -1.000
 3866.00    0.64635   0.68740   -1.000
 3867.00    0.64008   0.68721   -1.000
 3868.00    0.61239   0.68564   -1.000
 3869.00    0.57257   0.67630   -1.000
 3870.00    0.53446   0.65761   -1.000
 3871.00    0.54194   0.63581   -1.000
 3872.00    0.56281   0.62135   -1.000
 3873.00    0.57518   0.62350   -1.000
 3874.00    0.62370   0.64071  170.786
 3875.00    0.65522   0.65619  180.054
 3876.00    0.64535   0.65329  194.195
 3877.00    0.59756   0.63410   -1.000
 3878.00    0.56591   0.61546   -1.000
 3879.00    0.57301   0.60915   -1.000
 3880.00    0.56644   0.61302   -1.000
 3881.00    0.54825   0.61722   -1.000
 3882.00    0.56107   0.61614   -1.000
 3883.00    0.59167   0.61040   -1.000
 3884.00    0.60562   0.59632  180.986
 3885.00    0.59684   0.56803   -1.000
 3886.00    0.55761   0.52880   -1.000
 3887.00    0.54624   0.49244   -1.000
 3888.00    0.56242   0.47465   -1.000
 3889.00    0.55606   0.48475   -1.000
 3890.00    0.58188   0.52082   -1.000
 3891.00    0.63742   0.56913   -1.000
 3892.00    0.67569   0.60861   -1.000
 3893.00    0.69779   0.62767   -1.000
 3894.00    0.69524   0.63376   -1.000
 3895.00    0.70085   0.64089   -1.000
 3896.00    0.73984   0.65408   -1.000
 3897.00    0.75722   0.66759   -1.000
 3898.00    0.76506   0.67526   -1.000
 3899.00    0.73764   0.67832   -1.000
 3900.00    0.72917   0.68260   -1.000
 3901.00    0.74915   0.68812   -1.000
 3902.00    0.73984   0.68900   -1.000
 3903.00    0.69872   0.68210  156.599
 3904.00    0.66367   0.67110  158.714
 3905.00    0.66785   0.66564  153.664
 3906.00    0.69442   0.67395   -1.000
 3907.00    0.72974   0.69724   -1.000
 3908.00    0.75659   0.72776   -1.000
 3909.00    0.77007   0.75343  133.453
 3910.00    0.79205   0.76907  132.389
 3911.00    0.81726   0.77740   -1.000
 3912.00    0.81309   0.78003   -1.000
 3913.00    0.79637   0.77592  137.772
 3914.00    0.78036   0.76641  140.371
 3915.00    0.76385   0.75646  142.170
 3916.00    0.77040   0.74855  145.066
 3917.00    0.78735   0.73924   -1.000
 3918.00    0.77388   0.72475   -1.000
 3919.00    0.74982   0.70627   -1.000
 3920.00    0.72788   0.68911   -1.000
 3921.00    0.68653   0.67984  161.807
 3922.00    0.68257   0.68118  160.678
 3923.00    0.70335   0.68746  164.968
 3924.00    0.68061   0.68799  176.636
 3925.00    0.64791   0.67498   -1.000
 3926.00    0.62228   0.64539   48.400
 3927.00    0.57418   0.60152   25.852
 3928.00    0.51919   0.54872   30.288
 3929.00    0.44241   0.49079   35.602
 3930.00    0.36016   0.42662   41.949
 3931.00    0.30406   0.35665   47.698
 3932.00    0.26251   0.29193   49.168
 3933.00    0.23730   0.25118   44.929
 3934.00    0.23729   0.25042   38.051
 3935.00    0.27446   0.29166   31.341
 3936.00    0.33386   0.36043   26.028
 3937.00    0.40091   0.43816   38.782
 3938.00    0.47613   0.51156   -1.000
 3939.00    0.53446   0.57100   -1.000
 3940.00    0.56496   0.61317   -1.000
 3941.00    0.59450   0.63802   -1.000
 3942.00    0.62106   0.64885   -1.000
 3943.00    0.61389   0.65430   -1.000
 3944.00    0.60980   0.66459   -1.000
 3945.00    0.65850   0.68349   -1.000
 3946.00    0.71452   0.70442  148.549
 3947.00    0.73939   0.71856   -1.000
 3948.00    0.75517   0.72601   -1.000
 3949.00    0.75445   0.73238   -1.000
 3950.00    0.76226   0.73823   -1.000
 3951.00    0.80046   0.74058   -1.000
 3952.00    0.80992   0.74203   -1.000
 3953.00    0.79302   0.74713   -1.000
 3954.00    0.78026   0.75186   -1.000
 3955.00    0.78773   0.74881   -1.000
 3956.00    0.79341   0.73892   -1.000
 3957.00    0.77656   0.73027   -1.000
 3958.00    0.76017   0.72498   -1.000
 3959.00    0.74815   0.71182   -1.000
 3960.00    0.72109   0.68020   -1.000
 3961.00    0.66162   0.63597   -1.000
 3962.00    0.61513   0.59276   44.837
 3963.00    0.57143   0.55568   24.388
 3964.00    0.49288   0.51551   29.236
 3965.00    0.41690   0.45833   35.978
 3966.00    0.34725   0.38362   42.172
 3967.00    0.29118   0.30911   43.019
 3968.00    0.27682   0.26033   37.626
 3969.00    0.28504   0.25415   30.932
 3970.00    0.30615   0.29148   25.641
 3971.00    0.35410   0.35817   38.817
 3972.00    0.45313   0.43475   -1.000
 3973.00    0.55307   0.50746   -1.000
 3974.00    0.60666   0.57146   -1.000
 3975.00    0.67938   0.62575   -1.000
 3976.00    0.74472   0.67220   -1.000
 3977.00    0.77014   0.71279   -1.000
 3978.00    0.80306   0.74851   -1.000
 3979.00    0.83505   0.77598   -1.000
 3980.00    0.85932   0.79019   -1.000
 3981.00    0.87146   0.79278   -1.000
 3982.00    0.86168   0.79171   -1.000
 3983.00    0.85901   0.79536   -1.000
 3984.00    0.86218   0.80675   -1.000
 3985.00    0.88711   0.82188   -1.000
 3986.00    0.91507   0.83700   -1.000
 3987.00    0.91695   0.85097   -1.000
 3988.00    0.91145   0.86142   -1.000
 3989.00    0.92382   0.86719   -1.000
 3990.00    0.94308   0.87183   -1.000
 3991.00    0.93475   0.87977   -1.000
 3992.00    0.93805   0.89024   -1.000
 3993.00    0.95126   0.89695   -1.000
 3994.00    0.92818   0.89343   -1.000
 3995.00    0.89321   0.87936  119.068
 3996.00    0.87187   0.86264  118.280
 3997.00    0.88952   0.85477   -1.000
 3998.00    0.91038   0.86157   -1.000
 3999.00    0.93411   0.87953   -1.000
 4000.00    0.95990   0.90033   -1.000
 4001.00    0.96917   0.91595   -1.000
 4002.00    0.99352   0.91990   -1.000
 4003.00    0.98689   0.90803   -1.000
 4004.00    0.94001   0.88278   -1.000
 4005.00    0.90783   0.85903   -1.000
 4006.00    0.89653   0.85570   -1.000
 4007.00    0.90238   0.87530  106.713
 4008.00    0.93807   0.90357   -1.000
 4009.00    0.97620   0.92558   -1.000
 4010.00    0.98312   0.93722   -1.000
 4011.00    0.99199   0.94165   -1.000
 4012.00    0.99695   0.94293   -1.000
 4013.00    0.97870   0.94432   -1.000
 4014.00    0.98903   0.94699   -1.000
 4015.00    1.01833   0.94958   -1.000
 4016.00    1.01502   0.95038   -1.000
 4017.00    0.99947   0.95114   -1.000
 4018.00    0.97331   0.95520  103.726
 4019.00    0.99378   0.96138   -1.000
 4020.00    1.02547   0.96552   -1.000
 4021.00    1.03024   0.96495   -1.000
 4022.00    1.02124   0.96104   -1.000
 4023.00    1.00557   0.95604   -1.000
 4024.00    1.00000   0.95289   -1.000
 4025.00    0.99999   0.95711   -1.000
 4026.00    1.01245   0.97076   -1.000
 4027.00    1.02935   0.98528   -1.000
 4028.00    1.04685   0.98452   -1.000
 4029.00    1.01785   0.96141   -1.000
 4030.00    0.96969   0.92515   -1.000
 4031.00    0.93692   0.89256   -1.000
 4032.00    0.90994   0.87593   -1.000
 4033.00    0.90758   0.87806  109.282
 4034.00    0.95144   0.89678   -1.000
 4035.00    1.01250   0.92822   -1.000
 4036.00    1.05581   0.96600   -1.000
 4037.00    1.07752   0.99882   -1.000
 4038.00    1.07203   1.01421   -1.000
 4039.00    1.06900   1.01058   -1.000
 4040.00    1.06310   0.99862   -1.000
 4041.00    1.04702   0.98706   -1.000
 4042.00    1.04546   0.97144   -1.000
 4043.00    1.01851   0.93936   -1.000
 4044.00    0.91350   0.89250  125.931
 4045.00    0.82885   0.85672   -1.000
 4046.00    0.86313   0.85654  107.527
 4047.00    0.96660   0.89181   -1.000
 4048.00    1.00863   0.94056   -1.000
 4049.00    1.00215   0.97905  100.542
 4050.00    1.04538   0.99745   -1.000
 4051.00    1.06858   0.99893   -1.000
 4052.00    1.01701   0.98919  107.260
 4053.00    0.98346   0.97438  108.507
 4054.00    0.97143   0.96124  109.293
 4055.00    0.96504   0.95158  110.235
 4056.00    0.97746   0.94418   -1.000
 4057.00    0.97838   0.94142   -1.000
 4058.00    0.96716   0.94847  104.382
 4059.00    0.97577   0.96405  104.252
 4060.00    1.00515   0.97395  108.964
 4061.00    1.01171   0.96119   -1.000
 4062.00    0.96906   0.92645   -1.000
 4063.00    0.91029   0.89138  115.904
 4064.00    0.89279   0.87671  111.572
 4065.00    0.91765   0.88415   -1.000
 4066.00    0.94815   0.90293   -1.000
 4067.00    0.96590   0.92334   -1.000
 4068.00    1.00788   0.93906   -1.000
 4069.00    1.05716   0.94251   -1.000
 4070.00    1.03619   0.92946   -1.000
 4071.00    0.97413   0.91012   -1.000
 4072.00    0.95501   0.90290   -1.000
 4073.00    0.95951   0.91144   -1.000
 4074.00    0.97633   0.91882   -1.000
 4075.00    0.98600   0.90869   -1.000
 4076.00    0.95514   0.88413   -1.000
 4077.00    0.90841   0.86427   -1.000
 4078.00    0.88979   0.86675  107.861
 4079.00    0.93267   0.89460   -1.000
 4080.00    1.00014   0.93282   -1.000
 4081.00    1.06659   0.95902   -1.000
 4082.00    1.07681   0.96220   -1.000
 4083.00    1.02292   0.94932   -1.000
 4084.00    0.98489   0.93733   -1.000
 4085.00    0.97834   0.93952   -1.000
 4086.00    1.01459   0.95727   -1.000
 4087.00    1.06896   0.98140   -1.000
 4088.00    1.07362   0.99939   -1.000
 4089.00    1.05216   1.00379   -1.000
 4090.00    1.04886   0.99634   -1.000
 4091.00    1.05583   0.98498   -1.000
 4092.00    1.04854   0.97463   -1.000
 4093.00    1.03063   0.96293   -1.000
 4094.00    1.01475   0.94588   -1.000
 4095.00    0.99318   0.92202   -1.000
 4096.00    0.97170   0.89521   -1.000
 4097.00    0.95672   0.86837   -1.000
 4098.00    0.94831   0.83633   -1.000
 4099.00    0.90792   0.79092   -1.000
 4100.00    0.81713   0.73590   -1.000
 4101.00    0.76272   0.69460   -1.000
 4102.00    0.78519   0.69112   -1.000
 4103.00    0.82763   0.73045   -1.000
 4104.00    0.88035   0.79298   -1.000
 4105.00    0.94323   0.85119   -1.000
 4106.00    0.99843   0.89042   -1.000
 4107.00    1.02695   0.91174   -1.000
 4108.00    1.01873   0.92040   -1.000
 4109.00    1.00568   0.92300   -1.000
 4110.00    0.99513   0.92673   -1.000
 4111.00    0.98381   0.93523   -1.000
 4112.00    0.99970   0.94871   -1.000
 4113.00    1.02200   0.96541   -1.000
 4114.00    1.03526   0.98225   -1.000
 4115.00    1.05346   0.99390   -1.000
 4116.00    1.05076   0.99523   -1.000
 4117.00    1.04426   0.98635   -1.000
 4118.00    1.03037   0.97324   -1.000
 4119.00    0.99682   0.96392  108.247
 4120.00    0.99175   0.96357  107.776
 4121.00    1.00354   0.96983  107.239
 4122.00    0.99689   0.97749  105.660
 4123.00    1.00141   0.98499  104.564
 4124.00    1.02051   0.99258  105.162
 4125.00    1.02197   0.99790  107.067
 4126.00    1.00848   0.99707  108.657
 4127.00    1.00210   0.99099  109.345
 4128.00    0.98369   0.98479  110.326
 4129.00    0.98047   0.97939  112.833
 4130.00    0.98715   0.96874  116.452
 4131.00    0.97133   0.95081  118.363
 4132.00    0.95546   0.93448  116.353
 4133.00    0.93931   0.93242  111.325
 4134.00    0.95418   0.94905  106.722
 4135.00    1.00429   0.97716  104.214
 4136.00    1.03116   1.00633  102.588
 4137.00    1.04601   1.02982  101.619
 4138.00    1.06311   1.04571  102.550
 4139.00    1.06066   1.05097  106.434
 4140.00    1.05477   1.03898  113.892
 4141.00    1.03115   1.00821  121.763
 4142.00    0.97510   0.96948  122.241
 4143.00    0.91814   0.94212   -1.000
 4144.00    0.91599   0.94186   -1.000
 4145.00    0.98891   0.96556  107.896
 4146.00    1.03812   0.99391   -1.000
 4147.00    1.03421   1.00986  111.167
 4148.00    1.04075   1.01205  113.389
 4149.00    1.02866   1.00983  113.567
 4150.00    1.00985   1.00950  112.791
 4151.00    1.01106   1.00915  113.057
 4152.00    1.00742   1.00407  114.585
 4153.00    0.98979   0.99395  113.902
 4154.00    0.95914   0.98477   -1.000
 4155.00    0.95530   0.98337   -1.000
 4156.00    0.97830   0.99154  110.369
 4157.00    1.05590   1.00601   -1.000
 4158.00    1.25488   1.02269   -1.000
 4159.00    1.24410   1.03782   -1.000
 4160.00    0.91422   1.04937   -1.000
 4161.00    0.84928   1.05776   -1.000
 4162.00    1.04088   1.06451   -1.000
 4163.00    1.08708   1.06941  107.217
 4164.00    1.05990   1.06921  109.259
 4165.00    1.04188   1.06076   -1.000
 4166.00    1.01124   1.04676   -1.000
 4167.00    0.99835   1.03576   -1.000
 4168.00    0.99969   1.03205   -1.000
 4169.00    1.01151   1.02957  113.940
 4170.00    1.02520   1.01706  120.969
 4171.00    1.00952   0.99096  124.549
 4172.00    0.95570   0.96322  122.091
 4173.00    0.90895   0.95144   -1.000
 4174.00    0.92022   0.96066   -1.000
 4175.00    0.95291   0.97985   -1.000
 4176.00    0.96410   0.99500   -1.000
 4177.00    0.96116   1.00463   -1.000
 4178.00    0.95313   1.01408   -1.000
 4179.00    0.95329   1.02371   -1.000
 4180.00    0.97758   1.02793   -1.000
 4181.00    1.00430   1.02416   -1.000
 4182.00    0.99729   1.02060   -1.000
 4183.00    0.99709   1.02529   -1.000
 4184.00    1.01280   1.03261  109.720
 4185.00    1.01105   1.03125   -1.000
 4186.00    1.00017   1.01911  114.102
 4187.00    0.98637   1.00627  112.122
 4188.00    0.96932   1.00360   -1.000
 4189.00    0.98272   1.01098   -1.000
 4190.00    1.01311   1.02153  107.497
 4191.00    1.02016   1.03211  105.647
 4192.00    1.02858   1.04256  106.724
 4193.00    1.03245   1.04954  111.327
 4194.00    1.02002   1.04571   -1.000
 4195.00    0.99917   1.02736   -1.000
 4196.00    0.97856   1.00112   -1.000
 4197.00    0.97265   0.97785  119.261
 4198.00    0.96876   0.96309  117.574
 4199.00    0.96480   0.95676  116.548
 4200.00    0.96034   0.95765  116.021
 4201.00    0.95685   0.96295  114.648
 4202.00    0.96625   0.97135  113.370
 4203.00    0.97507   0.98560  111.787
 4204.00    0.98678   1.00547  109.220
 4205.00    1.02719   1.02590  106.815
 4206.00    1.06986   1.04347  105.618
 4207.00    1.07290   1.05653  105.668
 4208.00    1.06971   1.06301  105.755
 4209.00    1.05928   1.06354  105.219
 4210.00    1.02843   1.06329   -1.000
 4211.00    1.02022   1.06659   -1.000
 4212.00    1.03753   1.06899   -1.000
 4213.00    1.02567   1.05986   -1.000
 4214.00    0.98716   1.03878   -1.000
 4215.00    0.97140   1.01894   -1.000
 4216.00    0.99155   1.01381  103.121
 4217.00    1.00957   1.02834   99.559
 4218.00    1.04452   1.05363   97.783
 4219.00    1.07049   1.07578   97.857
 4220.00    1.09220   1.08632  100.550
 4221.00    1.10973   1.08089  106.401
 4222.00    1.09494   1.05552   -1.000
 4223.00    1.05762   1.00822   -1.000
 4224.00    0.97078   0.94491   -1.000
 4225.00    0.87274   0.88401  142.752
 4226.00    0.80440   0.85146   -1.000
 4227.00    0.82377   0.86721   -1.000
 4228.00    0.92218   0.92576  104.178
 4229.00    1.00387   0.99448  101.480
 4230.00    1.04223   1.04050  102.527
 4231.00    1.07089   1.05484  105.135
 4232.00    1.05740   1.04824  106.927
 4233.00    1.03007   1.03331  108.781
 4234.00    1.02650   1.01835  111.049
 4235.00    1.01015   1.00853  111.415
 4236.00    0.99058   1.00497  109.484
 4237.00    0.98495   1.00848  107.465
 4238.00    0.98179   1.01986   -1.000
 4239.00    1.00223   1.03606   -1.000
 4240.00    1.04416   1.05339  103.105
 4241.00    1.05735   1.06906  101.901
 4242.00    1.05767   1.08147   99.880
 4243.00    1.08082   1.09059   99.576
 4244.00    1.09994   1.09513  102.733
 4245.00    1.09327   1.08951  107.110
 4246.00    1.07818   1.06880  110.402
 4247.00    1.03868   1.03909  112.144
 4248.00    0.99495   1.01355  112.460
 4249.00    0.97885   1.00163  110.468
 4250.00    0.97073   1.00552   -1.000
 4251.00    1.00526   1.01920  106.335
 4252.00    1.04096   1.03056  108.365
 4253.00    1.02930   1.03112  108.833
 4254.00    1.02473   1.02663  105.620
 4255.00    1.01334   1.03089  103.330
 4256.00    1.04091   1.04555  105.337
 4257.00    1.08752   1.05407   -1.000
 4258.00    1.05502   1.04158  114.880
 4259.00    0.99267   1.01575  113.472
 4260.00    0.94573   1.00103   -1.000
 4261.00    0.95717   1.01373   -1.000
 4262.00    1.02849   1.04812   98.199
 4263.00    1.08402   1.08457   97.160
 4264.00    1.10085   1.10745   98.036
 4265.00    1.08772   1.11283  100.657
 4266.00    1.09180   1.10578  103.884
 4267.00    1.07924   1.08967  107.530
 4268.00    1.06002   1.06351  113.418
 4269.00    1.02425   1.02740  120.735
 4270.00    0.97203   0.98720  124.562
 4271.00    0.91658   0.95419   -1.000
 4272.00    0.90351   0.93881   -1.000
 4273.00    0.93237   0.94393  115.771
 4274.00    0.93546   0.96498   -1.000
 4275.00    0.95771   0.99723   -1.000
 4276.00    1.03330   1.03659  101.200
 4277.00    1.10221   1.07081   -1.000
 4278.00    1.10334   1.08458  108.111
 4279.00    1.04200   1.07574   -1.000
 4280.00    1.00810   1.05779   -1.000
 4281.00    1.02034   1.04707  107.639
 4282.00    1.03538   1.04728  108.078
 4283.00    1.03616   1.04882  110.600
 4284.00    1.00921   1.04391   -1.000
 4285.00    0.98578   1.03257   -1.000
 4286.00    0.98735   1.01689   -1.000
 4287.00    0.97312   0.99675  124.519
 4288.00    0.94181   0.97106   -1.000
 4289.00    0.90143   0.94625   -1.000
 4290.00    0.88870   0.93791   -1.000
 4291.00    0.90622   0.95303   -1.000
 4292.00    0.96737   0.98010  111.481
 4293.00    1.02114   1.00012  113.070
 4294.00    1.01502   1.00294  115.389
 4295.00    0.98586   0.99205  119.949
 4296.00    0.95094   0.97096  128.672
 4297.00    0.90867   0.93840   -1.000
 4298.00    0.86471   0.89735   -1.000
 4299.00    0.80369   0.85891   -1.000
 4300.00    0.78187   0.83497   -1.000
 4301.00    0.80132   0.82939   -1.000
 4302.00    0.81149   0.83707  135.168
 4303.00    0.81263   0.85003   -1.000
 4304.00    0.82581   0.86055   -1.000
 4305.00    0.83038   0.86032   -1.000
 4306.00    0.80943   0.84608   -1.000
 4307.00    0.78588   0.82516   -1.000
 4308.00    0.76132   0.81142   -1.000
 4309.00    0.76380   0.81632   -1.000
 4310.00    0.80406   0.83980   -1.000
 4311.00    0.83344   0.87350   -1.000
 4312.00    0.85592   0.91145   -1.000
 4313.00    0.91204   0.95549   -1.000
 4314.00    0.97503   1.00918   -1.000
 4315.00    1.06124   1.07052   92.620
 4316.00    1.13892   1.12880   91.419
 4317.00    1.15974   1.16871   92.361
 4318.00    1.18290   1.18284   94.242
 4319.00    1.18619   1.17643   97.045
 4320.00    1.16932   1.15680  101.275
 4321.00    1.14196   1.12411  107.825
 4322.00    1.08809   1.07648  116.938
 4323.00    1.00467   1.01987  124.036
 4324.00    0.91506   0.97172   -1.000
 4325.00    0.87418   0.95439   -1.000
 4326.00    0.91584   0.97904   -1.000
 4327.00    1.01924   1.03347   96.243
 4328.00    1.10628   1.08862   95.904
 4329.00    1.13414   1.12223   95.782
 4330.00    1.14369   1.13355   94.505
 4331.00    1.15223   1.13602   93.247
 4332.00    1.14369   1.13942   92.777
 4333.00    1.14975   1.14138   93.702
 4334.00    1.15117   1.13302   98.056
 4335.00    1.12803   1.10503  106.471
 4336.00    1.09646   1.05153   -1.000
 4337.00    1.02695   0.97514   -1.000
 4338.00    0.93842   0.89269   -1.000
 4339.00    0.86321   0.83051   -1.000
 4340.00    0.82364   0.81058  115.701
 4341.00    0.87047   0.84092  106.946
 4342.00    0.94957   0.90775   -1.000
 4343.00    1.00179   0.98083   99.588
 4344.00    1.05042   1.03802   97.528
 4345.00    1.08518   1.07750   96.292
 4346.00    1.11913   1.10627   94.929
 4347.00    1.15737   1.12922   94.492
 4348.00    1.16647   1.14271   97.880
 4349.00    1.13434   1.13655  104.666
 4350.00    1.08266   1.10770   -1.000
 4351.00    1.04158   1.07174   -1.000
 4352.00    1.01517   1.05326   -1.000
 4353.00    1.02921   1.06503   -1.000
 4354.00    1.07219   1.09768   95.345
 4355.00    1.10391   1.13023   94.658
 4356.00    1.12540   1.15012   96.027
 4357.00    1.12128   1.15697   -1.000
 4358.00    1.11815   1.15582   -1.000
 4359.00    1.12620   1.15507   -1.000
 4360.00    1.13810   1.16274   92.431
 4361.00    1.16960   1.17858   91.866
 4362.00    1.18936   1.19551   91.082
 4363.00    1.18859   1.20829   90.637
 4364.00    1.19434   1.21494   92.405
 4365.00    1.19667   1.21183   95.689
 4366.00    1.17614   1.19698   97.665
 4367.00    1.14783   1.17689   -1.000
 4368.00    1.12423   1.16107   -1.000
 4369.00    1.13642   1.15212   96.336
 4370.00    1.14565   1.14629   96.931
 4371.00    1.14178   1.13777   99.824
 4372.00    1.12798   1.12195  103.941
 4373.00    1.10941   1.09943  105.477
 4374.00    1.06114   1.07892  102.566
 4375.00    1.02346   1.07520   -1.000
 4376.00    1.05304   1.09501   -1.000
 4377.00    1.10917   1.12743   94.567
 4378.00    1.14601   1.15271   95.908
 4379.00    1.16150   1.15711   99.442
 4380.00    1.15216   1.13592  108.177
 4381.00    1.11729   1.08914  120.599
 4382.00    1.02630   1.02668  126.365
 4383.00    0.94023   0.97424   -1.000
 4384.00    0.91691   0.96053   -1.000
 4385.00    0.96239   0.99111   -1.000
 4386.00    1.01561   1.04179   -1.000
 4387.00    1.07249   1.08157  101.354
 4388.00    1.11130   1.09921  101.982
 4389.00    1.10875   1.10350  100.786
 4390.00    1.11923   1.10690   98.563
 4391.00    1.12291   1.11517   98.198
 4392.00    1.13287   1.12517   99.926
 4393.00    1.11986   1.12964  100.510
 4394.00    1.09790   1.12880   -1.000
 4395.00    1.09320   1.13350   -1.000
 4396.00    1.12636   1.14923   93.701
 4397.00    1.17215   1.16515   96.519
 4398.00    1.16572   1.16733   99.709
 4399.00    1.14141   1.15540   99.953
 4400.00    1.12492   1.14110   98.257
 4401.00    1.11675   1.13241   99.840
 4402.00    1.11439   1.12422  105.025
 4403.00    1.09238   1.10776  107.813
 4404.00    1.03797   1.08628   -1.000
 4405.00    1.03261   1.07502   -1.000
 4406.00    1.05503   1.08243   -1.000
 4407.00    1.07411   1.10177   -1.000
 4408.00    1.09660   1.12510   -1.000
 4409.00    1.14416   1.15463   91.564
 4410.00    1.17575   1.18986   89.809
 4411.00    1.18503   1.21711   -1.000
 4412.00    1.20870   1.22131   95.455
 4413.00    1.18515   1.20034   99.720
 4414.00    1.13526   1.16542   -1.000
 4415.00    1.10428   1.13647   -1.000
 4416.00    1.07934   1.13295   -1.000
 4417.00    1.10854   1.15720   -1.000
 4418.00    1.17942   1.19416   90.361
 4419.00    1.20970   1.22484   92.196
 4420.00    1.20170   1.23649   -1.000
 4421.00    1.20424   1.22948   -1.000
 4422.00    1.16455   1.21593   -1.000
 4423.00    1.14622   1.20716   -1.000
 4424.00    1.15706   1.20434   -1.000
 4425.00    1.15063   1.20247   -1.000
 4426.00    1.14323   1.20047   -1.000
 4427.00    1.15124   1.20236   -1.000
 4428.00    1.17949   1.20824   -1.000
 4429.00    1.19187   1.21449   93.993
 4430.00    1.18730   1.21888   -1.000
 4431.00    1.18512   1.22029   -1.000
 4432.00    1.18362   1.21463   -1.000
 4433.00    1.15870   1.19717   -1.000
 4434.00    1.11548   1.17373   -1.000
 4435.00    1.09990   1.16268   -1.000
 4436.00    1.13679   1.17918   -1.000
 4437.00    1.18065   1.21769   -1.000
 4438.00    1.23210   1.25494   89.445
 4439.00    1.25353   1.26956   93.347
 4440.00    1.21981   1.25516   -1.000
 4441.00    1.17733   1.22334   -1.000
 4442.00    1.15358   1.19571   -1.000
 4443.00    1.15617   1.19057   -1.000
 4444.00    1.16742   1.21029   -1.000
 4445.00    1.18573   1.24125   -1.000
 4446.00    1.21216   1.26605   -1.000
 4447.00    1.24386   1.27722   -1.000
 4448.00    1.25835   1.27946   91.433
 4449.00    1.25584   1.27870   91.257
 4450.00    1.25133   1.27543   -1.000
 4451.00    1.23322   1.26755   -1.000
 4452.00    1.21283   1.25167   -1.000
 4453.00    1.19075   1.22429   -1.000
 4454.00    1.15561   1.19095   -1.000
 4455.00    1.12207   1.16697   -1.000
 4456.00    1.12991   1.16254   -1.000
 4457.00    1.15719   1.17233   98.415
 4458.00    1.15275   1.18315   -1.000
 4459.00    1.15480   1.18817   -1.000
 4460.00    1.14571   1.19018   -1.000
 4461.00    1.14079   1.19531   -1.000
 4462.00    1.16033   1.20804   -1.000
 4463.00    1.18238   1.22736   -1.000
 4464.00    1.19035   1.24547   -1.000
 4465.00    1.20602   1.25440   -1.000
 4466.00    1.22082   1.25219   -1.000
 4467.00    1.19758   1.24309   -1.000
 4468.00    1.19321   1.23436   -1.000
 4469.00    1.18974   1.23366   -1.000
 4470.00    1.20007   1.24645   -1.000
 4471.00    1.23654   1.27179   -1.000
 4472.00    1.28366   1.30071   85.328
 4473.00    1.29838   1.32293   -1.000
 4474.00    1.31555   1.33390   84.801
 4475.00    1.31762   1.33769   84.203
 4476.00    1.31461   1.34004   84.569
 4477.00    1.32614   1.33996   86.971
 4478.00    1.30968   1.32966   90.763
 4479.00    1.28342   1.30445   93.861
 4480.00    1.24485   1.27239   -1.000
 4481.00    1.19190   1.25108   -1.000
 4482.00    1.20593   1.25317   -1.000
 4483.00    1.26315   1.27837   84.854
 4484.00    1.31101   1.31400   84.396
 4485.00    1.33177   1.34245   85.793
 4486.00    1.34338   1.35169   88.715
 4487.00    1.30975   1.34087   -1.000
 4488.00    1.26451   1.31936   -1.000
 4489.00    1.25000   1.30140   -1.000
 4490.00    1.24341   1.29833   -1.000
 4491.00    1.27782   1.30891   -1.000
 4492.00    1.31031   1.31903   90.169
 4493.00    1.29185   1.31598   -1.000
 4494.00    1.26692   1.30245   -1.000
 4495.00    1.24476   1.29259   -1.000
 4496.00    1.26852   1.29564   -1.000
 4497.00    1.29481   1.30912   85.616
 4498.00    1.30166   1.32379   86.077
 4499.00    1.30491   1.33187   -1.000
 4500.00    1.29619   1.33294   -1.000
 4501.00    1.27653   1.33596   -1.000
 4502.00    1.28530   1.34944   -1.000
 4503.00    1.33116   1.37146   -1.000
 4504.00    1.37108   1.39204   81.971
 4505.00    1.39013   1.40198   83.076
 4506.00    1.36119   1.40008   -1.000
 4507.00    1.33742   1.39263   -1.000
 4508.00    1.34870   1.38759   -1.000
 4509.00    1.35147   1.38746   -1.000
 4510.00    1.36563   1.38851   83.990
 4511.00    1.36655   1.38499   85.567
 4512.00    1.31533   1.37532   -1.000
 4513.00    1.30783   1.36377   -1.000
 4514.00    1.33083   1.35487   86.050
 4515.00    1.32636   1.35012   86.771
 4516.00    1.31216   1.34773   -1.000
 4517.00    1.28915   1.34476   -1.000
 4518.00    1.29442   1.34199   -1.000
 4519.00    1.32689   1.34391   84.554
 4520.00    1.34823   1.35035   86.071
 4521.00    1.35283   1.35415   87.952
 4522.00    1.32848   1.34902   89.012
 4523.00    1.28614   1.33576   -1.000
 4524.00    1.29394   1.31983   -1.000
 4525.00    1.30892   1.30267   95.392
 4526.00    1.26965   1.28158   97.003
 4527.00    1.21617   1.25750   -1.000
 4528.00    1.18464   1.23831   -1.000
 4529.00    1.18148   1.23278   -1.000
 4530.00    1.19061   1.24032   -1.000
 4531.00    1.22330   1.25169   -1.000
 4532.00    1.23197   1.25489   -1.000
 4533.00    1.22584   1.24575   97.720
 4534.00    1.24296   1.23425   93.282
 4535.00    1.23949   1.23712   87.741
 4536.00    1.25946   1.26365   84.548
 4537.00    1.31006   1.30571   84.492
 4538.00    1.33381   1.34412   86.236
 4539.00    1.34290   1.36383   86.821
 4540.00    1.33805   1.36572   -1.000
 4541.00    1.33731   1.36116   -1.000
 4542.00    1.33365   1.35870   -1.000
 4543.00    1.32007   1.35756   -2.000
 4544.00    1.31001   1.35258   -2.000
 4545.00    1.34498   1.34320   -2.000
 4546.00    1.13129   1.33301   -1.000
 4547.00    0.35015   1.32186   -1.000
 4548.00   -0.02660   1.30781    0.000
 4549.00    0.15986   1.29580   -1.000
 4550.00    0.63661   1.29480   -1.000
 4551.00    0.44920   1.30522   -1.000
 4552.00    0.90936   1.31471   -1.000
 4553.00    1.27755   1.31379   -1.000
 4554.00    1.27276   1.30755   -1.000
 4555.00    1.26435   1.30839   -1.000
 4556.00    1.29893   1.32473   82.842
 4557.00    1.33604   1.35295   82.777
 4558.00    1.37908   1.38056   82.912
 4559.00    1.40004   1.39888   82.909
 4560.00    1.40670   1.40699   84.283
 4561.00    1.40388   1.40569   86.390
 4562.00    1.37828   1.39516   88.073
 4563.00    1.34428   1.37813   -1.000
 4564.00    1.31463   1.36253   -1.000
 4565.00    1.30074   1.35814   -1.000
 4566.00    1.32041   1.36866   -1.000
 4567.00    1.37293   1.38744   82.805
 4568.00    1.40255   1.40131   84.597
 4569.00    1.37894   1.40085   86.830
 4570.00    1.34792   1.38688   -1.000
 4571.00    1.33099   1.36984   -1.000
 4572.00    1.33038   1.36313   -1.000
 4573.00    1.33829   1.37279   -1.000
 4574.00    1.35682   1.39043   -1.000
 4575.00    1.37516   1.40288   -1.000
 4576.00    1.37134   1.40499   -1.000
 4577.00    1.35049   1.39799   -1.000
 4578.00    1.32496   1.38301   -1.000
 4579.00    1.31783   1.36192   -1.000
 4580.00    1.30718   1.34113   -1.000
 4581.00    1.29650   1.32852   -1.000
 4582.00    1.31032   1.32706   87.736
 4583.00    1.31496   1.33226   88.225
 4584.00    1.29262   1.33757   -1.000
 4585.00    1.28722   1.34137   -1.000
 4586.00    1.30986   1.34810   -1.000
 4587.00    1.34610   1.36166   82.935
 4588.00    1.39509   1.37909   83.800
 4589.00    1.39597   1.39184   85.297
 4590.00    1.36996   1.39384   86.829
 4591.00    1.35773   1.38541   -1.000
 4592.00    1.33299   1.37260   -1.000
 4593.00    1.30373   1.36421   -1.000
 4594.00    1.31436   1.36402   -1.000
 4595.00    1.35186   1.36885   85.524
 4596.00    1.35506   1.37524   85.336
 4597.00    1.35650   1.38102   -1.000
 4598.00    1.36435   1.38355   86.610
 4599.00    1.33225   1.38105   -1.000
 4600.00    1.31038   1.37475   -1.000
 4601.00    1.31770   1.36872   -1.000
 4602.00    1.32314   1.36703   -1.000
 4603.00    1.32329   1.37021   -1.000
 4604.00    1.31558   1.37615   -1.000
 4605.00    1.35038   1.38319   -1.000
 4606.00    1.39042   1.39204   81.247
 4607.00    1.39420   1.40476   80.071
 4608.00    1.41748   1.42056   80.084
 4609.00    1.44124   1.43466   81.007
 4610.00    1.44080   1.44000   81.983
 4611.00    1.42252   1.43467   82.614
 4612.00    1.40317   1.42539   82.456
 4613.00    1.37197   1.41896   -1.000
 4614.00    1.36006   1.41823   -1.000
 4615.00    1.37495   1.42135   -1.000
 4616.00    1.38850   1.42396   -1.000
 4617.00    1.39439   1.42384   82.382
 4618.00    1.37026   1.42223   -1.000
 4619.00    1.36456   1.42251   -1.000
 4620.00    1.37516   1.42774   -1.000
 4621.00    1.40668   1.43668   80.385
 4622.00    1.42088   1.44358   80.558
 4623.00    1.43726   1.44414   81.144
 4624.00    1.42201   1.43978   81.501
 4625.00    1.40847   1.43479   81.512
 4626.00    1.41866   1.43147   81.884
 4627.00    1.43008   1.43098   82.165
 4628.00    1.40092   1.43244   -1.000
 4629.00    1.37894   1.43438   -1.000
 4630.00    1.38239   1.43684   -1.000
 4631.00    1.41295   1.43990   82.084
 4632.00    1.42231   1.44073   83.085
 4633.00    1.39757   1.43674   -1.000
 4634.00    1.38363   1.42988   -1.000
 4635.00    1.39859   1.42344   84.740
 4636.00    1.39694   1.41732   85.301
 4637.00    1.38982   1.41048   85.290
 4638.00    1.36260   1.40486   -1.000
 4639.00    1.35422   1.40428   -1.000
 4640.00    1.39320   1.41160   80.878
 4641.00    1.43269   1.42486   80.846
 4642.00    1.43870   1.43702   82.073
 4643.00    1.44291   1.44036   84.207
 4644.00    1.42592   1.43143   86.570
 4645.00    1.39216   1.41306   -1.000
 4646.00    1.35815   1.39150   -1.000
 4647.00    1.35603   1.37714   84.440
 4648.00    1.37472   1.37856   83.065
 4649.00    1.37460   1.39410   82.678
 4650.00    1.38373   1.41375   -1.000
 4651.00    1.40228   1.42728   83.215
 4652.00    1.40851   1.43051   84.930
 4653.00    1.38608   1.42493   -1.000
 4654.00    1.35889   1.41449   -1.000
 4655.00    1.35299   1.40637   -1.000
 4656.00    1.36588   1.40840   -1.000
 4657.00    1.39994   1.42441   78.348
 4658.00    1.43410   1.45116   77.862
 4659.00    1.46334   1.47804   78.593
 4660.00    1.46478   1.49256   -1.000
 4661.00    1.45374   1.49002   -1.000
 4662.00    1.44890   1.47552   -1.000
 4663.00    1.41975   1.45667   -1.000
 4664.00    1.40837   1.43651   -1.000
 4665.00    1.38010   1.41287   -1.000
 4666.00    1.32663   1.38461   -1.000
 4667.00    1.30351   1.35857   -1.000
 4668.00    1.28770   1.34814   -1.000
 4669.00    1.28971   1.36035   -1.000
 4670.00    1.34574   1.38715   -1.000
 4671.00    1.40694   1.41362   82.044
 4672.00    1.43932   1.43012   82.004
 4673.00    1.41461   1.43741   81.172
 4674.00    1.40736   1.44268   -1.000
 4675.00    1.44384   1.45052   79.972
 4676.00    1.45015   1.45738   81.410
 4677.00    1.44493   1.45512   83.088
 4678.00    1.39875   1.44157   -1.000
 4679.00    1.37222   1.42287   -1.000
 4680.00    1.36513   1.40692   -1.000
 4681.00    1.38044   1.39930   82.947
 4682.00    1.39946   1.40209   81.596
 4683.00    1.43771   1.41334   81.563
 4684.00    1.44392   1.42679   81.677
 4685.00    1.45349   1.43610   82.035
 4686.00    1.43078   1.43940   82.160
 4687.00    1.41158   1.43873   -1.000
 4688.00    1.43679   1.43672   82.612
 4689.00    1.42406   1.43489   82.896
 4690.00    1.41212   1.43342   82.179
 4691.00    1.39827   1.43274   -1.000
 4692.00    1.41087   1.43537   79.322
 4693.00    1.42512   1.44254   78.118
 4694.00    1.42930   1.45143   78.186
 4695.00    1.45553   1.45792   80.017
 4696.00    1.47542   1.45846   82.449
 4697.00    1.42671   1.44981   83.780
 4698.00    1.40254   1.43329   -1.000
 4699.00    1.38719   1.41551   -1.000
 4700.00    1.36568   1.40118   -1.000
 4701.00    1.37001   1.38988   85.778
 4702.00    1.35775   1.38087   84.612
 4703.00    1.34381   1.37812   -1.000
 4704.00    1.36764   1.38492   83.848
 4705.00    1.38771   1.39610   85.456
 4706.00    1.39363   1.40128   86.502
 4707.00    1.37663   1.39679   86.333
 4708.00    1.36550   1.38980   84.243
 4709.00    1.37070   1.39056   81.857
 4710.00    1.38877   1.40212   80.718
 4711.00    1.41682   1.41872   81.147
 4712.00    1.43488   1.43137   82.538
 4713.00    1.43530   1.43391   82.915
 4714.00    1.41001   1.43025   81.615
 4715.00    1.38961   1.43103   -1.000
 4716.00    1.41293   1.44182   -1.000
 4717.00    1.44459   1.45935   78.962
 4718.00    1.46205   1.47584   78.692
 4719.00    1.47933   1.48657   79.148
 4720.00    1.47049   1.49067   79.753
 4721.00    1.43578   1.48971   -1.000
 4722.00    1.42633   1.48709   -1.000
 4723.00    1.45209   1.48691   -1.000
 4724.00    1.46326   1.48911   80.136
 4725.00    1.45129   1.48751   -1.000
 4726.00    1.43738   1.47595   -1.000
 4727.00    1.42257   1.45438   -1.000
 4728.00    1.40066   1.43141   -1.000
 4729.00    1.37186   1.41802   -1.000
 4730.00    1.38224   1.41692   -1.000
 4731.00    1.39934   1.42391   82.100
 4732.00    1.44482   1.43495   81.583
 4733.00    1.45832   1.44620   81.130
 4734.00    1.45287   1.45349   81.707
 4735.00    1.43060   1.45509   82.007
 4736.00    1.44863   1.45316   81.186
 4737.00    1.44614   1.45215   80.962
 4738.00    1.45533   1.45549   81.356
 4739.00    1.47081   1.46196   81.551
 4740.00    1.45263   1.46684   81.057
 4741.00    1.45455   1.46905   80.209
 4742.00    1.48738   1.47221   80.139
 4743.00    1.49824   1.47759   80.247
 4744.00    1.49438   1.48324   79.790
 4745.00    1.49041   1.48832   79.016
 4746.00    1.47225   1.49392   78.708
 4747.00    1.48275   1.50146   78.776
 4748.00    1.52200   1.50980   78.847
 4749.00    1.51069   1.51593   79.307
 4750.00    1.49490   1.51906   80.148
 4751.00    1.48371   1.51840   -1.000
 4752.00    1.46405   1.51242   -1.000
 4753.00    1.43054   1.50184   -1.000
 4754.00    1.41809   1.49121   -1.000
 4755.00    1.42068   1.48550   -1.000
 4756.00    1.42693   1.48606   -1.000
 4757.00    1.43068   1.49110   -1.000
 4758.00    1.44177   1.49778   -1.000
 4759.00    1.44626   1.50301   -1.000
 4760.00    1.44868   1.50265   -1.000
 4761.00    1.44128   1.49312   -1.000
 4762.00    1.42370   1.47546   -1.000
 4763.00    1.39388   1.45625   -1.000
 4764.00    1.38859   1.44294   -1.000
 4765.00    1.39274   1.43776   -1.000
 4766.00    1.37503   1.44064   -1.000
 4767.00    1.38844   1.45213   -1.000
 4768.00    1.43212   1.47134   -1.000
 4769.00    1.45539   1.49206   -1.000
 4770.00    1.45993   1.50545   -1.000
 4771.00    1.47853   1.50815   81.970
 4772.00    1.47885   1.50623   80.354
 4773.00    1.46023   1.50858   -1.000
 4774.00    1.47126   1.51812   -1.000
 4775.00    1.48505   1.52900   -1.000
 4776.00    1.48382   1.53517   -1.000
 4777.00    1.46983   1.53593   -1.000
 4778.00    1.48499   1.53288   -1.000
 4779.00    1.49439   1.52715   81.832
 4780.00    1.48541   1.52017   82.189
 4781.00    1.48483   1.51359   82.803
 4782.00    1.48320   1.50722   82.918
 4783.00    1.48909   1.50077   83.123
 4784.00    1.47863   1.49522   83.845
 4785.00    1.45527   1.49055   -1.000
 4786.00    1.41665   1.48582   -1.000
 4787.00    1.41562   1.48192   -1.000
 4788.00    1.42717   1.48137   -1.000
 4789.00    1.44013   1.48525   -1.000
 4790.00    1.45227   1.49388   -1.000
 4791.00    1.45585   1.50756   -1.000
 4792.00    1.48544   1.52526   -1.000
 4793.00    1.49853   1.54466   -1.000
 4794.00    1.51542   1.56261   -1.000
 4795.00    1.53658   1.57416   -1.000
 4796.00    1.55330   1.57487   81.378
 4797.00    1.51392   1.56466   -1.000
 4798.00    1.48404   1.54826   -1.000
 4799.00    1.46808   1.53419   -1.000
 4800.00    1.47573   1.53073   -1.000
 4801.00    1.50350   1.53959   -1.000
 4802.00    1.49083   1.55381   -1.000
 4803.00    1.48689   1.56237   -1.000
 4804.00    1.48748   1.55915   -1.000
 4805.00    1.50422   1.54837   -1.000
 4806.00    1.50174   1.53797   -1.000
 4807.00    1.48928   1.53240   -1.000
 4808.00    1.48478   1.53254   -1.000
 4809.00    1.48447   1.53761   -1.000
 4810.00    1.49160   1.54494   -1.000
 4811.00    1.51783   1.55162   -1.000
 4812.00    1.51013   1.55650   -1.000
 4813.00    1.50820   1.56047   -1.000
 4814.00    1.53211   1.56526   78.755
 4815.00    1.53153   1.57215   -1.000
 4816.00    1.53402   1.58085   -1.000
 4817.00    1.54421   1.58891   -1.000
 4818.00    1.53106   1.59361   -1.000
 4819.00    1.52799   1.59436   -1.000
 4820.00    1.53851   1.59152   -1.000
 4821.00    1.52160   1.58272   -1.000
 4822.00    1.50352   1.56571   -1.000
 4823.00    1.49540   1.54478   -1.000
 4824.00    1.49160   1.53050   -1.000
 4825.00    1.50953   1.53066   79.540
 4826.00    1.51546   1.54126   80.386
 4827.00    1.51104   1.55100   -1.000
 4828.00    1.50901   1.55306   -1.000
 4829.00    1.49892   1.54896   -1.000
 4830.00    1.49593   1.54297   -1.000
 4831.00    1.49166   1.53633   -1.000
 4832.00    1.48273   1.53089   -1.000
 4833.00    1.50168   1.53098   79.300
 4834.00    1.51866   1.53761   79.359
 4835.00    1.51655   1.54691   79.697
 4836.00    1.52968   1.55277   80.657
 4837.00    1.54700   1.55227   82.051
 4838.00    1.50082   1.54602   -1.000
 4839.00    1.46268   1.53592   -1.000
 4840.00    1.46206   1.52597   -1.000
 4841.00    1.48228   1.52012   -1.000
 4842.00    1.49001   1.51894   80.497
 4843.00    1.46884   1.52106   -1.000
 4844.00    1.49193   1.52682   78.742
 4845.00    1.53037   1.53640   79.975
 4846.00    1.53840   1.54503   81.277
 4847.00    1.51951   1.54541   81.493
 4848.00    1.50380   1.53799   -1.000
 4849.00    1.47245   1.53120   -1.000
 4850.00    1.47249   1.53006   -1.000
 4851.00    1.47500   1.53105   -1.000
 4852.00    1.48963   1.52759   -1.000
 4853.00    1.47078   1.51482   -1.000
 4854.00    1.44295   1.49119   -1.000
 4855.00    1.41464   1.46225   -1.000
 4856.00    1.40754   1.43750   -1.000
 4857.00    1.38898   1.41652   -1.000
 4858.00    1.34418   1.38211   -1.000
 4859.00    1.27384   1.31382   -1.000
 4860.00    1.14985   1.21865   -1.000
 4861.00    1.06594   1.14073   -1.000
 4862.00    1.08762   1.12542   -1.000
 4863.00    1.18663   1.18128   86.944
 4864.00    1.28761   1.27151   84.896
 4865.00    1.34817   1.35408   83.946
 4866.00    1.38115   1.41164   -1.000
 4867.00    1.41976   1.44758   84.051
 4868.00    1.45198   1.46723   86.137
 4869.00    1.43280   1.47003   -1.000
 4870.00    1.39100   1.45468   -1.000
 4871.00    1.35503   1.42994   -1.000
 4872.00    1.35018   1.41539   -1.000
 4873.00    1.37154   1.42579   -1.000
 4874.00    1.38621   1.45473   -1.000
 4875.00    1.42025   1.48347   -1.000
 4876.00    1.45991   1.50094   -1.000
 4877.00    1.46692   1.51073   -1.000
 4878.00    1.45513   1.52198   -1.000
 4879.00    1.47474   1.53713   -1.000
 4880.00    1.48947   1.55000   -1.000
 4881.00    1.48331   1.55305   -1.000
 4882.00    1.47502   1.54644   -1.000
 4883.00    1.46966   1.53755   -1.000
 4884.00    1.44002   1.52892   -1.000
 4885.00    1.42202   1.51897   -1.000
 4886.00    1.41860   1.50921   -1.000
 4887.00    1.45193   1.50270   -1.000
 4888.00    1.46582   1.49734   87.220
 4889.00    1.41897   1.48686   -1.000
 4890.00    1.40388   1.47092   -1.000
 4891.00    1.39249   1.46198   -1.000
 4892.00    1.42695   1.47691   -1.000
 4893.00    1.50584   1.51852   76.014
 4894.00    1.56234   1.57047   75.466
 4895.00    1.58845   1.61263   75.544
 4896.00    1.58205   1.63596   -1.000
 4897.00    1.58077   1.64191   -1.000
 4898.00    1.55536   1.63562   -1.000
 4899.00    1.53064   1.62227   -1.000
 4900.00    1.51196   1.60791   -1.000
 4901.00    1.51879   1.59676   -1.000
 4902.00    1.53102   1.58803   -1.000
 4903.00    1.52527   1.58056   -1.000
 4904.00    1.52836   1.57945   -1.000
 4905.00    1.55479   1.59016   78.028
 4906.00    1.59392   1.60615   79.724
 4907.00    1.57577   1.61261   -1.000
 4908.00    1.51234   1.60282   -1.000
 4909.00    1.50080   1.58175   -1.000
 4910.00    1.48837   1.56093   -1.000
 4911.00    1.48950   1.55115   -1.000
 4912.00    1.49439   1.55656   -1.000
 4913.00    1.49842   1.57237   -1.000
 4914.00    1.54424   1.59018   -1.000
 4915.00    1.57019   1.60244   80.632
 4916.00    1.55031   1.60049   -1.000
 4917.00    1.52247   1.57576   -1.000
 4918.00    1.47948   1.52847   -1.000
 4919.00    1.40383   1.47333   -1.000
 4920.00    1.35933   1.43395   -1.000
 4921.00    1.39057   1.42737   -1.000
 4922.00    1.43741   1.44997   83.250
 4923.00    1.47562   1.48179   82.362
 4924.00    1.49218   1.50741   80.378
 4925.00    1.48831   1.52819   -1.000
 4926.00    1.52446   1.55217   77.969
 4927.00    1.57043   1.58000   77.405
 4928.00    1.58648   1.60585   76.927
 4929.00    1.58721   1.62485   -1.000
 4930.00    1.55743   1.63390   -1.000
 4931.00    1.55242   1.62929   -1.000
 4932.00    1.52615   1.60910   -1.000
 4933.00    1.49409   1.57966   -1.000
 4934.00    1.48181   1.55585   -1.000
 4935.00    1.50305   1.54732   -1.000
 4936.00    1.50131   1.54655   -1.000
 4937.00    1.47523   1.53807   -1.000
 4938.00    1.47079   1.52038   -1.000
 4939.00    1.46133   1.51034   -1.000
 4940.00    1.47337   1.52326   -1.000
 4941.00    1.54352   1.55731   77.653
 4942.00    1.57700   1.59572   77.586
 4943.00    1.62036   1.62196   78.065
 4944.00    1.59593   1.63149   78.303
 4945.00    1.57144   1.62957   -1.000
 4946.00    1.56699   1.62585   -1.000
 4947.00    1.57592   1.62830   -1.000
 4948.00    1.59524   1.63837   -1.000
 4949.00    1.59236   1.65040   -1.000
 4950.00    1.58719   1.65734   -1.000
 4951.00    1.59795   1.65714   -1.000
 4952.00    1.57984   1.65174   -1.000
 4953.00    1.56247   1.64268   -1.000
 4954.00    1.56393   1.62717   -1.000
 4955.00    1.55277   1.59725   -1.000
 4956.00    1.51063   1.54938   -1.000
 4957.00    1.44470   1.49961   -1.000
 4958.00    1.46074   1.47869   79.519
 4959.00    1.51776   1.50168   78.575
 4960.00    1.56706   1.55179   78.798
 4961.00    1.57563   1.59804   79.393
 4962.00    1.60366   1.62268   80.287
 4963.00    1.62483   1.62647   81.880
 4964.00    1.59670   1.61634   83.060
 4965.00    1.57763   1.59884   83.245
 4966.00    1.56319   1.58143   83.036
 4967.00    1.54732   1.57058   82.479
 4968.00    1.53447   1.56765   -1.000
 4969.00    1.52899   1.57136   -1.000
 4970.00    1.53243   1.58099   -1.000
 4971.00    1.56741   1.59499   79.019
 4972.00    1.61923   1.61056   78.632
 4973.00    1.63328   1.62430   79.047
 4974.00    1.59707   1.63272   79.843
 4975.00    1.60214   1.63367   80.893
 4976.00    1.59562   1.62748   82.184
 4977.00    1.57110   1.61544   -1.000
 4978.00    1.55309   1.60019   -1.000
 4979.00    1.53601   1.58351   -1.000
 4980.00    1.51212   1.56244   -1.000
 4981.00    1.46648   1.53247   -1.000
 4982.00    1.43268   1.49630   -1.000
 4983.00    1.41456   1.46782   -1.000
 4984.00    1.42413   1.46233   -1.000
 4985.00    1.46241   1.48262   81.532
 4986.00    1.52049   1.51818   81.286
 4987.00    1.57677   1.55457   82.328
 4988.00    1.58785   1.57937   83.240
 4989.00    1.55048   1.58565   83.400
 4990.00    1.51139   1.57799   -1.000
 4991.00    1.52263   1.56877   -1.000
 4992.00    1.52969   1.56720   -1.000
 4993.00    1.52015   1.57299   -1.000
 4994.00    1.56005   1.58134   81.492
 4995.00    1.59987   1.58972   81.852
 4996.00    1.58714   1.59644   82.866
 4997.00    1.54206   1.59679   -1.000
 4998.00    1.54071   1.58543   -1.000
 4999.00    1.49757   1.56280   -1.000
 5000.00    1.49620   1.53798   -1.000
 5001.00    1.49388   1.52275   84.538
 5002.00    1.49180   1.52061   85.492
 5003.00    1.48392   1.52420   -1.000
 5004.00    1.48797   1.52170   -1.000
 5005.00    1.48605   1.50778   86.511
 5006.00    1.46058   1.49140   83.925
 5007.00    1.46727   1.48974   82.786
 5008.00    1.52077   1.50884   83.593
 5009.00    1.56614   1.53516   85.915
 5010.00    1.55136   1.54895   89.064
 5011.00    1.51824   1.53996   91.337
 5012.00    1.48184   1.51345   -1.000
 5013.00    1.44138   1.48468   -1.000
 5014.00    1.46532   1.46809   87.541
 5015.00    1.50869   1.46832   -1.000
 5016.00    1.50128   1.47868   86.938
 5017.00    1.48635   1.48943   86.088
 5018.00    1.48282   1.49767   85.339
 5019.00    1.49503   1.50758   85.569
 5020.00    1.53187   1.51998   85.791
 5021.00    1.53873   1.52949   85.393
 5022.00    1.53464   1.53425   84.539
 5023.00    1.53432   1.53960   83.924
 5024.00    1.52652   1.55083   84.195
 5025.00    1.54043   1.56358   84.605
 5026.00    1.53814   1.56891   83.990
 5027.00    1.51088   1.56649   -1.000
 5028.00    1.51095   1.56501   -1.000
 5029.00    1.54851   1.57149   79.973
 5030.00    1.58609   1.58602   78.999
 5031.00    1.61324   1.60431   78.990
 5032.00    1.62668   1.62059   81.208
 5033.00    1.60313   1.62763   84.377
 5034.00    1.60292   1.61865   86.047
 5035.00    1.55386   1.59483   -1.000
 5036.00    1.54158   1.56806   87.454
 5037.00    1.56075   1.54896   90.590
 5038.00    1.55713   1.53350   94.291
 5039.00    1.50024   1.50894   94.835
 5040.00    1.42394   1.47509   -1.000
 5041.00    1.39197   1.45193   -1.000
 5042.00    1.44406   1.46107   81.589
 5043.00    1.52893   1.50342   79.675
 5044.00    1.60146   1.55959   -1.000
 5045.00    1.62572   1.60756   78.468
 5046.00    1.61668   1.63479   25.120
 5047.00    1.67108   1.63713   80.714
 5048.00    0.76383   1.61733   -1.000
 5049.00    0.02272   1.58611   -1.000
 5050.00   -0.02504   1.55882    0.000
 5051.00    0.24505   1.54731   -1.000
 5052.00    1.04100   1.55550   -1.000
 5053.00    1.57532   1.57901   78.996
 5054.00    1.61503   1.60757   78.684
 5055.00    1.63686   1.63039   78.782
 5056.00    1.63674   1.64408   78.931
 5057.00    1.63516   1.65137   78.921
 5058.00    1.64994   1.65601   78.441
 5059.00    1.64204   1.66040   78.413
 5060.00    1.64211   1.66491   79.354
 5061.00    1.66455   1.66741   81.528
 5062.00    1.67850   1.66225   84.391
 5063.00    1.62387   1.64334   85.612
 5064.00    1.56468   1.61354   -1.000
 5065.00    1.56930   1.58646   83.526
 5066.00    1.57490   1.57387   83.143
 5067.00    1.56769   1.57511   82.768
 5068.00    1.57788   1.58171   82.237
 5069.00    1.59905   1.58865   82.765
 5070.00    1.60639   1.59464   83.431
 5071.00    1.60125   1.59687   82.589
 5072.00    1.60210   1.59362   81.892
 5073.00    1.61396   1.58936   81.725
 5074.00    1.61200   1.58973   81.658
 5075.00    1.61716   1.59407   82.359
 5076.00    1.61435   1.59617   85.010
 5077.00    1.59675   1.58864   88.967
 5078.00    1.55615   1.56739   90.365
 5079.00    1.51646   1.53728   88.757
 5080.00    1.48649   1.51370   86.846
 5081.00    1.50686   1.50877   85.605
 5082.00    1.53309   1.51973   84.038
 5083.00    1.54359   1.53753   82.577
 5084.00    1.57563   1.55825   81.900
 5085.00    1.62802   1.58118   -1.000
 5086.00    1.63475   1.60218   81.363
 5087.00    1.63614   1.61616   80.790
 5088.00    1.61983   1.62335   80.329
 5089.00    1.64670   1.62817   79.911
 5090.00    1.62317   1.63401   79.038
 5091.00    1.64638   1.64186   78.303
 5092.00    1.68233   1.65170   78.875
 5093.00    1.69581   1.66092   80.440
 5094.00    1.65231   1.66323   82.181
 5095.00    1.68765   1.65225   -1.000
 5096.00    1.70389   1.62752   -1.000
 5097.00    1.59151   1.59660   86.378
 5098.00    1.52455   1.57031   -1.000
 5099.00    1.53418   1.55871   82.047
 5100.00    1.55531   1.56695   81.164
 5101.00    1.60178   1.58922   81.533
 5102.00    1.64119   1.61099   82.560
 5103.00    1.62472   1.62098   83.613
 5104.00    1.62587   1.61836   84.641
 5105.00    1.61059   1.60731   85.703
 5106.00    1.58182   1.59098   85.687
 5107.00    1.56775   1.57323   85.169
 5108.00    1.56231   1.56036   84.562
 5109.00    1.57735   1.55711   83.399
 5110.00    1.60162   1.56491   -1.000
 5111.00    1.61956   1.58231   -1.000
 5112.00    1.66559   1.60451   -1.000
 5113.00    1.65092   1.62503   80.138
 5114.00    1.64060   1.64095   79.328
 5115.00    1.63754   1.65329   78.646
 5116.00    1.65468   1.66369   78.800
 5117.00    1.68728   1.67173   79.767
 5118.00    1.71530   1.67499   -1.000
 5119.00    1.69237   1.67066   82.290
 5120.00    1.67650   1.65762   84.347
 5121.00    1.63972   1.63741   86.871
 5122.00    1.59606   1.61284   87.655
 5123.00    1.57999   1.58763   86.983
 5124.00    1.58777   1.56745   86.521
 5125.00    1.56842   1.55754   86.014
 5126.00    1.59654   1.55722   -1.000
 5127.00    1.59814   1.56066   -1.000
 5128.00    1.57964   1.56351   84.987
 5129.00    1.57890   1.56672   83.556
 5130.00    1.58278   1.57359   82.815
 5131.00    1.60038   1.58560   82.037
 5132.00    1.62058   1.60041   81.308
 5133.00    1.66378   1.61403   -1.000
 5134.00    1.64238   1.62385   82.388
 5135.00    1.65267   1.62780   84.367
 5136.00    1.64348   1.62275   85.775
 5137.00    1.59346   1.60718   85.989
 5138.00    1.55753   1.58621   85.278
 5139.00    1.54058   1.56971   85.799
 5140.00    1.53937   1.56360   87.151
 5141.00    1.55205   1.56486   86.795
 5142.00    1.55746   1.56756   85.390
 5143.00    1.56803   1.57131   85.003
 5144.00    1.60082   1.57816   85.725
 5145.00    1.59425   1.58482   85.987
 5146.00    1.57796   1.58556   85.018
 5147.00    1.58981   1.58200   84.491
 5148.00    1.57767   1.58129   85.431
 5149.00    1.57222   1.58416   86.968
 5150.00    1.59275   1.58340   87.619
 5151.00    1.58866   1.57562   87.242
 5152.00    1.58235   1.56607   85.652
 5153.00    1.59965   1.56222   -1.000
 5154.00    1.60335   1.56820   -1.000
 5155.00    1.63622   1.58527   -1.000
 5156.00    1.66695   1.61094   -1.000
 5157.00    1.68828   1.63777   -1.000
 5158.00    1.66993   1.65812   79.366
 5159.00    1.68321   1.66878   79.811
 5160.00    1.69665   1.67022   80.685
 5161.00    1.69998   1.66354   -1.000
 5162.00    1.68313   1.64932   84.927
 5163.00    1.63673   1.62651   91.712
 5164.00    1.61902   1.58896   -1.000
 5165.00    1.50788   1.52745  108.315
 5166.00    1.38089   1.44409   -1.000
 5167.00    1.30561   1.36489   -1.000
 5168.00    1.30356   1.32507   99.099
 5169.00    1.37562   1.33310   -1.000
 5170.00    1.41030   1.35519   -1.000
 5171.00    1.36017   1.35161  108.337
 5172.00    1.26428   1.32616   -1.000
 5173.00    1.28742   1.32129   88.735
 5174.00    1.42707   1.36858   -1.000
 5175.00    1.55245   1.45341   -1.000
 5176.00    1.59485   1.53470   -1.000
 5177.00    1.62942   1.58650   -1.000
 5178.00    1.66916   1.60806   -1.000
 5179.00    1.65423   1.60595   -1.000
 5180.00    1.61145   1.57832   -1.000
 5181.00    1.52664   1.51855  112.832
 5182.00    1.37759   1.43333   -1.000
 5183.00    1.26269   1.35460   -1.000
 5184.00    1.27354   1.32617   -1.000
 5185.00    1.39539   1.36729   84.968
 5186.00    1.53392   1.45149   -1.000
 5187.00    1.61834   1.53141   -1.000
 5188.00    1.65373   1.57983   -1.000
 5189.00    1.65161   1.59836   -1.000
 5190.00    1.62813   1.59593   -1.000
 5191.00    1.59138   1.57774   89.145
 5192.00    1.55463   1.55394   87.636
 5193.00    1.55286   1.54018   86.325
 5194.00    1.58345   1.54361   -1.000
 5195.00    1.61679   1.55905   -1.000
 5196.00    1.63244   1.57927   -1.000
 5197.00    1.65585   1.60192   -1.000
 5198.00    1.67740   1.62557   -1.000
 5199.00    1.69984   1.64585   -1.000
 5200.00    1.69136   1.65747   83.209
 5201.00    1.69756   1.65644   -1.000
 5202.00    1.67930   1.64036   -1.000
 5203.00    1.65327   1.60962   -1.000
 5204.00    1.60224   1.56919   -1.000
 5205.00    1.55740   1.52916   91.376
 5206.00    1.57545   1.50006   -1.000
 5207.00    1.56443   1.48561   -1.000
 5208.00    1.55877   1.48349   -1.000
 5209.00    1.56145   1.49441   -1.000
 5210.00    1.60097   1.52347   -1.000
 5211.00    1.64146   1.56945   -1.000
 5212.00    1.70978   1.61932   -1.000
 5213.00    1.75054   1.65499   -1.000
 5214.00    1.72572   1.66518   -1.000
 5215.00    1.67430   1.65371   82.266
 5216.00    1.62763   1.63758   80.516
 5217.00    1.62643   1.63473   79.272
 5218.00    1.68067   1.65100   78.644
 5219.00    1.72964   1.67817   -1.000
 5220.00    1.72620   1.70342   79.292
 5221.00    1.74233   1.71783   81.677
 5222.00    1.76523   1.71652   -1.000
 5223.00    1.71168   1.69643   89.019
 5224.00    1.64652   1.65650   91.548
 5225.00    1.57700   1.60216   89.736
 5226.00    1.53549   1.55154   84.800
 5227.00    1.52420   1.52953   81.284
 5228.00    1.57913   1.54845   79.785
 5229.00    1.66524   1.59535   -1.000
 5230.00    1.70844   1.64047   -1.000
 5231.00    1.71462   1.66095   -1.000
 5232.00    1.68121   1.65505   82.526
 5233.00    1.66101   1.63866   80.668
 5234.00    1.63332   1.63277   78.736
 5235.00    1.66520   1.64799   77.825
 5236.00    1.69574   1.67848   77.737
 5237.00    1.73927   1.70980   77.980
 5238.00    1.74935   1.73048   77.851
 5239.00    1.76202   1.73848   77.395
 5240.00    1.75418   1.73853   77.501
 5241.00    1.75213   1.73561   77.349
 5242.00    1.72577   1.73317   77.224
 5243.00    1.74836   1.73364   78.743
 5244.00    1.77878   1.73546   -1.000
 5245.00    1.78026   1.73120   -1.000
 5246.00    1.73281   1.71488   83.361
 5247.00    1.69078   1.69091   83.512
 5248.00    1.67331   1.67030   84.044
 5249.00    1.69500   1.65887   83.662
 5250.00    1.70220   1.65482   -1.000
 5251.00    1.69590   1.65633   81.684
 5252.00    1.67946   1.66268   81.685
 5253.00    1.69662   1.67036   81.108
 5254.00    1.70101   1.67647   79.225
 5255.00    1.71717   1.68467   77.082
 5256.00    1.74470   1.70134   -1.000
 5257.00    1.76129   1.72550   77.081
 5258.00    1.82021   1.74622   -1.000
 5259.00    1.79677   1.75073   -1.000
 5260.00    1.75363   1.73249   86.478
 5261.00    1.69888   1.69303   89.491
 5262.00    1.61633   1.64066   91.352
 5263.00    1.55652   1.58713   91.619
 5264.00    1.53943   1.54378   90.036
 5265.00    1.55973   1.51915   -1.000
 5266.00    1.58549   1.51416   -1.000
 5267.00    1.58574   1.51714   -1.000
 5268.00    1.55982   1.51038   -1.000
 5269.00    1.52302   1.49079   86.935
 5270.00    1.52034   1.47993   -1.000
 5271.00    1.56481   1.50179   -1.000
 5272.00    1.64345   1.55179   -1.000
 5273.00    1.69726   1.60171   -1.000
 5274.00    1.68195   1.63277   -1.000
 5275.00    1.66352   1.65046   77.837
 5276.00    1.69846   1.67049   76.379
 5277.00    1.77379   1.69986   -1.000
 5278.00    1.79567   1.72977   -1.000
 5279.00    1.77409   1.74411   80.747
 5280.00    1.76129   1.73486   82.227
 5281.00    1.72506   1.70891   82.636
 5282.00    1.71018   1.68091   80.964
 5283.00    1.68885   1.66490   78.479
 5284.00    1.68659   1.67089   76.003
 5285.00    1.75448   1.69958   -1.000
 5286.00    1.78443   1.73898   -1.000
 5287.00    1.68454   1.77216   -1.000
 5288.00    1.80732   1.79091   75.375
 5289.00    1.84600   1.79866   -1.000
 5290.00    1.83773   1.80104   75.660
 5291.00    1.82914   1.79995   76.379
 5292.00    1.79561   1.79601   77.397
 5293.00    1.82024   1.78950   79.507
 5294.00    1.82288   1.77758   -1.000
 5295.00    1.77187   1.75481   84.795
 5296.00    1.73465   1.71968   84.252
 5297.00    1.66682   1.68191   82.096
 5298.00    1.65936   1.65889   80.571
 5299.00    1.67858   1.66017   80.063
 5300.00    1.72915   1.67854   -1.000
 5301.00    1.74729   1.70043   -1.000
 5302.00    1.76258   1.72090   -1.000
 5303.00    1.78713   1.74345   -1.000
 5304.00    1.80717   1.76790   -1.000
 5305.00    1.81268   1.78620   76.741
 5306.00    1.84024   1.79223   -1.000
 5307.00    1.83461   1.78971   -1.000
 5308.00    1.81747   1.78853   74.943
 5309.00    1.83496   1.79464   -1.000
 5310.00    1.85093   1.80474   -1.000
 5311.00    1.87280   1.81135   -1.000
 5312.00    1.89237   1.81051   -1.000
 5313.00    1.84547   1.80296   -1.000
 5314.00    1.81564   1.79084   77.776
 5315.00    1.81290   1.77624   -1.000
 5316.00    1.77789   1.76300   77.203
 5317.00    1.77691   1.75704   76.879
 5318.00    1.78072   1.76104   77.171
 5319.00    1.81987   1.76998   -1.000
 5320.00    1.84665   1.77491   -1.000
 5321.00    1.82148   1.76983   -1.000
 5322.00    1.80956   1.75392   -1.000
 5323.00    1.77211   1.73091   -1.000
 5324.00    1.74532   1.70752   -1.000
 5325.00    1.71052   1.68533   88.424
 5326.00    1.69372   1.65576   -1.000
 5327.00    1.64477   1.61320   87.548
 5328.00    1.57037   1.57370   82.262
 5329.00    1.59537   1.56711   79.661
 5330.00    1.72035   1.60410   -1.000
 5331.00    1.75969   1.66200   -1.000
 5332.00    1.76361   1.71008   -1.000
 5333.00    1.78537   1.73876   -1.000
 5334.00    1.80113   1.75592   -1.000
 5335.00    1.80258   1.76765   -1.000
 5336.00    1.80540   1.77263   78.750
 5337.00    1.78905   1.76787   80.780
 5338.00    1.79251   1.75233   -1.000
 5339.00    1.76728   1.72793   -1.000
 5340.00    1.71929   1.70338   79.199
 5341.00    1.69402   1.69302   77.801
 5342.00    1.74235   1.70426   -1.000
 5343.00    1.81093   1.72760   -1.000
 5344.00    1.81215   1.74561   -1.000
 5345.00    1.78101   1.74955   79.245
 5346.00    1.76616   1.74257   79.973
 5347.00    1.79425   1.73204   -1.000
 5348.00    1.80499   1.72380   -1.000
 5349.00    1.77214   1.72247   -1.000
 5350.00    1.78695   1.73215   -1.000
 5351.00    1.81904   1.75180   -1.000
 5352.00    1.82911   1.77412   -1.000
 5353.00    1.81179   1.79233   74.265
 5354.00    1.83130   1.80635   73.722
 5355.00    1.87275   1.81979   -1.000
 5356.00    1.87708   1.83255   -1.000
 5357.00    1.87204   1.84120   74.201
 5358.00    1.86859   1.84355   75.096
 5359.00    1.88999   1.83985   -1.000
 5360.00    1.87937   1.83053   -1.000
 5361.00    1.83597   1.81619   78.010
 5362.00    1.83259   1.79892   -1.000
 5363.00    1.82269   1.78132   -1.000
 5364.00    1.78883   1.76560   78.661
 5365.00    1.77598   1.75434   78.669
 5366.00    1.77784   1.74886   79.506
 5367.00    1.76948   1.74552   81.544
 5368.00    1.77748   1.73554   -1.000
 5369.00    1.73140   1.71204   84.207
 5370.00    1.71583   1.67972   -1.000
 5371.00    1.68970   1.65656   77.212
 5372.00    1.73067   1.66156   -1.000
 5373.00    1.78415   1.69748   -1.000
 5374.00    1.85387   1.74708   -1.000
 5375.00    1.90550   1.78811   -1.000
 5376.00    1.87261   1.81021   -1.000
 5377.00    1.85267   1.81715   75.774
 5378.00    1.84791   1.81701   76.542
 5379.00    1.82296   1.81359   77.295
 5380.00    1.83164   1.80650   77.654
 5381.00    1.82161   1.79566   77.582
 5382.00    1.81401   1.78410   77.198
 5383.00    1.83280   1.77724   -1.000
 5384.00    1.81370   1.77944   -1.000
 5385.00    1.83319   1.79020   -1.000
 5386.00    1.85358   1.80304   -1.000
 5387.00    1.85849   1.80970   -1.000
 5388.00    1.81926   1.80578   79.439
 5389.00    1.82218   1.79255   79.764
 5390.00    1.80174   1.77530   79.787
 5391.00    1.78316   1.75952   80.045
 5392.00    1.76106   1.74769   80.661
 5393.00    1.79487   1.73940   -1.000
 5394.00    1.80048   1.73170   -1.000
 5395.00    1.76607   1.71943   -1.000
 5396.00    1.76931   1.70155   -1.000
 5397.00    1.76177   1.68730   -1.000
 5398.00    1.76619   1.68985   -1.000
 5399.00    1.77620   1.71141   -1.000
 5400.00    1.78176   1.73957   -1.000
 5401.00    1.80222   1.75877   -1.000
 5402.00    1.79808   1.75932   -1.000
 5403.00    1.77707   1.73805   -1.000
 5404.00    1.73094   1.70119   84.243
 5405.00    1.67416   1.66647   82.404
 5406.00    1.68116   1.65278   81.767
 5407.00    1.73663   1.66336   -1.000
 5408.00    1.77551   1.68308   -1.000
 5409.00    1.76396   1.69629   -1.000
 5410.00    1.73834   1.70424   77.972
 5411.00    1.77267   1.71902   -1.000
 5412.00    1.82166   1.74352   -1.000
 5413.00    1.84683   1.76744   -1.000
 5414.00    1.81850   1.78180   -1.000
 5415.00    1.78528   1.78946   76.255
 5416.00    1.79059   1.79812   76.627
 5417.00    1.83199   1.80854   77.422
 5418.00    1.82996   1.81530   77.859
 5419.00    1.83323   1.81536   77.487
 5420.00    1.84683   1.81091   -1.000
 5421.00    1.84516   1.80494   -1.000
 5422.00    1.81738   1.79742   79.054
 5423.00    1.80249   1.78785   78.094
 5424.00    1.77627   1.78095   76.738
 5425.00    1.78991   1.78439   77.109
 5426.00    1.82139   1.79692   79.392
 5427.00    1.84715   1.80329   -1.000
 5428.00    1.81524   1.78916   81.912
 5429.00    1.76638   1.75995   80.324
 5430.00    1.75841   1.73647   80.412
 5431.00    1.78875   1.73122   -1.000
 5432.00    1.78512   1.73556   -1.000
 5433.00    1.78025   1.73394   -1.000
 5434.00    1.78478   1.72476   -1.000
 5435.00    1.76078   1.72133   -1.000
 5436.00    1.78217   1.73597   -1.000
 5437.00    1.82656   1.76785   -1.000
 5438.00    1.85988   1.80497   -1.000
 5439.00    1.89275   1.83501   -1.000
 5440.00    1.90203   1.85373   -1.000
 5441.00    1.88540   1.86326   75.727
 5442.00    1.86745   1.86482   77.859
 5443.00    1.83597   1.85472   81.183
 5444.00    1.82970   1.82773   83.801
 5445.00    1.80790   1.78557   82.898
 5446.00    1.72763   1.74264   80.060
 5447.00    1.72152   1.71960   77.865
 5448.00    1.77709   1.72768   -1.000
 5449.00    1.86272   1.75889   -1.000
 5450.00    1.87545   1.79287   -1.000
 5451.00    1.90128   1.81295   -1.000
 5452.00    1.91534   1.81298   -1.000
 5453.00    1.86341   1.79385   -1.000
 5454.00    1.81415   1.76183   -1.000
 5455.00    1.76783   1.73191   -1.000
 5456.00    1.78630   1.72377   -1.000
 5457.00    1.83342   1.74532   -1.000
 5458.00    1.88612   1.78263   -1.000
 5459.00    1.90581   1.81207   -1.000
 5460.00    1.89566   1.81987   -1.000
 5461.00    1.86913   1.80803   -1.000
 5462.00    1.81816   1.78817   79.975
 5463.00    1.80253   1.77380   79.060
 5464.00    1.80453   1.77313   78.741
 5465.00    1.83697   1.78462   -1.000
 5466.00    1.89200   1.80028   -1.000
 5467.00    1.86893   1.81340   -1.000
 5468.00    1.85111   1.82164   79.196
 5469.00    1.86656   1.82445   -1.000
 5470.00    1.86873   1.82161   -1.000
 5471.00    1.87053   1.81447   -1.000
 5472.00    1.88714   1.80490   -1.000
 5473.00    1.85815   1.79271   -1.000
 5474.00    1.84209   1.77546   -1.000
 5475.00    1.80413   1.75227   -1.000
 5476.00    1.76087   1.72967   81.220
 5477.00    1.74721   1.72078   79.793
 5478.00    1.77618   1.73291   -1.000
 5479.00    1.83369   1.75657   -1.000
 5480.00    1.82953   1.77391   -1.000
 5481.00    1.80366   1.77823   79.810
 5482.00    1.79896   1.77892   78.161
 5483.00    1.81225   1.78782   77.587
 5484.00    1.85038   1.80553   -1.000
 5485.00    1.88531   1.82155   -1.000
 5486.00    1.85675   1.82590   80.032
 5487.00    1.83025   1.81868   80.002
 5488.00    1.85022   1.80879   -1.000
 5489.00    1.84291   1.80501   -1.000
 5490.00    1.87336   1.80919   -1.000
 5491.00    1.89967   1.81701   -1.000
 5492.00    1.86921   1.82332   -1.000
 5493.00    1.85758   1.82597   78.767
 5494.00    1.88401   1.82528   -1.000
 5495.00    1.87194   1.82117   -1.000
 5496.00    1.83143   1.81334   79.411
 5497.00    1.84041   1.80498   -1.000
 5498.00    1.86841   1.80164   -1.000
 5499.00    1.85886   1.80322   -1.000
 5500.00    1.84727   1.80224   -1.000
 5501.00    1.87721   1.79423   -1.000
 5502.00    1.88416   1.78496   -1.000
 5503.00    1.85799   1.78181   -1.000
 5504.00    1.85903   1.78260   -1.000
 5505.00    1.84460   1.77967   -1.000
 5506.00    1.84276   1.77232   -1.000
 5507.00    1.85885   1.76909   -1.000
 5508.00    1.86537   1.77655   -1.000
 5509.00    1.85110   1.78952   -1.000
 5510.00    1.85730   1.79574   -1.000
 5511.00    1.83311   1.78843   -1.000
 5512.00    1.83905   1.77199   -1.000
 5513.00    1.78496   1.75768   80.851
 5514.00    1.79701   1.75484   -1.000
 5515.00    1.86719   1.76520   -1.000
 5516.00    1.91003   1.78442   -1.000
 5517.00    1.91501   1.80685   -1.000
 5518.00    1.91747   1.82768   -1.000
 5519.00    1.91167   1.84296   -1.000
 5520.00    1.92173   1.85063   -1.000
 5521.00    1.90286   1.85218   -1.000
 5522.00    1.91639   1.85139   -1.000
 5523.00    1.91483   1.84974   -1.000
 5524.00    1.88282   1.84400   -1.000
 5525.00    1.88659   1.82899   -1.000
 5526.00    1.83979   1.80342   -1.000
 5527.00    1.78670   1.77439   81.347
 5528.00    1.78759   1.75580   79.187
 5529.00    1.80874   1.75898   -1.000
 5530.00    1.86094   1.78200   -1.000
 5531.00    1.89667   1.80945   -1.000
 5532.00    1.88616   1.82592   -1.000
 5533.00    1.86899   1.82776   -1.000
 5534.00    1.85226   1.82167   78.682
 5535.00    1.84349   1.81665   78.539
 5536.00    1.87431   1.81770   -1.000
 5537.00    1.88266   1.82410   -1.000
 5538.00    1.89106   1.83256   -1.000
 5539.00    1.92272   1.84145   -1.000
 5540.00    1.91081   1.85009   -1.000
 5541.00    1.91890   1.85531   -1.000
 5542.00    1.91496   1.85370   -1.000
 5543.00    1.90217   1.84670   -1.000
 5544.00    1.87685   1.84014   -1.000
 5545.00    1.88926   1.83857   -1.000
 5546.00    1.90981   1.84227   -1.000
 5547.00    1.91320   1.85004   -1.000
 5548.00    1.91517   1.86105   -1.000
 5549.00    1.94496   1.87238   -1.000
 5550.00    1.91374   1.87953   -1.000
 5551.00    1.93683   1.87995   -1.000
 5552.00    1.89799   1.87425   78.551
 5553.00    1.88440   1.86532   78.381
 5554.00    1.88119   1.85751   78.126
 5555.00    1.88955   1.85409   -1.000
 5556.00    1.90303   1.85488   -1.000
 5557.00    1.90323   1.85744   -1.000
 5558.00    1.92764   1.86023   -1.000
 5559.00    1.93256   1.86276   -1.000
 5560.00    1.92256   1.86329   -1.000
 5561.00    1.91078   1.85919   -1.000
 5562.00    1.92097   1.85059   -1.000
 5563.00    1.91838   1.84108   -1.000
 5564.00    1.88202   1.83394   -1.000
 5565.00    1.88033   1.82936   -1.000
 5566.00    1.90586   1.82588   -1.000
 5567.00    1.89743   1.82280   -1.000
 5568.00    1.87708   1.82041   -1.000
 5569.00    1.86387   1.81904   -1.000
 5570.00    1.83822   1.81808   80.335
 5571.00    1.80368   1.81610   79.902
 5572.00    1.73535   1.81326   -1.000
 5573.00    1.56474   1.81284   -1.000
 5574.00    1.59720   1.81787   -1.000
 5575.00    2.07212   1.82707   -1.000
 5576.00    2.64024   1.83665   -1.000
 5577.00    2.59678   1.84513   -1.000
 5578.00    2.15880   1.85305   -1.000
 5579.00    2.03981   1.85954   -1.000
 5580.00    1.93660   1.86256   -1.000
 5581.00    1.92954   1.86171   -1.000
 5582.00    1.90289   1.85862   -1.000
 5583.00    1.92312   1.85413   -1.000
 5584.00    1.92761   1.84519   -1.000
 5585.00    1.88443   1.82598   -1.000
 5586.00    1.85369   1.79504   -1.000
 5587.00    1.79628   1.76105   -1.000
 5588.00    1.78499   1.73793   -1.000
 5589.00    1.81418   1.73448   -1.000
 5590.00    1.83024   1.74908   -1.000
 5591.00    1.86085   1.77162   -1.000
 5592.00    1.86899   1.79051   -1.000
 5593.00    1.85329   1.80091   -1.000
 5594.00    1.83785   1.80737   79.713
 5595.00    1.88835   1.81623   -1.000
 5596.00    1.90251   1.82574   -1.000
 5597.00    1.90569   1.82750   -1.000
 5598.00    1.87083   1.81817   -1.000
 5599.00    1.88144   1.80341   -1.000
 5600.00    1.85099   1.78944   -1.000
 5601.00    1.83673   1.77908   -1.000
 5602.00    1.82930   1.77683   -1.000
 5603.00    1.85150   1.78907   -1.000
 5604.00    1.87524   1.81671   -1.000
 5605.00    1.92758   1.85140   -1.000
 5606.00    1.97199   1.88124   -1.000
 5607.00    1.97208   1.89955   -1.000
 5608.00    1.96825   1.90746   -1.000
 5609.00    1.96809   1.91004   -1.000
 5610.00    1.96399   1.91145   -1.000
 5611.00    1.96999   1.91135   -1.000
 5612.00    1.95720   1.90377   -1.000
 5613.00    1.91753   1.88155   -1.000
 5614.00    1.86097   1.84529   82.740
 5615.00    1.83057   1.80895   80.671
 5616.00    1.84316   1.79177   -1.000
 5617.00    1.85435   1.80049   -1.000
 5618.00    1.89198   1.82371   -1.000
 5619.00    1.92966   1.84593   -1.000
 5620.00    1.94113   1.86068   -1.000
 5621.00    1.97400   1.86829   -1.000
 5622.00    1.96372   1.86788   -1.000
 5623.00    1.90994   1.85806   -1.000
 5624.00    1.90201   1.84333   -1.000
 5625.00    1.88963   1.83410   -1.000
 5626.00    1.87592   1.83780   -1.000
 5627.00    1.93455   1.85231   -1.000
 5628.00    1.97056   1.86965   -1.000
 5629.00    1.97155   1.88387   -1.000
 5630.00    1.97807   1.89328   -1.000
 5631.00    1.98973   1.89787   -1.000
 5632.00    1.95836   1.89782   -1.000
 5633.00    1.96087   1.89387   -1.000
 5634.00    1.95195   1.88690   -1.000
 5635.00    1.96021   1.87766   -1.000
 5636.00    1.95278   1.86772   -1.000
 5637.00    1.93505   1.85980   -1.000
 5638.00    1.91200   1.85602   -1.000
 5639.00    1.93063   1.85554   -1.000
 5640.00    1.90392   1.85525   -1.000
 5641.00    1.92797   1.85398   -1.000
 5642.00    1.92153   1.85402   -1.000
 5643.00    1.93366   1.85734   -1.000
 5644.00    1.95600   1.86284   -1.000
 5645.00    1.96468   1.86848   -1.000
 5646.00    1.95791   1.87306   -1.000
 5647.00    1.96546   1.87571   -1.000
 5648.00    1.95334   1.87596   -1.000
 5649.00    1.94700   1.87496   -1.000
 5650.00    1.95226   1.87540   -1.000
 5651.00    1.95428   1.87867   -1.000
 5652.00    1.96883   1.88252   -1.000
 5653.00    1.94539   1.88293   -1.000
 5654.00    1.92626   1.87767   -1.000
 5655.00    1.95622   1.86629   -1.000
 5656.00    1.91639   1.84798   -1.000
 5657.00    1.86759   1.82421   -1.000
 5658.00    1.82188   1.80330   81.723
 5659.00    1.82846   1.79589   81.629
 5660.00    1.89592   1.80370   -1.000
 5661.00    1.90262   1.81775   -1.000
 5662.00    1.90559   1.82998   -1.000
 5663.00    1.92380   1.84132   -1.000
 5664.00    1.93003   1.85481   -1.000
 5665.00    1.93631   1.86698   -1.000
 5666.00    1.92345   1.87160   -1.000
 5667.00    1.94381   1.86835   -1.000
 5668.00    1.94085   1.86336   -1.000
 5669.00    1.91220   1.86256   -1.000
 5670.00    1.95868   1.86742   -1.000
 5671.00    1.98483   1.87636   -1.000
 5672.00    1.98742   1.88702   -1.000
 5673.00    1.98789   1.89671   -1.000
 5674.00    1.95240   1.90312   -1.000
 5675.00    1.95280   1.90602   -1.000
 5676.00    1.96542   1.90713   -1.000
 5677.00    1.97039   1.90754   -1.000
 5678.00    1.96406   1.90619   -1.000
 5679.00    1.96660   1.90125   -1.000
 5680.00    1.96231   1.89183   -1.000
 5681.00    1.96762   1.87836   -1.000
 5682.00    1.92153   1.86342   -1.000
 5683.00    1.91601   1.85216   -1.000
 5684.00    1.92489   1.84895   -1.000
 5685.00    1.90281   1.85225   -1.000
 5686.00    1.88770   1.85555   -1.000
 5687.00    1.90411   1.85477   -1.000
 5688.00    1.92003   1.85265   -1.000
 5689.00    1.91346   1.85523   -1.000
 5690.00    1.94852   1.86544   -1.000
 5691.00    1.98786   1.88046   -1.000
 5692.00    1.98998   1.89454   -1.000
 5693.00    1.98431   1.90359   -1.000
 5694.00    1.97660   1.90731   -1.000
 5695.00    1.99703   1.90731   -1.000
 5696.00    1.97560   1.90461   -1.000
 5697.00    1.98062   1.89895   -1.000
 5698.00    1.96357   1.89008   -1.000
 5699.00    1.90294   1.87909   81.521
 5700.00    1.89392   1.86835   80.771
 5701.00    1.88762   1.86073   79.967
 5702.00    1.90428   1.85882   -1.000
 5703.00    1.92297   1.86255   -1.000
 5704.00    1.93414   1.86731   -1.000
 5705.00    1.91864   1.86683   -1.000
 5706.00    1.89239   1.85787   -1.000
 5707.00    1.87573   1.84177   -1.000
 5708.00    1.86838   1.82289   -1.000
 5709.00    1.84953   1.80700   -1.000
 5710.00    1.83686   1.79983   -1.000
 5711.00    1.86688   1.80487   -1.000
 5712.00    1.89754   1.82203   -1.000
 5713.00    1.90572   1.84716   -1.000
 5714.00    1.96156   1.87259   -1.000
 5715.00    1.98677   1.89161   -1.000
 5716.00    1.96823   1.90304   -1.000
 5717.00    1.97623   1.91000   -1.000
 5718.00    1.98103   1.91577   -1.000
 5719.00    2.01003   1.92218   -1.000
 5720.00    2.02665   1.92953   -1.000
 5721.00    2.03347   1.93678   -1.000
 5722.00    2.02523   1.94256   -1.000
 5723.00    2.04040   1.94588   -1.000
 5724.00    2.01389   1.94544   -1.000
 5725.00    2.00033   1.93967   -1.000
 5726.00    1.97860   1.92965   -1.000
 5727.00    1.96441   1.92039   -1.000
 5728.00    1.98184   1.91670   -1.000
 5729.00    1.99431   1.91828   -1.000
 5730.00    1.99644   1.92089   -1.000
 5731.00    1.98588   1.92211   -1.000
 5732.00    1.97885   1.92408   -1.000
 5733.00    1.99554   1.92981   -1.000
 5734.00    1.98355   1.93813   -1.000
 5735.00    1.99739   1.94434   -1.000
 5736.00    2.01229   1.94557   -1.000
 5737.00    2.00977   1.94331   -1.000
 5738.00    1.98980   1.94071   -1.000
 5739.00    1.99139   1.93957   -1.000
 5740.00    1.99025   1.93938   -1.000
 5741.00    2.01192   1.93880   -1.000
 5742.00    1.98850   1.93798   -1.000
 5743.00    1.97304   1.93886   -1.000
 5744.00    1.99502   1.94238   -1.000
 5745.00    2.00243   1.94600   -1.000
 5746.00    1.98186   1.94576   -1.000
 5747.00    1.96786   1.94146   77.522
 5748.00    1.98612   1.93782   -1.000
 5749.00    2.01162   1.93838   -1.000
 5750.00    1.99146   1.93979   -1.000
 5751.00    1.97277   1.93506   -1.000
 5752.00    1.93283   1.92211   79.581
 5753.00    1.92319   1.90774   78.389
 5754.00    1.92317   1.90251   76.948
 5755.00    1.95921   1.91151   -1.000
 5756.00    1.98736   1.93008   -1.000
 5757.00    2.00643   1.94815   -1.000
 5758.00    2.02548   1.95733   -1.000
 5759.00    2.02629   1.95467   -1.000
 5760.00    1.99355   1.94242   -1.000
 5761.00    1.94707   1.92629   78.751
 5762.00    1.93747   1.91416   77.342
 5763.00    1.95849   1.91341   -1.000
 5764.00    1.98526   1.92574   -1.000
 5765.00    2.01019   1.94455   -1.000
 5766.00    2.01521   1.96035   -1.000
 5767.00    2.01124   1.96849   -1.000
 5768.00    2.01410   1.97027   -1.000
 5769.00    2.01130   1.96867   -1.000
 5770.00    2.00971   1.96539   -1.000
 5771.00    1.98525   1.96077   77.768
 5772.00    1.98176   1.95487   77.824
 5773.00    1.99372   1.94858   -1.000
 5774.00    1.95704   1.94365   77.223
 5775.00    1.92670   1.94167   77.235
 5776.00    1.93374   1.94256   77.624
 5777.00    1.95514   1.94314   78.948
 5778.00    1.91552   1.93840   80.713
 5779.00    1.88011   1.92556   -1.000
 5780.00    1.89187   1.90675   81.201
 5781.00    1.91308   1.88830   80.883
 5782.00    1.95060   1.87649   -1.000
 5783.00    1.96488   1.87315   -1.000
 5784.00    1.94051   1.87562   -1.000
 5785.00    1.92439   1.88151   -1.000
 5786.00    1.96929   1.89143   -1.000
 5787.00    1.98379   1.90524   -1.000
 5788.00    2.00430   1.91873   -1.000
 5789.00    2.00448   1.92684   -1.000
 5790.00    1.97207   1.92877   -1.000
 5791.00    1.96521   1.92906   -1.000
 5792.00    1.96205   1.93364   76.435
 5793.00    1.95212   1.94417   76.500
 5794.00    1.96056   1.95672   77.019
 5795.00    1.98011   1.96528   77.394
 5796.00    1.98336   1.96633   76.838
 5797.00    1.99396   1.96197   -1.000
 5798.00    2.00944   1.95907   -1.000
 5799.00    2.03239   1.96308   -1.000
 5800.00    2.03606   1.97273   -1.000
 5801.00    2.03189   1.98176   -1.000
 5802.00    2.04214   1.98450   -1.000
 5803.00    2.04218   1.97972   -1.000
 5804.00    1.98851   1.97098   76.756
 5805.00    1.99206   1.96397   76.468
 5806.00    2.00694   1.96231   -1.000
 5807.00    1.99978   1.96547   -1.000
 5808.00    1.97491   1.97045   76.175
 5809.00    1.99504   1.97497   75.872
 5810.00    2.04570   1.97848   -1.000
 5811.00    2.04753   1.98062   -1.000
 5812.00    2.04781   1.98036   -1.000
 5813.00    2.05793   1.97663   -1.000
 5814.00    2.03318   1.96943   -1.000
 5815.00    2.00800   1.96118   -1.000
 5816.00    1.99244   1.95685   -1.000
 5817.00    2.02534   1.96049   -1.000
 5818.00    2.07702   1.97061   -1.000
 5819.00    2.08109   1.98116   -1.000
 5820.00    2.09043   1.98751   -1.000
 5821.00    2.08449   1.98931   -1.000
 5822.00    2.05076   1.98854   -1.000
 5823.00    2.03138   1.98708   -1.000
 5824.00    2.04877   1.98600   -1.000
 5825.00    2.04369   1.98610   -1.000
 5826.00    2.04953   1.98782   -1.000
 5827.00    2.05984   1.99079   -1.000
 5828.00    2.06410   1.99400   -1.000
 5829.00    2.06825   1.99636   -1.000
 5830.00    2.07738   1.99715   -1.000
 5831.00    2.07358   1.99635   -1.000
 5832.00    2.04370   1.99421   -1.000
 5833.00    2.04919   1.99088   -1.000
 5834.00    2.08115   1.98720   -1.000
 5835.00    2.05717   1.98505   -1.000
 5836.00    2.04234   1.98562   -1.000
 5837.00    2.02885   1.98788   -1.000
 5838.00    2.04697   1.99041   -1.000
 5839.00    2.05305   1.99331   -1.000
 5840.00    2.05774   1.99697   -1.000
 5841.00    2.05519   2.00032   -1.000
 5842.00    2.03852   2.00149   -1.000
 5843.00    2.05326   1.99947   -1.000
 5844.00    2.06713   1.99468   -1.000
 5845.00    2.05059   1.98805   -1.000
 5846.00    2.04160   1.98080   -1.000
 5847.00    2.05703   1.97474   -1.000
 5848.00    2.04865   1.97136   -1.000
 5849.00    2.03231   1.96973   -1.000
 5850.00    2.04673   1.96642   -1.000
 5851.00    2.05025   1.95856   -1.000
 5852.00    2.04241   1.94713   -1.000
 5853.00    2.02917   1.93634   -1.000
 5854.00    2.00723   1.92858   -1.000
 5855.00    1.98442   1.92095   -1.000
 5856.00    1.99101   1.90906   -1.000
 5857.00    1.96410   1.89505   -1.000
 5858.00    1.98531   1.88825   -1.000
 5859.00    1.99181   1.89498   -1.000
 5860.00    1.99725   1.91131   -1.000
 5861.00    2.00611   1.92807   -1.000
 5862.00    2.02421   1.93978   -1.000
 5863.00    2.01615   1.94640   -1.000
 5864.00    2.03436   1.94900   -1.000
 5865.00    2.05308   1.94748   -1.000
 5866.00    2.03583   1.94334   -1.000
 5867.00    2.04687   1.94145   -1.000
 5868.00    2.06137   1.94611   -1.000
 5869.00    2.04389   1.95639   -1.000
 5870.00    2.02766   1.96694   -1.000
 5871.00    2.04647   1.97292   -1.000
 5872.00    2.07382   1.97349   -1.000
 5873.00    2.05913   1.97106   -1.000
 5874.00    2.03642   1.96820   -1.000
 5875.00    2.06213   1.96560   -1.000
 5876.00    2.07171   1.96233   -1.000
 5877.00    2.04380   1.95702   -1.000
 5878.00    2.03039   1.94923   -1.000
 5879.00    2.02327   1.94023   -1.000
 5880.00    2.01658   1.93225   -1.000
 5881.00    2.01279   1.92641   -1.000
 5882.00    2.01818   1.92167   -1.000
 5883.00    1.98513   1.91611   -1.000
 5884.00    1.93534   1.90870   80.081
 5885.00    1.80978   1.89725   -1.000
 5886.00    1.66673   1.87370   -1.000
 5887.00    1.52806   1.82589   -1.000
 5888.00    1.51623   1.75152   -1.000
 5889.00    1.56267   1.67153   -1.000
 5890.00    1.61999   1.62183   88.106
 5891.00    1.61518   1.62232   87.127
 5892.00    1.58892   1.65625   -1.000
 5893.00    1.54181   1.68639   -1.000
 5894.00    1.56898   1.68887   -1.000
 5895.00    1.66181   1.67099   86.868
 5896.00    1.76912   1.66088   -1.000
 5897.00    1.84799   1.68061   -1.000
 5898.00    1.90710   1.72726   -1.000
 5899.00    1.94395   1.78122   -1.000
 5900.00    1.98290   1.82775   -1.000
 5901.00    2.02034   1.86352   -1.000
 5902.00    2.04213   1.88921   -1.000
 5903.00    2.02584   1.90573   -1.000
 5904.00    2.02156   1.91504   -1.000
 5905.00    1.99670   1.92032   -1.000
 5906.00    2.00755   1.92454   -1.000
 5907.00    1.99636   1.92919   -1.000
 5908.00    2.01763   1.93422   -1.000
 5909.00    2.03843   1.93879   -1.000
 5910.00    2.04069   1.94165   -1.000
 5911.00    2.04538   1.94090   -1.000
 5912.00    2.02231   1.93456   -1.000
 5913.00    1.95791   1.92301   -1.000
 5914.00    1.95077   1.91052   -1.000
 5915.00    1.98284   1.90298   -1.000
 5916.00    2.00921   1.90360   -1.000
 5917.00    1.99655   1.91125   -1.000
 5918.00    1.98364   1.92205   -1.000
 5919.00    2.01785   1.93170   -1.000
 5920.00    2.02938   1.93756   -1.000
 5921.00    2.02846   1.93972   -1.000
 5922.00    2.03654   1.94020   -1.000
 5923.00    2.02995   1.94145   -1.000
 5924.00    2.02485   1.94483   -1.000
 5925.00    2.03944   1.94971   -1.000
 5926.00    2.06928   1.95349   -1.000
 5927.00    2.06949   1.95303   -1.000
 5928.00    2.02392   1.94727   -1.000
 5929.00    1.99607   1.93937   -1.000
 5930.00    2.00522   1.93504   -1.000
 5931.00    2.01399   1.93705   -1.000
 5932.00    2.03318   1.94194   -1.000
 5933.00    2.04518   1.94434   -1.000
 5934.00    2.04582   1.94358   -1.000
 5935.00    2.03664   1.94379   -1.000
 5936.00    2.03785   1.94804   -1.000
 5937.00    2.04876   1.95453   -1.000
 5938.00    2.00925   1.95855   -1.000
 5939.00    2.02672   1.95689   -1.000
 5940.00    2.00974   1.95029   -1.000
 5941.00    2.01967   1.94285   -1.000
 5942.00    2.01764   1.93920   -1.000
 5943.00    2.00313   1.94143   -1.000
 5944.00    2.01796   1.94760   -1.000
 5945.00    2.02624   1.95322   -1.000
 5946.00    2.00976   1.95433   -1.000
 5947.00    2.01437   1.95021   -1.000
 5948.00    2.01460   1.94417   -1.000
 5949.00    2.01005   1.94090   -1.000
 5950.00    2.02000   1.94153   -1.000
 5951.00    2.01829   1.94281   -1.000
 5952.00    2.03684   1.94209   -1.000
 5953.00    2.01924   1.94062   -1.000
 5954.00    2.01220   1.94024   -1.000
 5955.00    2.02925   1.93992   -1.000
 5956.00    2.03862   1.93847   -1.000
 5957.00    1.99566   1.93800   -1.000
 5958.00    2.04038   1.94195   -1.000
 5959.00    2.04395   1.95087   -1.000
 5960.00    2.04272   1.96170   -1.000
 5961.00    2.04176   1.97055   -1.000
 5962.00    2.04434   1.97521   -1.000
 5963.00    2.03997   1.97535   -1.000
 5964.00    2.02785   1.97194   -1.000
 5965.00    2.01500   1.96715   -1.000
 5966.00    2.02062   1.96400   -1.000
 5967.00    2.05112   1.96454   -1.000
 5968.00    2.04618   1.96829   -1.000
 5969.00    2.02033   1.97334   -1.000
 5970.00    2.02938   1.97817   -1.000
 5971.00    2.04357   1.98158   -1.000
 5972.00    2.03958   1.98233   -1.000
 5973.00    2.01953   1.97950   -1.000
 5974.00    2.00607   1.97258   -1.000
 5975.00    2.01505   1.96229   -1.000
 5976.00    2.01717   1.95187   -1.000
 5977.00    2.01980   1.94610   -1.000
 5978.00    2.02879   1.94780   -1.000
 5979.00    2.04130   1.95539   -1.000
 5980.00    2.04069   1.96360   -1.000
 5981.00    2.04499   1.96645   -1.000
 5982.00    2.02521   1.96105   -1.000
 5983.00    2.01625   1.95004   -1.000
 5984.00    2.01626   1.94038   -1.000
 5985.00    2.00419   1.93817   -1.000
 5986.00    2.01278   1.94400   -1.000
 5987.00    2.00714   1.95363   -1.000
 5988.00    2.00674   1.96248   -1.000
 5989.00    2.02810   1.96834   -1.000
 5990.00    2.03546   1.97128   -1.000
 5991.00    2.04283   1.97354   -1.000
 5992.00    2.02627   1.97821   -1.000
 5993.00    2.03002   1.98558   -1.000
 5994.00    2.05939   1.99155   -1.000
 5995.00    2.06152   1.99164   -1.000
 5996.00    2.04532   1.98591   -1.000
 5997.00    2.01963   1.97871   -1.000
 5998.00    2.03709   1.97452   -1.000
 5999.00    2.04159   1.97426   -1.000
 6000.00    2.02835   1.97515   -1.000
 6001.00    2.01879   1.97398   -1.000
 6002.00    2.01872   1.97035   -1.000
 6003.00    2.02729   1.96672   -1.000
 6004.00    2.01160   1.96476   -1.000
 6005.00    2.01696   1.96219   -1.000
 6006.00    2.02807   1.95563   -1.000
 6007.00    2.00575   1.94668   -1.000
 6008.00    1.99329   1.94223   -1.000
 6009.00    2.00486   1.94713   -1.000
 6010.00    2.03014   1.95803   -1.000
 6011.00    2.01775   1.96658   -1.000
 6012.00    2.01203   1.96828   -1.000
 6013.00    2.00836   1.96566   -1.000
 6014.00    2.01483   1.96306   -1.000
 6015.00    2.01570   1.96176   -1.000
 6016.00    2.03605   1.96061   -1.000
 6017.00    2.02647   1.95873   -1.000
 6018.00    2.03646   1.95584   -1.000
 6019.00    1.98241   1.95167   -1.000
 6020.00    1.97259   1.94727   80.005
 6021.00    1.96652   1.94523   79.901
 6022.00    1.98099   1.94709   -1.000
 6023.00    2.01678   1.95231   -1.000
 6024.00    2.00281   1.96002   -1.000
 6025.00    2.01455   1.96966   -1.000
 6026.00    2.02201   1.97964   -1.000
 6027.00    2.04004   1.98826   -1.000
 6028.00    2.05180   1.99535   -1.000
 6029.00    2.06646   2.00126   -1.000
 6030.00    2.06534   2.00573   -1.000
 6031.00    2.06227   2.00897   -1.000
 6032.00    2.05382   2.01195   -1.000
 6033.00    2.06969   2.01515   -1.000
 6034.00    2.08729   2.01807   -1.000
 6035.00    2.06708   2.01981   -1.000
 6036.00    2.07053   2.01956   -1.000
 6037.00    2.08896   2.01695   -1.000
 6038.00    2.06150   2.01238   -1.000
 6039.00    2.03448   2.00706   -1.000
 6040.00    2.01913   2.00278   78.058
 6041.00    2.03085   2.00089   -1.000
 6042.00    2.04208   2.00177   -1.000
 6043.00    2.07127   2.00570   -1.000
 6044.00    2.07472   2.01254   -1.000
 6045.00    2.05648   2.02021   -1.000
 6046.00    2.07046   2.02621   -1.000
 6047.00    2.07468   2.03005   -1.000
 6048.00    2.06097   2.03242   -1.000
 6049.00    2.05643   2.03349   77.711
 6050.00    2.06833   2.03292   -1.000
 6051.00    2.07550   2.03045   -1.000
 6052.00    2.08651   2.02603   -1.000
 6053.00    2.09221   2.01989   -1.000
 6054.00    2.05758   2.01272   -1.000
 6055.00    2.03110   2.00611   78.792
 6056.00    2.02491   2.00226   78.347
 6057.00    2.03870   2.00262   -1.000
 6058.00    2.05625   2.00663   -1.000
 6059.00    2.06684   2.01202   -1.000
 6060.00    2.09221   2.01582   -1.000
 6061.00    2.08240   2.01492   -1.000
 6062.00    2.04067   2.00714   -1.000
 6063.00    2.02219   1.99318   66.575
 6064.00    1.89990   1.97826   27.642
 6065.00    1.74581   1.97057   -1.000
 6066.00    0.98300   1.97572   -1.000
 6067.00    0.89862   1.99172   -1.000
 6068.00    1.97750   2.01064   75.782
 6069.00    2.03726   2.02552   75.580
 6070.00    1.89230   2.03436   -1.000
 6071.00    1.77606   2.03838   -1.000
 6072.00    1.10490   2.03944   -1.000
 6073.00    0.93763   2.03924   -1.000
 6074.00    2.13015   2.03839   -1.000
 6075.00    2.04971   2.03543   78.823
 6076.00    2.02987   2.02869   79.423
 6077.00    2.03048   2.01920   79.776
 6078.00    2.02903   2.01012   79.778
 6079.00    2.02248   2.00369   79.903
 6080.00    2.01701   1.99942   80.090
 6081.00    2.02004   1.99578   80.039
 6082.00    2.03697   1.99278   -1.000
 6083.00    2.02989   1.99159   -1.000
 6084.00    2.03698   1.99248   -1.000
 6085.00    2.03918   1.99501   -1.000
 6086.00    2.01858   1.99885   79.665
 6087.00    2.00980   2.00283   80.143
 6088.00    2.02359   2.00449   80.362
 6089.00    2.02160   2.00227   80.156
 6090.00    2.01469   1.99766   79.621
 6091.00    2.01821   1.99428   79.231
 6092.00    2.03022   1.99505   -1.000
 6093.00    2.03028   2.00033   -1.000
 6094.00    2.06249   2.00809   -1.000
 6095.00    2.06297   2.01561   -1.000
 6096.00    2.04287   2.02127   78.873
 6097.00    2.04002   2.02486   79.121
 6098.00    2.03602   2.02552   80.440
 6099.00    2.04300   2.01982   82.344
 6100.00    2.01125   2.00360   83.064
 6101.00    1.98073   1.97775   82.000
 6102.00    1.97667   1.95231   -1.000
 6103.00    1.96450   1.94107   -1.000
 6104.00    1.97751   1.94947   -1.000
 6105.00    2.00906   1.96982   -1.000
 6106.00    2.01017   1.99020   79.938
 6107.00    2.02776   2.00473   79.845
 6108.00    2.02311   2.01410   79.611
 6109.00    2.01098   2.02026   79.331
 6110.00    2.02891   2.02366   79.246
 6111.00    2.02394   2.02496   78.834
 6112.00    2.01123   2.02627   78.810
 6113.00    2.00849   2.02892   79.225
 6114.00    2.04481   2.03172   79.657
 6115.00    2.05230   2.03265   79.793
 6116.00    2.03884   2.03111   80.425
 6117.00    2.02718   2.02670   81.645
 6118.00    2.02437   2.01693   82.603
 6119.00    2.01008   1.99899   83.169
 6120.00    1.98648   1.97447   82.771
 6121.00    1.95300   1.95072   81.363
 6122.00    1.93943   1.93772   80.643
 6123.00    1.99208   1.94124   -1.000
 6124.00    2.02803   1.95719   -1.000
 6125.00    2.02480   1.97541   -1.000
 6126.00    2.01196   1.98886   -1.000
 6127.00    2.01581   1.99711   79.967
 6128.00    2.01896   2.00375   79.370
 6129.00    2.01469   2.01201   79.356
 6130.00    2.02081   2.02200   79.700
 6131.00    2.01870   2.03077   80.806
 6132.00    2.01344   2.03374   82.904
 6133.00    2.00324   2.02550   85.318
 6134.00    2.00426   2.00177   86.891
 6135.00    1.97494   1.96504   86.259
 6136.00    1.90281   1.92862   83.790
 6137.00    1.87314   1.91031   81.822
 6138.00    1.90810   1.91733   81.358
 6139.00    1.94980   1.93943   81.590
 6140.00    1.96146   1.96023   81.439
 6141.00    1.97712   1.97345   80.470
 6142.00    1.98624   1.98438   79.739
 6143.00    1.97707   1.99820   79.847
 6144.00    2.00367   2.01241   80.295
 6145.00    2.02304   2.02137   80.837
 6146.00    2.00259   2.02288   81.398
 6147.00    2.00100   2.01860   81.727
 6148.00    2.00611   2.01152   81.597
 6149.00    1.99018   2.00467   81.192
 6150.00    1.98822   2.00069   80.731
 6151.00    1.98410   2.00078   80.911
 6152.00    1.99191   2.00331   81.602
 6153.00    2.00468   2.00443   81.875
 6154.00    1.95911   2.00165   81.982
 6155.00    1.95403   1.99635   82.512
 6156.00    1.97175   1.99124   83.643
 6157.00    1.96214   1.98572   85.584
 6158.00    1.93671   1.97460   88.254
 6159.00    1.92792   1.95114   90.298
 6160.00    1.90995   1.91363   90.338
 6161.00    1.84183   1.87131   88.449
 6162.00    1.82301   1.84132   86.225
 6163.00    1.85950   1.83589   85.311
 6164.00    1.90735   1.85278   -1.000
 6165.00    1.93878   1.87856   -1.000
 6166.00    1.95648   1.89929   -1.000
 6167.00    1.93427   1.90729   -1.000
 6168.00    1.89389   1.90329   86.149
 6169.00    1.89354   1.89637   84.523
 6170.00    1.90733   1.89802   83.779
 6171.00    1.93223   1.91203   83.983
 6172.00    1.95132   1.93198   83.947
 6173.00    1.95699   1.94962   83.727
 6174.00    1.95649   1.96173   83.557
 6175.00    1.93109   1.96915   83.265
 6176.00    1.95399   1.97392   82.865
 6177.00    1.99469   1.97798   82.592
 6178.00    1.98401   1.98223   82.293
 6179.00    1.98288   1.98653   81.947
 6180.00    1.99402   1.99115   81.874
 6181.00    2.00173   1.99658   82.115
 6182.00    1.98022   2.00162   82.523
 6183.00    1.98693   2.00369   83.300
 6184.00    1.99044   2.00117   84.221
 6185.00    1.98020   1.99410   85.061
 6186.00    1.98434   1.98373   85.805
 6187.00    1.98427   1.97159   86.557
 6188.00    1.98573   1.95791   87.584
 6189.00    1.97378   1.94161   -1.000
 6190.00    1.93745   1.92466   86.080
 6191.00    1.93233   1.91471   84.054
 6192.00    1.92078   1.91929   83.046
 6193.00    1.93947   1.93722   82.733
 6194.00    1.95627   1.95940   82.845
 6195.00    1.97248   1.97727   83.590
 6196.00    1.97693   1.98704   84.515
 6197.00    1.96522   1.98811   84.924
 6198.00    1.96861   1.98218   84.519
 6199.00    1.94867   1.97441   83.520
 6200.00    1.92041   1.97152   -1.000
 6201.00    1.92963   1.97668   -1.000
 6202.00    1.96002   1.98716   82.623
 6203.00    2.00742   1.99799   82.505
 6204.00    2.01009   2.00612   82.624
 6205.00    1.99523   2.01131   82.877
 6206.00    1.98493   2.01465   82.941
 6207.00    2.00478   2.01661   83.485
 6208.00    2.02605   2.01628   84.256
 6209.00    2.00246   2.01206   84.945
 6210.00    1.98307   2.00272   85.950
 6211.00    1.96889   1.98788   87.177
 6212.00    1.97499   1.96894   87.787
 6213.00    1.97413   1.95001   87.511
 6214.00    1.94776   1.93651   86.445
 6215.00    1.93953   1.93101   86.480
 6216.00    1.94672   1.93121   86.935
 6217.00    1.92975   1.93226   86.376
 6218.00    1.94581   1.93120   86.094
 6219.00    1.95474   1.92947   88.568
 6220.00    1.95602   1.93094   92.795
 6221.00    1.95212   1.93707   88.131
 6222.00    1.95359   1.94517   85.306
 6223.00    1.89371   1.95175   -1.000
 6224.00    1.72247   1.95594   -1.000
 6225.00    1.89106   1.95816   -1.000
 6226.00    2.00292   1.95727   -1.000
 6227.00    1.94653   1.95025   89.221
 6228.00    1.92750   1.93481   89.828
 6229.00    1.92889   1.91355   88.987
 6230.00    1.91473   1.89516   87.500
 6231.00    1.88880   1.88921   85.885
 6232.00    1.90716   1.89896   84.842
 6233.00    1.94189   1.91939   84.864
 6234.00    1.96558   1.94123   85.618
 6235.00    1.95519   1.95630   86.506
 6236.00    1.95227   1.96090   87.397
 6237.00    1.97178   1.95642   88.152
 6238.00    1.97033   1.94724   88.323
 6239.00    1.95614   1.93760   88.478
 6240.00    1.94030   1.92966   89.189
 6241.00    1.94921   1.92303   89.545
 6242.00    1.94276   1.91588   89.253
 6243.00    1.91114   1.90768   88.535
 6244.00    1.89338   1.90079   87.547
 6245.00    1.91084   1.89920   86.474
 6246.00    1.91687   1.90608   85.863
 6247.00    1.92193   1.92095   86.146
 6248.00    1.93816   1.93801   87.290
 6249.00    1.95349   1.94869   88.809
 6250.00    1.96761   1.94702   89.673
 6251.00    1.94213   1.93356   90.127
 6252.00    1.91114   1.91515   90.251
 6253.00    1.88517   1.90012   90.471
 6254.00    1.86703   1.89214   91.385
 6255.00    1.87285   1.88911   91.785
 6256.00    1.88992   1.88736   90.942
 6257.00    1.89087   1.88644   89.490
 6258.00    1.89145   1.88950   88.201
 6259.00    1.91154   1.89943   86.958
 6260.00    1.93740   1.91567   85.893
 6261.00    1.95896   1.93447   85.926
 6262.00    1.96272   1.95100   86.672
 6263.00    1.96270   1.96157   86.901
 6264.00    1.96632   1.96586   86.338
 6265.00    1.96919   1.96741   86.007
 6266.00    1.92355   1.96980   -1.000
 6267.00    1.91373   1.97289   -1.000
 6268.00    1.94203   1.97417   86.475
 6269.00    1.94734   1.97308   86.197
 6270.00    1.94737   1.97198   86.149
 6271.00    1.95069   1.97260   86.550
 6272.00    1.96018   1.97322   87.239
 6273.00    1.94419   1.97005   88.177
 6274.00    1.89544   1.96060   -1.000
 6275.00    1.86324   1.94570   -1.000
 6276.00    1.84305   1.92857   -1.000
 6277.00    1.84194   1.91267   -1.000
 6278.00    1.83898   1.90060   -1.000
 6279.00    1.80688   1.89439   -1.000
 6280.00    1.78584   1.89609   -1.000
 6281.00    1.80999   1.90677   -1.000
 6282.00    1.84078   1.92459   -1.000
 6283.00    1.85779   1.94512   -1.000
 6284.00    1.88961   1.96369   -1.000
 6285.00    1.94331   1.97770   85.465
 6286.00    1.95568   1.98694   85.545
 6287.00    1.94518   1.99183   86.148
 6288.00    1.95052   1.99214   86.871
 6289.00    1.95047   1.98793   87.344
 6290.00    1.95616   1.98109   87.444
 6291.00    1.94813   1.97455   87.559
 6292.00    1.94191   1.96997   87.899
 6293.00    1.94659   1.96680   88.597
 6294.00    1.95013   1.96289   89.011
 6295.00    1.94655   1.95630   89.014
 6296.00    1.98736   1.94754   -1.000
 6297.00    2.01435   1.93976   -1.000
 6298.00    2.04451   1.93543   -1.000
 6299.00    2.05368   1.93345   -1.000
 6300.00    2.00666   1.93129   -1.000
 6301.00    1.93464   1.92976   88.600
 6302.00    1.90510   1.93320   87.265
 6303.00    1.91618   1.94407   86.340
 6304.00    1.93471   1.95962   85.609
 6305.00    1.93855   1.97500   85.043
 6306.00    1.95080   1.98738   85.141
 6307.00    1.96809   1.99591   85.626
 6308.00    1.97354   2.00033   86.136
 6309.00    1.97727   2.00092   86.451
 6310.00    1.96026   1.99884   86.717
 6311.00    1.93617   1.99501   -1.000
 6312.00    1.92954   1.98956   -1.000
 6313.00    1.91422   1.98215   -1.000
 6314.00    1.89355   1.97325   -1.000
 6315.00    1.90906   1.96469   -1.000
 6316.00    1.90054   1.95823   -1.000
 6317.00    1.87285   1.95491   -1.000
 6318.00    1.86742   1.95647   -1.000
 6319.00    1.91276   1.96432   -1.000
 6320.00    1.93935   1.97643   85.159
 6321.00    1.94944   1.98859   84.810
 6322.00    1.94712   1.99897   -1.000
 6323.00    1.96874   2.00848   84.233
 6324.00    1.98437   2.01714   84.070
 6325.00    1.98644   2.02330   83.789
 6326.00    1.96024   2.02615   -1.000
 6327.00    1.96983   2.02670   -1.000
 6328.00    1.96971   2.02665   -1.000
 6329.00    2.00390   2.02725   83.613
 6330.00    1.98722   2.02902   83.622
 6331.00    1.96994   2.03118   -1.000
 6332.00    1.95075   2.03047   -1.000
 6333.00    1.94094   2.02286   -1.000
 6334.00    1.94485   2.00827   -1.000
 6335.00    1.99106   1.99252   85.065
 6336.00    2.05654   1.98361   -1.000
 6337.00    1.96124   1.98551   83.416
 6338.00    1.94918   1.99593   83.051
 6339.00    1.95461   2.00958   -1.000
 6340.00    1.97226   2.02138   -1.000
 6341.00    1.97276   2.02756   -1.000
 6342.00    1.94806   2.02705   -1.000
 6343.00    1.95266   2.02269   -1.000
 6344.00    1.94970   2.01967   -1.000
 6345.00    1.94742   2.02178   -1.000
 6346.00    1.98248   2.02912   82.156
 6347.00    2.00046   2.03920   82.126
 6348.00    1.96690   2.04921   -1.000
 6349.00    1.97014   2.05691   -1.000
 6350.00    1.97600   2.06069   -1.000
 6351.00    1.95900   2.05971   -1.000
 6352.00    1.96362   2.05392   -1.000
 6353.00    1.96905   2.04449   -1.000
 6354.00    1.96028   2.03413   -1.000
 6355.00    1.94302   2.02546   -1.000
 6356.00    1.94431   2.01853   -1.000
 6357.00    1.95061   2.01138   -1.000
 6358.00    1.94583   2.00338   -1.000
 6359.00    1.95162   1.99611   -1.000
 6360.00    1.95991   1.99072   85.310
 6361.00    1.97252   1.98721   84.898
 6362.00    1.99401   1.98628   84.325
 6363.00    1.96788   1.98934   83.822
 6364.00    1.94024   1.99670   -1.000
 6365.00    1.96128   2.00693   82.799
 6366.00    1.96383   2.01795   -1.000
 6367.00    1.97437   2.02774   -1.000
 6368.00    1.97456   2.03474   -1.000
 6369.00    1.97105   2.03866   -1.000
 6370.00    1.98289   2.04126   -1.000
 6371.00    1.99959   2.04471   81.985
 6372.00    1.99716   2.04946   82.075
 6373.00    1.96716   2.05408   -1.000
 6374.00    1.95476   2.05657   -1.000
 6375.00    1.93251   2.05593   -1.000
 6376.00    1.92026   2.05251   -1.000
 6377.00    1.96164   2.04728   -1.000
 6378.00    1.95318   2.04133   -1.000
 6379.00    1.93849   2.03566   -1.000
 6380.00    1.94495   2.03112   -1.000
 6381.00    1.95984   2.02848   -1.000
 6382.00    1.95627   2.02804   -1.000
 6383.00    1.95214   2.02944   -1.000
 6384.00    1.94671   2.03224   -1.000
 6385.00    1.94630   2.03607   -1.000
 6386.00    1.95304   2.04005   -1.000
 6387.00    1.91990   2.04276   -1.000
 6388.00    1.92740   2.04314   -1.000
 6389.00    1.94429   2.04039   -1.000
 6390.00    1.92794   2.03315   -1.000
 6391.00    1.89323   2.02107   -1.000
 6392.00    1.88616   2.00777   -1.000
 6393.00    1.86346   2.00052   -1.000
 6394.00    1.84155   2.00438   -1.000
 6395.00    1.83337   2.01656   -1.000
 6396.00    1.86563   2.02758   -1.000
 6397.00    1.87996   2.02873   -1.000
 6398.00    1.84149   2.01869   -1.000
 6399.00    1.80296   2.00522   -1.000
 6400.00    1.77126   1.99998   -1.000
 6401.00    1.77868   2.00895   -1.000
 6402.00    1.80569   2.02775   -1.000
 6403.00    1.82450   2.04628   -1.000
 6404.00    1.81730   2.05661   -1.000
 6405.00    1.81594   2.05639   -1.000
 6406.00    1.80743   2.04849   -1.000
 6407.00    1.78199   2.03907   -1.000
 6408.00    1.74614   2.03328   -1.000
 6409.00    1.71021   2.03170   -1.000
 6410.00    1.70360   2.03141   -1.000
 6411.00    1.71945   2.03094   -1.000
 6412.00    1.72735   2.03206   -1.000
 6413.00    1.70777   2.03600   -1.000
 6414.00    1.70838   2.04152   -1.000
 6415.00    1.71486   2.04625   -1.000
 6416.00    1.70129   2.04802   -1.000
 6417.00    1.70114   2.04499   -1.000
 6418.00    1.68716   2.03647   -1.000
 6419.00    1.64192   2.02486   -1.000
 6420.00    1.60696   2.01625   -1.000
 6421.00    1.58881   2.01700   -1.000
 6422.00    1.58573   2.02847   -1.000
 6423.00    1.59434   2.04559   -1.000
 6424.00    1.60854   2.06151   -1.000
 6425.00    1.59035   2.07266   -1.000
 6426.00    1.58725   2.07785   -1.000
 6427.00    1.58234   2.07552   -1.000
 6428.00    1.00453   2.06455   -1.000
