###################################################################
## OUTPUT of StarlightChains_v04.for    [Cid@UFSC - 01/Apr/2007] ##
###################################################################

## Some input info
NGC6522_a_1.cxt                          [arq_obs]
Base.BC03.S                              [arq_base]
NGC6522_a_1.msk                          [arq_masks]
StCv04.C99.config                        [arq_config]
  150                                    [N_base]
    0                                    [N_YAV_components = # of components with extra extinction!]
    0                                    [i_FitPowerLaw (1/0 = Yes/No)]
-9.99                                    [alpha_PowerLaw]
CCM                                      [red_law_option]
 1.458241                                [q_norm = A(l_norm)/A(V)]

## (Re)Sampling Parameters
 3359.00                                 [l_ini (A)]
 6428.00                                 [l_fin (A)]
    1.00                                 [dl    (A)]     (OBS: dl_cushion =    50.00 A)

## Normalization info
 4020.00                                 [l_norm (A) - for base]
 4010.00                                 [llow_norm (A) - window for f_obs]
 4060.00                                 [lupp_norm (A) - window for f_obs]
8.861070E-15                             [fobs_norm (in input units)]

## S/N
 4730.00                                 [llow_SN (A) - window for S/N]
 4780.00                                 [lupp_SN (A) - window for S/N]
  58.057                                 [S/N in S/N window]
  38.566                                 [S/N in norm. window]
  50.435                                 [S/N_err in S/N window]
  33.502                                 [S/N_err in norm. window]
  1.0000                                 [fscale_chi2]

## etc...
  2147483607                             [idum_orig]
  3065                                   [NOl_eff]
  1655                                   [Nl_eff]
  1410    NSIGMA                         [Ntot_cliped & clip_method]
  4381090                                [Nglobal_steps]
   7                                     [N_chains]
  29                                     [NEX0s_base = N_base in EX0s-fits]
 0   0   1      235   2.0   7.152E+02    [Clip-Bug, RC-Crash & Burn-In warning-flags, n_censored_weights, wei_nsig_threshold & wei_limit]
   179    178.840    178.824      0.016  [idt_all, wdt_TotTime, wdt_UsrTime & wdt_SysTime (sec)]

## Synthesis Results - Best model ##

 2.10448E+00                             [chi2/Nl_eff]
     1.76406                             [adev (%)]

    99.50661                             [sum-of-x (%)]
 9.69523E-14                             [Flux_tot (units of input spectrum!)]
 2.64391E-09                             [Mini_tot (???)]
 1.32116E-09                             [Mcor_tot (???)]

  -8.35                                  [v0_min  (km/s)]
  66.94                                  [vd_min  (km/s)]
 1.7851                                  [AV_min  (mag)]
 0.0000                                  [YAV_min (mag)]

# j     x_j(%)      Mini_j(%)     Mcor_j(%)     age_j(yr)     Z_j      (L/M)_j    YAV?  Mstars   component_j        a/Fe...       SSP_chi2r SSP_adev(%)   SSP_AV   SSP_x(%)
  1      0.0000     0.0000E+00    0.0000E+00    1.000000E+06  0.00010  8.160E-03    0   1.0000   age020_m22            0.0000     1.6334E+03    33.8598   4.0000    75.0779
  2     16.0128     1.2400E-02    2.4814E-02    3.160000E+06  0.00010  4.759E-02    0   1.0000   age045_m22            0.0000     5.1259E+01     3.5026   3.1888    95.2515
  3      0.0000     0.0000E+00    0.0000E+00    5.010000E+06  0.00010  1.932E-02    0   0.9582   age055_m22            0.0000     3.6253E+02     9.7670   3.6689    80.8692
  4      0.0000     0.0000E+00    0.0000E+00    6.610000E+06  0.00010  9.973E-03    0   0.9297   age061_m22            0.0000     1.5019E+03    33.4873   4.0000    77.5359
  5      0.0000     0.0000E+00    0.0000E+00    8.710000E+06  0.00010  7.690E-03    0   0.9030   age067_m22            0.0000     1.4487E+03    33.0861   4.0000    78.0831
  6      0.0000     0.0000E+00    0.0000E+00    1.000000E+07  0.00010  6.375E-03    0   0.8902   age070_m22            0.0000     1.4321E+03    33.1702   4.0000    78.3049
  7      0.0000     0.0000E+00    0.0000E+00    1.445000E+07  0.00010  4.874E-03    0   0.8589   age078_m22            0.0000     1.0175E+03    28.1347   4.0000    82.0773
  8      0.0000     0.0000E+00    0.0000E+00    2.512000E+07  0.00010  4.103E-03    0   0.8174   age090_m22            0.0000     3.3408E+02    16.4460   4.0000    89.7051
  9      4.7684     4.8091E-02    7.5356E-02    4.000000E+07  0.00010  3.654E-03    0   0.7830   age104_m22            0.0000     1.5058E+02     8.0888   4.0000    94.3274
 10      4.5372     5.4059E-02    8.2186E-02    5.500000E+07  0.00010  3.093E-03    0   0.7597   age110_m22            0.0000     1.5798E+02     5.7094   4.0000    95.8048
 11      9.6555     1.4637E-01    2.0908E-01    1.015200E+08  0.00010  2.431E-03    0   0.7138   age116_m22            0.0000     2.5148E+02     5.7974   3.6583    98.8237
 12      0.0000     0.0000E+00    0.0000E+00    1.609000E+08  0.00010  1.319E-03    0   0.6775   age120_m22            0.0000     2.6723E+02     6.2941   3.1367   101.5688
 13      0.0000     0.0000E+00    0.0000E+00    2.861200E+08  0.00010  1.075E-03    0   0.6412   age125_m22            0.0000     7.5390E+02    11.3662   2.9837   107.3261
 14      0.0000     0.0000E+00    0.0000E+00    5.088000E+08  0.00010  7.183E-04    0   0.6083   age130_m22            0.0000     9.3223E+02    13.2914   2.6621   110.0796
 15      0.0000     0.0000E+00    0.0000E+00    9.047900E+08  0.00010  4.524E-04    0   0.5785   age135_m22            0.0000     9.4552E+02    13.7037   2.4419   111.4860
 16      0.0000     0.0000E+00    0.0000E+00    1.278050E+09  0.00010  3.018E-04    0   0.5588   age138_m22            0.0000     4.5111E+02     9.5661   2.0842   107.8028
 17      0.0000     0.0000E+00    0.0000E+00    1.434000E+09  0.00010  2.691E-04    0   0.5532   age139_m22            0.0000     3.6636E+02     8.7250   1.9609   106.8806
 18      0.0000     0.0000E+00    0.0000E+00    2.500000E+09  0.00010  1.582E-04    0   0.5296   age150_m22            0.0000     3.1298E+02     8.0117   1.8883   107.0205
 19      0.0000     0.0000E+00    0.0000E+00    4.250000E+09  0.00010  1.007E-04    0   0.5110   age158_m22            0.0000     1.6553E+02     5.8497   1.8161   104.5910
 20      0.0000     0.0000E+00    0.0000E+00    6.250000E+09  0.00010  6.869E-05    0   0.4985   age166_m22            0.0000     6.6021E+01     3.8819   1.8353   101.1714
 21      0.0000     0.0000E+00    0.0000E+00    7.500000E+09  0.00010  5.873E-05    0   0.4931   age171_m22            0.0000     5.4259E+01     3.5487   1.8412   100.4392
 22      0.0000     0.0000E+00    0.0000E+00    1.000000E+10  0.00010  4.481E-05    0   0.4854   age181_m22            0.0000     5.1741E+01     3.4930   1.8019   100.1444
 23      0.0000     0.0000E+00    0.0000E+00    1.300000E+10  0.00010  3.489E-05    0   0.4791   age193_m22            0.0000     4.4896E+01     3.3235   1.7486    99.6509
 24      0.0000     0.0000E+00    0.0000E+00    1.500000E+10  0.00010  3.035E-05    0   0.4766   age201_m22            0.0000     4.0094E+01     3.1833   1.7142    99.4619
 25     14.9774     2.1990E+01    2.0837E+01    1.800000E+10  0.00010  2.510E-05    0   0.4735   age213_m22            0.0000     2.9809E+01     2.8790   1.6576    98.8142
 26      0.0000     0.0000E+00    0.0000E+00    1.000000E+06  0.00040  8.458E-03    0   1.0000   age020_m32            0.0000     1.6255E+03    34.2415   4.0000    75.5929
 27      0.0000     0.0000E+00    0.0000E+00    3.160000E+06  0.00040  3.973E-02    0   1.0000   age045_m32            0.0000     2.9134E+02    14.2106   4.0000    89.5244
 28      0.0000     0.0000E+00    0.0000E+00    5.010000E+06  0.00040  1.935E-02    0   0.9532   age055_m32            0.0000     7.6014E+02    22.4218   4.0000    82.5403
 29      0.0000     0.0000E+00    0.0000E+00    6.610000E+06  0.00040  1.204E-02    0   0.9243   age061_m32            0.0000     1.1835E+03    29.7562   4.0000    80.1535
 30      0.0000     0.0000E+00    0.0000E+00    8.710000E+06  0.00040  9.433E-03    0   0.9001   age067_m32            0.0000     1.0774E+03    28.7205   4.0000    81.2850
 31      0.0000     0.0000E+00    0.0000E+00    1.000000E+07  0.00040  8.053E-03    0   0.8877   age070_m32            0.0000     1.0094E+03    27.7508   4.0000    81.8904
 32      0.0000     0.0000E+00    0.0000E+00    1.445000E+07  0.00040  7.027E-03    0   0.8578   age078_m32            0.0000     3.2133E+02    14.0288   4.0000    87.8009
 33      0.0000     0.0000E+00    0.0000E+00    2.512000E+07  0.00040  4.707E-03    0   0.8166   age090_m32            0.0000     1.1338E+02     5.8121   4.0000    91.4300
 34      0.0000     0.0000E+00    0.0000E+00    4.000000E+07  0.00040  3.714E-03    0   0.7827   age104_m32            0.0000     1.0828E+02     4.1996   3.8747    94.6699
 35      0.0000     0.0000E+00    0.0000E+00    5.500000E+07  0.00040  2.982E-03    0   0.7593   age110_m32            0.0000     1.3847E+02     4.3987   3.7753    96.1514
 36      0.0000     0.0000E+00    0.0000E+00    1.015200E+08  0.00040  2.188E-03    0   0.7143   age116_m32            0.0000     3.8625E+02     7.4150   3.3482   101.9620
 37      0.0000     0.0000E+00    0.0000E+00    1.609000E+08  0.00040  1.690E-03    0   0.6856   age120_m32            0.0000     6.0208E+02     9.7111   3.0458   105.5008
 38      0.0000     0.0000E+00    0.0000E+00    2.861200E+08  0.00040  1.152E-03    0   0.6509   age125_m32            0.0000     7.9819E+02    12.0515   2.7073   108.6901
 39      0.0000     0.0000E+00    0.0000E+00    5.088000E+08  0.00040  7.331E-04    0   0.6182   age130_m32            0.0000     8.7122E+02    12.9390   2.4953   110.0535
 40      0.0000     0.0000E+00    0.0000E+00    9.047900E+08  0.00040  3.960E-04    0   0.5890   age135_m32            0.0000     4.6472E+02     9.7596   2.1523   107.5878
 41      0.0000     0.0000E+00    0.0000E+00    1.278050E+09  0.00040  2.854E-04    0   0.5687   age138_m32            0.0000     3.7033E+02     8.6379   1.9253   108.4046
 42      0.0000     0.0000E+00    0.0000E+00    1.434000E+09  0.00040  2.531E-04    0   0.5632   age139_m32            0.0000     3.5791E+02     8.5706   1.8691   108.2584
 43      4.0883     1.0125E+00    1.0913E+00    2.500000E+09  0.00040  1.488E-04    0   0.5386   age150_m32            0.0000     2.3834E+02     7.1992   1.6608   105.9404
 44     12.9210     5.2429E+00    5.4549E+00    4.250000E+09  0.00040  9.082E-05    0   0.5199   age158_m32            0.0000     6.7141E+01     3.9996   1.6805   101.6656
 45      1.1591     6.7140E-01    6.8201E-01    6.250000E+09  0.00040  6.362E-05    0   0.5076   age166_m32            0.0000     1.3431E+01     2.3495   1.7311    97.6543
 46      0.0407     2.8388E-02    2.8558E-02    7.500000E+09  0.00040  5.289E-05    0   0.5027   age171_m32            0.0000     1.2740E+01     2.3105   1.7060    96.4479
 47      0.0000     0.0000E+00    0.0000E+00    1.000000E+10  0.00040  3.972E-05    0   0.4948   age181_m32            0.0000     1.4871E+01     2.3550   1.6467    95.2271
 48      0.0156     1.7564E-02    1.7118E-02    1.300000E+10  0.00040  3.283E-05    0   0.4870   age193_m32            0.0000     1.8379E+01     2.6196   1.5557    98.3113
 49      0.0000     0.0000E+00    0.0000E+00    1.500000E+10  0.00040  2.925E-05    0   0.4854   age201_m32            0.0000     3.2800E+01     3.1358   1.5086   100.1192
 50      0.0000     0.0000E+00    0.0000E+00    1.800000E+10  0.00040  2.469E-05    0   0.4819   age213_m32            0.0000     4.0659E+01     3.3747   1.4561   100.7773
 51      0.0000     0.0000E+00    0.0000E+00    1.000000E+06  0.00400  1.114E-02    0   1.0000   age020_m42            0.0000     1.5052E+03    32.5037   4.0000    76.3622
 52      0.9106     8.2386E-04    1.6485E-03    3.160000E+06  0.00400  4.073E-02    0   0.9999   age045_m42            0.0000     1.0249E+02     5.9178   4.0000    92.0211
 53      0.0000     0.0000E+00    0.0000E+00    5.010000E+06  0.00400  2.534E-02    0   0.9488   age055_m42            0.0000     4.9350E+02    17.7770   4.0000    85.6037
 54      0.0047     6.6990E-06    1.2360E-05    6.610000E+06  0.00400  2.583E-02    0   0.9220   age061_m42            0.0000     8.2381E+01     4.0529   3.9799    92.1771
 55      0.0000     0.0000E+00    0.0000E+00    8.710000E+06  0.00400  1.706E-02    0   0.8983   age067_m42            0.0000     1.0229E+02     5.3176   3.8717    89.6621
 56      0.0000     0.0000E+00    0.0000E+00    1.000000E+07  0.00400  1.271E-02    0   0.8862   age070_m42            0.0000     1.5153E+02     6.4769   3.8958    87.7807
 57      0.0000     0.0000E+00    0.0000E+00    1.445000E+07  0.00400  7.666E-03    0   0.8571   age078_m42            0.0000     3.1168E+02     9.0369   4.0000    85.5457
 58      0.0000     0.0000E+00    0.0000E+00    2.512000E+07  0.00400  5.070E-03    0   0.8174   age090_m42            0.0000     1.2772E+02     5.7213   3.7428    89.7789
 59      0.0000     0.0000E+00    0.0000E+00    4.000000E+07  0.00400  3.505E-03    0   0.7851   age104_m42            0.0000     7.6836E+01     3.9215   3.3687    93.5516
 60      0.0000     0.0000E+00    0.0000E+00    5.500000E+07  0.00400  3.059E-03    0   0.7629   age110_m42            0.0000     1.2851E+02     3.6955   3.2768    99.4020
 61      0.0000     0.0000E+00    0.0000E+00    1.015200E+08  0.00400  2.268E-03    0   0.7207   age116_m42            0.0000     5.1428E+02     8.7312   2.9763   106.5508
 62      0.0000     0.0000E+00    0.0000E+00    1.609000E+08  0.00400  1.720E-03    0   0.6930   age120_m42            0.0000     5.7335E+02     9.4904   2.7937   108.7053
 63      0.0267     9.1109E-04    1.2057E-03    2.861200E+08  0.00400  1.079E-03    0   0.6613   age125_m42            0.0000     5.7655E+02    10.1762   2.4131   109.4775
 64      0.0000     0.0000E+00    0.0000E+00    5.088000E+08  0.00400  6.261E-04    0   0.6313   age130_m42            0.0000     6.7731E+02    11.4172   2.1751   112.7132
 65      0.0000     0.0000E+00    0.0000E+00    9.047900E+08  0.00400  3.535E-04    0   0.6024   age135_m42            0.0000     3.8894E+02     8.8560   1.8722   112.0109
 66      0.0000     0.0000E+00    0.0000E+00    1.278050E+09  0.00400  2.677E-04    0   0.5837   age138_m42            0.0000     1.3321E+02     7.0438   1.2921   109.3349
 67      0.0000     0.0000E+00    0.0000E+00    1.434000E+09  0.00400  1.910E-04    0   0.5716   age139_m42            0.0000     1.7322E+02     7.2360   1.4279   110.3306
 68      0.0000     0.0000E+00    0.0000E+00    2.500000E+09  0.00400  9.818E-05    0   0.5463   age150_m42            0.0000     5.8430E+01     5.5773   1.2802   104.5845
 69      0.0000     0.0000E+00    0.0000E+00    4.250000E+09  0.00400  5.491E-05    0   0.5269   age158_m42            0.0000     6.3821E+01     5.0664   1.2136   101.3811
 70      0.0000     0.0000E+00    0.0000E+00    6.250000E+09  0.00400  3.857E-05    0   0.5151   age166_m42            0.0000     9.2743E+01     5.5713   1.1032   100.1206
 71      1.8975     2.1563E+00    2.2050E+00    7.500000E+09  0.00400  3.243E-05    0   0.5110   age171_m42            0.0000     1.1566E+02     5.9587   1.0287    99.6523
 72      1.3680     2.0798E+00    2.0926E+00    1.000000E+10  0.00400  2.424E-05    0   0.5028   age181_m42            0.0000     1.5443E+02     6.4491   0.9559    99.0918
 73      0.0000     0.0000E+00    0.0000E+00    1.300000E+10  0.00400  1.883E-05    0   0.4927   age193_m42            0.0000     1.9212E+02     6.7555   0.9250    98.8030
 74      1.7668     3.8641E+00    3.8037E+00    1.500000E+10  0.00400  1.685E-05    0   0.4919   age201_m42            0.0000     1.8157E+02     6.6177   0.9296    98.7994
 75      0.0000     0.0000E+00    0.0000E+00    1.800000E+10  0.00400  1.452E-05    0   0.4874   age213_m42            0.0000     1.6382E+02     6.3822   0.9440    99.0406
 76      0.0000     0.0000E+00    0.0000E+00    1.000000E+06  0.00800  1.286E-02    0   1.0000   age020_m52            0.0000     1.3500E+03    31.4770   4.0000    78.3759
 77      0.0000     0.0000E+00    0.0000E+00    3.160000E+06  0.00800  3.147E-02    0   0.9966   age045_m52            0.0000     1.1934E+03    29.5921   4.0000    80.0345
 78      0.0000     0.0000E+00    0.0000E+00    5.010000E+06  0.00800  2.664E-02    0   0.9443   age055_m52            0.0000     6.6234E+02    20.8311   4.0000    84.5763
 79      0.0000     0.0000E+00    0.0000E+00    6.610000E+06  0.00800  2.151E-02    0   0.9177   age061_m52            0.0000     1.2914E+02     5.7393   3.4752    90.1872
 80      0.0000     0.0000E+00    0.0000E+00    8.710000E+06  0.00800  1.628E-02    0   0.8948   age067_m52            0.0000     1.1780E+02     5.4337   3.8292    90.2859
 81      0.0000     0.0000E+00    0.0000E+00    1.000000E+07  0.00800  1.215E-02    0   0.8827   age070_m52            0.0000     1.8018E+02     6.2955   4.0000    88.8825
 82      0.0000     0.0000E+00    0.0000E+00    1.445000E+07  0.00800  8.739E-03    0   0.8552   age078_m52            0.0000     1.5244E+02     6.3967   4.0000    90.4102
 83      0.0000     0.0000E+00    0.0000E+00    2.512000E+07  0.00800  5.676E-03    0   0.8162   age090_m52            0.0000     1.1586E+02     4.1531   3.7250    94.7206
 84      0.0000     0.0000E+00    0.0000E+00    4.000000E+07  0.00800  3.939E-03    0   0.7841   age104_m52            0.0000     1.5180E+02     4.0859   3.4907    97.8961
 85      0.0000     0.0000E+00    0.0000E+00    5.500000E+07  0.00800  3.155E-03    0   0.7627   age110_m52            0.0000     2.1704E+02     5.1023   3.3961   100.3393
 86      0.0000     0.0000E+00    0.0000E+00    1.015200E+08  0.00800  2.206E-03    0   0.7226   age116_m52            0.0000     3.8976E+02     7.4577   3.0910   105.6923
 87      0.0000     0.0000E+00    0.0000E+00    1.609000E+08  0.00800  1.596E-03    0   0.6963   age120_m52            0.0000     4.7655E+02     8.6005   2.8197   108.0909
 88      0.0000     0.0000E+00    0.0000E+00    2.861200E+08  0.00800  1.002E-03    0   0.6665   age125_m52            0.0000     7.2577E+02    11.7296   2.3807   112.7774
 89      0.0000     0.0000E+00    0.0000E+00    5.088000E+08  0.00800  5.759E-04    0   0.6377   age130_m52            0.0000     7.6642E+02    12.9363   1.9659   117.8789
 90      0.0000     0.0000E+00    0.0000E+00    9.047900E+08  0.00800  2.972E-04    0   0.6086   age135_m52            0.0000     3.9351E+02    10.6652   1.5388   115.6624
 91      0.0000     0.0000E+00    0.0000E+00    1.278050E+09  0.00800  2.242E-04    0   0.5907   age138_m52            0.0000     1.5282E+02     8.0788   1.0995   112.8892
 92      0.0000     0.0000E+00    0.0000E+00    1.434000E+09  0.00800  1.645E-04    0   0.5787   age139_m52            0.0000     1.2779E+02     7.3640   1.2689   111.9427
 93      0.0000     0.0000E+00    0.0000E+00    2.500000E+09  0.00800  7.723E-05    0   0.5519   age150_m52            0.0000     1.0900E+02     6.8332   1.0231   107.5029
 94      0.6081     5.3983E-01    5.7472E-01    4.250000E+09  0.00800  4.151E-05    0   0.5320   age158_m52            0.0000     1.1674E+02     6.6005   0.9883   104.5244
 95      0.0000     0.0000E+00    0.0000E+00    6.250000E+09  0.00800  3.010E-05    0   0.5197   age166_m52            0.0000     1.8036E+02     7.3590   0.8093   103.2763
 96      1.6226     2.4238E+00    2.4927E+00    7.500000E+09  0.00800  2.467E-05    0   0.5139   age171_m52            0.0000     2.0048E+02     7.6087   0.7687   102.9395
 97     10.2060     2.0199E+01    2.0430E+01    1.000000E+10  0.00800  1.862E-05    0   0.5054   age181_m52            0.0000     2.6303E+02     8.4279   0.6335   102.8793
 98      5.9145     1.5210E+01    1.5183E+01    1.300000E+10  0.00800  1.433E-05    0   0.4988   age193_m52            0.0000     3.4780E+02     9.1924   0.5386   103.8156
 99      1.7186     5.0910E+00    5.0288E+00    1.500000E+10  0.00800  1.244E-05    0   0.4936   age201_m52            0.0000     3.8518E+02     9.4495   0.5104   104.3849
100      1.0917     3.7600E+00    3.6779E+00    1.800000E+10  0.00800  1.070E-05    0   0.4888   age213_m52            0.0000     4.0745E+02     9.6769   0.4726   104.3469
101      0.0000     0.0000E+00    0.0000E+00    1.000000E+06  0.02000  1.989E-02    0   1.0000   age020_m62            0.0000     1.4542E+03    31.6666   4.0000    77.2144
102      0.0000     0.0000E+00    0.0000E+00    3.160000E+06  0.02000  3.772E-02    0   0.9858   age045_m62            0.0000     1.1721E+03    28.2951   4.0000    79.8152
103      0.0000     0.0000E+00    0.0000E+00    5.010000E+06  0.02000  3.227E-02    0   0.9342   age055_m62            0.0000     2.7922E+02    13.1861   4.0000    88.8636
104      0.0000     0.0000E+00    0.0000E+00    6.610000E+06  0.02000  2.387E-02    0   0.9090   age061_m62            0.0000     2.5452E+02     8.5573   4.0000    87.2359
105      0.0000     0.0000E+00    0.0000E+00    8.710000E+06  0.02000  1.102E-02    0   0.8861   age067_m62            0.0000     5.7080E+02    11.9801   4.0000    80.5626
106      0.0000     0.0000E+00    0.0000E+00    1.000000E+07  0.02000  1.011E-02    0   0.8751   age070_m62            0.0000     3.9447E+02     9.7935   4.0000    83.4833
107      0.0000     0.0000E+00    0.0000E+00    1.445000E+07  0.02000  7.331E-03    0   0.8472   age078_m62            0.0000     2.7968E+02     8.3617   3.9904    85.5029
108      0.0000     0.0000E+00    0.0000E+00    2.512000E+07  0.02000  4.206E-03    0   0.8099   age090_m62            0.0000     2.8927E+02     8.0906   3.8913    85.2488
109      0.0000     0.0000E+00    0.0000E+00    4.000000E+07  0.02000  3.373E-03    0   0.7799   age104_m62            0.0000     1.0167E+02     3.8393   3.5240    95.4814
110      0.0000     0.0000E+00    0.0000E+00    5.500000E+07  0.02000  2.747E-03    0   0.7595   age110_m62            0.0000     1.6752E+02     4.2329   3.3541    99.9241
111      0.0000     0.0000E+00    0.0000E+00    1.015200E+08  0.02000  1.878E-03    0   0.7221   age116_m62            0.0000     4.4387E+02     8.0595   3.0458   106.5421
112      0.0000     0.0000E+00    0.0000E+00    1.609000E+08  0.02000  1.378E-03    0   0.6978   age120_m62            0.0000     6.6335E+02    10.5170   2.7849   110.3799
113      0.0000     0.0000E+00    0.0000E+00    2.861200E+08  0.02000  8.869E-04    0   0.6700   age125_m62            0.0000     1.0243E+03    14.1135   2.2519   116.8420
114      0.0000     0.0000E+00    0.0000E+00    5.088000E+08  0.02000  4.834E-04    0   0.6430   age130_m62            0.0000     8.5488E+02    14.0656   1.7813   120.0991
115      0.0000     0.0000E+00    0.0000E+00    9.047900E+08  0.02000  2.312E-04    0   0.6152   age135_m62            0.0000     3.4176E+02    10.1549   1.3689   117.2903
116      0.0000     0.0000E+00    0.0000E+00    1.278050E+09  0.02000  1.387E-04    0   0.5927   age138_m62            0.0000     1.2332E+02     7.5460   1.1410   111.7802
117      0.0000     0.0000E+00    0.0000E+00    1.434000E+09  0.02000  1.168E-04    0   0.5865   age139_m62            0.0000     1.0413E+02     7.1651   1.1450   109.9319
118      0.0000     0.0000E+00    0.0000E+00    2.500000E+09  0.02000  5.505E-05    0   0.5610   age150_m62            0.0000     1.3673E+02     7.5980   0.8399   106.7224
119      0.0000     0.0000E+00    0.0000E+00    4.250000E+09  0.02000  3.070E-05    0   0.5407   age158_m62            0.0000     2.6710E+02     9.2602   0.5389   107.3559
120      0.0000     0.0000E+00    0.0000E+00    6.250000E+09  0.02000  2.104E-05    0   0.5277   age166_m62            0.0000     3.6440E+02    10.0418   0.4042   108.1651
121      0.0012     2.5319E-03    2.6464E-03    7.500000E+09  0.02000  1.770E-05    0   0.5223   age171_m62            0.0000     4.1009E+02    10.5309   0.3053   108.8617
122      0.0000     0.0000E+00    0.0000E+00    1.000000E+10  0.02000  1.297E-05    0   0.5121   age181_m62            0.0000     5.1704E+02    11.4869   0.1272   109.9785
123      0.0000     0.0000E+00    0.0000E+00    1.300000E+10  0.02000  9.691E-06    0   0.5047   age193_m62            0.0000     5.9741E+02    12.2383   0.0000   110.8850
124      0.0000     0.0000E+00    0.0000E+00    1.500000E+10  0.02000  8.360E-06    0   0.4999   age201_m62            0.0000     6.6140E+02    12.6395  -0.0544   111.3785
125      0.0000     0.0000E+00    0.0000E+00    1.800000E+10  0.02000  6.911E-06    0   0.4946   age213_m62            0.0000     7.3966E+02    13.3657  -0.1537   112.2377
126      0.0000     0.0000E+00    0.0000E+00    1.000000E+06  0.05000  2.651E-02    0   0.9998   age020_m72            0.0000     1.4009E+03    31.2097   4.0000    78.3147
127      0.0000     0.0000E+00    0.0000E+00    3.160000E+06  0.05000  4.817E-02    0   0.9577   age045_m72            0.0000     7.9995E+02    23.5712   4.0000    83.9994
128      0.0000     0.0000E+00    0.0000E+00    5.010000E+06  0.05000  3.101E-02    0   0.9147   age055_m72            0.0000     4.4332E+02    14.8666   4.0000    86.7356
129      0.0000     0.0000E+00    0.0000E+00    6.610000E+06  0.05000  1.472E-02    0   0.8877   age061_m72            0.0000     5.0147E+02     9.9448   4.0000    83.1568
130      0.0000     0.0000E+00    0.0000E+00    8.710000E+06  0.05000  1.050E-02    0   0.8638   age067_m72            0.0000     5.7043E+02    14.7997   4.0000    84.8711
131      0.0000     0.0000E+00    0.0000E+00    1.000000E+07  0.05000  8.954E-03    0   0.8524   age070_m72            0.0000     6.8281E+02    20.1423   4.0000    85.6539
132      0.0000     0.0000E+00    0.0000E+00    1.445000E+07  0.05000  6.392E-03    0   0.8262   age078_m72            0.0000     5.6822E+02    18.2043   4.0000    87.0840
133      0.0000     0.0000E+00    0.0000E+00    2.512000E+07  0.05000  4.207E-03    0   0.7902   age090_m72            0.0000     1.8510E+02     7.3479   4.0000    91.9386
134      0.0000     0.0000E+00    0.0000E+00    4.000000E+07  0.05000  3.198E-03    0   0.7618   age104_m72            0.0000     2.5106E+02     5.3299   3.5240   101.4222
135      0.0000     0.0000E+00    0.0000E+00    5.500000E+07  0.05000  2.593E-03    0   0.7432   age110_m72            0.0000     3.4848E+02     6.7095   3.3747   103.6989
136      0.0000     0.0000E+00    0.0000E+00    1.015200E+08  0.05000  1.716E-03    0   0.7092   age116_m72            0.0000     5.5350E+02     9.1197   3.0850   107.2610
137      0.0000     0.0000E+00    0.0000E+00    1.609000E+08  0.05000  1.218E-03    0   0.6876   age120_m72            0.0000     7.9249E+02    11.5036   2.7022   111.6279
138      0.0000     0.0000E+00    0.0000E+00    2.861200E+08  0.05000  7.047E-04    0   0.6618   age125_m72            0.0000     9.7888E+02    14.0732   2.0230   117.8409
139      0.0000     0.0000E+00    0.0000E+00    5.088000E+08  0.05000  3.590E-04    0   0.6356   age130_m72            0.0000     6.9066E+02    13.4262   1.4648   120.6732
140      0.0000     0.0000E+00    0.0000E+00    9.047900E+08  0.05000  1.484E-04    0   0.6088   age135_m72            0.0000     1.8012E+02     9.1990   0.9875   111.8380
141      0.0000     0.0000E+00    0.0000E+00    1.278050E+09  0.05000  9.435E-05    0   0.5924   age138_m72            0.0000     1.8828E+02     9.5445   0.6544   108.9568
142      0.0000     0.0000E+00    0.0000E+00    1.434000E+09  0.05000  7.827E-05    0   0.5847   age139_m72            0.0000     1.9045E+02     9.1562   0.6956   107.9782
143      0.0000     0.0000E+00    0.0000E+00    2.500000E+09  0.05000  3.759E-05    0   0.5583   age150_m72            0.0000     3.3171E+02    10.0875   0.4068   107.3614
144      0.0000     0.0000E+00    0.0000E+00    4.250000E+09  0.05000  1.842E-05    0   0.5374   age158_m72            0.0000     4.7936E+02    11.2121   0.0748   107.5393
145      1.8251     5.5724E+00    5.8456E+00    6.250000E+09  0.05000  1.207E-05    0   0.5242   age166_m72            0.0000     6.1390E+02    12.7325  -0.2118   108.5153
146      1.6916     6.2382E+00    6.4704E+00    7.500000E+09  0.05000  9.993E-06    0   0.5183   age171_m72            0.0000     6.2795E+02    12.9801  -0.2670   108.7340
147      0.5626     2.8435E+00    2.8912E+00    1.000000E+10  0.05000  7.291E-06    0   0.5081   age181_m72            0.0000     7.1314E+02    14.1983  -0.4458   109.7892
148      0.1137     7.8825E-01    7.9156E-01    1.300000E+10  0.05000  5.316E-06    0   0.5018   age193_m72            0.0000     8.5244E+02    16.0353  -0.7233   111.5491
149      0.0003     2.6315E-03    2.6183E-03    1.500000E+10  0.05000  4.497E-06    0   0.4972   age201_m72            0.0000     9.2382E+02    17.0348  -0.8541   112.8500
150      0.0003     2.9661E-03    2.9228E-03    1.800000E+10  0.05000  3.739E-06    0   0.4924   age213_m72            0.0000     1.0201E+03    18.0444  -1.0000   114.2292


## Synthesis Results - Average & Chains ##

# j      x_j: min, <> & last-chain-values for 1 ...  7 chains
  1      0.0000      0.0051      0.0000      0.0000      0.0000      0.0000      0.0000      0.0000      0.0000
  2     16.0128     13.6764     14.7285     14.8562     14.0334     13.9773     14.6087     14.5604     14.4013
  3      0.0000      0.0295      0.0000      0.0661      0.0000      0.0000      0.0000      0.0000      0.0000
  4      0.0000      0.0066      0.0000      0.0000      0.0051      0.0000      0.0000      0.0000      0.0000
  5      0.0000      0.0060      0.0000      0.0000      0.0000      0.0000      0.0000      0.0000      0.0000
  6      0.0000      0.0058      0.0000      0.0000      0.0000      0.0000      0.0447      0.0000      0.0000
  7      0.0000      0.0100      0.0000      0.0000      0.0000      0.0000      0.0000      0.0000      0.0060
  8      0.0000      0.0177      0.0000      0.0000      0.1771      0.0000      0.0708      0.0000      0.0000
  9      4.7684      4.6784      4.8308      4.5889      4.5841      4.9118      4.4867      4.5060      4.8085
 10      4.5372      4.7535      4.2545      4.7759      5.0079      4.8692      4.3261      4.8166      4.5858
 11      9.6555     10.0657     10.7295     10.0899     10.1004      9.9034     10.1591     10.0231     10.2901
 12      0.0000      0.0369      0.0455      0.0000      0.0000      0.0000      0.0000      0.0000      0.0000
 13      0.0000      0.0225      0.0000      0.0000      0.0000      0.0000      0.0000      0.0000      0.0000
 14      0.0000      0.0151      0.0000      0.0000      0.0097      0.0000      0.0000      0.0000      0.0000
 15      0.0000      0.0142      0.0811      0.0674      0.0623      0.0000      0.0000      0.0000      0.0007
 16      0.0000      0.0230      0.0000      0.0000      0.0000      0.0000      0.0000      0.0000      0.0000
 17      0.0000      0.0251      0.0000      0.0000      0.0000      0.0221      0.0000      0.0000      0.0000
 18      0.0000      0.0438      0.0000      0.0000      0.0000      0.2971      0.0306      0.2147      0.0782
 19      0.0000      0.0873      0.0000      0.0000      0.3607      0.0000      0.0000      0.1621      0.0954
 20      0.0000      0.1352      0.1273      0.3583      0.0000      0.0000      0.0026      0.2208      0.0000
 21      0.0000      0.1719      0.0793      0.0182      0.0982      0.2154      0.0099      0.1987      0.0000
 22      0.0000      0.1658      0.0000      0.1022      0.0000      0.0002      0.1611      0.0000      0.1260
 23      0.0000      0.1922      0.0446      0.3996      0.0000      0.0320      0.0000      0.1117      0.0000
 24      0.0000      0.2116      0.0000      0.0000      0.0000      0.1878      0.1212      0.1671      0.1767
 25     14.9774     17.1216     17.7052     16.9998     17.3074     16.8447     17.0918     16.9981     16.7132
 26      0.0000      0.0057      0.0000      0.0000      0.0353      0.0434      0.0000      0.1605      0.0000
 27      0.0000      0.0190      0.0000      0.0000      0.0149      0.0000      0.0000      0.0000      0.0000
 28      0.0000      0.0095      0.0000      0.0000      0.0000      0.0000      0.0772      0.0000      0.0091
 29      0.0000      0.0086      0.0065      0.0000      0.0000      0.0000      0.0000      0.0000      0.0000
 30      0.0000      0.0098      0.0000      0.0000      0.0000      0.0000      0.0298      0.0000      0.0000
 31      0.0000      0.0073      0.0040      0.0000      0.0000      0.0000      0.0474      0.0000      0.0000
 32      0.0000      0.0280      0.0000      0.0000      0.0215      0.0114      0.0000      0.0000      0.0000
 33      0.0000      0.0276      0.0000      0.1896      0.0000      0.0000      0.0061      0.0000      0.0277
 34      0.0000      0.0380      0.0000      0.0826      0.1035      0.0000      0.0000      0.1705      0.0000
 35      0.0000      0.0495      0.0739      0.0000      0.0204      0.0000      0.0087      0.0652      0.0000
 36      0.0000      0.0508      0.0000      0.0000      0.0000      0.0697      0.0000      0.0000      0.0000
 37      0.0000      0.0695      0.0111      0.0000      0.0000      0.0902      0.0713      0.0000      0.0000
 38      0.0000      0.0236      0.0000      0.0000      0.0000      0.0000      0.0000      0.2533      0.1412
 39      0.0000      0.0210      0.0203      0.0000      0.0000      0.0000      0.0000      0.0075      0.0000
 40      0.0000      0.0145      0.0000      0.0000      0.0000      0.0000      0.0000      0.0000      0.0000
 41      0.0000      0.0370      0.0000      0.0000      0.0000      0.3617      0.0000      0.1737      0.0000
 42      0.0000      0.0466      0.0000      0.0000      0.0000      0.0220      0.0000      0.0216      0.0000
 43      4.0883      2.3640      2.8835      2.5242      1.9186      2.6854      3.1025      2.5761      3.7114
 44     12.9210     10.6045     11.7976     11.6277     11.2138     11.0462     11.1463     11.3461     10.6996
 45      1.1591      0.7124      0.0000      0.0926      0.6806      0.7257      0.6806      0.3827      0.6510
 46      0.0407      0.3558      0.0381      0.2637      0.9802      0.2535      0.7158      0.6100      0.1000
 47      0.0000      0.1633      0.0000      0.1830      0.0000      0.4354      0.0000      0.1344      0.2733
 48      0.0156      0.2482      0.0000      0.4578      0.0689      0.1216      0.5248      0.0787      0.0000
 49      0.0000      0.4058      0.0000      0.2464      0.7953      0.4013      0.0138      0.0347      0.3155
 50      0.0000      0.3919      0.1991      0.5093      0.0000      0.1421      0.0000      0.3078      0.5200
 51      0.0000      0.0031      0.0000      0.0000      0.0000      0.0000      0.0000      0.0000      0.0000
 52      0.9106      0.4661      0.3275      0.2250      0.6119      0.8225      0.5572      0.3505      0.4588
 53      0.0000      0.0164      0.0000      0.0000      0.0000      0.0000      0.0000      0.0000      0.0000
 54      0.0047      0.1787      0.1829      0.0000      0.0385      0.0367      0.3957      0.1943      0.0944
 55      0.0000      0.0315      0.0000      0.0000      0.0000      0.0903      0.0000      0.0104      0.0000
 56      0.0000      0.0252      0.0997      0.0000      0.0000      0.0000      0.0000      0.0000      0.0000
 57      0.0000      0.0117      0.0000      0.0000      0.0000      0.0000      0.0000      0.0000      0.0000
 58      0.0000      0.0185      0.0000      0.0000      0.0000      0.0000      0.0000      0.0000      0.0000
 59      0.0000      0.0143      0.0000      0.0000      0.0000      0.0000      0.0000      0.0000      0.0000
 60      0.0000      0.0205      0.0000      0.0000      0.0000      0.0000      0.0000      0.0000      0.0000
 61      0.0000      0.0477      0.0000      0.0000      0.0000      0.0000      0.1258      0.0000      0.0000
 62      0.0000      0.0368      0.0000      0.2228      0.0000      0.0000      0.0133      0.0068      0.0000
 63      0.0267      0.0280      0.0000      0.0000      0.0167      0.0000      0.2425      0.0337      0.0000
 64      0.0000      0.0340      0.0000      0.0000      0.0000      0.0243      0.1748      0.0000      0.0000
 65      0.0000      0.0646      0.1324      0.0006      0.3027      0.0000      0.0000      0.0000      0.0000
 66      0.0000      0.0761      0.0000      0.0000      0.0000      0.0000      0.0643      0.0013      0.0000
 67      0.0000      0.0577      0.0000      0.1268      0.0000      0.0000      0.0393      0.2528      0.0000
 68      0.0000      0.0985      0.0000      0.0000      0.1861      0.0000      0.0000      0.0000      0.0693
 69      0.0000      0.1469      0.3950      0.0000      0.0233      0.2497      0.0927      0.0000      0.0000
 70      0.0000      0.1452      0.1282      0.0596      0.0391      0.0391      0.0282      0.0273      0.8486
 71      1.8975      3.3918      2.5740      3.1918      3.4347      3.2548      3.2831      3.2727      3.1014
 72      1.3680      1.2824      1.3035      0.8160      1.4480      1.3103      1.1571      0.7179      1.0660
 73      0.0000      0.2118      0.3300      0.3489      0.3795      0.1925      0.1501      0.5441      0.0000
 74      1.7668      0.2193      0.2552      0.1744      0.0000      0.3364      0.4715      0.4164      0.3738
 75      0.0000      0.1298      0.0000      0.5595      0.1141      0.0213      0.0000      0.4431      0.0000
 76      0.0000      0.0074      0.0000      0.0000      0.0000      0.0000      0.0000      0.0000      0.0000
 77      0.0000      0.0070      0.0567      0.0000      0.0000      0.0000      0.0262      0.0000      0.0417
 78      0.0000      0.0103      0.0000      0.0000      0.0000      0.0000      0.0000      0.0000      0.0000
 79      0.0000      0.0177      0.0000      0.0000      0.0000      0.0000      0.0000      0.0000      0.0000
 80      0.0000      0.0170      0.0000      0.0000      0.0000      0.0000      0.0000      0.0000      0.0000
 81      0.0000      0.0137      0.0069      0.0545      0.0000      0.0000      0.0000      0.0000      0.0000
 82      0.0000      0.0131      0.0000      0.0000      0.0000      0.0000      0.0000      0.0000      0.2977
 83      0.0000      0.0282      0.0000      0.0000      0.0000      0.0000      0.0000      0.0000      0.0000
 84      0.0000      0.0430      0.0000      0.0000      0.0000      0.0000      0.0000      0.0000      0.0000
 85      0.0000      0.0291      0.0000      0.0000      0.1705      0.1248      0.0000      0.0000      0.0000
 86      0.0000      0.0292      0.0513      0.0000      0.0000      0.0000      0.0000      0.0000      0.0000
 87      0.0000      0.0354      0.0000      0.0542      0.0000      0.0000      0.0000      0.0000      0.0000
 88      0.0000      0.0151      0.0000      0.0000      0.2023      0.0000      0.0000      0.0000      0.0000
 89      0.0000      0.0128      0.0554      0.0000      0.0255      0.0000      0.0000      0.0000      0.0000
 90      0.0000      0.0125      0.0000      0.0000      0.0217      0.0000      0.0000      0.0000      0.0000
 91      0.0000      0.0238      0.0000      0.0000      0.0000      0.0000      0.0000      0.0000      0.0000
 92      0.0000      0.0216      0.0000      0.0000      0.0000      0.0000      0.0000      0.0000      0.0000
 93      0.0000      0.0422      0.0000      0.0000      0.0000      0.0000      0.0007      0.0386      0.0000
 94      0.6081      0.1441      0.7141      0.0000      0.4267      0.4023      0.3850      0.0000      0.0288
 95      0.0000      0.1380      0.0000      0.0000      0.0000      0.0000      0.0697      0.0000      0.2953
 96      1.6226      0.1519      0.0000      0.3582      0.4472      0.4719      0.4091      0.0000      0.2022
 97     10.2060      9.2765      9.7366      9.4156      9.3783      9.4945      9.2393      9.5806      9.5383
 98      5.9145      6.1253      6.1080      6.2861      5.8950      5.9150      5.9243      6.6628      6.5942
 99      1.7186      2.7764      2.8227      2.7483      2.8058      2.6693      2.8833      2.8101      2.3671
100      1.0917      3.0276      2.8454      3.0477      3.2273      2.8036      3.0202      2.9904      2.9960
101      0.0000      0.0061      0.0000      0.0000      0.0000      0.0000      0.0000      0.0000      0.0000
102      0.0000      0.0058      0.0000      0.0000      0.0000      0.0000      0.0310      0.0000      0.0000
103      0.0000      0.0134      0.0000      0.0000      0.0000      0.0000      0.0000      0.0000      0.0000
104      0.0000      0.0170      0.0000      0.0000      0.0000      0.0271      0.0000      0.0000      0.0390
105      0.0000      0.0053      0.0000      0.0000      0.0000      0.0054      0.0000      0.0000      0.0000
106      0.0000      0.0112      0.1990      0.0000      0.0000      0.0000      0.0000      0.0000      0.0000
107      0.0000      0.0099      0.0000      0.0000      0.0000      0.0000      0.0000      0.0000      0.0577
108      0.0000      0.0060      0.0000      0.0000      0.0000      0.0000      0.0000      0.0000      0.0000
109      0.0000      0.0104      0.0000      0.0000      0.0000      0.0000      0.0000      0.0000      0.0000
110      0.0000      0.0132      0.0000      0.0000      0.0121      0.0000      0.0000      0.0000      0.0000
111      0.0000      0.0198      0.0000      0.0149      0.0000      0.0000      0.0000      0.0000      0.0000
112      0.0000      0.0179      0.0000      0.0000      0.0000      0.0000      0.0000      0.0000      0.0000
113      0.0000      0.0126      0.0000      0.0000      0.0000      0.0000      0.0000      0.0000      0.0202
114      0.0000      0.0115      0.0000      0.0000      0.0360      0.0000      0.0049      0.0098      0.0000
115      0.0000      0.0160      0.0000      0.0000      0.0000      0.0000      0.0000      0.0000      0.0000
116      0.0000      0.0243      0.0000      0.0000      0.0006      0.0000      0.0000      0.0000      0.0000
117      0.0000      0.0212      0.0000      0.0000      0.0000      0.0000      0.0000      0.0000      0.0000
118      0.0000      0.0439      0.0000      0.0000      0.0000      0.0000      0.0714      0.0000      0.0103
119      0.0000      0.0393      0.0516      0.0290      0.0000      0.3117      0.0051      0.0000      0.1808
120      0.0000      0.0542      0.0000      0.0312      0.0000      0.0000      0.0940      0.0000      0.0000
121      0.0012      0.0572      0.0000      0.0000      0.0000      0.0000      0.2353      0.0000      0.0934
122      0.0000      0.0343      0.1979      0.2347      0.0000      0.0000      0.0000      0.0000      0.0000
123      0.0000      0.0628      0.0640      0.1571      0.0496      0.0000      0.0000      0.0000      0.0838
124      0.0000      0.0560      0.2203      0.0000      0.0000      0.0000      0.0000      0.0000      0.2255
125      0.0000      0.0438      0.0000      0.0000      0.0242      0.0079      0.0000      0.0000      0.0139
126      0.0000      0.0045      0.0000      0.0000      0.0000      0.0000      0.0000      0.0000      0.0000
127      0.0000      0.0072      0.0000      0.0000      0.0000      0.0000      0.0000      0.0000      0.0000
128      0.0000      0.0130      0.0000      0.1347      0.0000      0.0165      0.0000      0.0000      0.0739
129      0.0000      0.0067      0.0000      0.0000      0.0000      0.0000      0.0000      0.0000      0.0000
130      0.0000      0.0039      0.0000      0.0000      0.0000      0.0000      0.0000      0.0000      0.0000
131      0.0000      0.0053      0.0000      0.0230      0.0000      0.0149      0.0000      0.0000      0.0000
132      0.0000      0.0037      0.0592      0.0000      0.0000      0.0000      0.0000      0.0807      0.0000
133      0.0000      0.0058      0.0000      0.0000      0.0036      0.0000      0.0000      0.0000      0.0000
134      0.0000      0.0060      0.0000      0.0000      0.0000      0.0000      0.0000      0.0000      0.0000
135      0.0000      0.0126      0.0000      0.0000      0.0000      0.0000      0.0000      0.0000      0.0000
136      0.0000      0.0227      0.0000      0.0000      0.0000      0.0081      0.0000      0.0242      0.0000
137      0.0000      0.0148      0.0000      0.0000      0.0000      0.0000      0.0000      0.0000      0.0000
138      0.0000      0.0125      0.0000      0.0000      0.0000      0.0000      0.0000      0.0000      0.0000
139      0.0000      0.0112      0.0000      0.0000      0.0000      0.0000      0.0788      0.0000      0.0000
140      0.0000      0.0350      0.0000      0.0000      0.0000      0.0722      0.0000      0.0000      0.0000
141      0.0000      0.0224      0.1393      0.0000      0.0000      0.0000      0.0000      0.0000      0.0170
142      0.0000      0.0272      0.0000      0.0375      0.0000      0.0000      0.0000      0.0000      0.0847
143      0.0000      0.0318      0.0000      0.0000      0.0000      0.0000      0.0000      0.0000      0.0000
144      0.0000      0.1671      0.1163      0.1578      0.0000      0.4147      0.0000      0.0000      0.0000
145      1.8251      0.5648      0.8307      0.5948      0.5082      0.7755      0.6101      0.6391      0.7173
146      1.6916      0.5658      0.6972      0.6017      0.6397      0.7297      0.6079      0.9207      0.5148
147      0.5626      0.3956      0.4658      0.4342      0.4060      0.3908      0.5922      0.2148      0.4232
148      0.1137      0.4048      0.3114      0.3596      0.4785      0.4060      0.3428      0.3844      0.4024
149      0.0003      0.2169      0.1131      0.1575      0.2199      0.1593      0.2498      0.2043      0.1149
150      0.0003      0.3094      0.2960      0.3328      0.2987      0.2091      0.2780      0.3618      0.3243

# j      m_j: min, <> & last-chain-values for 1 ...  7 chains
  1  0.0000E+00  4.3040E-05  0.0000E+00  0.0000E+00  0.0000E+00  0.0000E+00  0.0000E+00  0.0000E+00  0.0000E+00
  2  2.4814E-02  1.9601E-02  2.1245E-02  2.1158E-02  2.0123E-02  2.0418E-02  2.1134E-02  2.0750E-02  2.0808E-02
  3  0.0000E+00  9.9725E-05  0.0000E+00  2.2208E-04  0.0000E+00  0.0000E+00  0.0000E+00  0.0000E+00  0.0000E+00
  4  0.0000E+00  4.1918E-05  0.0000E+00  0.0000E+00  3.2678E-05  0.0000E+00  0.0000E+00  0.0000E+00  0.0000E+00
  5  0.0000E+00  4.7723E-05  0.0000E+00  0.0000E+00  0.0000E+00  0.0000E+00  0.0000E+00  0.0000E+00  0.0000E+00
  6  0.0000E+00  5.5084E-05  0.0000E+00  0.0000E+00  0.0000E+00  0.0000E+00  4.2969E-04  0.0000E+00  0.0000E+00
  7  0.0000E+00  1.2018E-04  0.0000E+00  0.0000E+00  0.0000E+00  0.0000E+00  0.0000E+00  0.0000E+00  7.3286E-05
  8  0.0000E+00  2.4093E-04  0.0000E+00  0.0000E+00  2.4078E-03  0.0000E+00  9.7105E-04  0.0000E+00  0.0000E+00
  9  7.5356E-02  6.8377E-02  7.1060E-02  6.6649E-02  6.7034E-02  7.3172E-02  6.6192E-02  6.5486E-02  7.0852E-02
 10  8.2186E-02  7.9634E-02  7.1733E-02  7.9507E-02  8.3939E-02  8.3144E-02  7.3156E-02  8.0237E-02  7.7450E-02
 11  2.0908E-01  2.0158E-01  2.1626E-01  2.0080E-01  2.0238E-01  2.0216E-01  2.0537E-01  1.9960E-01  2.0776E-01
 12  0.0000E+00  1.2919E-03  1.6051E-03  0.0000E+00  0.0000E+00  0.0000E+00  0.0000E+00  0.0000E+00  0.0000E+00
 13  0.0000E+00  9.1578E-04  0.0000E+00  0.0000E+00  0.0000E+00  0.0000E+00  0.0000E+00  0.0000E+00  0.0000E+00
 14  0.0000E+00  8.7356E-04  0.0000E+00  0.0000E+00  5.6067E-04  0.0000E+00  0.0000E+00  0.0000E+00  0.0000E+00
 15  0.0000E+00  1.2371E-03  7.1218E-03  5.8431E-03  5.4343E-03  0.0000E+00  0.0000E+00  0.0000E+00  6.4003E-05
 16  0.0000E+00  2.9030E-03  0.0000E+00  0.0000E+00  0.0000E+00  0.0000E+00  0.0000E+00  0.0000E+00  0.0000E+00
 17  0.0000E+00  3.5187E-03  0.0000E+00  0.0000E+00  0.0000E+00  3.1554E-03  0.0000E+00  0.0000E+00  0.0000E+00
 18  0.0000E+00  1.0005E-02  0.0000E+00  0.0000E+00  0.0000E+00  6.9140E-02  7.0550E-03  4.8749E-02  1.8005E-02
 19  0.0000E+00  3.0232E-02  0.0000E+00  0.0000E+00  1.2491E-01  0.0000E+00  0.0000E+00  5.5793E-02  3.3303E-02
 20  0.0000E+00  6.6931E-02  6.3422E-02  1.7622E-01  0.0000E+00  0.0000E+00  1.3130E-03  1.0866E-01  0.0000E+00
 21  0.0000E+00  9.8424E-02  4.5724E-02  1.0367E-02  5.6262E-02  1.2571E-01  5.6967E-03  1.1313E-01  0.0000E+00
 22  0.0000E+00  1.2247E-01  0.0000E+00  7.5056E-02  0.0000E+00  1.6649E-04  1.2017E-01  0.0000E+00  9.3830E-02
 23  0.0000E+00  1.8005E-01  4.2022E-02  3.7192E-01  0.0000E+00  3.0555E-02  0.0000E+00  1.0407E-01  0.0000E+00
 24  0.0000E+00  2.2661E-01  0.0000E+00  0.0000E+00  0.0000E+00  2.0501E-01  1.3104E-01  1.7796E-01  1.9082E-01
 25  2.0837E+01  2.2030E+01  2.2928E+01  2.1736E+01  2.2280E+01  2.2091E+01  2.2198E+01  2.1748E+01  2.1680E+01
 26  0.0000E+00  4.6075E-05  0.0000E+00  0.0000E+00  2.8501E-04  3.5646E-04  0.0000E+00  1.2867E-03  0.0000E+00
 27  0.0000E+00  3.2677E-05  0.0000E+00  0.0000E+00  2.5559E-05  0.0000E+00  0.0000E+00  0.0000E+00  0.0000E+00
 28  0.0000E+00  3.1990E-05  0.0000E+00  0.0000E+00  0.0000E+00  9.8609E-08  2.6189E-04  0.0000E+00  3.0922E-05
 29  0.0000E+00  4.5224E-05  3.4209E-05  0.0000E+00  0.0000E+00  0.0000E+00  0.0000E+00  0.0000E+00  0.0000E+00
 30  0.0000E+00  6.3775E-05  0.0000E+00  0.0000E+00  0.0000E+00  0.0000E+00  1.9558E-04  0.0000E+00  0.0000E+00
 31  0.0000E+00  5.4642E-05  3.0118E-05  0.0000E+00  0.0000E+00  0.0000E+00  3.5952E-04  0.0000E+00  0.0000E+00
 32  0.0000E+00  2.3287E-04  0.0000E+00  0.0000E+00  1.7945E-04  9.6862E-05  0.0000E+00  0.0000E+00  0.0000E+00
 33  0.0000E+00  3.2682E-04  0.0000E+00  2.2290E-03  0.0000E+00  0.0000E+00  7.3192E-05  0.0000E+00  3.3075E-04
 34  0.0000E+00  5.4649E-04  0.0000E+00  1.1805E-03  1.4883E-03  0.0000E+00  0.0000E+00  2.4373E-03  0.0000E+00
 35  0.0000E+00  8.6011E-04  1.2926E-03  0.0000E+00  3.5481E-04  0.0000E+00  1.5305E-04  1.1261E-03  0.0000E+00
 36  0.0000E+00  1.1318E-03  0.0000E+00  0.0000E+00  0.0000E+00  1.5815E-03  0.0000E+00  0.0000E+00  0.0000E+00
 37  0.0000E+00  1.9225E-03  3.1009E-04  0.0000E+00  0.0000E+00  2.5429E-03  1.9905E-03  0.0000E+00  0.0000E+00
 38  0.0000E+00  9.0921E-04  0.0000E+00  0.0000E+00  0.0000E+00  0.0000E+00  0.0000E+00  9.7054E-03  5.4872E-03
 39  0.0000E+00  1.2083E-03  1.1780E-03  0.0000E+00  0.0000E+00  0.0000E+00  0.0000E+00  4.2857E-04  0.0000E+00
 40  0.0000E+00  1.4682E-03  0.0000E+00  0.0000E+00  0.0000E+00  0.0000E+00  0.0000E+00  0.0000E+00  0.0000E+00
 41  0.0000E+00  5.0224E-03  0.0000E+00  0.0000E+00  0.0000E+00  5.0104E-02  0.0000E+00  2.3480E-02  0.0000E+00
 42  0.0000E+00  7.0760E-03  0.0000E+00  0.0000E+00  0.0000E+00  3.4028E-03  0.0000E+00  3.2626E-03  0.0000E+00
 43  1.0913E+00  5.8363E-01  7.1646E-01  6.1926E-01  4.7392E-01  6.7575E-01  7.7314E-01  6.3241E-01  9.2373E-01
 44  5.4549E+00  4.1405E+00  4.6360E+00  4.5115E+00  4.3806E+00  4.3961E+00  4.3930E+00  4.4051E+00  4.2117E+00
 45  6.8201E-01  3.8770E-01  0.0000E+00  5.0059E-02  3.7055E-01  4.0255E-01  3.7384E-01  2.0710E-01  3.5716E-01
 46  2.8558E-02  2.3068E-01  2.4832E-02  1.6987E-01  6.3574E-01  1.6752E-01  4.6842E-01  3.9324E-01  6.5335E-02
 47  0.0000E+00  1.3875E-01  0.0000E+00  1.5452E-01  0.0000E+00  3.7711E-01  0.0000E+00  1.1353E-01  2.3406E-01
 48  1.7118E-02  2.5115E-01  0.0000E+00  4.6030E-01  6.9796E-02  1.2543E-01  5.3598E-01  7.9216E-02  0.0000E+00
 49  0.0000E+00  4.5930E-01  0.0000E+00  2.7718E-01  9.0063E-01  4.6293E-01  1.5712E-02  3.9099E-02  3.6004E-01
 50  0.0000E+00  5.2174E-01  2.6671E-01  6.7373E-01  0.0000E+00  1.9284E-01  0.0000E+00  4.0739E-01  6.9787E-01
 51  0.0000E+00  1.8807E-05  0.0000E+00  0.0000E+00  0.0000E+00  0.0000E+00  0.0000E+00  0.0000E+00  0.0000E+00
 52  1.6485E-03  7.8042E-04  5.5185E-04  3.7443E-04  1.0251E-03  1.4038E-03  9.4183E-04  5.8350E-04  7.7454E-04
 53  0.0000E+00  4.1755E-05  0.0000E+00  0.0000E+00  0.0000E+00  0.0000E+00  0.0000E+00  0.0000E+00  0.0000E+00
 54  1.2360E-05  4.3506E-04  4.4812E-04  0.0000E+00  9.3880E-05  9.1078E-05  9.7232E-04  4.7048E-04  2.3176E-04
 55  0.0000E+00  1.1310E-04  0.0000E+00  0.0000E+00  0.0000E+00  3.3041E-04  0.0000E+00  3.7219E-05  0.0000E+00
 56  0.0000E+00  1.1996E-04  4.7728E-04  0.0000E+00  0.0000E+00  0.0000E+00  0.0000E+00  0.0000E+00  0.0000E+00
 57  0.0000E+00  8.9117E-05  0.0000E+00  0.0000E+00  0.0000E+00  0.0000E+00  0.0000E+00  0.0000E+00  0.0000E+00
 58  0.0000E+00  2.0310E-04  0.0000E+00  0.0000E+00  0.0000E+00  0.0000E+00  0.0000E+00  0.0000E+00  0.0000E+00
 59  0.0000E+00  2.1816E-04  0.0000E+00  0.0000E+00  0.0000E+00  0.0000E+00  0.0000E+00  0.0000E+00  0.0000E+00
 60  0.0000E+00  3.4919E-04  0.0000E+00  0.0000E+00  0.0000E+00  0.0000E+00  0.0000E+00  0.0000E+00  0.0000E+00
 61  0.0000E+00  1.0328E-03  0.0000E+00  0.0000E+00  0.0000E+00  0.0000E+00  2.7516E-03  0.0000E+00  0.0000E+00
 62  0.0000E+00  1.0111E-03  0.0000E+00  6.0854E-03  0.0000E+00  0.0000E+00  3.6852E-04  1.8560E-04  0.0000E+00
 63  1.2057E-03  1.1702E-03  0.0000E+00  0.0000E+00  6.9734E-04  0.0000E+00  1.0233E-02  1.4020E-03  0.0000E+00
 64  0.0000E+00  2.3391E-03  0.0000E+00  0.0000E+00  0.0000E+00  1.7062E-03  1.2136E-02  0.0000E+00  0.0000E+00
 65  0.0000E+00  7.5029E-03  1.5485E-02  7.1561E-05  3.5200E-02  0.0000E+00  0.0000E+00  0.0000E+00  0.0000E+00
 66  0.0000E+00  1.1316E-02  0.0000E+00  0.0000E+00  0.0000E+00  0.0000E+00  9.6570E-03  1.9543E-04  0.0000E+00
 67  0.0000E+00  1.1784E-02  0.0000E+00  2.5711E-02  0.0000E+00  0.0000E+00  8.0893E-03  5.1303E-02  0.0000E+00
 68  0.0000E+00  3.7393E-02  0.0000E+00  0.0000E+00  7.0664E-02  0.0000E+00  0.0000E+00  0.0000E+00  2.6502E-02
 69  0.0000E+00  9.6150E-02  2.6021E-01  0.0000E+00  1.5271E-02  1.6655E-01  6.1253E-02  0.0000E+00  0.0000E+00
 70  0.0000E+00  1.3225E-01  1.1754E-01  5.3987E-02  3.5666E-02  3.6323E-02  2.5960E-02  2.4696E-02  7.7927E-01
 71  2.2050E+00  3.6452E+00  2.7842E+00  3.4088E+00  3.6932E+00  3.5654E+00  3.5616E+00  3.4974E+00  3.3603E+00
 72  2.0926E+00  1.8143E+00  1.8560E+00  1.1472E+00  2.0496E+00  1.8896E+00  1.6524E+00  1.0099E+00  1.5205E+00
 73  0.0000E+00  3.7808E-01  5.9269E-01  6.1871E-01  6.7764E-01  3.5022E-01  2.7038E-01  9.6555E-01  0.0000E+00
 74  3.8037E+00  4.3663E-01  5.1150E-01  3.4517E-01  0.0000E+00  6.8278E-01  9.4773E-01  8.2450E-01  7.5036E-01
 75  0.0000E+00  2.9710E-01  0.0000E+00  1.2728E+00  2.6147E-01  4.9793E-02  0.0000E+00  1.0089E+00  0.0000E+00
 76  0.0000E+00  3.9192E-05  0.0000E+00  0.0000E+00  0.0000E+00  0.0000E+00  0.0000E+00  0.0000E+00  0.0000E+00
 77  0.0000E+00  1.5114E-05  1.2332E-04  0.0000E+00  0.0000E+00  0.0000E+00  5.7150E-05  0.0000E+00  9.0906E-05
 78  0.0000E+00  2.4940E-05  0.0000E+00  0.0000E+00  0.0000E+00  0.0000E+00  0.0000E+00  0.0000E+00  0.0000E+00
 79  0.0000E+00  5.1550E-05  0.0000E+00  0.0000E+00  0.0000E+00  0.0000E+00  0.0000E+00  0.0000E+00  0.0000E+00
 80  0.0000E+00  6.3605E-05  0.0000E+00  0.0000E+00  0.0000E+00  0.0000E+00  0.0000E+00  0.0000E+00  0.0000E+00
 81  0.0000E+00  6.7830E-05  3.4636E-05  2.6852E-04  0.0000E+00  0.0000E+00  0.0000E+00  0.0000E+00  0.0000E+00
 82  0.0000E+00  8.7194E-05  0.0000E+00  0.0000E+00  0.0000E+00  0.0000E+00  0.0000E+00  0.0000E+00  2.0031E-03
 83  0.0000E+00  2.7691E-04  0.0000E+00  0.0000E+00  0.0000E+00  0.0000E+00  0.0000E+00  0.0000E+00  0.0000E+00
 84  0.0000E+00  5.8441E-04  0.0000E+00  0.0000E+00  0.0000E+00  0.0000E+00  0.0000E+00  0.0000E+00  0.0000E+00
 85  0.0000E+00  4.7996E-04  0.0000E+00  0.0000E+00  2.8130E-03  2.0982E-03  0.0000E+00  0.0000E+00  0.0000E+00
 86  0.0000E+00  6.5325E-04  1.1538E-03  0.0000E+00  0.0000E+00  0.0000E+00  0.0000E+00  0.0000E+00  0.0000E+00
 87  0.0000E+00  1.0542E-03  0.0000E+00  1.6022E-03  0.0000E+00  0.0000E+00  0.0000E+00  0.0000E+00  0.0000E+00
 88  0.0000E+00  6.8516E-04  0.0000E+00  0.0000E+00  9.1821E-03  0.0000E+00  0.0000E+00  0.0000E+00  0.0000E+00
 89  0.0000E+00  9.6409E-04  4.2146E-03  0.0000E+00  1.9267E-03  0.0000E+00  0.0000E+00  0.0000E+00  0.0000E+00
 90  0.0000E+00  1.7528E-03  0.0000E+00  0.0000E+00  3.0338E-03  0.0000E+00  0.0000E+00  0.0000E+00  0.0000E+00
 91  0.0000E+00  4.2736E-03  0.0000E+00  0.0000E+00  0.0000E+00  0.0000E+00  0.0000E+00  0.0000E+00  0.0000E+00
 92  0.0000E+00  5.1806E-03  0.0000E+00  0.0000E+00  0.0000E+00  0.0000E+00  0.0000E+00  0.0000E+00  0.0000E+00
 93  0.0000E+00  2.0592E-02  0.0000E+00  0.0000E+00  0.0000E+00  0.0000E+00  3.3589E-04  1.8727E-02  0.0000E+00
 94  5.7472E-01  1.2597E-01  6.2826E-01  0.0000E+00  3.7320E-01  3.5845E-01  3.3972E-01  0.0000E+00  2.5367E-02
 95  0.0000E+00  1.6249E-01  0.0000E+00  0.0000E+00  0.0000E+00  0.0000E+00  8.2851E-02  0.0000E+00  3.5062E-01
 96  2.4927E+00  2.1586E-01  0.0000E+00  5.0574E-01  6.3569E-01  6.8334E-01  5.8671E-01  0.0000E+00  2.8957E-01
 97  2.0430E+01  1.7173E+01  1.8141E+01  1.7322E+01  1.7371E+01  1.7916E+01  1.7266E+01  1.7637E+01  1.7802E+01
 98  1.5183E+01  1.4542E+01  1.4594E+01  1.4830E+01  1.4003E+01  1.4314E+01  1.4197E+01  1.5729E+01  1.5783E+01
 99  5.0288E+00  7.5138E+00  7.6884E+00  7.3911E+00  7.5972E+00  7.3631E+00  7.8764E+00  7.5621E+00  6.4584E+00
100  3.6779E+00  9.4334E+00  8.9227E+00  9.4366E+00  1.0061E+01  8.9039E+00  9.4989E+00  9.2648E+00  9.4111E+00
101  0.0000E+00  2.0966E-05  0.0000E+00  0.0000E+00  0.0000E+00  0.0000E+00  0.0000E+00  0.0000E+00  0.0000E+00
102  0.0000E+00  1.0308E-05  0.0000E+00  0.0000E+00  0.0000E+00  0.0000E+00  5.5717E-05  0.0000E+00  0.0000E+00
103  0.0000E+00  2.6457E-05  0.0000E+00  0.0000E+00  0.0000E+00  0.0000E+00  0.0000E+00  0.0000E+00  0.0000E+00
104  0.0000E+00  4.4245E-05  0.0000E+00  0.0000E+00  0.0000E+00  7.1737E-05  0.0000E+00  0.0000E+00  1.0205E-04
105  0.0000E+00  2.9134E-05  0.0000E+00  0.0000E+00  0.0000E+00  3.0224E-05  0.0000E+00  0.0000E+00  0.0000E+00
106  0.0000E+00  6.6057E-05  1.1822E-03  0.0000E+00  0.0000E+00  0.0000E+00  0.0000E+00  0.0000E+00  0.0000E+00
107  0.0000E+00  7.7949E-05  0.0000E+00  0.0000E+00  0.0000E+00  0.0000E+00  0.0000E+00  0.0000E+00  4.5816E-04
108  0.0000E+00  7.9412E-05  0.0000E+00  0.0000E+00  0.0000E+00  0.0000E+00  0.0000E+00  0.0000E+00  0.0000E+00
109  0.0000E+00  1.6327E-04  0.0000E+00  0.0000E+00  0.0000E+00  0.0000E+00  0.0000E+00  0.0000E+00  0.0000E+00
110  0.0000E+00  2.4958E-04  0.0000E+00  0.0000E+00  2.2808E-04  0.0000E+00  0.0000E+00  0.0000E+00  0.0000E+00
111  0.0000E+00  5.1912E-04  0.0000E+00  3.8939E-04  0.0000E+00  0.0000E+00  0.0000E+00  0.0000E+00  0.0000E+00
112  0.0000E+00  6.1773E-04  0.0000E+00  0.0000E+00  0.0000E+00  0.0000E+00  0.0000E+00  0.0000E+00  0.0000E+00
113  0.0000E+00  6.4692E-04  0.0000E+00  0.0000E+00  0.0000E+00  0.0000E+00  0.0000E+00  0.0000E+00  1.0506E-03
114  0.0000E+00  1.0477E-03  0.0000E+00  0.0000E+00  3.2671E-03  0.0000E+00  4.5249E-04  8.7973E-04  0.0000E+00
115  0.0000E+00  2.8979E-03  0.0000E+00  0.0000E+00  0.0000E+00  0.0000E+00  0.0000E+00  0.0000E+00  0.0000E+00
116  0.0000E+00  7.0943E-03  0.0000E+00  0.0000E+00  1.6351E-04  0.0000E+00  0.0000E+00  0.0000E+00  0.0000E+00
117  0.0000E+00  7.2670E-03  0.0000E+00  0.0000E+00  0.0000E+00  0.0000E+00  0.0000E+00  0.0000E+00  0.0000E+00
118  0.0000E+00  3.0488E-02  0.0000E+00  0.0000E+00  0.0000E+00  0.0000E+00  5.0103E-02  0.0000E+00  7.2022E-03
119  0.0000E+00  4.7166E-02  6.2355E-02  3.4581E-02  0.0000E+00  3.8171E-01  6.1468E-03  0.0000E+00  2.1895E-01
120  0.0000E+00  9.2663E-02  0.0000E+00  5.2957E-02  0.0000E+00  0.0000E+00  1.6232E-01  0.0000E+00  0.0000E+00
121  2.6464E-03  1.1518E-01  0.0000E+00  0.0000E+00  0.0000E+00  0.0000E+00  4.7809E-01  0.0000E+00  1.8958E-01
122  0.0000E+00  9.2315E-02  5.3648E-01  6.2810E-01  0.0000E+00  0.0000E+00  0.0000E+00  0.0000E+00  0.0000E+00
123  0.0000E+00  2.2297E-01  2.2872E-01  5.5438E-01  1.7625E-01  0.0000E+00  0.0000E+00  0.0000E+00  3.0000E-01
124  0.0000E+00  2.2840E-01  9.0423E-01  0.0000E+00  0.0000E+00  0.0000E+00  0.0000E+00  0.0000E+00  9.2703E-01
125  0.0000E+00  2.1401E-01  0.0000E+00  0.0000E+00  1.1841E-01  3.9481E-02  0.0000E+00  0.0000E+00  6.8616E-02
126  0.0000E+00  1.1453E-05  0.0000E+00  0.0000E+00  0.0000E+00  0.0000E+00  0.0000E+00  0.0000E+00  0.0000E+00
127  0.0000E+00  9.7301E-06  0.0000E+00  0.0000E+00  0.0000E+00  0.0000E+00  0.0000E+00  0.0000E+00  0.0000E+00
128  0.0000E+00  2.6229E-05  0.0000E+00  2.6934E-04  0.0000E+00  3.3932E-05  0.0000E+00  0.0000E+00  1.4994E-04
129  0.0000E+00  2.7384E-05  0.0000E+00  0.0000E+00  0.0000E+00  0.0000E+00  0.0000E+00  0.0000E+00  0.0000E+00
130  0.0000E+00  2.2000E-05  0.0000E+00  0.0000E+00  0.0000E+00  0.0000E+00  0.0000E+00  0.0000E+00  0.0000E+00
131  0.0000E+00  3.4274E-05  0.0000E+00  1.4840E-04  0.0000E+00  9.8431E-05  0.0000E+00  0.0000E+00  0.0000E+00
132  0.0000E+00  3.2284E-05  5.2502E-04  0.0000E+00  0.0000E+00  0.0000E+00  0.0000E+00  7.0734E-04  0.0000E+00
133  0.0000E+00  7.4817E-05  0.0000E+00  0.0000E+00  4.6214E-05  0.0000E+00  0.0000E+00  0.0000E+00  0.0000E+00
134  0.0000E+00  9.6774E-05  0.0000E+00  0.0000E+00  0.0000E+00  0.0000E+00  0.0000E+00  0.0000E+00  0.0000E+00
135  0.0000E+00  2.4689E-04  0.0000E+00  0.0000E+00  0.0000E+00  0.0000E+00  0.0000E+00  0.0000E+00  0.0000E+00
136  0.0000E+00  6.3947E-04  0.0000E+00  0.0000E+00  0.0000E+00  2.3301E-04  0.0000E+00  6.7713E-04  0.0000E+00
137  0.0000E+00  5.7028E-04  0.0000E+00  0.0000E+00  0.0000E+00  0.0000E+00  0.0000E+00  0.0000E+00  0.0000E+00
138  0.0000E+00  8.0236E-04  0.0000E+00  0.0000E+00  0.0000E+00  0.0000E+00  0.0000E+00  0.0000E+00  0.0000E+00
139  0.0000E+00  1.3572E-03  0.0000E+00  0.0000E+00  0.0000E+00  0.0000E+00  9.6030E-03  0.0000E+00  0.0000E+00
140  0.0000E+00  9.7965E-03  0.0000E+00  0.0000E+00  0.0000E+00  2.0601E-02  0.0000E+00  0.0000E+00  0.0000E+00
141  0.0000E+00  9.6021E-03  6.0026E-02  0.0000E+00  0.0000E+00  0.0000E+00  0.0000E+00  0.0000E+00  7.3466E-03
142  0.0000E+00  1.3863E-02  0.0000E+00  1.8968E-02  0.0000E+00  0.0000E+00  0.0000E+00  0.0000E+00  4.3526E-02
143  0.0000E+00  3.2259E-02  0.0000E+00  0.0000E+00  0.0000E+00  0.0000E+00  0.0000E+00  0.0000E+00  0.0000E+00
144  0.0000E+00  3.3243E-01  2.3297E-01  3.1198E-01  0.0000E+00  8.4120E-01  0.0000E+00  0.0000E+00  0.0000E+00
145  5.8456E+00  1.6731E+00  2.4764E+00  1.7507E+00  1.5061E+00  2.3414E+00  1.8242E+00  1.8824E+00  2.1420E+00
146  6.4704E+00  2.0015E+00  2.4822E+00  2.1152E+00  2.2641E+00  2.6311E+00  2.1709E+00  3.2387E+00  1.8359E+00
147  2.8912E+00  1.8801E+00  2.2285E+00  2.0508E+00  1.9305E+00  1.8933E+00  2.8413E+00  1.0152E+00  2.0281E+00
148  7.9156E-01  2.6059E+00  2.0179E+00  2.3007E+00  3.0821E+00  2.6643E+00  2.2278E+00  2.4606E+00  2.6119E+00
149  2.6183E-03  1.6359E+00  8.5826E-01  1.1806E+00  1.6592E+00  1.2246E+00  1.9018E+00  1.5320E+00  8.7323E-01
150  2.9228E-03  2.7787E+00  2.6760E+00  2.9702E+00  2.6847E+00  1.9148E+00  2.5208E+00  3.2314E+00  2.9363E+00

# AV, chi2 & Mass for <> & i_chain = 1 ...  7 solutions
AV       1.7851      1.7810      1.7813      1.7781      1.7838      1.7803      1.7834      1.7801      1.7803
chi2 2.1045E+00  2.1590E+00  2.1394E+00  2.1412E+00  2.1474E+00  2.1418E+00  2.1387E+00  2.1448E+00  2.1424E+00
Mass 1.3212E-09  1.4207E-09  1.4122E-09  1.4242E-09  1.4254E-09  1.3926E-09  1.4120E-09  1.4270E-09  1.4079E-09
  -7.14                                  [v0_min (km/s) before EX0s...]
  65.82                                  [vd_min (km/s) before EX0s...]


## Synthetic spectrum (Best Model) ##l_obs f_obs f_syn wei
 3070    [Nl_obs]
 3359.00    0.00000   0.40169   -2.000
 3360.00    0.13438   0.38895   -1.000
 3361.00    0.19762   0.39264   -1.000
 3362.00    0.21780   0.40984   -1.000
 3363.00    0.24169   0.43105   -1.000
 3364.00    0.24316   0.44499   -1.000
 3365.00    0.24350   0.44585   -1.000
 3366.00    0.24226   0.43734   -1.000
 3367.00    0.25125   0.42595   -1.000
 3368.00    0.26110   0.41583   -1.000
 3369.00    0.24844   0.40843   -1.000
 3370.00    0.24616   0.40224   -1.000
 3371.00    0.24809   0.39818   -1.000
 3372.00    0.24973   0.40031   -1.000
 3373.00    0.25398   0.41168   -1.000
 3374.00    0.27685   0.43025   -1.000
 3375.00    0.29034   0.44949   -1.000
 3376.00    0.28388   0.45967   -1.000
 3377.00    0.29521   0.45598   -1.000
 3378.00    0.31351   0.44341   -1.000
 3379.00    0.30985   0.43231   -1.000
 3380.00    0.28743   0.42974   -1.000
 3381.00    0.28991   0.43564   -1.000
 3382.00    0.29368   0.44519   -1.000
 3383.00    0.30004   0.45338   -1.000
 3384.00    0.29509   0.45904   -1.000
 3385.00    0.30157   0.46256   -1.000
 3386.00    0.32088   0.46214   -1.000
 3387.00    0.32806   0.45903   -1.000
 3388.00    0.32702   0.45773   -1.000
 3389.00    0.32252   0.45969   -1.000
 3390.00    0.32263   0.46153   -1.000
 3391.00    0.33442   0.45911   -1.000
 3392.00    0.33667   0.45270   -1.000
 3393.00    0.32849   0.44950   -1.000
 3394.00    0.33434   0.45482   -1.000
 3395.00    0.34356   0.46640   -1.000
 3396.00    0.35639   0.47885   -1.000
 3397.00    0.36294   0.48868   -1.000
 3398.00    0.38398   0.49442   -1.000
 3399.00    0.39207   0.49438   -1.000
 3400.00    0.40357   0.48968   -1.000
 3401.00    0.39880   0.48154   -1.000
 3402.00    0.39129   0.47088   -1.000
 3403.00    0.38164   0.46259   -1.000
 3404.00    0.36714   0.45870   -1.000
 3405.00    0.36327   0.45747   -1.000
 3406.00    0.37603   0.45547   -1.000
 3407.00    0.37892   0.45270   -1.000
 3408.00    0.37278   0.45168   -1.000
 3409.00    0.37324   0.45444   -1.000
 3410.00    0.37998   0.45829   -1.000
 3411.00    0.38418   0.45785   -1.000
 3412.00    0.38521   0.45325   -1.000
 3413.00    0.38431   0.44805   -1.000
 3414.00    0.37222   0.44724   -1.000
 3415.00    0.37486   0.45296   -1.000
 3416.00    0.38416   0.46290   -1.000
 3417.00    0.39661   0.47423   -1.000
 3418.00    0.40302   0.48518   -1.000
 3419.00    0.41627   0.49398   -1.000
 3420.00    0.41685   0.49766   -1.000
 3421.00    0.41399   0.49370   -1.000
 3422.00    0.41332   0.48383   -1.000
 3423.00    0.41141   0.47519   -1.000
 3424.00    0.41542   0.47272   -1.000
 3425.00    0.41569   0.47526   -1.000
 3426.00    0.42613   0.48008   -1.000
 3427.00    0.43035   0.48742   -1.000
 3428.00    0.43669   0.49832   -1.000
 3429.00    0.43873   0.50846   -1.000
 3430.00    0.43525   0.50967   -1.000
 3431.00    0.43761   0.50039   -1.000
 3432.00    0.44097   0.48834   -1.000
 3433.00    0.43593   0.48296   -1.000
 3434.00    0.42862   0.48704   -1.000
 3435.00    0.43306   0.49393   -1.000
 3436.00    0.44496   0.49521   -1.000
 3437.00    0.44327   0.48867   -1.000
 3438.00    0.42887   0.47612   -1.000
 3439.00    0.41346   0.45923   -1.000
 3440.00    0.39389   0.44141   -1.000
 3441.00    0.37878   0.42814   -1.000
 3442.00    0.39007   0.42387   -1.000
 3443.00    0.39691   0.42819   -1.000
 3444.00    0.40006   0.43722   -1.000
 3445.00    0.41274   0.44852   -1.000
 3446.00    0.41869   0.46253   -1.000
 3447.00    0.43093   0.47829   -1.000
 3448.00    0.45018   0.49276   -1.000
 3449.00    0.45061   0.50029   -1.000
 3450.00    0.46043   0.49587   -1.000
 3451.00    0.46587   0.48334   -1.000
 3452.00    0.44993   0.47257   -1.000
 3453.00    0.43673   0.46984   -1.000
 3454.00    0.45081   0.47405   -1.000
 3455.00    0.45993   0.47895   -1.000
 3456.00    0.46319   0.47896   -1.000
 3457.00    0.46110   0.47298   -1.000
 3458.00    0.45170   0.46397   -1.000
 3459.00    0.44853   0.45557  125.999
 3460.00    0.45846   0.44996   90.656
 3461.00    0.45649   0.45102   90.625
 3462.00    0.45343   0.46043  231.159
 3463.00    0.45979   0.47160   -1.000
 3464.00    0.46904   0.47605   -1.000
 3465.00    0.47204   0.47486  715.228
 3466.00    0.47117   0.47504  715.228
 3467.00    0.48231   0.48083  715.228
 3468.00    0.49129   0.49086  715.228
 3469.00    0.49670   0.49991  715.228
 3470.00    0.51187   0.50273   -1.000
 3471.00    0.50796   0.49729   -1.000
 3472.00    0.49756   0.48528   -1.000
 3473.00    0.48182   0.46958   -1.000
 3474.00    0.46653   0.45485   -1.000
 3475.00    0.45943   0.44603  127.227
 3476.00    0.45022   0.44679   92.879
 3477.00    0.44730   0.45594   92.562
 3478.00    0.46096   0.46782  232.394
 3479.00    0.49007   0.47835   -1.000
 3480.00    0.50485   0.48572   -1.000
 3481.00    0.50447   0.48724   -1.000
 3482.00    0.50321   0.48286   -1.000
 3483.00    0.49507   0.47767   -1.000
 3484.00    0.48979   0.47855   -1.000
 3485.00    0.49768   0.48787   -1.000
 3486.00    0.51780   0.49893   -1.000
 3487.00    0.51647   0.50278   -1.000
 3488.00    0.51114   0.49604   -1.000
 3489.00    0.49917   0.48256   -1.000
 3490.00    0.48224   0.47149   -1.000
 3491.00    0.47955   0.46954   -1.000
 3492.00    0.48339   0.47458   -1.000
 3493.00    0.48008   0.47914  715.228
 3494.00    0.48377   0.47833   -1.000
 3495.00    0.48315   0.47261   -1.000
 3496.00    0.48092   0.46823   -1.000
 3497.00    0.47376   0.47180  715.228
 3498.00    0.48707   0.48236   -1.000
 3499.00    0.50901   0.49288   -1.000
 3500.00    0.52357   0.49793   -1.000
 3501.00    0.52992   0.50064   -1.000
 3502.00    0.52913   0.50453   -1.000
 3503.00    0.52747   0.50670   -1.000
 3504.00    0.52887   0.50375   -1.000
 3505.00    0.52153   0.49694   -1.000
 3506.00    0.51387   0.49105   -1.000
 3507.00    0.51175   0.48895   -1.000
 3508.00    0.50811   0.48873   -1.000
 3509.00    0.52125   0.48720   -1.000
 3510.00    0.52067   0.48366   -1.000
 3511.00    0.50780   0.47867   -1.000
 3512.00    0.49418   0.47220   -1.000
 3513.00    0.49699   0.46637   -1.000
 3514.00    0.49963   0.46698   -1.000
 3515.00    0.50110   0.47825   -1.000
 3516.00    0.50549   0.49667   -1.000
 3517.00    0.52066   0.51183   -1.000
 3518.00    0.52136   0.51545   -1.000
 3519.00    0.51506   0.50715   -1.000
 3520.00    0.50848   0.49376   -1.000
 3521.00    0.49004   0.48150   -1.000
 3522.00    0.49168   0.47190   -1.000
 3523.00    0.49110   0.46291   -1.000
 3524.00    0.47847   0.45439   -1.000
 3525.00    0.46460   0.45111   91.957
 3526.00    0.46163   0.45775   92.608
 3527.00    0.48885   0.47277   -1.000
 3528.00    0.51444   0.49062   -1.000
 3529.00    0.52356   0.50461   -1.000
 3530.00    0.51629   0.51130   -1.000
 3531.00    0.50872   0.51190  715.228
 3532.00    0.50903   0.50977  715.228
 3533.00    0.52535   0.50768   -1.000
 3534.00    0.53062   0.50741   -1.000
 3535.00    0.52263   0.50984   -1.000
 3536.00    0.52356   0.51507   -1.000
 3537.00    0.53277   0.52221   -1.000
 3538.00    0.53296   0.52946  715.228
 3539.00    0.53494   0.53359  708.097
 3540.00    0.53571   0.53278  709.371
 3541.00    0.52657   0.52970  715.228
 3542.00    0.52401   0.52930   -1.000
 3543.00    0.53421   0.53312  715.228
 3544.00    0.53197   0.53756   -1.000
 3545.00    0.52803   0.53878   -1.000
 3546.00    0.53387   0.53679   -1.000
 3547.00    0.53539   0.53416  715.228
 3548.00    0.53500   0.53317  715.228
 3549.00    0.53122   0.53415   -1.000
 3550.00    0.51633   0.53552   -1.000
 3551.00    0.50714   0.53428   -1.000
 3552.00    0.50909   0.52852   -1.000
 3553.00    0.50633   0.52068   -1.000
 3554.00    0.50088   0.51607   -1.000
 3555.00    0.50647   0.51716   -1.000
 3556.00    0.51809   0.52129  715.228
 3557.00    0.51006   0.52464   -1.000
 3558.00    0.49876   0.52517   -1.000
 3559.00    0.49132   0.52459   -1.000
 3560.00    0.49110   0.52624   -1.000
 3561.00    0.50875   0.53038   -1.000
 3562.00    0.51565   0.53165   -1.000
 3563.00    0.50595   0.52299   -1.000
 3564.00    0.48935   0.50428   -1.000
 3565.00    0.47676   0.48495  128.536
 3566.00    0.46583   0.47481   93.171
 3567.00    0.46769   0.47351   93.669
 3568.00    0.46799   0.47304   92.951
 3569.00    0.45900   0.46807   94.917
 3570.00    0.45244   0.46127   97.172
 3571.00    0.45619   0.45845   95.644
 3572.00    0.47112   0.46167   91.744
 3573.00    0.48122   0.46772   -1.000
 3574.00    0.47902   0.47371   -1.000
 3575.00    0.47801   0.47923  715.228
 3576.00    0.48411   0.48318  715.228
 3577.00    0.48542   0.48323  715.228
 3578.00    0.47638   0.47765  715.228
 3579.00    0.47723   0.46648  133.240
 3580.00    0.46144   0.45377   98.645
 3581.00    0.44697   0.44483  104.897
 3582.00    0.43993   0.44269  107.217
 3583.00    0.44264   0.44423  107.721
 3584.00    0.43824   0.44208  109.698
 3585.00    0.44131   0.43458  113.057
 3586.00    0.43217   0.42777  115.357
 3587.00    0.42950   0.42852  111.844
 3588.00    0.43762   0.43916  105.947
 3589.00    0.44993   0.45714  100.660
 3590.00    0.46897   0.47616   92.903
 3591.00    0.48015   0.48982  222.503
 3592.00    0.49010   0.49591   -1.000
 3593.00    0.50211   0.49851  715.228
 3594.00    0.50345   0.50377  715.228
 3595.00    0.50897   0.51368   -1.000
 3596.00    0.52454   0.52479  715.228
 3597.00    0.53498   0.53339  709.775
 3598.00    0.54143   0.53923  690.550
 3599.00    0.55277   0.54215   -1.000
 3600.00    0.54505   0.53909  678.975
 3601.00    0.52785   0.52836  703.678
 3602.00    0.51486   0.51411  715.228
 3603.00    0.50038   0.50220  715.228
 3604.00    0.48838   0.49661   -1.000
 3605.00    0.49390   0.49591  715.228
 3606.00    0.50227   0.49500   -1.000
 3607.00    0.50456   0.49063   -1.000
 3608.00    0.49955   0.48465   -1.000
 3609.00    0.49323   0.48228   -1.000
 3610.00    0.49760   0.48611   -1.000
 3611.00    0.50007   0.49380   -1.000
 3612.00    0.50099   0.50142  715.228
 3613.00    0.50694   0.50842  715.228
 3614.00    0.50643   0.51670   -1.000
 3615.00    0.52162   0.52360  715.228
 3616.00    0.53428   0.52121   -1.000
 3617.00    0.51730   0.50718   -1.000
 3618.00    0.49751   0.49036   -1.000
 3619.00    0.49073   0.48403  127.854
 3620.00    0.49045   0.49310  219.942
 3621.00    0.50927   0.51121  715.228
 3622.00    0.52670   0.52839  715.228
 3623.00    0.54286   0.54003  710.098
 3624.00    0.55002   0.55015  698.798
 3625.00    0.55660   0.56390   -1.000
 3626.00    0.57413   0.57910   -1.000
 3627.00    0.58088   0.58753   -1.000
 3628.00    0.57311   0.58045   -1.000
 3629.00    0.55217   0.55672   -1.000
 3630.00    0.52334   0.52642  715.228
 3631.00    0.50235   0.50532  715.228
 3632.00    0.49675   0.50162   -1.000
 3633.00    0.51166   0.51141  715.228
 3634.00    0.51956   0.52408   -1.000
 3635.00    0.51676   0.53217   -1.000
 3636.00    0.52919   0.53725   -1.000
 3637.00    0.54251   0.54529  714.336
 3638.00    0.55564   0.55663  681.611
 3639.00    0.56309   0.56595   -1.000
 3640.00    0.56443   0.56834   -1.000
 3641.00    0.56552   0.56252  659.439
 3642.00    0.55410   0.55113  679.989
 3643.00    0.52475   0.53876   -1.000
 3644.00    0.51108   0.52853   -1.000
 3645.00    0.52694   0.52068   -1.000
 3646.00    0.52846   0.51428   -1.000
 3647.00    0.51745   0.51045   -1.000
 3648.00    0.51182   0.51109  715.228
 3649.00    0.50924   0.51678   -1.000
 3650.00    0.52291   0.52720   -1.000
 3651.00    0.53789   0.54085   -1.000
 3652.00    0.54396   0.55492   -1.000
 3653.00    0.55206   0.56620   -1.000
 3654.00    0.56488   0.57445   -1.000
 3655.00    0.57696   0.58148   -1.000
 3656.00    0.58986   0.58847  635.413
 3657.00    0.58345   0.59427   -1.000
 3658.00    0.57511   0.59710   -1.000
 3659.00    0.58311   0.59679   -1.000
 3660.00    0.58292   0.59348   -1.000
 3661.00    0.57077   0.58730   -1.000
 3662.00    0.56298   0.57998   -1.000
 3663.00    0.56613   0.57514   -1.000
 3664.00    0.56975   0.57452   -1.000
 3665.00    0.57222   0.57618   -1.000
 3666.00    0.57811   0.57641  637.993
 3667.00    0.58519   0.57274   -1.000
 3668.00    0.57812   0.56668   -1.000
 3669.00    0.56218   0.56329  669.914
 3670.00    0.55776   0.56638   -1.000
 3671.00    0.57126   0.57466   -1.000
 3672.00    0.57784   0.58290   -1.000
 3673.00    0.58497   0.58669  631.075
 3674.00    0.59049   0.58492  630.320
 3675.00    0.58107   0.57766  631.263
 3676.00    0.56473   0.56596  644.874
 3677.00    0.56105   0.55276   -1.000
 3678.00    0.55906   0.54224   -1.000
 3679.00    0.55382   0.53833   -1.000
 3680.00    0.55440   0.54168   -1.000
 3681.00    0.56230   0.54893   -1.000
 3682.00    0.55607   0.55528  675.541
 3683.00    0.55763   0.55723  664.930
 3684.00    0.56401   0.55246   -1.000
 3685.00    0.54687   0.54140  697.987
 3686.00    0.53804   0.53108   -1.000
 3687.00    0.54485   0.53146   -1.000
 3688.00    0.55148   0.54579   -1.000
 3689.00    0.56651   0.56687  695.185
 3690.00    0.58007   0.58342  648.894
 3691.00    0.57769   0.59072   -1.000
 3692.00    0.58524   0.59193   -1.000
 3693.00    0.58912   0.59160  632.110
 3694.00    0.58457   0.59110   -1.000
 3695.00    0.58196   0.58861   -1.000
 3696.00    0.58004   0.58516   -1.000
 3697.00    0.58672   0.58780  632.682
 3698.00    0.59830   0.60152  616.029
 3699.00    0.61597   0.62136   -1.000
 3700.00    0.62544   0.63414   -1.000
 3701.00    0.61403   0.62695   -1.000
 3702.00    0.58927   0.59734   -1.000
 3703.00    0.55303   0.55689   -1.000
 3704.00    0.53210   0.52436   -1.000
 3705.00    0.52716   0.51166   -1.000
 3706.00    0.52853   0.51861   -1.000
 3707.00    0.54195   0.53476   -1.000
 3708.00    0.55187   0.54795   -1.000
 3709.00    0.54702   0.55175  715.228
 3710.00    0.54946   0.54961  707.533
 3711.00    0.55876   0.55059   -1.000
 3712.00    0.57320   0.56235   -1.000
 3713.00    0.59889   0.58572   -1.000
 3714.00    0.62838   0.61359   -1.000
 3715.00    0.64423   0.63576   -1.000
 3716.00    0.64326   0.64445  591.083
 3717.00    0.63514   0.63540  614.210
 3718.00    0.60421   0.60498  662.246
 3719.00    0.55256   0.55589  715.228
 3720.00    0.50523   0.50481  715.228
 3721.00    0.48618   0.47478  131.933
 3722.00    0.49988   0.47718   -1.000
 3723.00    0.53892   0.50999   -1.000
 3724.00    0.58811   0.55863   -1.000
 3725.00    0.61553   0.59990   -1.000
 3726.00    0.62350   0.62096  651.380
 3727.00    0.61744   0.62915   -1.000
 3728.00    0.61098   0.63436   -1.000
 3729.00    0.60744   0.63626   -1.000
 3730.00    0.60998   0.62538   -1.000
 3731.00    0.59171   0.59208  696.543
 3732.00    0.55316   0.53919   -1.000
 3733.00    0.50857   0.48381   -1.000
 3734.00    0.46781   0.44430   96.316
 3735.00    0.45024   0.43471  102.751
 3736.00    0.46902   0.45835  100.532
 3737.00    0.50776   0.50594   92.436
 3738.00    0.55439   0.56286  212.767
 3739.00    0.59464   0.61546   -1.000
 3740.00    0.61969   0.64965   -1.000
 3741.00    0.63504   0.65994   -1.000
 3742.00    0.63480   0.65049   -1.000
 3743.00    0.61684   0.63053   -1.000
 3744.00    0.59626   0.60701   -1.000
 3745.00    0.57572   0.58183   -1.000
 3746.00    0.55442   0.55241  715.228
 3747.00    0.52782   0.51693  131.688
 3748.00    0.49188   0.48015   94.535
 3749.00    0.46984   0.45589   97.323
 3750.00    0.46883   0.46027  232.722
 3751.00    0.49733   0.49572  715.228
 3752.00    0.56656   0.54947   -1.000
 3753.00    0.62567   0.60517   -1.000
 3754.00    0.65526   0.64907   -1.000
 3755.00    0.67627   0.67086   -1.000
 3756.00    0.66899   0.66762  617.757
 3757.00    0.63651   0.64593   -1.000
 3758.00    0.61191   0.62257   -1.000
 3759.00    0.61027   0.61229  715.228
 3760.00    0.62254   0.61655   -1.000
 3761.00    0.63796   0.62801   -1.000
 3762.00    0.65002   0.63844   -1.000
 3763.00    0.65758   0.64302   -1.000
 3764.00    0.65646   0.64048   -1.000
 3765.00    0.64938   0.63022   -1.000
 3766.00    0.63140   0.61277   -1.000
 3767.00    0.61020   0.58944   -1.000
 3768.00    0.58889   0.56154   -1.000
 3769.00    0.56600   0.53451   -1.000
 3770.00    0.54281   0.51931   -1.000
 3771.00    0.54715   0.52727   -1.000
 3772.00    0.57572   0.55805   -1.000
 3773.00    0.60494   0.59706   -1.000
 3774.00    0.62927   0.62981  621.037
 3775.00    0.65232   0.65378  620.013
 3776.00    0.66807   0.67368   -1.000
 3777.00    0.68695   0.69446   -1.000
 3778.00    0.71964   0.71677  610.749
 3779.00    0.72938   0.73756   -1.000
 3780.00    0.74533   0.75410   -1.000
 3781.00    0.75839   0.76391   -1.000
 3782.00    0.76758   0.76692  567.471
 3783.00    0.76573   0.76423  566.532
 3784.00    0.76044   0.75494  575.342
 3785.00    0.74427   0.73771   -1.000
 3786.00    0.71907   0.71576  641.130
 3787.00    0.70653   0.69573   -1.000
 3788.00    0.69716   0.68333   -1.000
 3789.00    0.68484   0.67947   -1.000
 3790.00    0.68077   0.67952  693.895
 3791.00    0.67649   0.67604  684.915
 3792.00    0.66731   0.66284   -1.000
 3793.00    0.63722   0.63815  710.563
 3794.00    0.59991   0.60376  715.228
 3795.00    0.56386   0.56325  715.228
 3796.00    0.53449   0.52141   -1.000
 3797.00    0.50114   0.48652   -1.000
 3798.00    0.48809   0.47470   -1.000
 3799.00    0.51499   0.49790   -1.000
 3800.00    0.56644   0.54947   -1.000
 3801.00    0.61521   0.60928   -1.000
 3802.00    0.65030   0.66042   -1.000
 3803.00    0.68334   0.69457   -1.000
 3804.00    0.70525   0.71201   -1.000
 3805.00    0.70710   0.71618   -1.000
 3806.00    0.70106   0.71521   -1.000
 3807.00    0.70364   0.71951   -1.000
 3808.00    0.71732   0.73312   -1.000
 3809.00    0.73384   0.75106   -1.000
 3810.00    0.74301   0.76254   -1.000
 3811.00    0.74706   0.75808   -1.000
 3812.00    0.73656   0.73686  661.935
 3813.00    0.71681   0.70865   -1.000
 3814.00    0.70070   0.68661   -1.000
 3815.00    0.69334   0.67958   -1.000
 3816.00    0.69400   0.68589   -1.000
 3817.00    0.70866   0.69412   -1.000
 3818.00    0.71022   0.69150   -1.000
 3819.00    0.68778   0.67657   -1.000
 3820.00    0.66639   0.66242   -1.000
 3821.00    0.66958   0.66079   -1.000
 3822.00    0.67998   0.66717   -1.000
 3823.00    0.67354   0.66553   -1.000
 3824.00    0.65037   0.64954  715.228
 3825.00    0.63232   0.62905  137.335
 3826.00    0.61830   0.61439   95.104
 3827.00    0.60492   0.60698   95.241
 3828.00    0.60875   0.60245   93.918
 3829.00    0.60457   0.59588   92.375
 3830.00    0.58645   0.58178   92.615
 3831.00    0.56187   0.55545   95.807
 3832.00    0.52537   0.51773  102.377
 3833.00    0.48203   0.47583  107.319
 3834.00    0.45726   0.44315  106.964
 3835.00    0.46286   0.43050   -1.000
 3836.00    0.47510   0.43845   -1.000
 3837.00    0.48594   0.46126  101.057
 3838.00    0.50677   0.49166  103.452
 3839.00    0.53624   0.52546  103.071
 3840.00    0.57151   0.56311   98.455
 3841.00    0.60787   0.60480  225.789
 3842.00    0.65225   0.64575   -1.000
 3843.00    0.68474   0.68015   -1.000
 3844.00    0.70350   0.70383  715.228
 3845.00    0.71059   0.71865   -1.000
 3846.00    0.71645   0.72878   -1.000
 3847.00    0.72758   0.73452   -1.000
 3848.00    0.72790   0.73387   -1.000
 3849.00    0.71974   0.72954   -1.000
 3850.00    0.71406   0.72931   -1.000
 3851.00    0.72525   0.73737   -1.000
 3852.00    0.74309   0.74829   -1.000
 3853.00    0.74105   0.75322   -1.000
 3854.00    0.73502   0.74861   -1.000
 3855.00    0.72748   0.73771   -1.000
 3856.00    0.71368   0.72580   -1.000
 3857.00    0.70463   0.71505   -1.000
 3858.00    0.69282   0.70588  130.539
 3859.00    0.67413   0.70244   92.419
 3860.00    0.67377   0.71013   -1.000
 3861.00    0.70718   0.72733   -1.000
 3862.00    0.73546   0.74442   -1.000
 3863.00    0.75497   0.75309  715.228
 3864.00    0.75803   0.75372   -1.000
 3865.00    0.75497   0.75168  715.228
 3866.00    0.74927   0.75186  715.228
 3867.00    0.74451   0.75478   -1.000
 3868.00    0.74162   0.75592   -1.000
 3869.00    0.73318   0.74975   -1.000
 3870.00    0.70493   0.73517   -1.000
 3871.00    0.67652   0.71751   -1.000
 3872.00    0.67535   0.70600   -1.000
 3873.00    0.69426   0.70870   -1.000
 3874.00    0.72055   0.72286  715.228
 3875.00    0.73779   0.73402   -1.000
 3876.00    0.73382   0.72950   -1.000
 3877.00    0.70794   0.71242  715.228
 3878.00    0.67912   0.69704   -1.000
 3879.00    0.66194   0.69173   -1.000
 3880.00    0.66038   0.69214   -1.000
 3881.00    0.65075   0.68952   -1.000
 3882.00    0.63748   0.68130   -1.000
 3883.00    0.64010   0.66873   -1.000
 3884.00    0.64590   0.64736  715.228
 3885.00    0.63313   0.61181   -1.000
 3886.00    0.59726   0.56524   -1.000
 3887.00    0.55470   0.52001   -1.000
 3888.00    0.52378   0.49300   -1.000
 3889.00    0.52550   0.49586   -1.000
 3890.00    0.56522   0.52961   -1.000
 3891.00    0.61941   0.58176   -1.000
 3892.00    0.66033   0.63135   -1.000
 3893.00    0.68960   0.66440   -1.000
 3894.00    0.70637   0.68357   -1.000
 3895.00    0.72244   0.69844   -1.000
 3896.00    0.73775   0.71415   -1.000
 3897.00    0.74954   0.72807   -1.000
 3898.00    0.75511   0.73579   -1.000
 3899.00    0.75749   0.73919   -1.000
 3900.00    0.76630   0.74458   -1.000
 3901.00    0.77539   0.75336   -1.000
 3902.00    0.77867   0.75987   -1.000
 3903.00    0.77719   0.75951   -1.000
 3904.00    0.77748   0.75380   -1.000
 3905.00    0.76792   0.74986   -1.000
 3906.00    0.76970   0.75618   -1.000
 3907.00    0.79330   0.77584   -1.000
 3908.00    0.81383   0.80200   -1.000
 3909.00    0.83144   0.82394   -1.000
 3910.00    0.84863   0.83641   -1.000
 3911.00    0.85490   0.83986   -1.000
 3912.00    0.85746   0.83554   -1.000
 3913.00    0.85450   0.82601   -1.000
 3914.00    0.84209   0.81654   -1.000
 3915.00    0.82966   0.81170   -1.000
 3916.00    0.82252   0.81008   -1.000
 3917.00    0.82369   0.80652   -1.000
 3918.00    0.82179   0.79781   -1.000
 3919.00    0.80382   0.78530   -1.000
 3920.00    0.78223   0.77427   -1.000
 3921.00    0.78018   0.76907   -1.000
 3922.00    0.77837   0.76983   -1.000
 3923.00    0.78059   0.77266   -1.000
 3924.00    0.78028   0.77191   -1.000
 3925.00    0.76276   0.76197  684.197
 3926.00    0.72939   0.73973   -1.000
 3927.00    0.69597   0.70708   -1.000
 3928.00    0.65410   0.66796  146.498
 3929.00    0.60416   0.62528  109.600
 3930.00    0.54358   0.57739   -1.000
 3931.00    0.46359   0.52177   -1.000
 3932.00    0.38088   0.46545   -1.000
 3933.00    0.33284   0.42810   -1.000
 3934.00    0.34590   0.42913   -1.000
 3935.00    0.40595   0.46874   -1.000
 3936.00    0.49500   0.52920   -1.000
 3937.00    0.56960   0.59217  123.799
 3938.00    0.62036   0.64821  103.294
 3939.00    0.67025   0.69278   -1.000
 3940.00    0.70382   0.72433   -1.000
 3941.00    0.72534   0.74220   -1.000
 3942.00    0.73481   0.74889   -1.000
 3943.00    0.72831   0.75216   -1.000
 3944.00    0.74517   0.75951   -1.000
 3945.00    0.77248   0.77249  678.381
 3946.00    0.79597   0.78638   -1.000
 3947.00    0.80118   0.79560   -1.000
 3948.00    0.79620   0.79999  609.003
 3949.00    0.80159   0.80293  592.741
 3950.00    0.81399   0.80504   -1.000
 3951.00    0.81309   0.80530   -1.000
 3952.00    0.81506   0.80651   -1.000
 3953.00    0.82568   0.81125   -1.000
 3954.00    0.83358   0.81473   -1.000
 3955.00    0.82795   0.81104   -1.000
 3956.00    0.80548   0.80161  571.808
 3957.00    0.79365   0.79314  585.443
 3958.00    0.79017   0.78733  581.848
 3959.00    0.78382   0.77521   -1.000
 3960.00    0.75594   0.74872   -1.000
 3961.00    0.70471   0.71229   -1.000
 3962.00    0.65661   0.67547   -1.000
 3963.00    0.62318   0.64102   -1.000
 3964.00    0.58678   0.60070  138.926
 3965.00    0.52133   0.54472  103.155
 3966.00    0.42779   0.47252   -1.000
 3967.00    0.34151   0.39688   -1.000
 3968.00    0.28615   0.34096   -1.000
 3969.00    0.28883   0.32329   -1.000
 3970.00    0.33809   0.34856  149.125
 3971.00    0.40883   0.40723  122.574
 3972.00    0.48641   0.48117  101.953
 3973.00    0.56527   0.55435  217.108
 3974.00    0.63251   0.61980   -1.000
 3975.00    0.68511   0.67494   -1.000
 3976.00    0.72486   0.72061   -1.000
 3977.00    0.75616   0.75875  583.993
 3978.00    0.78899   0.79063  552.154
 3979.00    0.82723   0.81506   -1.000
 3980.00    0.85260   0.82857   -1.000
 3981.00    0.85701   0.83240   -1.000
 3982.00    0.85272   0.83350   -1.000
 3983.00    0.85708   0.83955   -1.000
 3984.00    0.87651   0.85227   -1.000
 3985.00    0.89422   0.86649   -1.000
 3986.00    0.90021   0.87809   -1.000
 3987.00    0.90893   0.88737   -1.000
 3988.00    0.91536   0.89492   -1.000
 3989.00    0.91215   0.90036   -1.000
 3990.00    0.91984   0.90586   -1.000
 3991.00    0.93217   0.91366   -1.000
 3992.00    0.95386   0.92252   -1.000
 3993.00    0.96055   0.92804   -1.000
 3994.00    0.94901   0.92557   -1.000
 3995.00    0.93102   0.91486   -1.000
 3996.00    0.92033   0.90222   -1.000
 3997.00    0.91332   0.89689   -1.000
 3998.00    0.90983   0.90318  483.629
 3999.00    0.93122   0.91711   -1.000
 4000.00    0.95920   0.93083   -1.000
 4001.00    0.96912   0.93895   -1.000
 4002.00    0.97335   0.93862   -1.000
 4003.00    0.97115   0.92843   -1.000
 4004.00    0.94387   0.91135   -1.000
 4005.00    0.92379   0.89819   -1.000
 4006.00    0.93030   0.90032   -1.000
 4007.00    0.94332   0.91728   -1.000
 4008.00    0.96102   0.93777   -1.000
 4009.00    0.97651   0.95187   -1.000
 4010.00    0.98314   0.95828   -1.000
 4011.00    0.98307   0.95995   -1.000
 4012.00    0.97775   0.96027   -1.000
 4013.00    0.97838   0.96234   -1.000
 4014.00    0.98848   0.96656   -1.000
 4015.00    0.99285   0.97102   -1.000
 4016.00    0.99030   0.97475   -1.000
 4017.00    0.99281   0.97879   -1.000
 4018.00    1.00000   0.98428   -1.000
 4019.00    1.00698   0.98962   -1.000
 4020.00    1.01089   0.99138   -1.000
 4021.00    1.01504   0.98758   -1.000
 4022.00    1.00740   0.97901   -1.000
 4023.00    0.99268   0.96825   -1.000
 4024.00    0.98687   0.96040   -1.000
 4025.00    0.99313   0.96222   -1.000
 4026.00    1.00875   0.97450   -1.000
 4027.00    1.02663   0.98720   -1.000
 4028.00    1.03046   0.98779   -1.000
 4029.00    1.00862   0.97274   -1.000
 4030.00    0.98217   0.94944   -1.000
 4031.00    0.95910   0.92971   -1.000
 4032.00    0.93651   0.92131   -1.000
 4033.00    0.93676   0.92574   -1.000
 4034.00    0.95538   0.94179   -1.000
 4035.00    0.97753   0.96665   -1.000
 4036.00    1.00763   0.99473   -1.000
 4037.00    1.03283   1.01770   -1.000
 4038.00    1.04180   1.02791   -1.000
 4039.00    1.04116   1.02539   -1.000
 4040.00    1.02562   1.01747  414.646
 4041.00    1.01655   1.00911  421.113
 4042.00    1.01386   0.99578   -1.000
 4043.00    0.99141   0.96960   -1.000
 4044.00    0.95188   0.93437   -1.000
 4045.00    0.91369   0.90938  513.665
 4046.00    0.90904   0.91268  513.544
 4047.00    0.94403   0.94198  472.423
 4048.00    0.98967   0.97791   -1.000
 4049.00    1.01637   1.00377   -1.000
 4050.00    1.03234   1.01490   -1.000
 4051.00    1.03229   1.01409   -1.000
 4052.00    1.01898   1.00529   -1.000
 4053.00    1.01421   0.99352   -1.000
 4054.00    1.00832   0.98427   -1.000
 4055.00    1.00334   0.97924   -1.000
 4056.00    1.00683   0.97682   -1.000
 4057.00    0.99925   0.97783   -1.000
 4058.00    0.99159   0.98538  451.477
 4059.00    1.00428   0.99632   -1.000
 4060.00    1.01072   0.99892   -1.000
 4061.00    1.00290   0.98426   -1.000
 4062.00    0.97932   0.95735   -1.000
 4063.00    0.94809   0.93340   -1.000
 4064.00    0.94842   0.92337   -1.000
 4065.00    0.97307   0.92761   -1.000
 4066.00    0.98026   0.94043   -1.000
 4067.00    0.98378   0.95523   -1.000
 4068.00    0.99581   0.96617   -1.000
 4069.00    1.01331   0.96683   -1.000
 4070.00    0.99871   0.95484   -1.000
 4071.00    0.98241   0.93997   -1.000
 4072.00    0.97959   0.93614   -1.000
 4073.00    0.98527   0.94360   -1.000
 4074.00    0.98848   0.94794   -1.000
 4075.00    0.96574   0.93682   -1.000
 4076.00    0.92873   0.91486   -1.000
 4077.00    0.90028   0.89999  505.975
 4078.00    0.90369   0.90661  500.119
 4079.00    0.93676   0.93376  471.390
 4080.00    0.97592   0.96536   -1.000
 4081.00    1.00235   0.98423   -1.000
 4082.00    1.00450   0.98478   -1.000
 4083.00    0.98633   0.97395   -1.000
 4084.00    0.96879   0.96402  441.285
 4085.00    0.97294   0.96416   -1.000
 4086.00    0.98957   0.97569   -1.000
 4087.00    1.00230   0.99236   -1.000
 4088.00    1.01841   1.00520   -1.000
 4089.00    1.01816   1.00818   -1.000
 4090.00    1.00642   1.00175  399.760
 4091.00    0.99757   0.99121  407.640
 4092.00    0.98241   0.97949  413.324
 4093.00    0.97339   0.96478   -1.000
 4094.00    0.96052   0.94464   -1.000
 4095.00    0.94139   0.91859   -1.000
 4096.00    0.91076   0.88897   -1.000
 4097.00    0.88302   0.85640   -1.000
 4098.00    0.85234   0.81582   -1.000
 4099.00    0.80298   0.76237   -1.000
 4100.00    0.73287   0.70327   -1.000
 4101.00    0.67222   0.66149   -1.000
 4102.00    0.66636   0.66033   -1.000
 4103.00    0.72656   0.70318   -1.000
 4104.00    0.80082   0.76969   -1.000
 4105.00    0.85387   0.83304   -1.000
 4106.00    0.88995   0.87818   -1.000
 4107.00    0.91290   0.90461   -1.000
 4108.00    0.91927   0.91785  438.860
 4109.00    0.92829   0.92469  445.973
 4110.00    0.93440   0.93194  453.436
 4111.00    0.93809   0.94365  452.161
 4112.00    0.95029   0.96010   -1.000
 4113.00    0.97226   0.97866  434.818
 4114.00    0.99495   0.99570  427.885
 4115.00    1.00872   1.00684  422.855
 4116.00    1.00850   1.00819  422.740
 4117.00    1.00141   1.00009  429.352
 4118.00    0.98160   0.98861   -1.000
 4119.00    0.97668   0.98143  450.923
 4120.00    0.99489   0.98148   -1.000
 4121.00    0.99432   0.98554   -1.000
 4122.00    0.99473   0.99051  442.531
 4123.00    1.00519   0.99733  439.700
 4124.00    1.02149   1.00594   -1.000
 4125.00    1.02811   1.01133   -1.000
 4126.00    1.02461   1.00839   -1.000
 4127.00    1.00869   0.99874   -1.000
 4128.00    1.00379   0.98898   -1.000
 4129.00    1.00345   0.98217   -1.000
 4130.00    0.99840   0.97516   -1.000
 4131.00    0.98739   0.96603   -1.000
 4132.00    0.97652   0.96028   -1.000
 4133.00    0.97008   0.96613  486.007
 4134.00    0.97671   0.98462   -1.000
 4135.00    0.99869   1.00851   -1.000
 4136.00    1.02158   1.03029   -1.000
 4137.00    1.04724   1.04698  427.127
 4138.00    1.06028   1.05832  420.461
 4139.00    1.06339   1.06198  417.031
 4140.00    1.05662   1.05249  421.942
 4141.00    1.02724   1.02782  439.356
 4142.00    0.98630   0.99640   -1.000
 4143.00    0.95235   0.97522   -1.000
 4144.00    0.95701   0.97675   -1.000
 4145.00    0.99397   0.99733  473.124
 4146.00    1.02052   1.02068  451.461
 4147.00    1.02142   1.03305   -1.000
 4148.00    1.02185   1.03348   -1.000
 4149.00    1.02979   1.02975  457.669
 4150.00    1.02398   1.02809  466.051
 4151.00    1.01945   1.02804   -1.000
 4152.00    1.01895   1.02577   -1.000
 4153.00    1.00859   1.02033   -1.000
 4154.00    1.00058   1.01522   -1.000
 4155.00    0.99691   1.01502   -1.000
 4156.00    0.99629   1.02151   -1.000
 4157.00    1.11238   1.03308   -1.000
 4158.00    1.16498   1.04620   -1.000
 4159.00    1.01773   1.05688   -1.000
 4160.00    0.93795   1.06337   -1.000
 4161.00    1.01498   1.06712   -1.000
 4162.00    1.06477   1.07029  428.365
 4163.00    1.05954   1.07302   -1.000
 4164.00    1.05757   1.07364   -1.000
 4165.00    1.05310   1.07032   -1.000
 4166.00    1.03695   1.06358   -1.000
 4167.00    1.02825   1.05783   -1.000
 4168.00    1.03625   1.05578   -1.000
 4169.00    1.04245   1.05207   -1.000
 4170.00    1.03079   1.03765   -1.000
 4171.00    1.00554   1.01172   -1.000
 4172.00    0.96936   0.98666   -1.000
 4173.00    0.94846   0.97717   -1.000
 4174.00    0.96308   0.98658   -1.000
 4175.00    0.98955   1.00384   -1.000
 4176.00    0.99961   1.01493   -1.000
 4177.00    0.99857   1.01732   -1.000
 4178.00    0.99789   1.01901   -1.000
 4179.00    1.00886   1.02571   -1.000
 4180.00    1.01516   1.03415   -1.000
 4181.00    1.01624   1.03888   -1.000
 4182.00    1.02406   1.04154   -1.000
 4183.00    1.03055   1.04681   -1.000
 4184.00    1.04231   1.05258   -1.000
 4185.00    1.04085   1.05223   -1.000
 4186.00    1.01364   1.04431   -1.000
 4187.00    1.00154   1.03614   -1.000
 4188.00    1.01511   1.03542   -1.000
 4189.00    1.03550   1.04061  459.412
 4190.00    1.04169   1.04649  453.753
 4191.00    1.03617   1.05264   -1.000
 4192.00    1.04639   1.05992   -1.000
 4193.00    1.05834   1.06438  433.269
 4194.00    1.04756   1.05906   -1.000
 4195.00    1.02842   1.04219   -1.000
 4196.00    1.01515   1.02052  477.723
 4197.00    1.00012   1.00214  488.695
 4198.00    0.98931   0.99086  492.373
 4199.00    0.98823   0.98711  489.170
 4200.00    0.99498   0.98895  482.075
 4201.00    0.99571   0.99364  478.397
 4202.00    0.99989   1.00125  476.064
 4203.00    1.01752   1.01375  470.092
 4204.00    1.02689   1.02979  465.190
 4205.00    1.02927   1.04602   -1.000
 4206.00    1.03817   1.06081   -1.000
 4207.00    1.04805   1.07217   -1.000
 4208.00    1.05882   1.07726   -1.000
 4209.00    1.06347   1.07728   -1.000
 4210.00    1.05644   1.07732   -1.000
 4211.00    1.05144   1.07980   -1.000
 4212.00    1.05599   1.08001   -1.000
 4213.00    1.04574   1.07038   -1.000
 4214.00    1.01078   1.05193   -1.000
 4215.00    0.98823   1.03691   -1.000
 4216.00    0.99910   1.03810   -1.000
 4217.00    1.03358   1.05692   -1.000
 4218.00    1.06483   1.08174   -1.000
 4219.00    1.08577   1.10009   -1.000
 4220.00    1.09796   1.10686   -1.000
 4221.00    1.09856   1.10010  402.006
 4222.00    1.08677   1.07760  413.963
 4223.00    1.05746   1.03901   -1.000
 4224.00    1.00822   0.99000   -1.000
 4225.00    0.94362   0.94509  536.012
 4226.00    0.89701   0.92415   -1.000
 4227.00    0.90291   0.94106   -1.000
 4228.00    0.97321   0.98999   -1.000
 4229.00    1.04499   1.04511  458.081
 4230.00    1.07781   1.07939   -1.000
 4231.00    1.08721   1.08473  416.459
 4232.00    1.07479   1.07152  421.536
 4233.00    1.05691   1.05435  432.322
 4234.00    1.04867   1.04293  439.217
 4235.00    1.04739   1.03973  447.237
 4236.00    1.03204   1.04226   -1.000
 4237.00    1.02483   1.04897   -1.000
 4238.00    1.03969   1.06001   -1.000
 4239.00    1.04923   1.07374   -1.000
 4240.00    1.06148   1.08729   -1.000
 4241.00    1.07918   1.09872   -1.000
 4242.00    1.08290   1.10810   -1.000
 4243.00    1.08286   1.11585   -1.000
 4244.00    1.09573   1.11883   -1.000
 4245.00    1.10174   1.11100   -1.000
 4246.00    1.07885   1.09108   -1.000
 4247.00    1.05266   1.06710   -1.000
 4248.00    1.03609   1.04915   -1.000
 4249.00    1.02001   1.04180   -1.000
 4250.00    1.01762   1.04499   -1.000
 4251.00    1.03890   1.05526   -1.000
 4252.00    1.07162   1.06464   -1.000
 4253.00    1.07450   1.06747   -1.000
 4254.00    1.05477   1.06813   -1.000
 4255.00    1.05968   1.07431   -1.000
 4256.00    1.08347   1.08387  432.696
 4257.00    1.09292   1.08468   -1.000
 4258.00    1.07343   1.07032  433.335
 4259.00    1.04227   1.05054   -1.000
 4260.00    1.02220   1.04266   -1.000
 4261.00    1.03083   1.05649   -1.000
 4262.00    1.06612   1.08704   -1.000
 4263.00    1.09526   1.11900   -1.000
 4264.00    1.11146   1.13875   -1.000
 4265.00    1.12346   1.14274   -1.000
 4266.00    1.12141   1.13484   -1.000
 4267.00    1.10446   1.11829   -1.000
 4268.00    1.08361   1.09360   -1.000
 4269.00    1.06262   1.06181  442.219
 4270.00    1.02935   1.02783  467.006
 4271.00    0.99301   1.00136   -1.000
 4272.00    0.98285   0.99134   -1.000
 4273.00    0.99013   0.99910   -1.000
 4274.00    1.00304   1.01992   -1.000
 4275.00    1.02577   1.04952   -1.000
 4276.00    1.06398   1.08271   -1.000
 4277.00    1.09254   1.10854   -1.000
 4278.00    1.09668   1.11696   -1.000
 4279.00    1.08495   1.10927   -1.000
 4280.00    1.06420   1.09677   -1.000
 4281.00    1.05489   1.09006   -1.000
 4282.00    1.05234   1.08998   -1.000
 4283.00    1.06274   1.09026   -1.000
 4284.00    1.06833   1.08640   -1.000
 4285.00    1.05063   1.07759   -1.000
 4286.00    1.03360   1.06414   -1.000
 4287.00    1.02167   1.04561   -1.000
 4288.00    1.00791   1.02265   -1.000
 4289.00    0.97867   1.00280   -1.000
 4290.00    0.96166   0.99842   -1.000
 4291.00    0.98303   1.01311   -1.000
 4292.00    1.01699   1.03424   -1.000
 4293.00    1.03667   1.04509   -1.000
 4294.00    1.03828   1.04185  457.834
 4295.00    1.03192   1.03112  464.456
 4296.00    1.01850   1.01509  474.077
 4297.00    0.99089   0.99058  493.261
 4298.00    0.94650   0.95875   -1.000
 4299.00    0.90673   0.92810   -1.000
 4300.00    0.88951   0.90861   -1.000
 4301.00    0.88947   0.90396   -1.000
 4302.00    0.90664   0.91073  570.649
 4303.00    0.92867   0.92341   -1.000
 4304.00    0.93883   0.93508   -1.000
 4305.00    0.93237   0.93708  553.803
 4306.00    0.91947   0.92614  566.996
 4307.00    0.89737   0.91011   -1.000
 4308.00    0.87556   0.90251   -1.000
 4309.00    0.88311   0.91137   -1.000
 4310.00    0.91625   0.93331   -1.000
 4311.00    0.94308   0.95876   -1.000
 4312.00    0.96072   0.98227   -1.000
 4313.00    0.97676   1.00869   -1.000
 4314.00    1.00686   1.04673   -1.000
 4315.00    1.06511   1.09670   -1.000
 4316.00    1.12514   1.14632   -1.000
 4317.00    1.15820   1.17950   -1.000
 4318.00    1.16412   1.18965   -1.000
 4319.00    1.15935   1.18174   -1.000
 4320.00    1.14284   1.16325   -1.000
 4321.00    1.11939   1.13696   -1.000
 4322.00    1.10101   1.10153  416.213
 4323.00    1.06038   1.05844  443.326
 4324.00    1.00750   1.01989   -1.000
 4325.00    0.97606   1.00663   -1.000
 4326.00    0.99697   1.02989   -1.000
 4327.00    1.05436   1.07635   -1.000
 4328.00    1.10205   1.11849   -1.000
 4329.00    1.12091   1.13901   -1.000
 4330.00    1.11610   1.14136   -1.000
 4331.00    1.11315   1.13875   -1.000
 4332.00    1.11098   1.13784   -1.000
 4333.00    1.10522   1.13464   -1.000
 4334.00    1.08687   1.12014   -1.000
 4335.00    1.06690   1.08521   -1.000
 4336.00    1.02580   1.02474  402.946
 4337.00    0.95657   0.94352   -1.000
 4338.00    0.87767   0.85964   -1.000
 4339.00    0.80009   0.79808  521.130
 4340.00    0.75962   0.77913   -1.000
 4341.00    0.79393   0.80987   -1.000
 4342.00    0.87726   0.87706  474.413
 4343.00    0.95371   0.95257  438.741
 4344.00    1.00628   1.01520   -1.000
 4345.00    1.04367   1.06199   -1.000
 4346.00    1.07362   1.09866   -1.000
 4347.00    1.09291   1.12742   -1.000
 4348.00    1.10804   1.14270   -1.000
 4349.00    1.12422   1.13635   -1.000
 4350.00    1.10510   1.11053  402.017
 4351.00    1.05964   1.08327   -1.000
 4352.00    1.04700   1.07588   -1.000
 4353.00    1.07256   1.09470   -1.000
 4354.00    1.10852   1.12743   -1.000
 4355.00    1.13411   1.15687   -1.000
 4356.00    1.15414   1.17388   -1.000
 4357.00    1.16280   1.17828   -1.000
 4358.00    1.15199   1.17602   -1.000
 4359.00    1.13933   1.17669   -1.000
 4360.00    1.14249   1.18615   -1.000
 4361.00    1.15910   1.20145   -1.000
 4362.00    1.17487   1.21641   -1.000
 4363.00    1.19057   1.22765   -1.000
 4364.00    1.20019   1.23294   -1.000
 4365.00    1.20186   1.22854   -1.000
 4366.00    1.18650   1.21295   -1.000
 4367.00    1.16101   1.19272   -1.000
 4368.00    1.14640   1.17802   -1.000
 4369.00    1.15386   1.17201   -1.000
 4370.00    1.16430   1.16965  396.560
 4371.00    1.16161   1.16375  395.493
 4372.00    1.14945   1.14920  397.927
 4373.00    1.12243   1.12718  409.779
 4374.00    1.10011   1.10886  426.666
 4375.00    1.09536   1.10892   -1.000
 4376.00    1.11726   1.13054   -1.000
 4377.00    1.16560   1.16050   -1.000
 4378.00    1.19493   1.18079   -1.000
 4379.00    1.19383   1.18166   -1.000
 4380.00    1.18632   1.16102   -1.000
 4381.00    1.16710   1.11901   -1.000
 4382.00    1.11301   1.06411   -1.000
 4383.00    1.03858   1.01917   -1.000
 4384.00    1.01166   1.00785  518.760
 4385.00    1.05240   1.03380   -1.000
 4386.00    1.10926   1.07679   -1.000
 4387.00    1.14424   1.11173   -1.000
 4388.00    1.15619   1.12888   -1.000
 4389.00    1.15310   1.13390   -1.000
 4390.00    1.14740   1.13668   -1.000
 4391.00    1.15758   1.14242   -1.000
 4392.00    1.17410   1.14775   -1.000
 4393.00    1.16869   1.14676   -1.000
 4394.00    1.15102   1.14311  410.121
 4395.00    1.14909   1.14850  412.658
 4396.00    1.16895   1.16525  399.575
 4397.00    1.19379   1.17992   -1.000
 4398.00    1.19567   1.17914   -1.000
 4399.00    1.16876   1.16603  396.033
 4400.00    1.14370   1.15524   -1.000
 4401.00    1.15774   1.15276  410.434
 4402.00    1.18586   1.14951   -1.000
 4403.00    1.17113   1.13686   -1.000
 4404.00    1.13424   1.12083   -1.000
 4405.00    1.12491   1.11538   -1.000
 4406.00    1.13528   1.12451   67.696
 4407.00    1.13830   1.14040   42.393
 4408.00    1.14224   1.15833   41.952
 4409.00    1.16423   1.18104   40.788
 4410.00    1.20265   1.20760   39.071
 4411.00    1.23472   1.22735   37.616
 4412.00    1.23626   1.22815   36.878
 4413.00    1.21789   1.20742   37.365
 4414.00    1.18552   1.17534   39.138
 4415.00    1.15604   1.15061   40.909
 4416.00    1.14245   1.14839   41.275
 4417.00    1.15299   1.16924   40.217
 4418.00    1.18500   1.20092   38.608
 4419.00    1.21491   1.22740   37.326
 4420.00    1.21806   1.23730   37.089
 4421.00    1.20299   1.23137   37.825
 4422.00    1.18555   1.22154   38.650
 4423.00    1.18040   1.21780   38.757
 4424.00    1.17823   1.21947   38.532
 4425.00    1.17166   1.22134   38.556
 4426.00    1.15704   1.22222   38.734
 4427.00    1.15320   1.22400   38.631
 4428.00    1.16994   1.22672   38.421
 4429.00    1.17019   1.22874   38.613
 4430.00    1.16168   1.23007   38.854
 4431.00    1.17076   1.23068   38.602
 4432.00    1.18277   1.22653   38.227
 4433.00    1.18011   1.21387   38.916
 4434.00    1.14523   1.19877   40.647
 4435.00    1.13188   1.19610   41.691
 4436.00    1.15970   1.21530   40.745
 4437.00    1.20891   1.24848   38.489
 4438.00    1.24845   1.27598   36.577
 4439.00    1.24953   1.28179   35.964
 4440.00    1.23198   1.26389   36.680
 4441.00    1.20112   1.23391   38.260
 4442.00    1.16966   1.20983   39.984
 4443.00    1.15611   1.20626   40.689
 4444.00    1.17782   1.22583   39.719
 4445.00    1.21835   1.25640   38.057
 4446.00    1.24194   1.28079   37.000
 4447.00    1.24894   1.29140   36.774
 4448.00    1.25485   1.29223   36.843
 4449.00    1.25276   1.28911   37.128
 4450.00    1.25451   1.28485   37.523
 4451.00    1.25780   1.27957   37.477
 4452.00    1.25759   1.26953   37.513
 4453.00    1.24246   1.25038   38.492
 4454.00    1.20872   1.22629   40.176
 4455.00    1.18307   1.20992   41.405
 4456.00    1.18705   1.20846   41.245
 4457.00    1.20850   1.21597   40.483
 4458.00    1.22107   1.22212   40.232
 4459.00    1.21769   1.22291   40.394
 4460.00    1.20890   1.22177   40.743
 4461.00    1.19970   1.22512   41.137
 4462.00    1.21244   1.23647   40.753
 4463.00    1.23828   1.25248   39.402
 4464.00    1.25540   1.26569   38.224
 4465.00    1.25951   1.27060   37.872
 4466.00    1.25218   1.26603   37.890
 4467.00    1.24492   1.25490   38.172
 4468.00    1.23762   1.24421   38.811
 4469.00    1.22825   1.24232   39.248
 4470.00    1.23307   1.25407   38.973
 4471.00    1.25796   1.27692   37.972
 4472.00    1.29021   1.30288   36.683
 4473.00    1.31956   1.32457   35.584
 4474.00    1.33107   1.33881   35.042
 4475.00    1.32934   1.34742   34.991
 4476.00    1.33494   1.35323   34.830
 4477.00    1.34460   1.35287   34.578
 4478.00    1.34526   1.33809   34.701
 4479.00    1.32185   1.30724   35.635
 4480.00    1.27936   1.27323   37.176
 4481.00    1.24452   1.25617   38.480
 4482.00    1.24211   1.26715   38.594
 4483.00    1.27727   1.29972   37.357
 4484.00    1.31819   1.33609   35.853
 4485.00    1.34413   1.35960   34.873
 4486.00    1.35179   1.36218   34.642
 4487.00    1.33795   1.34562   35.175
 4488.00    1.31277   1.32126   36.343
 4489.00    1.29164   1.30470   37.412
 4490.00    1.29232   1.30476   37.461
 4491.00    1.31377   1.31634   36.641
 4492.00    1.32775   1.32527   35.894
 4493.00    1.31999   1.32245   36.024
 4494.00    1.30057   1.31289   36.950
 4495.00    1.28370   1.30874   37.893
 4496.00    1.29016   1.31612   37.929
 4497.00    1.30759   1.33049   36.913
 4498.00    1.32568   1.34190   35.764
 4499.00    1.33529   1.34343   35.167
 4500.00    1.32167   1.33849   35.309
 4501.00    1.30678   1.33926   35.608
 4502.00    1.31610   1.35396   35.092
 4503.00    1.35035   1.37781   33.962
 4504.00    1.37539   1.39833   33.143
 4505.00    1.38026   1.40651   33.077
 4506.00    1.37648   1.40212   33.607
 4507.00    1.37047   1.39229   34.086
 4508.00    1.36744   1.38606   34.219
 4509.00    1.38059   1.38719   34.056
 4510.00    1.39805   1.39120   33.802
 4511.00    1.39330   1.39065   33.892
 4512.00    1.37028   1.38275   34.435
 4513.00    1.34831   1.37077   35.088
 4514.00    1.34604   1.36001   35.458
 4515.00    1.34867   1.35400   35.420
 4516.00    1.34155   1.35219   35.328
 4517.00    1.33085   1.35148   35.591
 4518.00    1.32750   1.35111   35.899
 4519.00    1.33527   1.35296   35.588
 4520.00    1.34930   1.35621   34.899
 4521.00    1.35725   1.35614   34.701
 4522.00    1.34710   1.34981   35.273
 4523.00    1.32481   1.33994   36.057
 4524.00    1.32095   1.33006   36.523
 4525.00    1.31123   1.31881   37.010
 4526.00    1.29323   1.30289   37.958
 4527.00    1.27252   1.28347   39.083
 4528.00    1.25685   1.26783   39.792
 4529.00    1.25931   1.26392   39.775
 4530.00    1.26779   1.27214   39.209
 4531.00    1.28616   1.28295   38.492
 4532.00    1.29835   1.28436   38.107
 4533.00    1.27866   1.27470   38.706
 4534.00    1.24720   1.26630   39.972
 4535.00    1.23955   1.27461   40.167
 4536.00    1.27645   1.30305   38.476
 4537.00    1.33682   1.33907   36.190
 4538.00    1.37639   1.36519   34.778
 4539.00    1.38394   1.37284   34.654
 4540.00    1.36682   1.36718   35.333
 4541.00    1.35252   1.35998   35.651
 4542.00    1.35226   1.35811   35.451
 4543.00    1.35422   1.35937   35.265
 4544.00    1.34551   1.35865   43.332
 4545.00    1.36483   1.35514   -2.000
 4546.00    0.85366   1.35005   -2.000
 4547.00    0.16943   1.34093   -2.000
 4548.00   -0.05681   1.32596    0.000
 4549.00    0.45905   1.31241   -1.000
 4550.00    0.64918   1.31143   -1.000
 4551.00    0.62371   1.32248   -1.000
 4552.00    1.11113   1.33153   -1.000
 4553.00    1.34260   1.32881   37.285
 4554.00    1.29513   1.32070   37.732
 4555.00    1.30102   1.32166   37.507
 4556.00    1.33141   1.33901   36.415
 4557.00    1.37689   1.36621   34.979
 4558.00    1.40194   1.39085   34.058
 4559.00    1.40344   1.40718   33.962
 4560.00    1.40511   1.41563   34.041
 4561.00    1.40304   1.41477   34.036
 4562.00    1.38593   1.40231   34.526
 4563.00    1.36620   1.38296   35.388
 4564.00    1.35061   1.36882   36.104
 4565.00    1.35141   1.36956   36.089
 4566.00    1.38022   1.38444   35.344
 4567.00    1.40867   1.40376   34.410
 4568.00    1.41386   1.41587   33.846
 4569.00    1.40791   1.41409   33.956
 4570.00    1.38922   1.40011   34.647
 4571.00    1.35636   1.38395   35.561
 4572.00    1.34969   1.37903   35.765
 4573.00    1.37402   1.38970   34.965
 4574.00    1.39496   1.40575   34.231
 4575.00    1.39586   1.41484   34.068
 4576.00    1.38835   1.41449   34.184
 4577.00    1.38282   1.40757   34.370
 4578.00    1.37446   1.39478   34.808
 4579.00    1.36508   1.37689   35.688
 4580.00    1.34826   1.35910   36.570
 4581.00    1.34150   1.34732   36.792
 4582.00    1.34570   1.34230   36.412
 4583.00    1.35342   1.34224   36.038
 4584.00    1.36071   1.34686   36.006
 4585.00    1.35939   1.35606   36.196
 4586.00    1.36637   1.36897   35.979
 4587.00    1.37850   1.38389   35.187
 4588.00    1.39394   1.39695   34.360
 4589.00    1.40054   1.40376   34.049
 4590.00    1.39421   1.40291   34.349
 4591.00    1.37866   1.39630   34.950
 4592.00    1.37282   1.38842   35.583
 4593.00    1.37914   1.38431   35.847
 4594.00    1.38715   1.38536   35.659
 4595.00    1.39735   1.38961   35.361
 4596.00    1.40360   1.39541   35.196
 4597.00    1.40752   1.40100   35.119
 4598.00    1.41077   1.40382   35.042
 4599.00    1.40974   1.40260   35.198
 4600.00    1.39984   1.39891   35.523
 4601.00    1.37764   1.39598   35.709
 4602.00    1.37036   1.39596   35.510
 4603.00    1.38289   1.39830   35.108
 4604.00    1.40051   1.40172   34.989
 4605.00    1.41185   1.40708   34.987
 4606.00    1.40755   1.41679   34.728
 4607.00    1.40982   1.43129   34.152
 4608.00    1.43108   1.44735   33.434
 4609.00    1.45789   1.45910   32.913
 4610.00    1.45916   1.46195   32.858
 4611.00    1.44668   1.45672   33.204
 4612.00    1.44115   1.44897   33.616
 4613.00    1.43925   1.44455   33.893
 4614.00    1.43673   1.44513   33.873
 4615.00    1.43436   1.44744   33.613
 4616.00    1.43242   1.44764   33.411
 4617.00    1.43453   1.44507   33.498
 4618.00    1.43310   1.44183   33.747
 4619.00    1.42532   1.44132   33.826
 4620.00    1.43779   1.44613   33.609
 4621.00    1.46396   1.45513   33.150
 4622.00    1.47380   1.46354   32.931
 4623.00    1.46486   1.46707   32.991
 4624.00    1.45599   1.46562   33.065
 4625.00    1.45130   1.46187   33.275
 4626.00    1.44352   1.45800   33.451
 4627.00    1.44249   1.45426   33.467
 4628.00    1.44303   1.45069   33.589
 4629.00    1.44173   1.44943   33.724
 4630.00    1.44798   1.45280   33.646
 4631.00    1.45546   1.45860   33.336
 4632.00    1.45120   1.46110   33.268
 4633.00    1.43866   1.45724   33.636
 4634.00    1.43184   1.45008   34.065
 4635.00    1.43067   1.44423   34.190
 4636.00    1.43203   1.44044   34.336
 4637.00    1.43053   1.43737   34.731
 4638.00    1.42687   1.43544   35.004
 4639.00    1.42620   1.43732   35.022
 4640.00    1.43374   1.44515   34.635
 4641.00    1.45651   1.45684   33.873
 4642.00    1.47312   1.46622   33.258
 4643.00    1.47923   1.46705   33.169
 4644.00    1.47258   1.45718   33.611
 4645.00    1.44275   1.43903   34.445
 4646.00    1.41959   1.41944   35.416
 4647.00    1.40778   1.40832   35.896
 4648.00    1.41156   1.41185   35.546
 4649.00    1.43626   1.42764   34.773
 4650.00    1.45220   1.44739   34.159
 4651.00    1.45333   1.46222   33.947
 4652.00    1.45415   1.46699   33.891
 4653.00    1.44338   1.46163   34.106
 4654.00    1.42574   1.45080   34.758
 4655.00    1.40544   1.44235   35.332
 4656.00    1.40840   1.44399   35.297
 4657.00    1.43214   1.45944   34.473
 4658.00    1.46918   1.48474   33.215
 4659.00    1.50791   1.50855   32.257
 4660.00    1.51893   1.51932   31.964
 4661.00    1.50554   1.51407   32.208
 4662.00    1.48399   1.49870   32.856
 4663.00    1.46493   1.48065   33.580
 4664.00    1.45689   1.46175   33.885
 4665.00    1.45311   1.43886   34.236
 4666.00    1.43043   1.41223   35.356
 4667.00    1.38929   1.39080   36.879
 4668.00    1.37424   1.38597   37.510
 4669.00    1.39198   1.40016   36.782
 4670.00    1.42140   1.42483   35.370
 4671.00    1.44731   1.44841   34.197
 4672.00    1.45820   1.46373   33.722
 4673.00    1.46658   1.47159   33.677
 4674.00    1.46810   1.47785   33.671
 4675.00    1.47519   1.48574   33.389
 4676.00    1.49572   1.49143   32.901
 4677.00    1.49868   1.48845   32.802
 4678.00    1.48512   1.47593   33.314
 4679.00    1.46619   1.45949   34.016
 4680.00    1.44579   1.44612   34.621
 4681.00    1.43553   1.44064   35.048
 4682.00    1.44166   1.44420   34.910
 4683.00    1.45813   1.45351   34.182
 4684.00    1.47708   1.46282   33.558
 4685.00    1.48931   1.46829   33.463
 4686.00    1.48822   1.46989   33.531
 4687.00    1.48544   1.46985   33.648
 4688.00    1.48240   1.47008   33.731
 4689.00    1.47689   1.47068   33.729
 4690.00    1.48142   1.47069   33.877
 4691.00    1.48732   1.47083   34.023
 4692.00    1.48073   1.47387   33.802
 4693.00    1.48844   1.48097   33.326
 4694.00    1.51212   1.48968   32.676
 4695.00    1.52921   1.49574   32.129
 4696.00    1.53356   1.49451   32.069
 4697.00    1.51925   1.48365   32.701
 4698.00    1.49142   1.46706   33.695
 4699.00    1.47198   1.45224   34.341
 4700.00    1.47626   1.44207   34.316
 4701.00    1.47697   1.43414   34.342
 4702.00    1.46063   1.42811   34.826
 4703.00    1.45338   1.42792   35.191
 4704.00    1.46384   1.43519   34.847
 4705.00    1.47368   1.44430   34.252
 4706.00    1.46834   1.44715   34.339
 4707.00    1.44924   1.44206   34.972
 4708.00    1.43454   1.43606   35.463
 4709.00    1.43365   1.43789   35.477
 4710.00    1.44759   1.44925   34.755
 4711.00    1.47674   1.46352   33.751
 4712.00    1.49603   1.47169   33.184
 4713.00    1.50005   1.47079   33.257
 4714.00    1.48690   1.46753   33.781
 4715.00    1.47833   1.47127   34.046
 4716.00    1.48829   1.48472   33.620
 4717.00    1.50947   1.50264   32.947
 4718.00    1.52493   1.51814   32.573
 4719.00    1.52879   1.52788   32.434
 4720.00    1.52172   1.53171   32.324
 4721.00    1.50938   1.53097   32.444
 4722.00    1.50648   1.52898   32.705
 4723.00    1.50907   1.52958   32.681
 4724.00    1.52297   1.53172   32.379
 4725.00    1.52631   1.52895   32.264
 4726.00    1.50608   1.51584   32.761
 4727.00    1.47840   1.49398   33.848
 4728.00    1.45225   1.47217   34.837
 4729.00    1.44818   1.45899   35.058
 4730.00    1.46150   1.45667   34.767
 4731.00    1.47568   1.46333   34.455
 4732.00    1.47902   1.47601   34.099
 4733.00    1.48312   1.48983   33.753
 4734.00    1.49776   1.49903   33.524
 4735.00    1.50553   1.50116   33.338
 4736.00    1.50020   1.49944   33.477
 4737.00    1.50232   1.49950   33.663
 4738.00    1.51776   1.50370   33.409
 4739.00    1.52190   1.50936   33.230
 4740.00    1.51003   1.51301   33.364
 4741.00    1.50468   1.51501   33.474
 4742.00    1.50995   1.51789   33.326
 4743.00    1.51064   1.52221   32.992
 4744.00    1.51457   1.52728   32.884
 4745.00    1.52548   1.53303   32.940
 4746.00    1.53250   1.53983   32.802
 4747.00    1.53240   1.54778   32.497
 4748.00    1.52769   1.55567   32.321
 4749.00    1.53826   1.56181   32.331
 4750.00    1.54311   1.56493   32.366
 4751.00    1.52802   1.56386   32.514
 4752.00    1.52265   1.55798   32.837
 4753.00    1.51644   1.54884   33.156
 4754.00    1.50230   1.53992   33.401
 4755.00    1.49447   1.53485   33.457
 4756.00    1.48647   1.53547   33.503
 4757.00    1.48552   1.54068   33.710
 4758.00    1.49303   1.54734   33.836
 4759.00    1.49952   1.55171   33.677
 4760.00    1.49914   1.54942   33.519
 4761.00    1.48090   1.53770   33.811
 4762.00    1.46073   1.51891   34.545
 4763.00    1.44192   1.50032   35.172
 4764.00    1.44312   1.48878   35.375
 4765.00    1.46099   1.48653   35.343
 4766.00    1.46947   1.49283   35.162
 4767.00    1.47836   1.50681   34.766
 4768.00    1.49764   1.52650   34.093
 4769.00    1.51812   1.54603   33.490
 4770.00    1.53026   1.55786   33.342
 4771.00    1.52242   1.56003   33.546
 4772.00    1.50967   1.55887   33.844
 4773.00    1.51394   1.56264   33.732
 4774.00    1.53505   1.57281   33.124
 4775.00    1.54877   1.58380   32.693
 4776.00    1.54530   1.59037   32.630
 4777.00    1.53792   1.59136   32.704
 4778.00    1.53243   1.58726   32.872
 4779.00    1.51805   1.57961   33.182
 4780.00    1.50937   1.57207   33.455
 4781.00    1.51335   1.56720   33.581
 4782.00    1.51053   1.56370   33.709
 4783.00    1.50910   1.55963   33.940
 4784.00    1.50943   1.55499   34.047
 4785.00    1.49826   1.54993   34.101
 4786.00    1.48628   1.54441   34.353
 4787.00    1.48684   1.54043   34.617
 4788.00    1.48796   1.54022   34.674
 4789.00    1.49113   1.54409   34.553
 4790.00    1.50149   1.55190   34.354
 4791.00    1.51170   1.56417   34.053
 4792.00    1.52729   1.58095   33.573
 4793.00    1.54520   1.60058   32.898
 4794.00    1.56327   1.61859   32.259
 4795.00    1.57613   1.62889   31.967
 4796.00    1.57004   1.62726   32.120
 4797.00    1.55094   1.61416   32.646
 4798.00    1.52793   1.59609   33.287
 4799.00    1.51433   1.58343   33.776
 4800.00    1.52250   1.58354   33.759
 4801.00    1.54436   1.59529   33.214
 4802.00    1.56400   1.60957   32.648
 4803.00    1.56789   1.61484   32.488
 4804.00    1.54989   1.60745   32.777
 4805.00    1.52670   1.59436   33.215
 4806.00    1.52523   1.58473   33.568
 4807.00    1.53164   1.58227   33.685
 4808.00    1.53064   1.58577   33.624
 4809.00    1.53720   1.59235   33.498
 4810.00    1.54562   1.59901   33.255
 4811.00    1.55115   1.60415   32.987
 4812.00    1.55908   1.60823   32.792
 4813.00    1.56404   1.61268   32.705
 4814.00    1.56538   1.61842   32.648
 4815.00    1.56858   1.62566   32.545
 4816.00    1.56978   1.63402   32.375
 4817.00    1.57215   1.64217   32.171
 4818.00    1.57303   1.64805   32.012
 4819.00    1.57655   1.65021   31.953
 4820.00    1.57547   1.64708   31.952
 4821.00    1.57055   1.63592   32.118
 4822.00    1.55684   1.61630   32.738
 4823.00    1.52963   1.59485   33.480
 4824.00    1.51977   1.58260   33.701
 4825.00    1.53540   1.58520   33.305
 4826.00    1.55614   1.59699   32.746
 4827.00    1.55587   1.60676   32.618
 4828.00    1.54319   1.60850   32.916
 4829.00    1.53411   1.60420   33.205
 4830.00    1.53462   1.59786   33.280
 4831.00    1.53398   1.59151   33.452
 4832.00    1.53281   1.58765   33.622
 4833.00    1.54436   1.58909   33.322
 4834.00    1.55793   1.59556   32.827
 4835.00    1.56232   1.60284   32.577
 4836.00    1.56106   1.60690   32.566
 4837.00    1.55830   1.60646   32.684
 4838.00    1.55017   1.60153   33.012
 4839.00    1.53904   1.59353   33.554
 4840.00    1.52717   1.58612   33.820
 4841.00    1.52270   1.58229   33.772
 4842.00    1.53092   1.58164   33.641
 4843.00    1.54234   1.58332   33.422
 4844.00    1.54851   1.58826   33.120
 4845.00    1.54939   1.59536   32.676
 4846.00    1.54634   1.59877   32.359
 4847.00    1.53617   1.59326   32.677
 4848.00    1.52363   1.58218   33.261
 4849.00    1.51336   1.57469   33.462
 4850.00    1.51648   1.57426   33.174
 4851.00    1.52293   1.57548   32.923
 4852.00    1.51329   1.57006   33.009
 4853.00    1.49747   1.55217   33.258
 4854.00    1.47317   1.52201   33.953
 4855.00    1.43862   1.48796   34.959
 4856.00    1.42401   1.45907   35.329
 4857.00    1.42302   1.43145   35.061
 4858.00    1.38446   1.38680   35.453
 4859.00    1.28424   1.30878   37.629
 4860.00    1.15527   1.21049   41.606
 4861.00    1.06692   1.13636   -1.000
 4862.00    1.09268   1.12885   44.102
 4863.00    1.21505   1.18950   40.572
 4864.00    1.32657   1.28153   37.655
 4865.00    1.38521   1.36714   35.976
 4866.00    1.41190   1.43129   35.017
 4867.00    1.43909   1.47509   34.531
 4868.00    1.46101   1.50103   34.320
 4869.00    1.46156   1.50810   34.432
 4870.00    1.44579   1.49757   35.127
 4871.00    1.42597   1.48062   36.063
 4872.00    1.42693   1.47503   36.256
 4873.00    1.45190   1.48984   35.497
 4874.00    1.47490   1.51676   34.698
 4875.00    1.48635   1.54129   34.297
 4876.00    1.49216   1.55771   34.083
 4877.00    1.49200   1.57099   33.940
 4878.00    1.49888   1.58691   33.607
 4879.00    1.51882   1.60392   33.184
 4880.00    1.52163   1.61486   -1.000
 4881.00    1.49820   1.61467   -1.000
 4882.00    1.48559   1.60606   -1.000
 4883.00    1.49854   1.59555   -1.000
 4884.00    1.50689   1.58649   34.081
 4885.00    1.49957   1.57900   34.469
 4886.00    1.50250   1.57402   34.811
 4887.00    1.51055   1.57198   34.776
 4888.00    1.50592   1.56869   34.661
 4889.00    1.49193   1.55854   34.936
 4890.00    1.47670   1.54370   35.615
 4891.00    1.47399   1.53851   35.825
 4892.00    1.49675   1.55768   34.868
 4893.00    1.54836   1.59958   33.313
 4894.00    1.59607   1.64775   32.085
 4895.00    1.61477   1.68561   31.346
 4896.00    1.62680   1.70632   31.013
 4897.00    1.63249   1.71096   30.995
 4898.00    1.62057   1.70328   31.409
 4899.00    1.59533   1.68849   32.141
 4900.00    1.57300   1.67376   -1.000
 4901.00    1.57260   1.66372   32.731
 4902.00    1.57525   1.65749   32.678
 4903.00    1.57153   1.65438   32.933
 4904.00    1.57674   1.65845   32.910
 4905.00    1.60208   1.67174   32.337
 4906.00    1.62434   1.68601   31.887
 4907.00    1.62414   1.68878   31.955
 4908.00    1.60815   1.67543   32.531
 4909.00    1.57879   1.65218   33.417
 4910.00    1.56093   1.63116   34.084
 4911.00    1.56255   1.62318   34.004
 4912.00    1.57413   1.63112   33.443
 4913.00    1.59288   1.64905   32.918
 4914.00    1.61121   1.66815   32.482
 4915.00    1.62897   1.68003   32.136
 4916.00    1.63058   1.67594   32.101
 4917.00    1.60476   1.64879   32.805
 4918.00    1.56648   1.60124   34.339
 4919.00    1.51602   1.54931   36.105
 4920.00    1.47935   1.51504   37.092
 4921.00    1.49136   1.51077   36.561
 4922.00    1.52832   1.52911   35.264
 4923.00    1.55766   1.55282   34.409
 4924.00    1.56552   1.57414   34.181
 4925.00    1.57511   1.59804   33.927
 4926.00    1.59694   1.62823   33.226
 4927.00    1.61963   1.65978   32.505
 4928.00    1.63622   1.68629   32.084
 4929.00    1.64788   1.70477   31.833
 4930.00    1.65619   1.71269   31.631
 4931.00    1.65380   1.70626   31.722
 4932.00    1.62777   1.68479   32.353
 4933.00    1.58188   1.65650   33.414
 4934.00    1.56242   1.63651   34.002
 4935.00    1.58516   1.63141   33.672
 4936.00    1.60482   1.63067   33.382
 4937.00    1.58971   1.62110   33.932
 4938.00    1.55733   1.60559   34.919
 4939.00    1.54546   1.60095   35.168
 4940.00    1.56746   1.61854   34.331
 4941.00    1.60497   1.65277   33.184
 4942.00    1.63183   1.68739   32.375
 4943.00    1.64332   1.70967   31.954
 4944.00    1.64930   1.71688   31.843
 4945.00    1.64748   1.71460   31.986
 4946.00    1.64108   1.71189   32.129
 4947.00    1.64208   1.71530   31.993
 4948.00    1.65256   1.72479   31.647
 4949.00    1.66766   1.73506   31.427
 4950.00    1.67387   1.74101   31.315
 4951.00    1.67270   1.74111   31.348
 4952.00    1.66505   1.73650   31.546
 4953.00    1.65446   1.72780   31.847
 4954.00    1.65516   1.71109   32.235
 4955.00    1.64410   1.67910   32.893
 4956.00    1.59030   1.63194   34.235
 4957.00    1.53652   1.58864   35.811
 4958.00    1.54090   1.57703   36.031
 4959.00    1.59600   1.60531   34.501
 4960.00    1.65404   1.65359   32.949
 4961.00    1.67242   1.69475   32.318
 4962.00    1.66461   1.71526   32.305
 4963.00    1.65753   1.71626   32.522
 4964.00    1.64437   1.70406   32.854
 4965.00    1.62417   1.68555   33.418
 4966.00    1.61520   1.66887   33.981
 4967.00    1.61679   1.66001   34.177
 4968.00    1.62328   1.65937   34.118
 4969.00    1.62908   1.66504   33.931
 4970.00    1.63128   1.67592   33.614
 4971.00    1.63948   1.69067   33.252
 4972.00    1.65633   1.70660   32.872
 4973.00    1.67293   1.71994   32.525
 4974.00    1.67539   1.72727   32.316
 4975.00    1.67207   1.72707   32.385
 4976.00    1.66382   1.71946   32.681
 4977.00    1.65208   1.70615   33.084
 4978.00    1.63683   1.69081   33.586
 4979.00    1.61989   1.67517   34.061
 4980.00    1.60425   1.65564   34.514
 4981.00    1.57483   1.62805   35.362
 4982.00    1.53877   1.59625   36.532
 4983.00    1.52221   1.57355   37.061
 4984.00    1.53847   1.57224   36.653
 4985.00    1.57283   1.59312   35.761
 4986.00    1.60146   1.62666   34.677
 4987.00    1.61953   1.65992   33.708
 4988.00    1.62843   1.68109   33.355
 4989.00    1.62472   1.68509   33.653
 4990.00    1.61509   1.67750   34.075
 4991.00    1.61491   1.66958   34.237
 4992.00    1.62425   1.66865   34.068
 4993.00    1.63655   1.67436   33.848
 4994.00    1.64150   1.68328   33.778
 4995.00    1.63985   1.69285   33.676
 4996.00    1.64048   1.69977   33.503
 4997.00    1.63699   1.69841   33.541
 4998.00    1.62763   1.68442   33.887
 4999.00    1.61599   1.66010   34.473
 5000.00    1.59766   1.63630   35.029
 5001.00    1.59388   1.62370   35.235
 5002.00    1.60680   1.62259   35.054
 5003.00    1.61827   1.62359   34.772
 5004.00    1.61508   1.61730   34.945
 5005.00    1.59619   1.60354   35.674
 5006.00    1.57696   1.59341   36.201
 5007.00    1.58676   1.59955   35.784
 5008.00    1.61761   1.62163   34.769
 5009.00    1.64661   1.64456   34.087
 5010.00    1.65280   1.65191   34.179
 5011.00    1.62508   1.63847   34.957
 5012.00    1.59454   1.61202   36.163
 5013.00    1.56501   1.58678   37.246
 5014.00    1.54045   1.57464   37.528
 5015.00    1.55245   1.57714   36.968
 5016.00    1.57987   1.58521   36.164
 5017.00    1.59277   1.58939   35.742
 5018.00    1.59385   1.59084   35.687
 5019.00    1.60243   1.59802   35.467
 5020.00    1.62258   1.61275   35.120
 5021.00    1.62752   1.62803   35.078
 5022.00    1.61851   1.63961   35.198
 5023.00    1.62004   1.65081   35.120
 5024.00    1.62877   1.66420   34.819
 5025.00    1.63363   1.67560   34.522
 5026.00    1.63962   1.67953   34.511
 5027.00    1.64138   1.67770   34.683
 5028.00    1.63763   1.67771   34.581
 5029.00    1.64984   1.68448   34.070
 5030.00    1.67155   1.69748   33.509
 5031.00    1.68559   1.71390   32.996
 5032.00    1.69868   1.72922   32.545
 5033.00    1.70329   1.73585   32.408
 5034.00    1.68377   1.72723   33.006
 5035.00    1.64660   1.70561   34.222
 5036.00    1.61906   1.68226   35.156
 5037.00    1.61129   1.66463   35.474
 5038.00    1.60117   1.64698   35.764
 5039.00    1.56760   1.61993   36.737
 5040.00    1.52402   1.58760   38.232
 5041.00    1.50722   1.57019   38.944
 5042.00    1.53678   1.58536   37.866
 5043.00    1.60470   1.63022   35.714
 5044.00    1.65726   1.68506   33.918
 5045.00    1.68516   1.72949   32.918
 5046.00    1.73314   1.75173   31.914
 5047.00    1.61016   1.74897   -1.000
 5048.00    0.82877   1.72648   -1.000
 5049.00    0.13614   1.69612   -1.000
 5050.00    0.09370   1.67094   -1.000
 5051.00    0.76962   1.65977   -1.000
 5052.00    1.51572   1.66701   -1.000
 5053.00    1.69898   1.69106   33.685
 5054.00    1.71567   1.72144   32.963
 5055.00    1.73392   1.74552   32.525
 5056.00    1.73862   1.75906   32.333
 5057.00    1.73589   1.76616   32.322
 5058.00    1.73329   1.77208   32.385
 5059.00    1.72758   1.77929   32.405
 5060.00    1.72455   1.78699   32.275
 5061.00    1.72853   1.79087   32.183
 5062.00    1.72312   1.78422   32.434
 5063.00    1.70003   1.76332   33.157
 5064.00    1.66511   1.73375   34.254
 5065.00    1.64462   1.70874   35.029
 5066.00    1.65222   1.69754   34.957
 5067.00    1.67150   1.69828   34.460
 5068.00    1.67919   1.70419   34.163
 5069.00    1.68147   1.71128   34.032
 5070.00    1.69164   1.71713   33.834
 5071.00    1.69634   1.71879   33.883
 5072.00    1.69408   1.71636   34.164
 5073.00    1.69084   1.71426   34.051
 5074.00    1.69231   1.71590   33.703
 5075.00    1.69990   1.71972   33.563
 5076.00    1.70311   1.72030   33.532
 5077.00    1.69450   1.71095   33.700
 5078.00    1.66313   1.68835   34.497
 5079.00    1.61715   1.65941   35.962
 5080.00    1.59710   1.63960   36.977
 5081.00    1.61350   1.63851   36.707
 5082.00    1.63548   1.65178   35.905
 5083.00    1.65232   1.67077   35.296
 5084.00    1.67274   1.69163   34.719
 5085.00    1.70051   1.71232   34.092
 5086.00    1.72015   1.72916   33.698
 5087.00    1.72076   1.74000   33.571
 5088.00    1.71748   1.74697   33.460
 5089.00    1.71850   1.75370   33.248
 5090.00    1.72567   1.76196   33.038
 5091.00    1.73590   1.77180   32.863
 5092.00    1.75095   1.78226   32.576
 5093.00    1.76017   1.79025   32.242
 5094.00    1.76500   1.79015   32.274
 5095.00    1.79733   1.77710   32.790
 5096.00    1.77302   1.75173   33.497
 5097.00    1.70129   1.72126   34.271
 5098.00    1.67086   1.69634   35.043
 5099.00    1.66815   1.68725   35.433
 5100.00    1.67900   1.69780   34.985
 5101.00    1.70411   1.72070   34.018
 5102.00    1.72598   1.74207   33.409
 5103.00    1.72619   1.75215   33.399
 5104.00    1.71240   1.75006   33.740
 5105.00    1.69956   1.73928   34.181
 5106.00    1.68115   1.72332   34.605
 5107.00    1.65417   1.70675   35.035
 5108.00    1.64869   1.69534   35.204
 5109.00    1.65810   1.69322   35.044
 5110.00    1.66668   1.70166   34.801
 5111.00    1.68657   1.71924   34.411
 5112.00    1.70517   1.74121   33.951
 5113.00    1.71801   1.76144   33.538
 5114.00    1.73489   1.77695   33.188
 5115.00    1.75191   1.78895   32.958
 5116.00    1.76221   1.79942   32.689
 5117.00    1.77282   1.80777   32.379
 5118.00    1.78532   1.81065   32.311
 5119.00    1.77336   1.80483   32.595
 5120.00    1.74690   1.78995   33.065
 5121.00    1.73087   1.76798   33.591
 5122.00    1.70416   1.74204   34.317
 5123.00    1.67067   1.71716   35.293
 5124.00    1.65372   1.69975   35.913
 5125.00    1.65774   1.69298   35.829
 5126.00    1.67583   1.69357   35.578
 5127.00    1.68218   1.69562   35.386
 5128.00    1.67681   1.69704   35.318
 5129.00    1.67663   1.70067   35.330
 5130.00    1.69176   1.70995   35.058
 5131.00    1.71142   1.72459   34.512
 5132.00    1.72800   1.74075   34.090
 5133.00    1.73963   1.75493   33.793
 5134.00    1.74510   1.76528   33.483
 5135.00    1.75147   1.76928   33.304
 5136.00    1.74405   1.76329   33.598
 5137.00    1.71598   1.74673   34.338
 5138.00    1.68659   1.72641   35.023
 5139.00    1.67766   1.71251   35.294
 5140.00    1.68328   1.70907   35.128
 5141.00    1.68952   1.71131   35.120
 5142.00    1.68011   1.71380   35.567
 5143.00    1.67403   1.71700   35.721
 5144.00    1.69051   1.72253   35.275
 5145.00    1.70402   1.72671   34.931
 5146.00    1.69714   1.72580   35.068
 5147.00    1.69483   1.72297   35.274
 5148.00    1.70515   1.72322   35.067
 5149.00    1.70588   1.72501   34.752
 5150.00    1.69718   1.72249   34.906
 5151.00    1.68269   1.71414   35.467
 5152.00    1.66890   1.70535   35.894
 5153.00    1.67284   1.70307   35.889
 5154.00    1.69401   1.71164   35.417
 5155.00    1.71873   1.73190   34.603
 5156.00    1.75208   1.75963   33.718
 5157.00    1.78540   1.78640   32.986
 5158.00    1.79891   1.80507   32.580
 5159.00    1.80218   1.81325   32.478
 5160.00    1.79775   1.81189   32.541
 5161.00    1.78627   1.80289   32.696
 5162.00    1.78086   1.78748   32.985
 5163.00    1.76787   1.76264   33.439
 5164.00    1.73652   1.71903   34.373
 5165.00    1.67296   1.64894   36.522
 5166.00    1.56747   1.56176   40.019
 5167.00    1.48674   1.48810   43.440
 5168.00    1.48451   1.45828   44.212
 5169.00    1.53952   1.47182   42.292
 5170.00    1.58400   1.49437   -1.000
 5171.00    1.55116   1.49409   42.051
 5172.00    1.48214   1.47922   44.945
 5173.00    1.48058   1.48810   45.264
 5174.00    1.56887   1.54255   41.520
 5175.00    1.67665   1.62430   37.564
 5176.00    1.74505   1.69752   35.431
 5177.00    1.77375   1.74232   34.650
 5178.00    1.78351   1.76007   34.455
 5179.00    1.78214   1.75570   34.618
 5180.00    1.76056   1.72572   35.444
 5181.00    1.69866   1.66468   37.419
 5182.00    1.59600   1.58236   41.040
 5183.00    1.49619   1.51229   45.051
 5184.00    1.48511   1.49418   45.381
 5185.00    1.58528   1.53976   41.412
 5186.00    1.70606   1.61917   -1.000
 5187.00    1.75999   1.68949   35.260
 5188.00    1.76090   1.73012   34.640
 5189.00    1.76556   1.74371   34.443
 5190.00    1.76440   1.73752   34.585
 5191.00    1.73133   1.71744   35.369
 5192.00    1.69165   1.69504   36.437
 5193.00    1.68314   1.68482   36.732
 5194.00    1.70448   1.69085   36.221
 5195.00    1.72819   1.70567   35.637
 5196.00    1.74944   1.72294   35.117
 5197.00    1.77319   1.74241   34.496
 5198.00    1.79070   1.76410   33.856
 5199.00    1.79304   1.78419   33.448
 5200.00    1.79451   1.79669   33.315
 5201.00    1.79718   1.79640   33.454
 5202.00    1.78580   1.78060   33.918
 5203.00    1.75931   1.75018   34.632
 5204.00    1.71974   1.71129   35.592
 5205.00    1.68576   1.67471   36.710
 5206.00    1.67812   1.65008   37.292
 5207.00    1.67836   1.63960   37.434
 5208.00    1.66868   1.64096   37.652
 5209.00    1.67401   1.65522   37.450
 5210.00    1.70149   1.68610   36.503
 5211.00    1.74962   1.73034   35.137
 5212.00    1.81099   1.77437   33.737
 5213.00    1.84682   1.80217   32.762
 5214.00    1.84346   1.80600   32.671
 5215.00    1.81425   1.79235   33.290
 5216.00    1.78623   1.77841   33.882
 5217.00    1.79797   1.77960   33.900
 5218.00    1.83223   1.79858   33.347
 5219.00    1.85303   1.82575   32.732
 5220.00    1.86643   1.84869   32.377
 5221.00    1.87438   1.85876   32.201
 5222.00    1.86724   1.85122   32.374
 5223.00    1.83721   1.82364   33.121
 5224.00    1.78958   1.77716   34.346
 5225.00    1.73254   1.72156   35.882
 5226.00    1.67863   1.67755   37.199
 5227.00    1.67480   1.66718   37.197
 5228.00    1.74248   1.69659   35.629
 5229.00    1.81203   1.74810   33.904
 5230.00    1.84722   1.79206   32.968
 5231.00    1.85663   1.80798   32.698
 5232.00    1.84195   1.79676   33.052
 5233.00    1.80950   1.77690   33.701
 5234.00    1.79505   1.77019   33.927
 5235.00    1.81540   1.78611   33.441
 5236.00    1.84648   1.81722   32.635
 5237.00    1.87397   1.84849   32.083
 5238.00    1.88738   1.86920   31.917
 5239.00    1.89065   1.87810   31.970
 5240.00    1.89158   1.87986   31.988
 5241.00    1.89425   1.87930   31.852
 5242.00    1.89742   1.87959   31.791
 5243.00    1.90432   1.88175   31.784
 5244.00    1.91554   1.88237   31.723
 5245.00    1.90218   1.87445   32.049
 5246.00    1.85449   1.85495   32.914
 5247.00    1.81329   1.83051   33.814
 5248.00    1.80094   1.81114   34.207
 5249.00    1.79969   1.80050   34.259
 5250.00    1.79864   1.79717   34.409
 5251.00    1.80163   1.80038   34.424
 5252.00    1.81222   1.80829   34.073
 5253.00    1.82948   1.81598   33.665
 5254.00    1.83631   1.82146   33.523
 5255.00    1.83838   1.83045   33.403
 5256.00    1.86360   1.85001   32.853
 5257.00    1.90515   1.87735   32.001
 5258.00    1.92834   1.89890   31.454
 5259.00    1.91699   1.90118   31.508
 5260.00    1.88209   1.87908   32.132
 5261.00    1.83653   1.83636   33.295
 5262.00    1.78793   1.78264   34.821
 5263.00    1.74154   1.72970   36.241
 5264.00    1.71293   1.68878   37.203
 5265.00    1.70393   1.66769   37.590
 5266.00    1.72396   1.66521   37.251
 5267.00    1.75610   1.66767   -1.000
 5268.00    1.74284   1.65907   -1.000
 5269.00    1.68624   1.64169   37.927
 5270.00    1.66874   1.63880   38.288
 5271.00    1.73570   1.66810   36.646
 5272.00    1.81042   1.71889   -1.000
 5273.00    1.83442   1.76294   33.907
 5274.00    1.82853   1.78567   33.796
 5275.00    1.82899   1.79784   33.771
 5276.00    1.84860   1.81775   33.372
 5277.00    1.89394   1.84981   32.432
 5278.00    1.93643   1.88077   31.586
 5279.00    1.93717   1.89358   31.441
 5280.00    1.91867   1.88299   31.967
 5281.00    1.88950   1.85743   32.792
 5282.00    1.85685   1.83132   33.509
 5283.00    1.84772   1.81898   33.868
 5284.00    1.86958   1.83016   33.549
 5285.00    1.91067   1.86334   32.649
 5286.00    1.94893   1.90405   31.622
 5287.00    1.96579   1.93549   31.042
 5288.00    1.96071   1.95192   31.051
 5289.00    1.95572   1.95844   31.135
 5290.00    1.96198   1.96064   31.026
 5291.00    1.96458   1.95956   30.902
 5292.00    1.96164   1.95481   30.976
 5293.00    1.96166   1.94650   31.228
 5294.00    1.95392   1.93241   31.592
 5295.00    1.92675   1.90779   32.255
 5296.00    1.87415   1.87272   33.345
 5297.00    1.81896   1.83842   34.433
 5298.00    1.80749   1.82086   34.716
 5299.00    1.84069   1.82615   34.093
 5300.00    1.88178   1.84544   33.334
 5301.00    1.89736   1.86691   32.946
 5302.00    1.90222   1.88806   32.642
 5303.00    1.93175   1.91197   31.966
 5304.00    1.96830   1.93653   31.239
 5305.00    1.98508   1.95343   30.946
 5306.00    1.97887   1.95786   31.091
 5307.00    1.96214   1.95506   31.389
 5308.00    1.96605   1.95472   31.398
 5309.00    1.98370   1.96096   31.107
 5310.00    1.99312   1.96936   30.847
 5311.00    1.99620   1.97311   30.779
 5312.00    1.99585   1.96953   30.896
 5313.00    1.99221   1.95972   31.053
 5314.00    1.97840   1.94510   31.235
 5315.00    1.95393   1.92779   31.511
 5316.00    1.94152   1.91318   31.809
 5317.00    1.94794   1.90823   31.941
 5318.00    1.95660   1.91488   31.805
 5319.00    1.96543   1.92662   31.616
 5320.00    1.97205   1.93383   31.623
 5321.00    1.96583   1.93031   31.806
 5322.00    1.94674   1.91520   32.116
 5323.00    1.92676   1.89296   32.601
 5324.00    1.91411   1.86999   33.033
 5325.00    1.90886   1.84610   33.154
 5326.00    1.88526   1.81297   33.629
 5327.00    1.81927   1.76986   35.257
 5328.00    1.76022   1.73673   36.968
 5329.00    1.77838   1.74042   36.651
 5330.00    1.86147   1.78457   -1.000
 5331.00    1.92676   1.84291   -1.000
 5332.00    1.94458   1.88768   32.503
 5333.00    1.95892   1.91299   32.201
 5334.00    1.97520   1.92709   31.856
 5335.00    1.97691   1.93575   31.610
 5336.00    1.96830   1.93824   31.668
 5337.00    1.96108   1.93192   31.884
 5338.00    1.96011   1.91564   32.168
 5339.00    1.93835   1.89222   32.777
 5340.00    1.90116   1.87157   33.487
 5341.00    1.89891   1.86699   33.591
 5342.00    1.93637   1.88210   32.933
 5343.00    1.96567   1.90484   32.186
 5344.00    1.96866   1.91968   31.935
 5345.00    1.96232   1.92141   32.068
 5346.00    1.96312   1.91454   32.283
 5347.00    1.96601   1.90534   32.463
 5348.00    1.95887   1.89848   32.694
 5349.00    1.94755   1.89897   32.877
 5350.00    1.95308   1.91087   32.623
 5351.00    1.98156   1.93191   31.957
 5352.00    1.99880   1.95451   31.395
 5353.00    2.00466   1.97352   31.176
 5354.00    2.01690   1.98939   31.006
 5355.00    2.03579   2.00396   30.672
 5356.00    2.05295   2.01592   30.362
 5357.00    2.05005   2.02245   30.280
 5358.00    2.04655   2.02250   30.327
 5359.00    2.04821   2.01615   30.409
 5360.00    2.03266   2.00338   30.657
 5361.00    2.00819   1.98549   31.111
 5362.00    1.98369   1.96611   31.603
 5363.00    1.96434   1.94927   31.933
 5364.00    1.95547   1.93726   32.127
 5365.00    1.95505   1.93042   32.316
 5366.00    1.95462   1.92712   32.350
 5367.00    1.96262   1.92245   32.292
 5368.00    1.96789   1.90880   32.475
 5369.00    1.93989   1.88241   33.079
 5370.00    1.89974   1.85181   34.023
 5371.00    1.88414   1.83641   34.559
 5372.00    1.91375   1.85166   33.867
 5373.00    1.97503   1.89404   -1.000
 5374.00    2.02598   1.94312   -1.000
 5375.00    2.04660   1.97901   30.833
 5376.00    2.04313   1.99552   30.798
 5377.00    2.03805   1.99873   30.857
 5378.00    2.03823   1.99643   30.892
 5379.00    2.02844   1.99127   31.020
 5380.00    2.01447   1.98257   31.274
 5381.00    2.00105   1.97122   31.589
 5382.00    1.99613   1.96151   31.814
 5383.00    1.99654   1.95846   31.867
 5384.00    1.99959   1.96382   31.768
 5385.00    2.01540   1.97445   31.507
 5386.00    2.03432   1.98377   31.312
 5387.00    2.03282   1.98570   31.373
 5388.00    2.01863   1.97800   31.612
 5389.00    2.00279   1.96303   32.022
 5390.00    1.98944   1.94598   32.449
 5391.00    1.98931   1.93170   32.687
 5392.00    1.98066   1.92211   32.753
 5393.00    1.96942   1.91577   32.810
 5394.00    1.95973   1.90807   32.993
 5395.00    1.94185   1.89424   33.348
 5396.00    1.90834   1.87633   33.926
 5397.00    1.89525   1.86595   34.262
 5398.00    1.93469   1.87403   33.678
 5399.00    1.98264   1.89819   -1.000
 5400.00    2.00912   1.92465   -1.000
 5401.00    2.01412   1.93980   32.103
 5402.00    2.00425   1.93577   32.278
 5403.00    1.97262   1.91120   32.936
 5404.00    1.91818   1.87417   34.011
 5405.00    1.88333   1.84252   34.797
 5406.00    1.89456   1.83277   34.801
 5407.00    1.92188   1.84489   -1.000
 5408.00    1.94127   1.86319   -1.000
 5409.00    1.94513   1.87530   33.735
 5410.00    1.94375   1.88474   33.805
 5411.00    1.96893   1.90179   33.214
 5412.00    2.01119   1.92658   -1.000
 5413.00    2.02905   1.94888   -1.000
 5414.00    2.02348   1.96288   31.722
 5415.00    2.01893   1.97300   31.753
 5416.00    2.02303   1.98468   31.627
 5417.00    2.03176   1.99580   31.398
 5418.00    2.02759   2.00039   31.381
 5419.00    2.01425   1.99728   31.625
 5420.00    2.01917   1.99090   31.879
 5421.00    2.03250   1.98496   31.888
 5422.00    2.02707   1.97873   31.746
 5423.00    2.01152   1.97122   31.932
 5424.00    2.00047   1.96726   32.322
 5425.00    2.00780   1.97362   32.256
 5426.00    2.03378   1.98647   31.773
 5427.00    2.04002   1.98995   31.576
 5428.00    2.00810   1.97305   32.125
 5429.00    1.96660   1.94453   33.128
 5430.00    1.95791   1.92438   33.648
 5431.00    1.98206   1.92071   33.295
 5432.00    1.99548   1.92294   32.989
 5433.00    1.97443   1.91864   33.268
 5434.00    1.95377   1.90997   33.715
 5435.00    1.95457   1.91072   33.818
 5436.00    1.97800   1.93038   33.368
 5437.00    2.01460   1.96521   32.538
 5438.00    2.04286   2.00306   31.750
 5439.00    2.07161   2.03321   31.217
 5440.00    2.09123   2.05178   30.886
 5441.00    2.08608   2.05997   30.749
 5442.00    2.08072   2.05860   30.733
 5443.00    2.06953   2.04452   30.911
 5444.00    2.03611   2.01379   31.524
 5445.00    1.99120   1.97023   32.639
 5446.00    1.93755   1.92991   33.866
 5447.00    1.92535   1.91262   34.223
 5448.00    1.97963   1.92596   33.438
 5449.00    2.04092   1.95878   -1.000
 5450.00    2.07186   1.99062   31.835
 5451.00    2.07783   2.00611   31.726
 5452.00    2.06789   2.00070   31.889
 5453.00    2.04761   1.97714   32.429
 5454.00    2.00451   1.94425   33.306
 5455.00    1.96257   1.91872   34.146
 5456.00    1.97564   1.91807   34.196
 5457.00    2.03517   1.94521   -1.000
 5458.00    2.07902   1.98340   -1.000
 5459.00    2.08889   2.00997   31.731
 5460.00    2.08153   2.01390   31.883
 5461.00    2.05588   1.99960   32.407
 5462.00    2.03219   1.97986   32.934
 5463.00    2.03122   1.96779   33.226
 5464.00    2.04601   1.96972   -1.000
 5465.00    2.06356   1.98221   -1.000
 5466.00    2.07118   1.99699   32.391
 5467.00    2.07886   2.00849   32.134
 5468.00    2.09028   2.01504   31.887
 5469.00    2.08826   2.01619   32.002
 5470.00    2.07464   2.01206   32.342
 5471.00    2.06819   2.00410   32.558
 5472.00    2.06376   1.99384   32.691
 5473.00    2.04775   1.98066   32.953
 5474.00    2.02729   1.96216   33.371
 5475.00    2.00389   1.93853   33.982
 5476.00    1.97966   1.91775   34.616
 5477.00    1.97065   1.91307   34.677
 5478.00    2.00775   1.92915   -1.000
 5479.00    2.05743   1.95308   -1.000
 5480.00    2.06250   1.96731   -1.000
 5481.00    2.03986   1.96903   33.304
 5482.00    2.02735   1.97040   33.462
 5483.00    2.03823   1.98240   33.087
 5484.00    2.06317   2.00251   32.430
 5485.00    2.07732   2.01828   31.971
 5486.00    2.06686   2.02071   32.032
 5487.00    2.04943   2.01218   32.454
 5488.00    2.03316   2.00279   32.775
 5489.00    2.03861   2.00065   32.851
 5490.00    2.05660   2.00627   32.719
 5491.00    2.06923   2.01460   32.472
 5492.00    2.08125   2.02043   32.300
 5493.00    2.08074   2.02208   32.291
 5494.00    2.08091   2.02063   32.339
 5495.00    2.08956   2.01675   32.338
 5496.00    2.07799   2.01072   32.464
 5497.00    2.05316   2.00583   32.710
 5498.00    2.06354   2.00633   32.717
 5499.00    2.09503   2.00983   -1.000
 5500.00    2.09831   2.00824   -1.000
 5501.00    2.07730   1.99883   -1.000
 5502.00    2.07002   1.98841   -1.000
 5503.00    2.08194   1.98378   -1.000
 5504.00    2.08193   1.98252   -1.000
 5505.00    2.06277   1.97796   -1.000
 5506.00    2.03905   1.97098   33.403
 5507.00    2.03374   1.97002   33.377
 5508.00    2.05859   1.97924   -1.000
 5509.00    2.08106   1.99139   -1.000
 5510.00    2.08115   1.99475   -1.000
 5511.00    2.06185   1.98524   -1.000
 5512.00    2.03497   1.96969   33.739
 5513.00    2.02676   1.95925   34.150
 5514.00    2.03876   1.96084   -1.000
 5515.00    2.06215   1.97398   -1.000
 5516.00    2.09579   1.99411   -1.000
 5517.00    2.12488   2.01666   -1.000
 5518.00    2.14322   2.03768   -1.000
 5519.00    2.15120   2.05317   -1.000
 5520.00    2.14681   2.06072   -1.000
 5521.00    2.14416   2.06170   -1.000
 5522.00    2.14489   2.05986   -1.000
 5523.00    2.13676   2.05637   -1.000
 5524.00    2.12839   2.04772   -1.000
 5525.00    2.11765   2.02922   -1.000
 5526.00    2.08131   2.00148   -1.000
 5527.00    2.03799   1.97396   33.683
 5528.00    2.03159   1.96072   -1.000
 5529.00    2.05652   1.96969   -1.000
 5530.00    2.09014   1.99466   -1.000
 5531.00    2.12065   2.01947   -1.000
 5532.00    2.12502   2.03134   -1.000
 5533.00    2.09999   2.02921   32.418
 5534.00    2.08058   2.02124   32.655
 5535.00    2.08320   2.01670   32.659
 5536.00    2.08949   2.01971   32.448
 5537.00    2.10105   2.02867   32.276
 5538.00    2.11844   2.04023   -1.000
 5539.00    2.13890   2.05232   -1.000
 5540.00    2.15551   2.06265   -1.000
 5541.00    2.15728   2.06739   -1.000
 5542.00    2.15033   2.06431   -1.000
 5543.00    2.14345   2.05625   -1.000
 5544.00    2.12741   2.04931   -1.000
 5545.00    2.11593   2.04782   32.248
 5546.00    2.12552   2.05247   -1.000
 5547.00    2.14466   2.06240   -1.000
 5548.00    2.16726   2.07572   -1.000
 5549.00    2.17614   2.08826   -1.000
 5550.00    2.17153   2.09529   -1.000
 5551.00    2.17470   2.09485   -1.000
 5552.00    2.17508   2.08827   -1.000
 5553.00    2.16163   2.07902   -1.000
 5554.00    2.14899   2.07148   -1.000
 5555.00    2.14830   2.06857   -1.000
 5556.00    2.15222   2.06973   -1.000
 5557.00    2.16108   2.07223   -1.000
 5558.00    2.17584   2.07417   -1.000
 5559.00    2.17116   2.07514   -1.000
 5560.00    2.15807   2.07423   -1.000
 5561.00    2.15685   2.06966   -1.000
 5562.00    2.14852   2.06169   -1.000
 5563.00    2.13350   2.05344   -1.000
 5564.00    2.12532   2.04762   -1.000
 5565.00    2.12112   2.04414   -1.000
 5566.00    2.12011   2.04146   -1.000
 5567.00    2.12773   2.03897   -1.000
 5568.00    2.12602   2.03730   -1.000
 5569.00    2.11874   2.03702   -1.000
 5570.00    2.12288   2.03726   -1.000
 5571.00    2.12353   2.03623   -1.000
 5572.00    2.11474   2.03444   -1.000
 5573.00    2.11121   2.03562   -1.000
 5574.00    2.12606   2.04250   -1.000
 5575.00    2.15024   2.05325   -1.000
 5576.00    2.18435   2.06372   -1.000
 5577.00    2.23593   2.07196   -1.000
 5578.00    2.28506   2.07866   -1.000
 5579.00    2.29559   2.08392   -1.000
 5580.00    2.25239   2.08624   -1.000
 5581.00    2.19469   2.08473   -1.000
 5582.00    2.16791   2.08024   -1.000
 5583.00    2.17152   2.07314   -1.000
 5584.00    2.16980   2.06031   -1.000
 5585.00    2.14211   2.03721   -1.000
 5586.00    2.09569   2.00493   -1.000
 5587.00    2.05089   1.97335   -1.000
 5588.00    2.03662   1.95511   -1.000
 5589.00    2.05093   1.95659   -1.000
 5590.00    2.07764   1.97380   -1.000
 5591.00    2.10181   1.99575   -1.000
 5592.00    2.10516   2.01250   -1.000
 5593.00    2.10199   2.02240   -1.000
 5594.00    2.11067   2.03147   -1.000
 5595.00    2.13302   2.04408   -1.000
 5596.00    2.15724   2.05529   -1.000
 5597.00    2.15436   2.05594   -1.000
 5598.00    2.12944   2.04432   -1.000
 5599.00    2.11047   2.02714   -1.000
 5600.00    2.10032   2.01106   -1.000
 5601.00    2.09142   2.00023   -1.000
 5602.00    2.08574   1.99999   -1.000
 5603.00    2.10140   2.01589   -1.000
 5604.00    2.14418   2.04701   -1.000
 5605.00    2.19208   2.08331   -1.000
 5606.00    2.22264   2.11252   -1.000
 5607.00    2.22665   2.12909   -1.000
 5608.00    2.22498   2.13542   -1.000
 5609.00    2.22049   2.13725   -1.000
 5610.00    2.20576   2.13854   31.728
 5611.00    2.20367   2.13790   31.654
 5612.00    2.20852   2.12816   -1.000
 5613.00    2.19180   2.10244   -1.000
 5614.00    2.14619   2.06401   -1.000
 5615.00    2.10570   2.02971   -1.000
 5616.00    2.10806   2.01777   -1.000
 5617.00    2.14559   2.03064   -1.000
 5618.00    2.17420   2.05454   -1.000
 5619.00    2.18676   2.07514   -1.000
 5620.00    2.19864   2.08816   -1.000
 5621.00    2.20113   2.09450   -1.000
 5622.00    2.19469   2.09230   -1.000
 5623.00    2.17350   2.07995   -1.000
 5624.00    2.14560   2.06358   -1.000
 5625.00    2.14272   2.05495   -1.000
 5626.00    2.16321   2.06118   -1.000
 5627.00    2.18133   2.07855   -1.000
 5628.00    2.19624   2.09818   -1.000
 5629.00    2.21609   2.11423   -1.000
 5630.00    2.23225   2.12484   -1.000
 5631.00    2.23575   2.12915   -1.000
 5632.00    2.22810   2.12702   -1.000
 5633.00    2.22010   2.11996   -1.000
 5634.00    2.21849   2.11053   -1.000
 5635.00    2.21654   2.10038   -1.000
 5636.00    2.20149   2.09063   -1.000
 5637.00    2.18171   2.08324   -1.000
 5638.00    2.18030   2.07961   -1.000
 5639.00    2.18207   2.07830   -1.000
 5640.00    2.16902   2.07667   -1.000
 5641.00    2.16535   2.07493   -1.000
 5642.00    2.18059   2.07600   -1.000
 5643.00    2.18612   2.08139   -1.000
 5644.00    2.18784   2.08923   -1.000
 5645.00    2.20154   2.09672   -1.000
 5646.00    2.20660   2.10226   -1.000
 5647.00    2.20379   2.10504   -1.000
 5648.00    2.20891   2.10498   -1.000
 5649.00    2.21217   2.10384   -1.000
 5650.00    2.21371   2.10480   -1.000
 5651.00    2.22511   2.10897   -1.000
 5652.00    2.23490   2.11336   -1.000
 5653.00    2.23172   2.11340   -1.000
 5654.00    2.21589   2.10668   -1.000
 5655.00    2.19475   2.09257   -1.000
 5656.00    2.15841   2.07072   -1.000
 5657.00    2.11123   2.04441   33.897
 5658.00    2.08554   2.02382   34.705
 5659.00    2.10308   2.01920   -1.000
 5660.00    2.14705   2.03002   -1.000
 5661.00    2.16296   2.04563   -1.000
 5662.00    2.15360   2.05857   -1.000
 5663.00    2.15950   2.07124   -1.000
 5664.00    2.18530   2.08608   -1.000
 5665.00    2.20191   2.09770   -1.000
 5666.00    2.19878   2.09983   -1.000
 5667.00    2.18328   2.09399   -1.000
 5668.00    2.17078   2.08799   -1.000
 5669.00    2.17779   2.08833   -1.000
 5670.00    2.18651   2.09620   -1.000
 5671.00    2.19879   2.10919   -1.000
 5672.00    2.21467   2.12381   -1.000
 5673.00    2.21977   2.13627   -1.000
 5674.00    2.22477   2.14411   -1.000
 5675.00    2.22934   2.14776   -1.000
 5676.00    2.23413   2.14917   -1.000
 5677.00    2.24338   2.14893   -1.000
 5678.00    2.23937   2.14585   -1.000
 5679.00    2.22506   2.13883   -1.000
 5680.00    2.22353   2.12789   -1.000
 5681.00    2.22049   2.11387   -1.000
 5682.00    2.20479   2.09938   -1.000
 5683.00    2.19409   2.08944   -1.000
 5684.00    2.19481   2.08755   -1.000
 5685.00    2.20115   2.09091   -1.000
 5686.00    2.19977   2.09324   -1.000
 5687.00    2.18013   2.09251   -1.000
 5688.00    2.16638   2.09295   -1.000
 5689.00    2.18575   2.09962   -1.000
 5690.00    2.21365   2.11282   -1.000
 5691.00    2.23112   2.12819   -1.000
 5692.00    2.24654   2.14075   -1.000
 5693.00    2.25293   2.14792   -1.000
 5694.00    2.24841   2.14996   -1.000
 5695.00    2.24542   2.14846   -1.000
 5696.00    2.23464   2.14420   -1.000
 5697.00    2.21766   2.13683   -1.000
 5698.00    2.20728   2.12645   -1.000
 5699.00    2.19194   2.11466   -1.000
 5700.00    2.17298   2.10373   -1.000
 5701.00    2.15788   2.09628   33.428
 5702.00    2.15688   2.09494   33.349
 5703.00    2.17036   2.09928   -1.000
 5704.00    2.17411   2.10359   -1.000
 5705.00    2.16246   2.10092   32.914
 5706.00    2.14437   2.08885   33.286
 5707.00    2.11632   2.07064   33.855
 5708.00    2.09649   2.05230   34.441
 5709.00    2.09768   2.03957   34.788
 5710.00    2.10255   2.03671   -1.000
 5711.00    2.10386   2.04588   34.566
 5712.00    2.13512   2.06635   -1.000
 5713.00    2.17977   2.09352   -1.000
 5714.00    2.20419   2.11968   -1.000
 5715.00    2.22467   2.13890   -1.000
 5716.00    2.23674   2.15086   -1.000
 5717.00    2.24552   2.15864   -1.000
 5718.00    2.25029   2.16514   -1.000
 5719.00    2.24926   2.17215   -1.000
 5720.00    2.25186   2.18014   -1.000
 5721.00    2.26071   2.18818   -1.000
 5722.00    2.27053   2.19477   -1.000
 5723.00    2.28168   2.19829   -1.000
 5724.00    2.28001   2.19667   -1.000
 5725.00    2.26453   2.18871   -1.000
 5726.00    2.24332   2.17697   31.938
 5727.00    2.22045   2.16755   32.234
 5728.00    2.22252   2.16486   32.252
 5729.00    2.24186   2.16732   -1.000
 5730.00    2.24868   2.17009   -1.000
 5731.00    2.24364   2.17159   -1.000
 5732.00    2.24598   2.17502   -1.000
 5733.00    2.26116   2.18293   -1.000
 5734.00    2.27073   2.19257   -1.000
 5735.00    2.27036   2.19837   -1.000
 5736.00    2.26665   2.19816   31.631
 5737.00    2.25811   2.19453   31.699
 5738.00    2.24920   2.19116   31.761
 5739.00    2.24635   2.18966   31.803
 5740.00    2.24747   2.18934   31.865
 5741.00    2.24531   2.18908   31.923
 5742.00    2.24179   2.18941   31.918
 5743.00    2.24432   2.19210   31.856
 5744.00    2.24982   2.19715   31.719
 5745.00    2.25263   2.20091   31.504
 5746.00    2.25073   2.19942   31.524
 5747.00    2.24302   2.19375   31.797
 5748.00    2.24018   2.18991   32.017
 5749.00    2.25258   2.19141   31.956
 5750.00    2.25650   2.19344   31.797
 5751.00    2.24592   2.18765   31.895
 5752.00    2.23292   2.17234   32.244
 5753.00    2.21714   2.15653   32.607
 5754.00    2.21834   2.15267   -1.000
 5755.00    2.23956   2.16535   -1.000
 5756.00    2.26824   2.18760   -1.000
 5757.00    2.29080   2.20697   -1.000
 5758.00    2.29805   2.21412   -1.000
 5759.00    2.28860   2.20706   -1.000
 5760.00    2.26700   2.19044   -1.000
 5761.00    2.24922   2.17270   -1.000
 5762.00    2.24280   2.16309   -1.000
 5763.00    2.24582   2.16791   -1.000
 5764.00    2.26420   2.18591   -1.000
 5765.00    2.28530   2.20783   -1.000
 5766.00    2.29514   2.22386   -1.000
 5767.00    2.29866   2.23090   31.359
 5768.00    2.29298   2.23147   31.317
 5769.00    2.28002   2.22857   31.325
 5770.00    2.27103   2.22388   31.419
 5771.00    2.26896   2.21822   31.563
 5772.00    2.26924   2.21214   31.755
 5773.00    2.25809   2.20625   31.890
 5774.00    2.24106   2.20175   31.940
 5775.00    2.23824   2.19999   31.920
 5776.00    2.24082   2.20054   31.796
 5777.00    2.22441   2.19933   31.700
 5778.00    2.18785   2.19080   31.749
 5779.00    2.13220   2.17276   32.049
 5780.00    2.06995   2.14915   32.679
 5781.00    2.04497   2.12807   33.269
 5782.00    2.08045   2.11612   33.416
 5783.00    2.13866   2.11399   33.289
 5784.00    2.17988   2.11817   33.164
 5785.00    2.20481   2.12681   -1.000
 5786.00    2.22598   2.14085   -1.000
 5787.00    2.24752   2.15872   -1.000
 5788.00    2.25839   2.17458   -1.000
 5789.00    2.25898   2.18361   -1.000
 5790.00    2.25518   2.18660   32.060
 5791.00    2.24972   2.18909   32.109
 5792.00    2.25390   2.19661   31.931
 5793.00    2.26765   2.20963   31.679
 5794.00    2.27769   2.22292   31.480
 5795.00    2.26752   2.22983   31.380
 5796.00    2.23990   2.22814   31.480
 5797.00    2.21847   2.22273   31.689
 5798.00    2.22523   2.22203   31.704
 5799.00    2.25771   2.23025   31.395
 5800.00    2.29223   2.24362   30.964
 5801.00    2.30998   2.25409   30.724
 5802.00    2.30726   2.25558   30.848
 5803.00    2.29599   2.24801   31.117
 5804.00    2.28723   2.23708   31.362
 5805.00    2.28759   2.22975   31.559
 5806.00    2.29200   2.22921   31.579
 5807.00    2.29701   2.23388   31.469
 5808.00    2.29474   2.24038   31.362
 5809.00    2.28897   2.24638   31.319
 5810.00    2.29952   2.25097   31.308
 5811.00    2.31998   2.25326   31.229
 5812.00    2.33005   2.25187   -1.000
 5813.00    2.32446   2.24594   -1.000
 5814.00    2.31599   2.23664   -1.000
 5815.00    2.30800   2.22804   -1.000
 5816.00    2.30456   2.22580   -1.000
 5817.00    2.31674   2.23290   -1.000
 5818.00    2.33327   2.24630   -1.000
 5819.00    2.34425   2.25927   -1.000
 5820.00    2.35251   2.26698   -1.000
 5821.00    2.34766   2.26883   -1.000
 5822.00    2.34075   2.26701   -1.000
 5823.00    2.34481   2.26449   -1.000
 5824.00    2.35225   2.26346   -1.000
 5825.00    2.35661   2.26458   -1.000
 5826.00    2.35569   2.26729   -1.000
 5827.00    2.34921   2.27082   -1.000
 5828.00    2.35386   2.27457   -1.000
 5829.00    2.36013   2.27768   -1.000
 5830.00    2.35822   2.27910   -1.000
 5831.00    2.35470   2.27830   -1.000
 5832.00    2.35184   2.27539   -1.000
 5833.00    2.35372   2.27084   -1.000
 5834.00    2.35102   2.26609   -1.000
 5835.00    2.35007   2.26341   -1.000
 5836.00    2.35443   2.26378   -1.000
 5837.00    2.35765   2.26606   -1.000
 5838.00    2.35961   2.26933   -1.000
 5839.00    2.35715   2.27409   -1.000
 5840.00    2.35847   2.28017   -1.000
 5841.00    2.36571   2.28552   -1.000
 5842.00    2.36665   2.28759   -1.000
 5843.00    2.35753   2.28504   -1.000
 5844.00    2.34645   2.27811   -1.000
 5845.00    2.33743   2.26836   -1.000
 5846.00    2.33355   2.25829   -1.000
 5847.00    2.34023   2.25062   -1.000
 5848.00    2.34234   2.24663   -1.000
 5849.00    2.34053   2.24452   -1.000
 5850.00    2.33689   2.24015   -1.000
 5851.00    2.31513   2.23050   -1.000
 5852.00    2.29724   2.21724   -1.000
 5853.00    2.29277   2.20552   -1.000
 5854.00    2.28670   2.19797   -1.000
 5855.00    2.28580   2.19102   -1.000
 5856.00    2.28166   2.18021   -1.000
 5857.00    2.27109   2.16854   -1.000
 5858.00    2.27486   2.16504   -1.000
 5859.00    2.29582   2.17446   -1.000
 5860.00    2.31938   2.19193   -1.000
 5861.00    2.32809   2.20859   -1.000
 5862.00    2.32912   2.21960   -1.000
 5863.00    2.33562   2.22518   -1.000
 5864.00    2.33786   2.22652   -1.000
 5865.00    2.33051   2.22421   -1.000
 5866.00    2.31835   2.22068   -1.000
 5867.00    2.31946   2.22088   -1.000
 5868.00    2.33575   2.22804   -1.000
 5869.00    2.34882   2.23960   -1.000
 5870.00    2.36246   2.24943   -1.000
 5871.00    2.36763   2.25345   -1.000
 5872.00    2.35871   2.25192   -1.000
 5873.00    2.36030   2.24769   -1.000
 5874.00    2.36888   2.24325   -1.000
 5875.00    2.36936   2.23931   -1.000
 5876.00    2.35627   2.23506   -1.000
 5877.00    2.34577   2.22905   -1.000
 5878.00    2.34646   2.22070   -1.000
 5879.00    2.33588   2.21145   -1.000
 5880.00    2.32487   2.20391   -1.000
 5881.00    2.32386   2.19941   -1.000
 5882.00    2.32845   2.19645   -1.000
 5883.00    2.32463   2.19255   -1.000
 5884.00    2.30103   2.18628   -1.000
 5885.00    2.25023   2.17404   32.189
 5886.00    2.13736   2.14482   32.452
 5887.00    1.94308   2.08566   -1.000
 5888.00    1.71053   1.99944   -1.000
 5889.00    1.55249   1.91562   -1.000
 5890.00    1.57321   1.87328   -1.000
 5891.00    1.74368   1.88673   -1.000
 5892.00    1.90633   1.93057   37.115
 5893.00    1.91506   1.96216   35.996
 5894.00    1.80103   1.95924   -1.000
 5895.00    1.70814   1.93711   -1.000
 5896.00    1.74198   1.93124   -1.000
 5897.00    1.90648   1.96242   36.507
 5898.00    2.10366   2.01982   -1.000
 5899.00    2.22238   2.07868   -1.000
 5900.00    2.26379   2.12470   -1.000
 5901.00    2.29236   2.15703   -1.000
 5902.00    2.31331   2.17863   -1.000
 5903.00    2.32320   2.19178   -1.000
 5904.00    2.33800   2.19881   -1.000
 5905.00    2.34741   2.20277   -1.000
 5906.00    2.34319   2.20658   -1.000
 5907.00    2.34842   2.21175   -1.000
 5908.00    2.35920   2.21768   -1.000
 5909.00    2.35182   2.22259   -1.000
 5910.00    2.34205   2.22462   -1.000
 5911.00    2.34129   2.22183   -1.000
 5912.00    2.33032   2.21273   -1.000
 5913.00    2.31313   2.19867   -1.000
 5914.00    2.30884   2.18501   -1.000
 5915.00    2.30002   2.17796   -1.000
 5916.00    2.29384   2.18018   -1.000
 5917.00    2.29925   2.18968   -1.000
 5918.00    2.30291   2.20210   -1.000
 5919.00    2.31190   2.21302   -1.000
 5920.00    2.31439   2.21965   -1.000
 5921.00    2.31103   2.22197   -1.000
 5922.00    2.30724   2.22249   -1.000
 5923.00    2.30985   2.22435   -1.000
 5924.00    2.32369   2.22888   -1.000
 5925.00    2.33968   2.23464   -1.000
 5926.00    2.34937   2.23842   -1.000
 5927.00    2.35705   2.23719   -1.000
 5928.00    2.35558   2.23065   -1.000
 5929.00    2.35228   2.22290   -1.000
 5930.00    2.35144   2.21985   -1.000
 5931.00    2.35146   2.22318   -1.000
 5932.00    2.35489   2.22818   -1.000
 5933.00    2.34086   2.22931   -1.000
 5934.00    2.32327   2.22697   -1.000
 5935.00    2.31649   2.22661   -1.000
 5936.00    2.32904   2.23178   -1.000
 5937.00    2.34739   2.23979   -1.000
 5938.00    2.34875   2.24442   -1.000
 5939.00    2.34880   2.24185   -1.000
 5940.00    2.33650   2.23355   -1.000
 5941.00    2.31491   2.22489   -1.000
 5942.00    2.31295   2.22142   -1.000
 5943.00    2.32242   2.22519   -1.000
 5944.00    2.32632   2.23334   -1.000
 5945.00    2.33717   2.24009   -1.000
 5946.00    2.34223   2.24075   -1.000
 5947.00    2.33527   2.23509   -1.000
 5948.00    2.32946   2.22773   -1.000
 5949.00    2.32074   2.22415   -1.000
 5950.00    2.32264   2.22524   -1.000
 5951.00    2.33849   2.22741   -1.000
 5952.00    2.33589   2.22815   -1.000
 5953.00    2.32283   2.22833   -1.000
 5954.00    2.33447   2.22861   -1.000
 5955.00    2.34402   2.22759   -1.000
 5956.00    2.32809   2.22511   -1.000
 5957.00    2.32387   2.22463   -1.000
 5958.00    2.33632   2.23007   -1.000
 5959.00    2.35346   2.24141   -1.000
 5960.00    2.37224   2.25461   -1.000
 5961.00    2.38231   2.26509   -1.000
 5962.00    2.39088   2.27028   -1.000
 5963.00    2.39180   2.26996   -1.000
 5964.00    2.38356   2.26567   -1.000
 5965.00    2.37213   2.26049   -1.000
 5966.00    2.35870   2.25804   -1.000
 5967.00    2.35423   2.26016   -1.000
 5968.00    2.35895   2.26566   -1.000
 5969.00    2.37160   2.27210   -1.000
 5970.00    2.38147   2.27770   -1.000
 5971.00    2.38487   2.28119   -1.000
 5972.00    2.38604   2.28118   -1.000
 5973.00    2.37800   2.27652   -1.000
 5974.00    2.36459   2.26696   -1.000
 5975.00    2.35194   2.25418   -1.000
 5976.00    2.33793   2.24237   -1.000
 5977.00    2.33550   2.23652   -1.000
 5978.00    2.34669   2.23905   -1.000
 5979.00    2.35109   2.24774   -1.000
 5980.00    2.36013   2.25639   -1.000
 5981.00    2.37216   2.25831   -1.000
 5982.00    2.36521   2.25101   -1.000
 5983.00    2.34703   2.23870   -1.000
 5984.00    2.33991   2.22973   -1.000
 5985.00    2.34149   2.23020   -1.000
 5986.00    2.35452   2.23938   -1.000
 5987.00    2.36904   2.25149   -1.000
 5988.00    2.37097   2.26120   -1.000
 5989.00    2.36558   2.26652   -1.000
 5990.00    2.36170   2.26865   -1.000
 5991.00    2.36602   2.27111   -1.000
 5992.00    2.37319   2.27722   -1.000
 5993.00    2.38136   2.28617   -1.000
 5994.00    2.39340   2.29264   -1.000
 5995.00    2.38993   2.29189   -1.000
 5996.00    2.38065   2.28458   -1.000
 5997.00    2.37532   2.27611   -1.000
 5998.00    2.37651   2.27165   -1.000
 5999.00    2.37525   2.27189   -1.000
 6000.00    2.37701   2.27341   -1.000
 6001.00    2.38022   2.27274   -1.000
 6002.00    2.36656   2.26972   -1.000
 6003.00    2.36098   2.26673   -1.000
 6004.00    2.37209   2.26462   -1.000
 6005.00    2.36563   2.26064   -1.000
 6006.00    2.34451   2.25235   -1.000
 6007.00    2.32728   2.24312   -1.000
 6008.00    2.31384   2.24058   -1.000
 6009.00    2.31852   2.24826   -1.000
 6010.00    2.33292   2.26063   -1.000
 6011.00    2.33958   2.26852   -1.000
 6012.00    2.34244   2.26865   -1.000
 6013.00    2.35343   2.26516   -1.000
 6014.00    2.36280   2.26301   -1.000
 6015.00    2.36549   2.26283   -1.000
 6016.00    2.36851   2.26246   -1.000
 6017.00    2.36872   2.26063   -1.000
 6018.00    2.36676   2.25739   -1.000
 6019.00    2.36017   2.25325   -1.000
 6020.00    2.34562   2.24982   -1.000
 6021.00    2.34232   2.24956   -1.000
 6022.00    2.35485   2.25363   -1.000
 6023.00    2.36533   2.26118   -1.000
 6024.00    2.36674   2.27091   -1.000
 6025.00    2.37051   2.28159   -1.000
 6026.00    2.38600   2.29187   -1.000
 6027.00    2.39171   2.30096   -1.000
 6028.00    2.39193   2.30882   -1.000
 6029.00    2.40578   2.31517   -1.000
 6030.00    2.40757   2.31973   -1.000
 6031.00    2.39877   2.32331   -1.000
 6032.00    2.40610   2.32704   -1.000
 6033.00    2.41199   2.33107   -1.000
 6034.00    2.40467   2.33462   -1.000
 6035.00    2.40326   2.33673   -1.000
 6036.00    2.40953   2.33655   -1.000
 6037.00    2.41253   2.33378   -1.000
 6038.00    2.40319   2.32908   -1.000
 6039.00    2.39597   2.32380   -1.000
 6040.00    2.39044   2.31920   -1.000
 6041.00    2.38058   2.31609   -1.000
 6042.00    2.39100   2.31573   -1.000
 6043.00    2.40697   2.32008   -1.000
 6044.00    2.40612   2.32933   -1.000
 6045.00    2.40372   2.33997   -1.000
 6046.00    2.41006   2.34794   -1.000
 6047.00    2.41614   2.35200   -1.000
 6048.00    2.41681   2.35317   -1.000
 6049.00    2.41632   2.35266   -1.000
 6050.00    2.41999   2.35117   -1.000
 6051.00    2.43115   2.34843   -1.000
 6052.00    2.43181   2.34356   -1.000
 6053.00    2.41986   2.33646   -1.000
 6054.00    2.41711   2.32839   -1.000
 6055.00    2.41037   2.32140   -1.000
 6056.00    2.40324   2.31759   -1.000
 6057.00    2.40366   2.31843   -1.000
 6058.00    2.40584   2.32338   -1.000
 6059.00    2.41226   2.32958   -1.000
 6060.00    2.41358   2.33285   -1.000
 6061.00    2.41910   2.32945   -1.000
 6062.00    2.40005   2.31809   -1.000
 6063.00    2.15198   2.30180   -1.000
 6064.00    2.04899   2.28796   -1.000
 6065.00    2.29112   2.28488   39.416
 6066.00    2.08612   2.29611   -1.000
 6067.00    1.35871   2.31706   -1.000
 6068.00    1.21550   2.33868   -1.000
 6069.00    2.03211   2.35435   -1.000
 6070.00    2.44907   2.36294   -1.000
 6071.00    2.47191   2.36624   -1.000
 6072.00    2.50211   2.36631   -1.000
 6073.00    2.53961   2.36503   -1.000
 6074.00    2.46084   2.36312   -1.000
 6075.00    2.42755   2.35887   -1.000
 6076.00    2.42751   2.35041   -1.000
 6077.00    2.41276   2.33898   -1.000
 6078.00    2.39952   2.32831   -1.000
 6079.00    2.39188   2.32075   -1.000
 6080.00    2.38762   2.31550   -1.000
 6081.00    2.39173   2.31106   -1.000
 6082.00    2.38342   2.30783   -1.000
 6083.00    2.37939   2.30727   -1.000
 6084.00    2.38181   2.30968   -1.000
 6085.00    2.37800   2.31409   -1.000
 6086.00    2.37719   2.31920   -1.000
 6087.00    2.39440   2.32307   -1.000
 6088.00    2.40586   2.32332   -1.000
 6089.00    2.39126   2.31930   -1.000
 6090.00    2.37369   2.31369   -1.000
 6091.00    2.36870   2.31084   32.983
 6092.00    2.37644   2.31344   -1.000
 6093.00    2.38966   2.32090   -1.000
 6094.00    2.39893   2.33040   -1.000
 6095.00    2.40905   2.33896   -1.000
 6096.00    2.41905   2.34516   -1.000
 6097.00    2.41583   2.34911   -1.000
 6098.00    2.40802   2.34976   -1.000
 6099.00    2.40199   2.34280   -1.000
 6100.00    2.38542   2.32383   -1.000
 6101.00    2.35567   2.29568   -1.000
 6102.00    2.32421   2.27118   33.905
 6103.00    2.32011   2.26438   34.027
 6104.00    2.34834   2.27779   -1.000
 6105.00    2.37754   2.30102   -1.000
 6106.00    2.38880   2.32171   -1.000
 6107.00    2.38440   2.33526   32.667
 6108.00    2.37960   2.34350   32.784
 6109.00    2.37696   2.34863   32.812
 6110.00    2.38278   2.35115   32.763
 6111.00    2.39589   2.35210   32.652
 6112.00    2.39931   2.35370   32.572
 6113.00    2.40470   2.35677   32.493
 6114.00    2.41278   2.35934   32.352
 6115.00    2.41147   2.35938   32.385
 6116.00    2.40326   2.35672   32.570
 6117.00    2.39622   2.35085   32.706
 6118.00    2.38301   2.33875   32.794
 6119.00    2.35948   2.31797   33.121
 6120.00    2.33408   2.29189   33.601
 6121.00    2.31579   2.27057   33.972
 6122.00    2.30486   2.26458   34.141
 6123.00    2.31501   2.27630   33.855
 6124.00    2.34761   2.29705   33.323
 6125.00    2.36679   2.31438   33.116
 6126.00    2.35399   2.32209   33.236
 6127.00    2.35256   2.32284   33.324
 6128.00    2.35540   2.32416   33.247
 6129.00    2.36394   2.33224   33.076
 6130.00    2.38410   2.34665   32.769
 6131.00    2.39672   2.35996   32.578
 6132.00    2.39624   2.36275   32.593
 6133.00    2.37384   2.34828   32.785
 6134.00    2.33005   2.31515   33.328
 6135.00    2.28704   2.27126   34.231
 6136.00    2.24483   2.23461   35.187
 6137.00    2.23612   2.22287   35.670
 6138.00    2.26783   2.23809   35.217
 6139.00    2.30338   2.26465   34.212
 6140.00    2.31931   2.28551   33.536
 6141.00    2.30686   2.29776   33.421
 6142.00    2.30550   2.30974   33.504
 6143.00    2.33707   2.32637   33.359
 6144.00    2.37553   2.34286   32.961
 6145.00    2.39051   2.35158   32.736
 6146.00    2.38684   2.34994   32.812
 6147.00    2.37772   2.34085   33.004
 6148.00    2.36591   2.32984   33.231
 6149.00    2.35716   2.32219   33.451
 6150.00    2.35210   2.32087   33.547
 6151.00    2.35033   2.32491   33.473
 6152.00    2.35729   2.32985   33.287
 6153.00    2.36905   2.33084   33.142
 6154.00    2.37249   2.32646   33.276
 6155.00    2.37016   2.31931   33.527
 6156.00    2.36561   2.31219   33.614
 6157.00    2.35390   2.30386   33.686
 6158.00    2.34327   2.28838   33.944
 6159.00    2.31669   2.25961   34.463
 6160.00    2.27609   2.21850   35.333
 6161.00    2.23560   2.17746   36.414
 6162.00    2.20648   2.15427   37.115
 6163.00    2.21013   2.15841   36.967
 6164.00    2.24415   2.18357   36.120
 6165.00    2.27274   2.21337   35.315
 6166.00    2.28532   2.23335   35.005
 6167.00    2.28148   2.23763   34.999
 6168.00    2.25771   2.23037   35.286
 6169.00    2.23716   2.22292   35.724
 6170.00    2.24337   2.22622   35.762
 6171.00    2.26672   2.24209   35.237
 6172.00    2.29181   2.26275   34.622
 6173.00    2.30442   2.27945   34.413
 6174.00    2.30696   2.28948   34.481
 6175.00    2.31653   2.29511   34.446
 6176.00    2.32244   2.29940   34.363
 6177.00    2.31795   2.30422   34.286
 6178.00    2.31881   2.31001   34.152
 6179.00    2.32647   2.31620   34.000
 6180.00    2.33012   2.32241   33.889
 6181.00    2.33676   2.32846   33.756
 6182.00    2.34602   2.33309   33.630
 6183.00    2.35037   2.33395   33.628
 6184.00    2.34718   2.32945   33.732
 6185.00    2.34275   2.31988   33.928
 6186.00    2.33025   2.30687   34.262
 6187.00    2.31258   2.29194   34.634
 6188.00    2.29782   2.27507   34.975
 6189.00    2.26822   2.25615   35.266
 6190.00    2.24109   2.23922   35.618
 6191.00    2.23898   2.23283   35.986
 6192.00    2.25869   2.24298   35.877
 6193.00    2.30400   2.26639   35.181
 6194.00    2.33754   2.29258   34.424
 6195.00    2.33793   2.31215   34.067
 6196.00    2.33907   2.32090   33.960
 6197.00    2.33536   2.31893   34.054
 6198.00    2.31772   2.31003   34.385
 6199.00    2.29406   2.30163   34.738
 6200.00    2.27476   2.30116   34.851
 6201.00    2.27969   2.31040   34.634
 6202.00    2.29798   2.32449   34.217
 6203.00    2.30652   2.33711   33.950
 6204.00    2.31025   2.34537   33.933
 6205.00    2.32267   2.35003   33.909
 6206.00    2.33384   2.35296   33.873
 6207.00    2.34360   2.35457   33.944
 6208.00    2.34957   2.35345   34.019
 6209.00    2.34755   2.34769   34.079
 6210.00    2.34215   2.33586   34.327
 6211.00    2.31996   2.31764   34.630
 6212.00    2.28151   2.29497   34.928
 6213.00    2.26059   2.27299   35.374
 6214.00    2.26499   2.25806   35.839
 6215.00    2.27436   2.25327   36.049
 6216.00    2.28764   2.25569   35.840
 6217.00    2.30078   2.25924   35.473
 6218.00    2.29693   2.25987   35.554
 6219.00    2.28615   2.25874   35.657
 6220.00    2.28619   2.26010   35.419
 6221.00    2.30123   2.26605   35.391
 6222.00    2.32813   2.27445   36.815
 6223.00    2.28951   2.28182   37.788
 6224.00    2.10297   2.28680   -1.000
 6225.00    2.11049   2.28915   -1.000
 6226.00    2.32725   2.28703   35.141
 6227.00    2.32188   2.27695   35.238
 6228.00    2.30416   2.25747   35.594
 6229.00    2.28643   2.23330   36.154
 6230.00    2.26132   2.21507   36.693
 6231.00    2.25593   2.21277   36.840
 6232.00    2.27135   2.22851   36.448
 6233.00    2.29827   2.25495   35.818
 6234.00    2.32745   2.28059   35.177
 6235.00    2.34185   2.29579   34.817
 6236.00    2.34258   2.29677   34.881
 6237.00    2.32295   2.28633   35.202
 6238.00    2.30458   2.27148   35.565
 6239.00    2.29184   2.25866   35.935
 6240.00    2.27035   2.25033   36.205
 6241.00    2.26028   2.24456   36.255
 6242.00    2.26040   2.23810   36.368
 6243.00    2.25141   2.23030   36.647
 6244.00    2.24317   2.22459   36.753
 6245.00    2.25584   2.22587   36.605
 6246.00    2.27755   2.23669   36.294
 6247.00    2.30285   2.25488   35.875
 6248.00    2.31332   2.27336   35.451
 6249.00    2.30866   2.28308   35.252
 6250.00    2.29670   2.27878   35.418
 6251.00    2.26567   2.26262   35.932
 6252.00    2.23935   2.24299   36.515
 6253.00    2.22225   2.22830   36.845
 6254.00    2.22533   2.22103   37.012
 6255.00    2.22872   2.21763   37.047
 6256.00    2.21221   2.21479   37.195
 6257.00    2.18741   2.21394   37.560
 6258.00    2.18812   2.21965   37.649
 6259.00    2.21924   2.23463   37.252
 6260.00    2.24719   2.25656   36.665
 6261.00    2.26502   2.27965   36.145
 6262.00    2.27821   2.29779   35.624
 6263.00    2.29539   2.30755   35.246
 6264.00    2.29719   2.30991   35.321
 6265.00    2.28493   2.30951   35.611
 6266.00    2.28680   2.31032   35.648
 6267.00    2.29357   2.31215   35.410
 6268.00    2.27745   2.31258   35.333
 6269.00    2.26884   2.31134   35.514
 6270.00    2.28544   2.31094   35.585
 6271.00    2.29179   2.31273   35.484
 6272.00    2.29562   2.31424   35.377
 6273.00    2.30452   2.31112   35.382
 6274.00    2.30035   2.30072   35.568
 6275.00    2.27962   2.28376   35.851
 6276.00    2.24375   2.26341   36.278
 6277.00    2.18868   2.24350   37.045
 6278.00    2.13726   2.22766   37.881
 6279.00    2.10681   2.21945   -1.000
 6280.00    2.08050   2.22147   -1.000
 6281.00    2.06041   2.23423   -1.000
 6282.00    2.04411   2.25485   -1.000
 6283.00    2.03711   2.27823   -1.000
 6284.00    2.05404   2.29993   -1.000
 6285.00    2.09356   2.31791   -1.000
 6286.00    2.15127   2.33169   -1.000
 6287.00    2.21589   2.34041   -1.000
 6288.00    2.26295   2.34250   35.081
 6289.00    2.27514   2.33774   35.146
 6290.00    2.27326   2.32868   35.404
 6291.00    2.27408   2.31960   35.694
 6292.00    2.27542   2.31314   35.863
 6293.00    2.27388   2.30859   35.904
 6294.00    2.27663   2.30294   35.954
 6295.00    2.27535   2.29434   36.123
 6296.00    2.26063   2.28453   36.399
 6297.00    2.25092   2.27735   36.546
 6298.00    2.26079   2.27438   36.536
 6299.00    2.28191   2.27326   36.428
 6300.00    2.31026   2.27168   36.263
 6301.00    2.31189   2.27160   36.324
 6302.00    2.29124   2.27721   36.719
 6303.00    2.27535   2.28998   36.797
 6304.00    2.27304   2.30683   36.305
 6305.00    2.27537   2.32365   35.778
 6306.00    2.27426   2.33814   35.413
 6307.00    2.28797   2.34892   35.109
 6308.00    2.30329   2.35440   34.911
 6309.00    2.29438   2.35396   34.973
 6310.00    2.27456   2.34926   35.180
 6311.00    2.26844   2.34273   35.375
 6312.00    2.26263   2.33541   35.508
 6313.00    2.25259   2.32694   35.602
 6314.00    2.25229   2.31740   35.766
 6315.00    2.24519   2.30809   36.025
 6316.00    2.23707   2.30096   36.064
 6317.00    2.23772   2.29817   36.026
 6318.00    2.23723   2.30173   36.032
 6319.00    2.24294   2.31243   36.003
 6320.00    2.25438   2.32778   35.713
 6321.00    2.27339   2.34348   35.300
 6322.00    2.29343   2.35718   35.062
 6323.00    2.30241   2.36898   34.948
 6324.00    2.30497   2.37841   34.797
 6325.00    2.31323   2.38427   34.640
 6326.00    2.31539   2.38661   34.580
 6327.00    2.30698   2.38707   34.494
 6328.00    2.31103   2.38740   34.405
 6329.00    2.31871   2.38872   34.450
 6330.00    2.31941   2.39136   34.471
 6331.00    2.32598   2.39388   34.426
 6332.00    2.33343   2.39230   34.322
 6333.00    2.32266   2.38244   34.341
 6334.00    2.30036   2.36528   34.441
 6335.00    2.24210   2.34862   34.858
 6336.00    2.17224   2.34143   -1.000
 6337.00    2.21872   2.34698   -1.000
 6338.00    2.30015   2.36124   34.887
 6339.00    2.31561   2.37690   34.515
 6340.00    2.31882   2.38808   34.232
 6341.00    2.31758   2.39156   34.079
 6342.00    2.31489   2.38769   34.000
 6343.00    2.29823   2.38063   34.170
 6344.00    2.28452   2.37610   34.378
 6345.00    2.29003   2.37775   34.340
 6346.00    2.30171   2.38583   34.195
 6347.00    2.30912   2.39809   33.979
 6348.00    2.32180   2.41156   33.788
 6349.00    2.32618   2.42293   33.730
 6350.00    2.32641   2.42909   33.708
 6351.00    2.32745   2.42828   33.676
 6352.00    2.32270   2.42091   33.768
 6353.00    2.31211   2.40943   33.925
 6354.00    2.29030   2.39749   34.189
 6355.00    2.27559   2.38744   34.555
 6356.00    2.28567   2.37874   34.714
 6357.00    2.29155   2.36922   34.752
 6358.00    2.27434   2.35853   34.997
 6359.00    2.25929   2.34874   35.302
 6360.00    2.25789   2.34187   35.298
 6361.00    2.25783   2.33863   35.153
 6362.00    2.26691   2.33980   35.080
 6363.00    2.27908   2.34642   35.012
 6364.00    2.28820   2.35814   34.833
 6365.00    2.29625   2.37282   34.600
 6366.00    2.30124   2.38743   34.396
 6367.00    2.29960   2.39918   34.198
 6368.00    2.29205   2.40635   33.973
 6369.00    2.28433   2.40954   -1.000
 6370.00    2.28495   2.41178   -1.000
 6371.00    2.29468   2.41654   33.749
 6372.00    2.30428   2.42433   33.617
 6373.00    2.30233   2.43250   -1.000
 6374.00    2.29980   2.43771   -1.000
 6375.00    2.29409   2.43817   -1.000
 6376.00    2.28476   2.43421   -1.000
 6377.00    2.27746   2.42726   -1.000
 6378.00    2.26783   2.41929   -1.000
 6379.00    2.25903   2.41264   -1.000
 6380.00    2.25958   2.40913   -1.000
 6381.00    2.25456   2.40897   -1.000
 6382.00    2.25895   2.41123   -1.000
 6383.00    2.26551   2.41464   -1.000
 6384.00    2.26588   2.41858   -1.000
 6385.00    2.26503   2.42314   -1.000
 6386.00    2.25598   2.42797   -1.000
 6387.00    2.23575   2.43173   -1.000
 6388.00    2.23065   2.43248   -1.000
 6389.00    2.22698   2.42833   -1.000
 6390.00    2.20393   2.41776   -1.000
 6391.00    2.17928   2.40170   -1.000
 6392.00    2.15814   2.38594   -1.000
 6393.00    2.13523   2.37937   -1.000
 6394.00    2.12764   2.38668   -1.000
 6395.00    2.14169   2.40279   -1.000
 6396.00    2.15216   2.41533   -1.000
 6397.00    2.13967   2.41426   -1.000
 6398.00    2.11667   2.40078   -1.000
 6399.00    2.08200   2.38617   -1.000
 6400.00    2.06003   2.38384   -1.000
 6401.00    2.07809   2.39844   -1.000
 6402.00    2.10196   2.42259   -1.000
 6403.00    2.11549   2.44338   -1.000
 6404.00    2.11167   2.45175   -1.000
 6405.00    2.08908   2.44710   -1.000
 6406.00    2.07027   2.43469   -1.000
 6407.00    2.04641   2.42230   -1.000
 6408.00    2.02644   2.41524   -1.000
 6409.00    2.01827   2.41372   -1.000
 6410.00    1.99874   2.41454   -1.000
 6411.00    1.98003   2.41547   -1.000
 6412.00    1.96924   2.41723   -1.000
 6413.00    1.95999   2.42092   -1.000
 6414.00    1.95511   2.42569   -1.000
 6415.00    1.95859   2.42984   -1.000
 6416.00    1.95123   2.43123   -1.000
 6417.00    1.92665   2.42743   -1.000
 6418.00    1.90702   2.41736   -1.000
 6419.00    1.88412   2.40492   -1.000
 6420.00    1.85520   2.39818   -1.000
 6421.00    1.83503   2.40354   -1.000
 6422.00    1.82550   2.42027   -1.000
 6423.00    1.82758   2.44150   -1.000
 6424.00    1.83042   2.45964   -1.000
 6425.00    1.81658   2.47132   -1.000
 6426.00    1.80324   2.47542   -1.000
 6427.00    1.78371   2.47015   -1.000
 6428.00    1.75757   2.45482   -1.000
