###################################################################
## OUTPUT of StarlightChains_v04.for    [Cid@UFSC - 01/Apr/2007] ##
###################################################################

## Some input info
NGC6352_a_1.cxt                          [arq_obs]
Base.BC03.S                              [arq_base]
NGC6352_a_1.msk                          [arq_masks]
StCv04.C99.config                        [arq_config]
  150                                    [N_base]
    0                                    [N_YAV_components = # of components with extra extinction!]
    0                                    [i_FitPowerLaw (1/0 = Yes/No)]
-9.99                                    [alpha_PowerLaw]
CCM                                      [red_law_option]
 1.458241                                [q_norm = A(l_norm)/A(V)]

## (Re)Sampling Parameters
 3359.00                                 [l_ini (A)]
 6428.00                                 [l_fin (A)]
    1.00                                 [dl    (A)]     (OBS: dl_cushion =    50.00 A)

## Normalization info
 4020.00                                 [l_norm (A) - for base]
 4010.00                                 [llow_norm (A) - window for f_obs]
 4060.00                                 [lupp_norm (A) - window for f_obs]
4.889122E-15                             [fobs_norm (in input units)]

## S/N
 4730.00                                 [llow_SN (A) - window for S/N]
 4780.00                                 [lupp_SN (A) - window for S/N]
  33.884                                 [S/N in S/N window]
  22.882                                 [S/N in norm. window]
 274.330                                 [S/N_err in S/N window]
 185.259                                 [S/N_err in norm. window]
  1.0000                                 [fscale_chi2]

## etc...
  2147483613                             [idum_orig]
  3058                                   [NOl_eff]
   649                                   [Nl_eff]
  2409    NSIGMA                         [Ntot_cliped & clip_method]
  3010770                                [Nglobal_steps]
   7                                     [N_chains]
  16                                     [NEX0s_base = N_base in EX0s-fits]
 0   0   1      256   2.0   3.885E+02    [Clip-Bug, RC-Crash & Burn-In warning-flags, n_censored_weights, wei_nsig_threshold & wei_limit]
   130    129.198    129.190      0.008  [idt_all, wdt_TotTime, wdt_UsrTime & wdt_SysTime (sec)]

## Synthesis Results - Best model ##

 2.80183E+00                             [chi2/Nl_eff]
     1.14721                             [adev (%)]

   100.22617                             [sum-of-x (%)]
 1.07157E-14                             [Flux_tot (units of input spectrum!)]
 4.68520E-10                             [Mini_tot (???)]
 2.37203E-10                             [Mcor_tot (???)]

  15.71                                  [v0_min  (km/s)]
  57.68                                  [vd_min  (km/s)]
 0.5826                                  [AV_min  (mag)]
 0.0000                                  [YAV_min (mag)]

# j     x_j(%)      Mini_j(%)     Mcor_j(%)     age_j(yr)     Z_j      (L/M)_j    YAV?  Mstars   component_j        a/Fe...       SSP_chi2r SSP_adev(%)   SSP_AV   SSP_x(%)
  1      0.0000     0.0000E+00    0.0000E+00    1.000000E+06  0.00010  8.160E-03    0   1.0000   age020_m22            0.0000     2.3314E+03    27.8529   4.0000    93.5363
  2      5.9003     2.8293E-03    5.5883E-03    3.160000E+06  0.00010  4.759E-02    0   1.0000   age045_m22            0.0000     5.8746E+02    11.2398   2.7480    96.7012
  3      3.5096     4.1454E-03    7.8457E-03    5.010000E+06  0.00010  1.932E-02    0   0.9582   age055_m22            0.0000     1.1062E+03    17.8653   2.9343    87.2902
  4      0.0000     0.0000E+00    0.0000E+00    6.610000E+06  0.00010  9.973E-03    0   0.9297   age061_m22            0.0000     2.2896E+03    26.8589   4.0000    96.0272
  5      0.0000     0.0000E+00    0.0000E+00    8.710000E+06  0.00010  7.690E-03    0   0.9030   age067_m22            0.0000     2.2351E+03    26.5474   4.0000    96.3251
  6      0.0000     0.0000E+00    0.0000E+00    1.000000E+07  0.00010  6.375E-03    0   0.8902   age070_m22            0.0000     2.2593E+03    26.6182   4.0000    96.7408
  7      0.0000     0.0000E+00    0.0000E+00    1.445000E+07  0.00010  4.874E-03    0   0.8589   age078_m22            0.0000     1.5950E+03    22.6281   4.0000    96.1664
  8      0.0000     0.0000E+00    0.0000E+00    2.512000E+07  0.00010  4.103E-03    0   0.8174   age090_m22            0.0000     8.7205E+02    15.4662   4.0000    93.2569
  9      0.0000     0.0000E+00    0.0000E+00    4.000000E+07  0.00010  3.654E-03    0   0.7830   age104_m22            0.0000     8.6487E+02    13.5711   3.8670    93.5203
 10      0.0000     0.0000E+00    0.0000E+00    5.500000E+07  0.00010  3.093E-03    0   0.7597   age110_m22            0.0000     8.5795E+02    13.0817   3.7812    94.6093
 11      0.0000     0.0000E+00    0.0000E+00    1.015200E+08  0.00010  2.431E-03    0   0.7138   age116_m22            0.0000     9.2217E+02    12.9627   3.4582    96.7670
 12      0.0000     0.0000E+00    0.0000E+00    1.609000E+08  0.00010  1.319E-03    0   0.6775   age120_m22            0.0000     8.6511E+02    12.0784   2.9727    99.3539
 13      0.0000     0.0000E+00    0.0000E+00    2.861200E+08  0.00010  1.075E-03    0   0.6412   age125_m22            0.0000     1.1955E+03    13.6757   3.0901   101.3371
 14      0.0000     0.0000E+00    0.0000E+00    5.088000E+08  0.00010  7.183E-04    0   0.6083   age130_m22            0.0000     1.2899E+03    14.1297   2.8676   102.9213
 15      0.0000     0.0000E+00    0.0000E+00    9.047900E+08  0.00010  4.524E-04    0   0.5785   age135_m22            0.0000     1.2765E+03    14.0652   2.6666   104.1571
 16      0.0000     0.0000E+00    0.0000E+00    1.278050E+09  0.00010  3.018E-04    0   0.5588   age138_m22            0.0000     8.3233E+02    11.2687   2.0998   103.5470
 17      0.0000     0.0000E+00    0.0000E+00    1.434000E+09  0.00010  2.691E-04    0   0.5532   age139_m22            0.0000     7.4498E+02    10.7118   1.9349   103.2846
 18      0.0000     0.0000E+00    0.0000E+00    2.500000E+09  0.00010  1.582E-04    0   0.5296   age150_m22            0.0000     7.3017E+02    10.7739   1.8115   104.2227
 19      0.0000     0.0000E+00    0.0000E+00    4.250000E+09  0.00010  1.007E-04    0   0.5110   age158_m22            0.0000     5.7408E+02     9.5941   1.6399   103.1135
 20      0.0000     0.0000E+00    0.0000E+00    6.250000E+09  0.00010  6.869E-05    0   0.4985   age166_m22            0.0000     4.5877E+02     8.6942   1.5566   101.0801
 21      0.0000     0.0000E+00    0.0000E+00    7.500000E+09  0.00010  5.873E-05    0   0.4931   age171_m22            0.0000     4.6344E+02     8.8092   1.5397   100.6799
 22      0.0000     0.0000E+00    0.0000E+00    1.000000E+10  0.00010  4.481E-05    0   0.4854   age181_m22            0.0000     4.5195E+02     8.7111   1.5013   100.3371
 23      0.0000     0.0000E+00    0.0000E+00    1.300000E+10  0.00010  3.489E-05    0   0.4791   age193_m22            0.0000     4.2587E+02     8.4581   1.4434    99.8432
 24      0.0000     0.0000E+00    0.0000E+00    1.500000E+10  0.00010  3.035E-05    0   0.4766   age201_m22            0.0000     4.1337E+02     8.3400   1.4027    99.7072
 25      0.0000     0.0000E+00    0.0000E+00    1.800000E+10  0.00010  2.510E-05    0   0.4735   age213_m22            0.0000     3.8729E+02     8.1048   1.3305    99.2221
 26      0.0000     0.0000E+00    0.0000E+00    1.000000E+06  0.00040  8.458E-03    0   1.0000   age020_m32            0.0000     2.4010E+03    27.9341   4.0000    94.5606
 27      0.0000     0.0000E+00    0.0000E+00    3.160000E+06  0.00040  3.973E-02    0   1.0000   age045_m32            0.0000     8.5075E+02    14.9771   3.9918    90.9052
 28      0.0000     0.0000E+00    0.0000E+00    5.010000E+06  0.00040  1.935E-02    0   0.9532   age055_m32            0.0000     1.1772E+03    19.2061   4.0000    90.5787
 29      0.0000     0.0000E+00    0.0000E+00    6.610000E+06  0.00040  1.204E-02    0   0.9243   age061_m32            0.0000     1.7806E+03    23.8759   4.0000    95.3586
 30      0.0000     0.0000E+00    0.0000E+00    8.710000E+06  0.00040  9.433E-03    0   0.9001   age067_m32            0.0000     1.6728E+03    23.1312   4.0000    95.6973
 31      0.0000     0.0000E+00    0.0000E+00    1.000000E+07  0.00040  8.053E-03    0   0.8877   age070_m32            0.0000     1.5649E+03    22.4081   4.0000    95.4356
 32      0.0000     0.0000E+00    0.0000E+00    1.445000E+07  0.00040  7.027E-03    0   0.8578   age078_m32            0.0000     9.4408E+02    16.0639   3.9320    90.1398
 33      0.0000     0.0000E+00    0.0000E+00    2.512000E+07  0.00040  4.707E-03    0   0.8166   age090_m32            0.0000     8.6247E+02    14.6000   3.6700    93.0602
 34      0.0000     0.0000E+00    0.0000E+00    4.000000E+07  0.00040  3.714E-03    0   0.7827   age104_m32            0.0000     8.4838E+02    13.4743   3.5085    95.1364
 35      0.0000     0.0000E+00    0.0000E+00    5.500000E+07  0.00040  2.982E-03    0   0.7593   age110_m32            0.0000     8.5828E+02    13.1234   3.4642    95.7986
 36      0.0000     0.0000E+00    0.0000E+00    1.015200E+08  0.00040  2.188E-03    0   0.7143   age116_m32            0.0000     9.7612E+02    12.8857   3.2491    98.5646
 37      0.0000     0.0000E+00    0.0000E+00    1.609000E+08  0.00040  1.690E-03    0   0.6856   age120_m32            0.0000     1.1012E+03    13.3680   3.0587   100.7129
 38      0.0000     0.0000E+00    0.0000E+00    2.861200E+08  0.00040  1.152E-03    0   0.6509   age125_m32            0.0000     1.1965E+03    13.6516   2.8448   102.4291
 39      0.0000     0.0000E+00    0.0000E+00    5.088000E+08  0.00040  7.331E-04    0   0.6182   age130_m32            0.0000     1.2145E+03    13.6470   2.6858   103.1179
 40      0.0000     0.0000E+00    0.0000E+00    9.047900E+08  0.00040  3.960E-04    0   0.5890   age135_m32            0.0000     8.2918E+02    11.2272   2.1943   102.7875
 41      0.0000     0.0000E+00    0.0000E+00    1.278050E+09  0.00040  2.854E-04    0   0.5687   age138_m32            0.0000     7.6004E+02    10.8944   1.8869   104.8905
 42      0.0000     0.0000E+00    0.0000E+00    1.434000E+09  0.00040  2.531E-04    0   0.5632   age139_m32            0.0000     7.4754E+02    10.8450   1.8248   104.9037
 43      0.0000     0.0000E+00    0.0000E+00    2.500000E+09  0.00040  1.488E-04    0   0.5386   age150_m32            0.0000     6.0109E+02     9.8541   1.5580   103.4871
 44      0.0000     0.0000E+00    0.0000E+00    4.250000E+09  0.00040  9.082E-05    0   0.5199   age158_m32            0.0000     4.0000E+02     8.0656   1.4242   101.2472
 45      0.0000     0.0000E+00    0.0000E+00    6.250000E+09  0.00040  6.362E-05    0   0.5076   age166_m32            0.0000     3.2804E+02     7.4945   1.3488    98.8474
 46      3.1928     1.3776E+00    1.3678E+00    7.500000E+09  0.00040  5.289E-05    0   0.5027   age171_m32            0.0000     3.0241E+02     7.3363   1.3068    97.7798
 47      3.1555     1.8129E+00    1.7718E+00    1.000000E+10  0.00040  3.972E-05    0   0.4948   age181_m32            0.0000     2.7222E+02     7.1014   1.2415    96.5560
 48      0.0000     0.0000E+00    0.0000E+00    1.300000E+10  0.00040  3.283E-05    0   0.4870   age193_m32            0.0000     2.9524E+02     7.0933   1.2159    98.7540
 49      0.0000     0.0000E+00    0.0000E+00    1.500000E+10  0.00040  2.925E-05    0   0.4854   age201_m32            0.0000     3.2046E+02     7.2758   1.2085   100.0165
 50      0.0000     0.0000E+00    0.0000E+00    1.800000E+10  0.00040  2.469E-05    0   0.4819   age213_m32            0.0000     3.2516E+02     7.3009   1.1715   100.4495
 51      0.0000     0.0000E+00    0.0000E+00    1.000000E+06  0.00400  1.114E-02    0   1.0000   age020_m42            0.0000     2.1037E+03    26.3969   4.0000    93.7880
 52      0.0000     0.0000E+00    0.0000E+00    3.160000E+06  0.00400  4.073E-02    0   0.9999   age045_m42            0.0000     6.8916E+02    13.0168   3.7140    92.9381
 53      0.0000     0.0000E+00    0.0000E+00    5.010000E+06  0.00400  2.534E-02    0   0.9488   age055_m42            0.0000     8.9078E+02    16.4641   4.0000    89.8223
 54      0.0000     0.0000E+00    0.0000E+00    6.610000E+06  0.00400  2.583E-02    0   0.9220   age061_m42            0.0000     7.3123E+02    13.0867   3.5506    93.1718
 55      0.0000     0.0000E+00    0.0000E+00    8.710000E+06  0.00400  1.706E-02    0   0.8983   age067_m42            0.0000     8.0890E+02    14.6724   3.3386    92.4734
 56      0.0000     0.0000E+00    0.0000E+00    1.000000E+07  0.00400  1.271E-02    0   0.8862   age070_m42            0.0000     9.3036E+02    16.2352   3.3016    91.7449
 57      0.0000     0.0000E+00    0.0000E+00    1.445000E+07  0.00400  7.666E-03    0   0.8571   age078_m42            0.0000     9.6193E+02    17.1354   3.6748    89.3313
 58      0.0000     0.0000E+00    0.0000E+00    2.512000E+07  0.00400  5.070E-03    0   0.8174   age090_m42            0.0000     8.5196E+02    15.5699   3.1705    93.4478
 59      0.0000     0.0000E+00    0.0000E+00    4.000000E+07  0.00400  3.505E-03    0   0.7851   age104_m42            0.0000     6.7671E+02    13.5316   2.8744    95.9099
 60      0.0000     0.0000E+00    0.0000E+00    5.500000E+07  0.00400  3.059E-03    0   0.7629   age110_m42            0.0000     6.8703E+02    11.6642   2.9978    98.4649
 61      0.0000     0.0000E+00    0.0000E+00    1.015200E+08  0.00400  2.268E-03    0   0.7207   age116_m42            0.0000     9.5211E+02    12.2765   2.9741   101.5233
 62      0.0000     0.0000E+00    0.0000E+00    1.609000E+08  0.00400  1.720E-03    0   0.6930   age120_m42            0.0000     9.5387E+02    12.1151   2.8352   102.9971
 63      0.0000     0.0000E+00    0.0000E+00    2.861200E+08  0.00400  1.079E-03    0   0.6613   age125_m42            0.0000     9.3097E+02    11.8590   2.4752   103.8916
 64      0.0000     0.0000E+00    0.0000E+00    5.088000E+08  0.00400  6.261E-04    0   0.6313   age130_m42            0.0000     9.9093E+02    12.4281   2.2838   106.6664
 65      0.0000     0.0000E+00    0.0000E+00    9.047900E+08  0.00400  3.535E-04    0   0.6024   age135_m42            0.0000     6.7379E+02    10.1824   1.8618   107.6091
 66      0.0000     0.0000E+00    0.0000E+00    1.278050E+09  0.00400  2.677E-04    0   0.5837   age138_m42            0.0000     2.2262E+02     5.9102   1.1588   106.0042
 67      0.0000     0.0000E+00    0.0000E+00    1.434000E+09  0.00400  1.910E-04    0   0.5716   age139_m42            0.0000     3.1376E+02     6.7469   1.3310   106.5989
 68      0.0000     0.0000E+00    0.0000E+00    2.500000E+09  0.00400  9.818E-05    0   0.5463   age150_m42            0.0000     9.2693E+01     3.5612   1.0290   102.8162
 69      0.0000     0.0000E+00    0.0000E+00    4.250000E+09  0.00400  5.491E-05    0   0.5269   age158_m42            0.0000     4.2361E+01     2.6805   0.8878   100.5976
 70      0.0686     4.0583E-02    4.1290E-02    6.250000E+09  0.00400  3.857E-05    0   0.5151   age166_m42            0.0000     2.1093E+01     2.0638   0.7585    99.3807
 71      0.0000     0.0000E+00    0.0000E+00    7.500000E+09  0.00400  3.243E-05    0   0.5110   age171_m42            0.0000     1.6556E+01     1.8880   0.6809    98.8531
 72     14.9355     1.4060E+01    1.3964E+01    1.000000E+10  0.00400  2.424E-05    0   0.5028   age181_m42            0.0000     1.7549E+01     1.9006   0.6019    98.2762
 73      1.5415     1.8681E+00    1.8180E+00    1.300000E+10  0.00400  1.883E-05    0   0.4927   age193_m42            0.0000     2.4496E+01     2.1966   0.5607    98.0662
 74      0.0000     0.0000E+00    0.0000E+00    1.500000E+10  0.00400  1.685E-05    0   0.4919   age201_m42            0.0000     2.3825E+01     2.1207   0.5643    98.1128
 75      0.0000     0.0000E+00    0.0000E+00    1.800000E+10  0.00400  1.452E-05    0   0.4874   age213_m42            0.0000     2.3843E+01     2.0441   0.5778    98.4258
 76      0.0000     0.0000E+00    0.0000E+00    1.000000E+06  0.00800  1.286E-02    0   1.0000   age020_m52            0.0000     2.0017E+03    25.4594   4.0000    95.2627
 77      0.0000     0.0000E+00    0.0000E+00    3.160000E+06  0.00800  3.147E-02    0   0.9966   age045_m52            0.0000     1.7670E+03    23.9177   4.0000    95.2057
 78      0.0000     0.0000E+00    0.0000E+00    5.010000E+06  0.00800  2.664E-02    0   0.9443   age055_m52            0.0000     1.0335E+03    18.1559   4.0000    91.6888
 79      0.0000     0.0000E+00    0.0000E+00    6.610000E+06  0.00800  2.151E-02    0   0.9177   age061_m52            0.0000     6.8820E+02    14.1961   2.8854    93.8332
 80      0.0000     0.0000E+00    0.0000E+00    8.710000E+06  0.00800  1.628E-02    0   0.8948   age067_m52            0.0000     8.4471E+02    15.2213   3.2742    93.5003
 81      0.0000     0.0000E+00    0.0000E+00    1.000000E+07  0.00800  1.215E-02    0   0.8827   age070_m52            0.0000     9.3574E+02    16.2369   3.6031    91.8759
 82      0.0000     0.0000E+00    0.0000E+00    1.445000E+07  0.00800  8.739E-03    0   0.8552   age078_m52            0.0000     9.1106E+02    15.5871   3.6642    92.5032
 83      0.0000     0.0000E+00    0.0000E+00    2.512000E+07  0.00800  5.676E-03    0   0.8162   age090_m52            0.0000     9.1436E+02    14.3626   3.3030    96.0490
 84      0.0000     0.0000E+00    0.0000E+00    4.000000E+07  0.00800  3.939E-03    0   0.7841   age104_m52            0.0000     8.5663E+02    13.1096   3.1687    97.8276
 85      0.0000     0.0000E+00    0.0000E+00    5.500000E+07  0.00800  3.155E-03    0   0.7627   age110_m52            0.0000     8.5398E+02    12.3974   3.1628    98.9085
 86      0.0000     0.0000E+00    0.0000E+00    1.015200E+08  0.00800  2.206E-03    0   0.7226   age116_m52            0.0000     8.8069E+02    11.8022   3.0111   101.8482
 87      0.0000     0.0000E+00    0.0000E+00    1.609000E+08  0.00800  1.596E-03    0   0.6963   age120_m52            0.0000     9.0673E+02    11.7711   2.8027   103.4078
 88      0.0000     0.0000E+00    0.0000E+00    2.861200E+08  0.00800  1.002E-03    0   0.6665   age125_m52            0.0000     1.0052E+03    12.3333   2.5306   105.7928
 89      0.0000     0.0000E+00    0.0000E+00    5.088000E+08  0.00800  5.759E-04    0   0.6377   age130_m52            0.0000     9.4145E+02    11.6650   2.1833   109.8433
 90      0.0000     0.0000E+00    0.0000E+00    9.047900E+08  0.00800  2.972E-04    0   0.6086   age135_m52            0.0000     5.1980E+02     8.4171   1.6261   109.4784
 91      0.0000     0.0000E+00    0.0000E+00    1.278050E+09  0.00800  2.242E-04    0   0.5907   age138_m52            0.0000     1.5652E+02     4.7351   0.9787   109.2056
 92      0.0000     0.0000E+00    0.0000E+00    1.434000E+09  0.00800  1.645E-04    0   0.5787   age139_m52            0.0000     1.5685E+02     4.7201   1.1222   108.6463
 93      0.0000     0.0000E+00    0.0000E+00    2.500000E+09  0.00800  7.723E-05    0   0.5519   age150_m52            0.0000     4.0076E+01     2.6608   0.7647   105.4082
 94      0.0216     1.1856E-02    1.2459E-02    4.250000E+09  0.00800  4.151E-05    0   0.5320   age158_m52            0.0000     1.9764E+01     2.0157   0.6848   103.0923
 95      5.1378     3.8952E+00    3.9984E+00    6.250000E+09  0.00800  3.010E-05    0   0.5197   age166_m52            0.0000     1.5318E+01     2.0289   0.4895   101.8482
 96     16.2974     1.5075E+01    1.5302E+01    7.500000E+09  0.00800  2.467E-05    0   0.5139   age171_m52            0.0000     1.9083E+01     2.2366   0.4491   101.4500
 97     32.2645     3.9542E+01    3.9473E+01    1.000000E+10  0.00800  1.862E-05    0   0.5054   age181_m52            0.0000     4.1666E+01     3.1701   0.3224   101.0537
 98      7.1972     1.1461E+01    1.1292E+01    1.300000E+10  0.00800  1.433E-05    0   0.4988   age193_m52            0.0000     7.8014E+01     4.1602   0.2295   101.7027
 99      0.0249     4.5642E-02    4.4499E-02    1.500000E+10  0.00800  1.244E-05    0   0.4936   age201_m52            0.0000     9.5814E+01     4.5240   0.2016   102.1826
100      0.0000     0.0000E+00    0.0000E+00    1.800000E+10  0.00800  1.070E-05    0   0.4888   age213_m52            0.0000     1.0955E+02     4.8165   0.1681   102.0291
101      0.0000     0.0000E+00    0.0000E+00    1.000000E+06  0.02000  1.989E-02    0   1.0000   age020_m62            0.0000     1.9727E+03    25.3208   4.0000    94.0067
102      0.0000     0.0000E+00    0.0000E+00    3.160000E+06  0.02000  3.772E-02    0   0.9858   age045_m62            0.0000     1.5928E+03    22.9833   4.0000    93.5304
103      0.0000     0.0000E+00    0.0000E+00    5.010000E+06  0.02000  3.227E-02    0   0.9342   age055_m62            0.0000     8.5705E+02    15.2702   3.9503    90.2931
104      0.0000     0.0000E+00    0.0000E+00    6.610000E+06  0.02000  2.387E-02    0   0.9090   age061_m62            0.0000     1.0275E+03    17.1884   3.6642    90.6973
105      0.0000     0.0000E+00    0.0000E+00    8.710000E+06  0.02000  1.102E-02    0   0.8861   age067_m62            0.0000     1.9007E+03    23.7799   3.1935    88.4852
106      0.0000     0.0000E+00    0.0000E+00    1.000000E+07  0.02000  1.011E-02    0   0.8751   age070_m62            0.0000     1.4352E+03    20.8259   3.2417    90.3246
107      0.0000     0.0000E+00    0.0000E+00    1.445000E+07  0.02000  7.331E-03    0   0.8472   age078_m62            0.0000     1.1187E+03    18.4227   3.2824    91.2020
108      0.0000     0.0000E+00    0.0000E+00    2.512000E+07  0.02000  4.206E-03    0   0.8099   age090_m62            0.0000     1.1264E+03    18.5744   3.1858    90.8479
109      0.0000     0.0000E+00    0.0000E+00    4.000000E+07  0.02000  3.373E-03    0   0.7799   age104_m62            0.0000     8.0636E+02    13.9256   3.0788    97.1865
110      0.0000     0.0000E+00    0.0000E+00    5.500000E+07  0.02000  2.747E-03    0   0.7595   age110_m62            0.0000     8.1914E+02    12.7052   3.0557    99.4836
111      0.0000     0.0000E+00    0.0000E+00    1.015200E+08  0.02000  1.878E-03    0   0.7221   age116_m62            0.0000     9.7460E+02    12.4646   2.9727   102.7658
112      0.0000     0.0000E+00    0.0000E+00    1.609000E+08  0.02000  1.378E-03    0   0.6978   age120_m62            0.0000     1.0885E+03    12.9394   2.8403   104.8043
113      0.0000     0.0000E+00    0.0000E+00    2.861200E+08  0.02000  8.869E-04    0   0.6700   age125_m62            0.0000     1.2664E+03    13.7846   2.4894   108.7339
114      0.0000     0.0000E+00    0.0000E+00    5.088000E+08  0.02000  4.834E-04    0   0.6430   age130_m62            0.0000     1.0016E+03    11.9039   2.0481   111.4433
115      0.0000     0.0000E+00    0.0000E+00    9.047900E+08  0.02000  2.312E-04    0   0.6152   age135_m62            0.0000     4.4297E+02     7.5925   1.4183   111.6027
116      0.0000     0.0000E+00    0.0000E+00    1.278050E+09  0.02000  1.387E-04    0   0.5927   age138_m62            0.0000     1.6612E+02     4.5947   1.0007   108.3150
117      0.0000     0.0000E+00    0.0000E+00    1.434000E+09  0.02000  1.168E-04    0   0.5865   age139_m62            0.0000     1.2606E+02     4.0423   0.9679   106.9219
118      0.0000     0.0000E+00    0.0000E+00    2.500000E+09  0.02000  5.505E-05    0   0.5610   age150_m62            0.0000     3.5765E+01     2.5354   0.5813   104.4774
119      0.0000     0.0000E+00    0.0000E+00    4.250000E+09  0.02000  3.070E-05    0   0.5407   age158_m62            0.0000     6.9850E+01     3.7396   0.2904   104.5290
120      0.0000     0.0000E+00    0.0000E+00    6.250000E+09  0.02000  2.104E-05    0   0.5277   age166_m62            0.0000     1.1553E+02     4.7918   0.1597   105.0521
121      0.0000     0.0000E+00    0.0000E+00    7.500000E+09  0.02000  1.770E-05    0   0.5223   age171_m62            0.0000     1.4678E+02     5.3689   0.0739   105.4240
122      0.0000     0.0000E+00    0.0000E+00    1.000000E+10  0.02000  1.297E-05    0   0.5121   age181_m62            0.0000     2.2308E+02     6.5508  -0.0814   105.9567
123      0.0000     0.0000E+00    0.0000E+00    1.300000E+10  0.02000  9.691E-06    0   0.5047   age193_m62            0.0000     2.8286E+02     7.3236  -0.1623   106.3506
124      0.1146     3.1277E-01    3.0882E-01    1.500000E+10  0.02000  8.360E-06    0   0.4999   age201_m62            0.0000     3.3980E+02     8.0081  -0.2303   106.5881
125      2.3462     7.7469E+00    7.5682E+00    1.800000E+10  0.02000  6.911E-06    0   0.4946   age213_m62            0.0000     4.1785E+02     8.8805  -0.2996   106.7940
126      0.0000     0.0000E+00    0.0000E+00    1.000000E+06  0.05000  2.651E-02    0   0.9998   age020_m72            0.0000     1.9410E+03    24.9935   4.0000    94.9990
127      0.0000     0.0000E+00    0.0000E+00    3.160000E+06  0.05000  4.817E-02    0   0.9577   age045_m72            0.0000     1.2278E+03    19.9263   4.0000    93.7078
128      0.0000     0.0000E+00    0.0000E+00    5.010000E+06  0.05000  3.101E-02    0   0.9147   age055_m72            0.0000     9.7112E+02    16.9086   3.9224    89.8269
129      0.0000     0.0000E+00    0.0000E+00    6.610000E+06  0.05000  1.472E-02    0   0.8877   age061_m72            0.0000     1.5349E+03    21.2826   3.4094    89.6084
130      0.0000     0.0000E+00    0.0000E+00    8.710000E+06  0.05000  1.050E-02    0   0.8638   age067_m72            0.0000     1.1291E+03    18.4582   3.8360    89.4684
131      0.0000     0.0000E+00    0.0000E+00    1.000000E+07  0.05000  8.954E-03    0   0.8524   age070_m72            0.0000     9.7051E+02    17.5768   4.0000    92.3798
132      0.0000     0.0000E+00    0.0000E+00    1.445000E+07  0.05000  6.392E-03    0   0.8262   age078_m72            0.0000     8.7264E+02    16.4282   4.0000    92.1835
133      0.0000     0.0000E+00    0.0000E+00    2.512000E+07  0.05000  4.207E-03    0   0.7902   age090_m72            0.0000     7.5455E+02    14.1001   3.7487    93.3947
134      0.0000     0.0000E+00    0.0000E+00    4.000000E+07  0.05000  3.198E-03    0   0.7618   age104_m72            0.0000     8.2368E+02    11.9724   3.3126    99.2588
135      0.0000     0.0000E+00    0.0000E+00    5.500000E+07  0.05000  2.593E-03    0   0.7432   age110_m72            0.0000     9.0956E+02    12.2567   3.2358   100.6830
136      0.0000     0.0000E+00    0.0000E+00    1.015200E+08  0.05000  1.716E-03    0   0.7092   age116_m72            0.0000     1.0574E+03    12.8745   3.0587   102.8123
137      0.0000     0.0000E+00    0.0000E+00    1.609000E+08  0.05000  1.218E-03    0   0.6876   age120_m72            0.0000     1.1573E+03    13.2301   2.8160   105.0832
138      0.0000     0.0000E+00    0.0000E+00    2.861200E+08  0.05000  7.047E-04    0   0.6618   age125_m72            0.0000     1.1348E+03    12.6782   2.2824   109.1023
139      0.0000     0.0000E+00    0.0000E+00    5.088000E+08  0.05000  3.590E-04    0   0.6356   age130_m72            0.0000     7.5830E+02     9.8291   1.7014   112.1628
140      0.0000     0.0000E+00    0.0000E+00    9.047900E+08  0.05000  1.484E-04    0   0.6088   age135_m72            0.0000     1.8014E+02     4.9629   0.9240   107.2291
141      0.0000     0.0000E+00    0.0000E+00    1.278050E+09  0.05000  9.435E-05    0   0.5924   age138_m72            0.0000     9.6176E+01     4.0462   0.5075   104.7874
142      0.0000     0.0000E+00    0.0000E+00    1.434000E+09  0.05000  7.827E-05    0   0.5847   age139_m72            0.0000     7.6536E+01     3.6800   0.5118   104.3763
143      4.5182     2.7429E+00    3.0247E+00    2.500000E+09  0.05000  3.759E-05    0   0.5583   age150_m72            0.0000     1.1112E+02     4.7866   0.1747   104.0827
144      0.0000     0.0000E+00    0.0000E+00    4.250000E+09  0.05000  1.842E-05    0   0.5374   age158_m72            0.0000     2.2096E+02     6.2945  -0.1524   104.0246
145      0.0000     0.0000E+00    0.0000E+00    6.250000E+09  0.05000  1.207E-05    0   0.5242   age166_m72            0.0000     3.6130E+02     7.8613  -0.3863   103.7681
146      0.0000     0.0000E+00    0.0000E+00    7.500000E+09  0.05000  9.993E-06    0   0.5183   age171_m72            0.0000     3.8710E+02     8.0627  -0.4296   103.7304
147      0.0000     0.0000E+00    0.0000E+00    1.000000E+10  0.05000  7.291E-06    0   0.5081   age181_m72            0.0000     5.0846E+02     9.2137  -0.5456   103.5782
148      0.0000     0.0000E+00    0.0000E+00    1.300000E+10  0.05000  5.316E-06    0   0.5018   age193_m72            0.0000     7.1543E+02    10.9452  -0.7225   103.4039
149      0.0000     0.0000E+00    0.0000E+00    1.500000E+10  0.05000  4.497E-06    0   0.4972   age201_m72            0.0000     8.2617E+02    11.8241  -0.7907   103.5865
150      0.0000     0.0000E+00    0.0000E+00    1.800000E+10  0.05000  3.739E-06    0   0.4924   age213_m72            0.0000     9.7445E+02    12.9507  -0.8902   103.6320


## Synthesis Results - Average & Chains ##

# j      x_j: min, <> & last-chain-values for 1 ...  7 chains
  1      0.0000      0.0071      0.0327      0.0000      0.0000      0.0000      0.0000      0.0112      0.0000
  2      5.9003      4.9388      5.1801      5.0172      5.5050      5.3098      5.1360      4.9833      4.9958
  3      3.5096      3.3459      3.1425      3.4032      3.4486      3.4227      3.1709      3.5366      3.4351
  4      0.0000      0.0116      0.0910      0.0000      0.0000      0.0000      0.0000      0.0000      0.0000
  5      0.0000      0.0124      0.0586      0.0000      0.0000      0.0000      0.0000      0.0000      0.0000
  6      0.0000      0.0131      0.0326      0.0598      0.0000      0.0158      0.0180      0.0000      0.0000
  7      0.0000      0.0123      0.0000      0.0000      0.0000      0.0147      0.0750      0.0000      0.0000
  8      0.0000      0.0091      0.0000      0.0000      0.0000      0.0000      0.0555      0.0000      0.0000
  9      0.0000      0.0113      0.0000      0.0000      0.0000      0.0065      0.0000      0.0000      0.0000
 10      0.0000      0.0106      0.0909      0.0109      0.0000      0.0000      0.0000      0.0000      0.0000
 11      0.0000      0.0071      0.0000      0.0000      0.0000      0.0430      0.0000      0.0000      0.0079
 12      0.0000      0.0065      0.0000      0.0000      0.0256      0.0000      0.0000      0.0000      0.0000
 13      0.0000      0.0101      0.0000      0.0000      0.0000      0.0000      0.0000      0.0000      0.0000
 14      0.0000      0.0072      0.0000      0.0000      0.0000      0.0000      0.0000      0.0000      0.0000
 15      0.0000      0.0096      0.0000      0.0000      0.0000      0.0000      0.0000      0.0762      0.0000
 16      0.0000      0.0120      0.0000      0.0000      0.0000      0.0000      0.0000      0.0000      0.0000
 17      0.0000      0.0246      0.0000      0.0000      0.0000      0.0000      0.0000      0.0252      0.0000
 18      0.0000      0.0155      0.0000      0.0000      0.0395      0.0000      0.0000      0.0000      0.0000
 19      0.0000      0.0209      0.0000      0.0000      0.0000      0.0000      0.0000      0.0000      0.0000
 20      0.0000      0.0264      0.0000      0.0000      0.0176      0.0732      0.0000      0.0000      0.0000
 21      0.0000      0.0472      0.0000      0.0000      0.0000      0.0000      0.0000      0.0000      0.0000
 22      0.0000      0.0447      0.0000      0.3009      0.0000      0.0000      0.0000      0.0009      0.0000
 23      0.0000      0.0316      0.2266      0.0052      0.0474      0.0000      0.0000      0.0000      0.0000
 24      0.0000      0.0597      0.0321      0.0000      0.0000      0.0000      0.0000      0.1762      0.0000
 25      0.0000      0.0572      0.0476      0.0000      0.1039      0.0000      0.3561      0.0000      0.3204
 26      0.0000      0.0067      0.0000      0.0447      0.0000      0.0000      0.0000      0.0644      0.0000
 27      0.0000      0.0198      0.1735      0.0000      0.0000      0.0366      0.1616      0.0000      0.0485
 28      0.0000      0.0114      0.0081      0.0000      0.0000      0.0000      0.0000      0.0318      0.1002
 29      0.0000      0.0078      0.0000      0.0000      0.0390      0.0000      0.0000      0.0000      0.0043
 30      0.0000      0.0144      0.0000      0.0000      0.0000      0.0000      0.0000      0.0000      0.0000
 31      0.0000      0.0126      0.0000      0.0000      0.0000      0.0000      0.0000      0.0000      0.0000
 32      0.0000      0.0142      0.0000      0.0000      0.0000      0.0000      0.0000      0.0000      0.0000
 33      0.0000      0.0105      0.0000      0.0000      0.0000      0.0035      0.0000      0.0000      0.0000
 34      0.0000      0.0104      0.0000      0.0000      0.0000      0.0000      0.0099      0.0000      0.0000
 35      0.0000      0.0092      0.0000      0.0000      0.0430      0.0000      0.0000      0.0000      0.0000
 36      0.0000      0.0069      0.0000      0.0000      0.0000      0.0000      0.0000      0.0000      0.0000
 37      0.0000      0.0137      0.0000      0.0000      0.0105      0.0000      0.0000      0.0103      0.0357
 38      0.0000      0.0079      0.0000      0.0000      0.0000      0.0000      0.0000      0.1622      0.0000
 39      0.0000      0.0110      0.0000      0.0000      0.0000      0.0000      0.0000      0.0000      0.0059
 40      0.0000      0.0115      0.0703      0.0000      0.0174      0.0000      0.0000      0.0000      0.0000
 41      0.0000      0.0134      0.0662      0.0081      0.0117      0.0000      0.0000      0.0000      0.0000
 42      0.0000      0.0148      0.0000      0.0000      0.0000      0.0000      0.0137      0.0000      0.0000
 43      0.0000      0.0241      0.0154      0.0000      0.0000      0.0000      0.0000      0.1758      0.0000
 44      0.0000      0.0408      0.0385      0.0993      0.1042      0.1484      0.1439      0.0000      0.0158
 45      0.0000      0.0660      0.2339      0.0000      0.0000      0.0360      0.0439      0.1691      0.0000
 46      3.1928      2.9338      3.2417      2.9162      3.0005      2.9564      3.0616      2.9070      3.2531
 47      3.1555      3.9015      3.8649      4.0428      4.2445      3.8562      3.4602      4.0005      3.7743
 48      0.0000      0.0726      0.0000      0.0000      0.0000      0.0000      0.2762      0.0000      0.0000
 49      0.0000      0.0662      0.0000      0.0000      0.0000      0.0000      0.0000      0.0000      0.0000
 50      0.0000      0.0646      0.0000      0.0000      0.0000      0.0000      0.2748      0.0000      0.0000
 51      0.0000      0.0101      0.0000      0.0000      0.0000      0.0000      0.0323      0.0000      0.0000
 52      0.0000      0.0150      0.0055      0.0191      0.0000      0.0000      0.0000      0.0985      0.0000
 53      0.0000      0.0073      0.0000      0.0000      0.0000      0.0000      0.0000      0.0361      0.0000
 54      0.0000      0.0096      0.0000      0.0600      0.0000      0.0000      0.0000      0.0000      0.0604
 55      0.0000      0.0170      0.0000      0.0000      0.0000      0.0000      0.0000      0.0000      0.0905
 56      0.0000      0.0120      0.0000      0.0000      0.0269      0.0000      0.0000      0.0000      0.0000
 57      0.0000      0.0199      0.0000      0.0000      0.0000      0.1249      0.0000      0.0000      0.0000
 58      0.0000      0.0135      0.0000      0.0000      0.0000      0.0000      0.0000      0.0000      0.0000
 59      0.0000      0.0134      0.0000      0.0000      0.0177      0.0000      0.0000      0.0000      0.0000
 60      0.0000      0.0109      0.0000      0.0000      0.0000      0.0000      0.0000      0.0000      0.0000
 61      0.0000      0.0071      0.0000      0.1347      0.0000      0.0000      0.0000      0.0000      0.0000
 62      0.0000      0.0080      0.0000      0.0000      0.0000      0.0000      0.0009      0.0000      0.0000
 63      0.0000      0.0110      0.0000      0.0000      0.0087      0.0000      0.0000      0.0000      0.0698
 64      0.0000      0.0118      0.0096      0.0000      0.0000      0.0000      0.0000      0.0000      0.0000
 65      0.0000      0.0174      0.0000      0.0000      0.0000      0.0000      0.0000      0.0000      0.0000
 66      0.0000      0.0318      0.0000      0.1765      0.0000      0.0000      0.0367      0.0000      0.0000
 67      0.0000      0.0318      0.0310      0.0836      0.0000      0.0000      0.1667      0.0075      0.0000
 68      0.0000      0.0799      0.1001      0.0000      0.0000      0.0000      0.2006      0.0000      0.0000
 69      0.0000      0.1387      0.1438      0.1756      0.0452      0.0000      0.1352      0.0077      0.0000
 70      0.0686      0.2634      0.3913      0.0982      0.9666      1.5322      0.2380      0.2667      1.2732
 71      0.0000      0.3325      0.0000      0.0000      0.0000      0.7826      0.2741      0.7071      0.0123
 72     14.9355     13.7278     13.3824     13.6890     13.8183     14.4208     13.6215     12.8841     14.0432
 73      1.5415      0.4438      0.1936      0.0000      0.6931      0.2591      0.4768      0.6602      0.0000
 74      0.0000      0.5386      0.9366      0.6437      0.1114      0.1790      0.0629      0.4283      0.7845
 75      0.0000      0.4375      0.0094      0.5459      0.0022      0.0000      0.2962      0.3016      0.0976
 76      0.0000      0.0086      0.0344      0.0000      0.0000      0.0000      0.0299      0.0887      0.0000
 77      0.0000      0.0063      0.0000      0.0000      0.0000      0.0619      0.0000      0.0000      0.0000
 78      0.0000      0.0095      0.0000      0.0000      0.0000      0.0000      0.0000      0.0000      0.0000
 79      0.0000      0.0173      0.0000      0.0000      0.0000      0.0000      0.0000      0.0000      0.0212
 80      0.0000      0.0068      0.0000      0.0028      0.0000      0.0000      0.0000      0.0000      0.0000
 81      0.0000      0.0050      0.0000      0.0000      0.0000      0.0000      0.0000      0.0000      0.0000
 82      0.0000      0.0075      0.0170      0.0000      0.0000      0.0000      0.0000      0.0000      0.0000
 83      0.0000      0.0108      0.0098      0.1061      0.0000      0.0085      0.0000      0.0000      0.0000
 84      0.0000      0.0081      0.0000      0.0022      0.0000      0.0027      0.0687      0.0000      0.0024
 85      0.0000      0.0063      0.0000      0.0443      0.0000      0.0126      0.0000      0.0000      0.0050
 86      0.0000      0.0082      0.0000      0.0061      0.0000      0.0240      0.1020      0.0000      0.0000
 87      0.0000      0.0105      0.0000      0.0904      0.0000      0.0000      0.0000      0.0000      0.0000
 88      0.0000      0.0105      0.0000      0.0000      0.0000      0.0000      0.0000      0.0000      0.0643
 89      0.0000      0.0148      0.0000      0.0000      0.0000      0.0000      0.0000      0.0000      0.0000
 90      0.0000      0.0174      0.0923      0.0000      0.0000      0.0010      0.0000      0.0415      0.0000
 91      0.0000      0.0311      0.0000      0.0000      0.0000      0.0000      0.0000      0.0000      0.0000
 92      0.0000      0.0363      0.0310      0.1439      0.0664      0.0000      0.0000      0.0000      0.1937
 93      0.0000      0.1047      0.0000      0.0000      0.0001      0.0000      0.0000      0.1746      0.0000
 94      0.0216      0.4732      0.8066      1.0176      0.7865      1.0233      1.6224      0.5311      0.2180
 95      5.1378      1.8099      2.3922      3.1517      2.5441      1.1498      2.0774      2.2950      2.3334
 96     16.2974     15.4846     16.2772     15.7853     15.5344     15.6162     15.5975     15.9242     15.4480
 97     32.2645     30.1889     29.7490     31.1544     31.1226     31.3095     30.1453     30.3640     30.7739
 98      7.1972      8.8565      8.8366      8.8138      9.1843      8.7887      8.6566      9.0574      8.5561
 99      0.0249      2.8812      2.8383      2.3107      2.1428      1.3763      4.3815      3.0111      2.5443
100      0.0000      0.2090      0.4328      0.0000      0.2497      0.0000      0.0000      0.3370      0.4199
101      0.0000      0.0077      0.0000      0.0047      0.0000      0.0000      0.0000      0.0000      0.0231
102      0.0000      0.0108      0.0009      0.0000      0.0707      0.0000      0.0067      0.0000      0.0552
103      0.0000      0.0085      0.0000      0.0000      0.0080      0.0000      0.0000      0.0000      0.0000
104      0.0000      0.0165      0.0000      0.0000      0.0000      0.0000      0.0000      0.0000      0.0000
105      0.0000      0.0077      0.0000      0.0477      0.0009      0.0000      0.0115      0.0000      0.0000
106      0.0000      0.0154      0.0000      0.0000      0.0000      0.0000      0.0000      0.0000      0.0000
107      0.0000      0.0151      0.0000      0.0000      0.0000      0.0000      0.0583      0.0000      0.0000
108      0.0000      0.0130      0.0026      0.0000      0.0000      0.0000      0.0000      0.0000      0.0000
109      0.0000      0.0142      0.0000      0.0000      0.0089      0.0000      0.0000      0.0000      0.1331
110      0.0000      0.0069      0.0000      0.0000      0.0000      0.0000      0.0000      0.0000      0.0000
111      0.0000      0.0085      0.0325      0.0000      0.0000      0.0000      0.0000      0.0044      0.0000
112      0.0000      0.0054      0.0000      0.0000      0.0000      0.0000      0.0000      0.0000      0.0000
113      0.0000      0.0065      0.0000      0.0000      0.0000      0.0000      0.0000      0.0000      0.0000
114      0.0000      0.0199      0.0000      0.0000      0.0466      0.0000      0.0000      0.0000      0.0787
115      0.0000      0.0244      0.0000      0.0000      0.0000      0.0000      0.0000      0.1826      0.0000
116      0.0000      0.0491      0.0000      0.0000      0.0033      0.0000      0.0000      0.0000      0.2723
117      0.0000      0.0647      0.0000      0.0712      0.0235      0.0000      0.0000      0.0429      0.0000
118      0.0000      0.1734      0.0000      0.0000      0.0000      0.0447      0.1438      0.5040      0.0000
119      0.0000      0.2873      0.0000      0.0588      0.0000      0.2842      0.2261      0.0000      0.2733
120      0.0000      0.2010      0.3432      0.0000      0.2369      0.1565      0.0000      0.0000      0.1760
121      0.0000      0.1362      0.0000      0.2584      0.0000      0.1626      0.1184      0.0000      0.0577
122      0.0000      0.0764      0.0658      0.0000      0.0000      0.0000      0.0247      0.0000      0.0000
123      0.0000      0.0732      0.0192      0.0000      0.0000      0.1783      0.3183      0.0000      0.0284
124      0.1146      0.7024      0.7648      0.4680      0.7927      0.7897      0.8546      0.8232      0.5299
125      2.3462      2.7022      2.3544      2.9640      2.9182      2.8008      1.9268      2.4791      2.7674
126      0.0000      0.0059      0.0000      0.0000      0.0000      0.0000      0.0000      0.0000      0.0000
127      0.0000      0.0144      0.0000      0.0000      0.0000      0.0015      0.0122      0.0000      0.0000
128      0.0000      0.0091      0.0472      0.0000      0.0000      0.0633      0.0000      0.0196      0.0000
129      0.0000      0.0113      0.0000      0.0000      0.0000      0.0000      0.0000      0.0000      0.0000
130      0.0000      0.0091      0.0000      0.0000      0.0000      0.0000      0.0032      0.0000      0.0000
131      0.0000      0.0144      0.0000      0.0000      0.0000      0.0000      0.0000      0.0000      0.0000
132      0.0000      0.0065      0.0000      0.0000      0.0000      0.0000      0.0000      0.0000      0.0000
133      0.0000      0.0093      0.0000      0.0363      0.0000      0.0000      0.0000      0.0000      0.0000
134      0.0000      0.0066      0.0000      0.0000      0.0000      0.0000      0.0511      0.0000      0.0000
135      0.0000      0.0076      0.0000      0.0000      0.0172      0.0000      0.0000      0.0000      0.0000
136      0.0000      0.0114      0.0000      0.0000      0.0000      0.0000      0.0000      0.0000      0.0000
137      0.0000      0.0063      0.0000      0.0000      0.0000      0.0000      0.0000      0.0000      0.0000
138      0.0000      0.0080      0.0000      0.0000      0.0000      0.0000      0.0000      0.0000      0.0000
139      0.0000      0.0141      0.0088      0.0000      0.0000      0.0000      0.0000      0.0000      0.0000
140      0.0000      0.0610      0.0000      0.0000      0.0000      0.0919      0.0527      0.0000      0.0000
141      0.0000      0.5971      0.8415      0.2013      0.2561      0.1574      0.0180      0.4273      0.2831
142      0.0000      0.1997      0.1407      0.0000      0.0000      0.5023      0.0851      0.3040      0.2300
143      4.5182      1.7995      1.8325      1.7894      1.6610      2.1746      1.3277      1.7974      2.0763
144      0.0000      0.1305      0.5394      0.0000      0.1163      0.0950      0.2440      0.1106      0.0000
145      0.0000      0.1052      0.0239      0.2462      0.0374      0.0612      0.1080      0.0000      0.1487
146      0.0000      0.0756      0.0000      0.0000      0.0170      0.0000      0.1308      0.0000      0.0223
147      0.0000      0.0222      0.0000      0.0000      0.0000      0.0000      0.0811      0.0162      0.0000
148      0.0000      0.0185      0.0000      0.0725      0.0000      0.0000      0.0446      0.0967      0.1074
149      0.0000      0.0202      0.0000      0.0000      0.1201      0.1085      0.0000      0.0000      0.0000
150      0.0000      0.0265      0.0000      0.0000      0.0000      0.0426      0.0451      0.0000      0.0624

# j      m_j: min, <> & last-chain-values for 1 ...  7 chains
  1  0.0000E+00  3.6935E-05  1.7282E-04  0.0000E+00  0.0000E+00  0.0000E+00  0.0000E+00  5.8563E-05  0.0000E+00
  2  5.5883E-03  4.4212E-03  4.6938E-03  4.5006E-03  4.9156E-03  4.8045E-03  4.5869E-03  4.4823E-03  4.4829E-03
  3  7.8457E-03  7.0696E-03  6.7210E-03  7.2054E-03  7.2683E-03  7.3097E-03  6.6843E-03  7.5083E-03  7.2753E-03
  4  0.0000E+00  4.6226E-05  3.6601E-04  0.0000E+00  0.0000E+00  0.0000E+00  0.0000E+00  0.0000E+00  0.0000E+00
  5  0.0000E+00  6.1795E-05  2.9683E-04  0.0000E+00  0.0000E+00  0.0000E+00  0.0000E+00  0.0000E+00  0.0000E+00
  6  0.0000E+00  7.8128E-05  1.9624E-04  3.5630E-04  0.0000E+00  9.4884E-05  1.0655E-04  0.0000E+00  0.0000E+00
  7  0.0000E+00  9.2346E-05  0.0000E+00  0.0000E+00  0.0000E+00  1.1172E-04  5.6200E-04  0.0000E+00  0.0000E+00
  8  0.0000E+00  7.7334E-05  0.0000E+00  0.0000E+00  0.0000E+00  0.0000E+00  4.6959E-04  0.0000E+00  0.0000E+00
  9  0.0000E+00  1.0307E-04  0.0000E+00  0.0000E+00  0.0000E+00  6.0090E-05  0.0000E+00  0.0000E+00  0.0000E+00
 10  0.0000E+00  1.1052E-04  9.6285E-04  1.1407E-04  0.0000E+00  0.0000E+00  0.0000E+00  0.0000E+00  0.0000E+00
 11  0.0000E+00  8.8991E-05  0.0000E+00  0.0000E+00  0.0000E+00  5.4376E-04  0.0000E+00  0.0000E+00  9.8684E-05
 12  0.0000E+00  1.4197E-04  0.0000E+00  0.0000E+00  5.5972E-04  0.0000E+00  0.0000E+00  0.0000E+00  0.0000E+00
 13  0.0000E+00  2.5649E-04  0.0000E+00  0.0000E+00  0.0000E+00  0.0000E+00  0.0000E+00  0.0000E+00  0.0000E+00
 14  0.0000E+00  2.5876E-04  0.0000E+00  0.0000E+00  0.0000E+00  0.0000E+00  0.0000E+00  0.0000E+00  0.0000E+00
 15  0.0000E+00  5.2112E-04  0.0000E+00  0.0000E+00  0.0000E+00  0.0000E+00  0.0000E+00  4.1702E-03  0.0000E+00
 16  0.0000E+00  9.4615E-04  0.0000E+00  0.0000E+00  0.0000E+00  0.0000E+00  0.0000E+00  0.0000E+00  0.0000E+00
 17  0.0000E+00  2.1558E-03  0.0000E+00  0.0000E+00  0.0000E+00  0.0000E+00  0.0000E+00  2.2198E-03  0.0000E+00
 18  0.0000E+00  2.2038E-03  0.0000E+00  0.0000E+00  5.6126E-03  0.0000E+00  0.0000E+00  0.0000E+00  0.0000E+00
 19  0.0000E+00  4.5278E-03  0.0000E+00  0.0000E+00  0.0000E+00  0.0000E+00  0.0000E+00  0.0000E+00  0.0000E+00
 20  0.0000E+00  8.1688E-03  0.0000E+00  0.0000E+00  5.4339E-03  2.2877E-02  0.0000E+00  0.0000E+00  0.0000E+00
 21  0.0000E+00  1.6893E-02  0.0000E+00  0.0000E+00  0.0000E+00  0.0000E+00  0.0000E+00  0.0000E+00  0.0000E+00
 22  0.0000E+00  2.0632E-02  0.0000E+00  1.3915E-01  0.0000E+00  0.0000E+00  0.0000E+00  4.0242E-04  0.0000E+00
 23  0.0000E+00  1.8486E-02  1.3420E-01  3.0502E-03  2.7640E-02  0.0000E+00  0.0000E+00  0.0000E+00  0.0000E+00
 24  0.0000E+00  3.9913E-02  2.1730E-02  0.0000E+00  0.0000E+00  0.0000E+00  0.0000E+00  1.1846E-01  0.0000E+00
 25  0.0000E+00  4.5937E-02  3.8685E-02  0.0000E+00  8.3311E-02  0.0000E+00  2.8554E-01  0.0000E+00  2.5813E-01
 26  0.0000E+00  3.3556E-05  0.0000E+00  2.2539E-04  0.0000E+00  0.0000E+00  0.0000E+00  3.2610E-04  0.0000E+00
 27  0.0000E+00  2.1199E-05  1.8831E-04  0.0000E+00  0.0000E+00  3.9684E-05  1.7287E-04  0.0000E+00  5.2103E-05
 28  0.0000E+00  2.3970E-05  1.7134E-05  0.0000E+00  0.0000E+00  0.0000E+00  0.0000E+00  6.6991E-05  2.1083E-04
 29  0.0000E+00  2.5646E-05  0.0000E+00  0.0000E+00  1.2726E-04  0.0000E+00  0.0000E+00  0.0000E+00  1.3939E-05
 30  0.0000E+00  5.8561E-05  0.0000E+00  0.0000E+00  0.0000E+00  0.0000E+00  0.0000E+00  0.0000E+00  0.0000E+00
 31  0.0000E+00  5.9351E-05  0.0000E+00  0.0000E+00  0.0000E+00  0.0000E+00  0.0000E+00  0.0000E+00  0.0000E+00
 32  0.0000E+00  7.3787E-05  0.0000E+00  0.0000E+00  0.0000E+00  0.0000E+00  0.0000E+00  0.0000E+00  0.0000E+00
 33  0.0000E+00  7.7901E-05  0.0000E+00  0.0000E+00  0.0000E+00  2.5803E-05  0.0000E+00  0.0000E+00  0.0000E+00
 34  0.0000E+00  9.3460E-05  0.0000E+00  0.0000E+00  0.0000E+00  0.0000E+00  8.8875E-05  0.0000E+00  0.0000E+00
 35  0.0000E+00  9.9790E-05  0.0000E+00  0.0000E+00  4.6489E-04  0.0000E+00  0.0000E+00  0.0000E+00  0.0000E+00
 36  0.0000E+00  9.6384E-05  0.0000E+00  0.0000E+00  0.0000E+00  0.0000E+00  0.0000E+00  0.0000E+00  0.0000E+00
 37  0.0000E+00  2.3710E-04  0.0000E+00  0.0000E+00  1.8115E-04  0.0000E+00  0.0000E+00  1.7944E-04  6.1821E-04
 38  0.0000E+00  1.9074E-04  0.0000E+00  0.0000E+00  0.0000E+00  0.0000E+00  0.0000E+00  3.9241E-03  0.0000E+00
 39  0.0000E+00  3.9437E-04  0.0000E+00  0.0000E+00  0.0000E+00  0.0000E+00  0.0000E+00  0.0000E+00  2.1394E-04
 40  0.0000E+00  7.2726E-04  4.5077E-03  0.0000E+00  1.1001E-03  0.0000E+00  0.0000E+00  0.0000E+00  0.0000E+00
 41  0.0000E+00  1.1362E-03  5.6891E-03  6.8485E-04  9.9328E-04  0.0000E+00  0.0000E+00  0.0000E+00  0.0000E+00
 42  0.0000E+00  1.3985E-03  0.0000E+00  0.0000E+00  0.0000E+00  0.0000E+00  1.2990E-03  0.0000E+00  0.0000E+00
 43  0.0000E+00  3.7235E-03  2.4023E-03  0.0000E+00  0.0000E+00  0.0000E+00  0.0000E+00  2.7240E-02  0.0000E+00
 44  0.0000E+00  9.9432E-03  9.4920E-03  2.4259E-02  2.5343E-02  3.6581E-02  3.5020E-02  0.0000E+00  3.8585E-03
 45  0.0000E+00  2.2433E-02  8.0491E-02  0.0000E+00  0.0000E+00  1.2364E-02  1.4884E-02  5.7769E-02  0.0000E+00
 46  1.3678E+00  1.1880E+00  1.3286E+00  1.1832E+00  1.2119E+00  1.2100E+00  1.2368E+00  1.1827E+00  1.3204E+00
 47  1.7718E+00  2.0706E+00  2.0761E+00  2.1500E+00  2.2469E+00  2.0686E+00  1.8321E+00  2.1333E+00  2.0078E+00
 48  0.0000E+00  4.5878E-02  0.0000E+00  0.0000E+00  0.0000E+00  0.0000E+00  1.7412E-01  0.0000E+00  0.0000E+00
 49  0.0000E+00  4.6782E-02  0.0000E+00  0.0000E+00  0.0000E+00  0.0000E+00  0.0000E+00  0.0000E+00  0.0000E+00
 50  0.0000E+00  5.3681E-02  0.0000E+00  0.0000E+00  0.0000E+00  0.0000E+00  2.2797E-01  0.0000E+00  0.0000E+00
 51  0.0000E+00  3.8641E-05  0.0000E+00  0.0000E+00  0.0000E+00  0.0000E+00  1.2322E-04  0.0000E+00  0.0000E+00
 52  0.0000E+00  1.5648E-05  5.8707E-06  2.0021E-05  0.0000E+00  0.0000E+00  0.0000E+00  1.0348E-04  0.0000E+00
 53  0.0000E+00  1.1720E-05  0.0000E+00  0.0000E+00  0.0000E+00  0.0000E+00  0.0000E+00  5.7917E-05  0.0000E+00
 54  0.0000E+00  1.4590E-05  0.0000E+00  9.1455E-05  0.0000E+00  0.0000E+00  0.0000E+00  0.0000E+00  9.2031E-05
 55  0.0000E+00  3.8158E-05  0.0000E+00  0.0000E+00  0.0000E+00  0.0000E+00  0.0000E+00  0.0000E+00  2.0340E-04
 56  0.0000E+00  3.5753E-05  0.0000E+00  0.0000E+00  7.9733E-05  0.0000E+00  0.0000E+00  0.0000E+00  0.0000E+00
 57  0.0000E+00  9.4967E-05  0.0000E+00  0.0000E+00  0.0000E+00  6.0141E-04  0.0000E+00  0.0000E+00  0.0000E+00
 58  0.0000E+00  9.2833E-05  0.0000E+00  0.0000E+00  0.0000E+00  0.0000E+00  0.0000E+00  0.0000E+00  0.0000E+00
 59  0.0000E+00  1.2742E-04  0.0000E+00  0.0000E+00  1.6874E-04  0.0000E+00  0.0000E+00  0.0000E+00  0.0000E+00
 60  0.0000E+00  1.1534E-04  0.0000E+00  0.0000E+00  0.0000E+00  0.0000E+00  0.0000E+00  0.0000E+00  0.0000E+00
 61  0.0000E+00  9.6671E-05  0.0000E+00  1.8270E-03  0.0000E+00  0.0000E+00  0.0000E+00  0.0000E+00  0.0000E+00
 62  0.0000E+00  1.3707E-04  0.0000E+00  0.0000E+00  0.0000E+00  0.0000E+00  1.5910E-05  0.0000E+00  0.0000E+00
 63  0.0000E+00  2.8707E-04  0.0000E+00  0.0000E+00  2.2729E-04  0.0000E+00  0.0000E+00  0.0000E+00  1.8265E-03
 64  0.0000E+00  5.0506E-04  4.1636E-04  0.0000E+00  0.0000E+00  0.0000E+00  0.0000E+00  0.0000E+00  0.0000E+00
 65  0.0000E+00  1.2635E-03  0.0000E+00  0.0000E+00  0.0000E+00  0.0000E+00  0.0000E+00  0.0000E+00  0.0000E+00
 66  0.0000E+00  2.9529E-03  0.0000E+00  1.6431E-02  0.0000E+00  0.0000E+00  3.4020E-03  0.0000E+00  0.0000E+00
 67  0.0000E+00  4.0538E-03  3.9973E-03  1.0680E-02  0.0000E+00  0.0000E+00  2.1200E-02  9.6647E-04  0.0000E+00
 68  0.0000E+00  1.8941E-02  2.4021E-02  0.0000E+00  0.0000E+00  0.0000E+00  4.7439E-02  0.0000E+00  0.0000E+00
 69  0.0000E+00  5.6710E-02  5.9517E-02  7.1941E-02  1.8416E-02  0.0000E+00  5.5148E-02  3.1611E-03  0.0000E+00
 70  4.1290E-02  1.4986E-01  2.2533E-01  5.5979E-02  5.4854E-01  8.8113E-01  1.3507E-01  1.5245E-01  7.2613E-01
 71  0.0000E+00  2.2321E-01  0.0000E+00  0.0000E+00  0.0000E+00  5.3104E-01  1.8354E-01  4.7694E-01  8.2879E-03
 72  1.3964E+01  1.2131E+01  1.1970E+01  1.2122E+01  1.2180E+01  1.2881E+01  1.2009E+01  1.1440E+01  1.2439E+01
 73  1.8180E+00  4.9474E-01  2.1844E-01  0.0000E+00  7.7065E-01  2.9198E-01  5.3022E-01  7.3944E-01  0.0000E+00
 74  0.0000E+00  6.6986E-01  1.1791E+00  8.0224E-01  1.3822E-01  2.2499E-01  7.8029E-02  5.3516E-01  9.7798E-01
 75  0.0000E+00  6.2561E-01  1.3574E-02  7.8224E-01  3.0969E-03  0.0000E+00  4.2255E-01  4.3342E-01  1.3990E-01
 76  0.0000E+00  2.8654E-05  1.1518E-04  0.0000E+00  0.0000E+00  0.0000E+00  9.8669E-05  2.9538E-04  0.0000E+00
 77  0.0000E+00  8.5275E-06  0.0000E+00  0.0000E+00  0.0000E+00  8.4355E-05  0.0000E+00  0.0000E+00  0.0000E+00
 78  0.0000E+00  1.4362E-05  0.0000E+00  0.0000E+00  0.0000E+00  0.0000E+00  0.0000E+00  0.0000E+00  0.0000E+00
 79  0.0000E+00  3.1485E-05  0.0000E+00  0.0000E+00  0.0000E+00  0.0000E+00  0.0000E+00  0.0000E+00  3.8539E-05
 80  0.0000E+00  1.5964E-05  0.0000E+00  6.6406E-06  0.0000E+00  0.0000E+00  0.0000E+00  0.0000E+00  0.0000E+00
 81  0.0000E+00  1.5564E-05  0.0000E+00  0.0000E+00  0.0000E+00  0.0000E+00  0.0000E+00  0.0000E+00  0.0000E+00
 82  0.0000E+00  3.1198E-05  7.1659E-05  0.0000E+00  0.0000E+00  0.0000E+00  0.0000E+00  0.0000E+00  0.0000E+00
 83  0.0000E+00  6.6396E-05  6.0842E-05  6.5134E-04  0.0000E+00  5.2921E-05  0.0000E+00  0.0000E+00  0.0000E+00
 84  0.0000E+00  6.8696E-05  0.0000E+00  1.8537E-05  0.0000E+00  2.3394E-05  5.8156E-04  0.0000E+00  2.0627E-05
 85  0.0000E+00  6.5085E-05  0.0000E+00  4.5677E-04  0.0000E+00  1.3110E-04  0.0000E+00  0.0000E+00  5.1709E-05
 86  0.0000E+00  1.1393E-04  0.0000E+00  8.5409E-05  0.0000E+00  3.3862E-04  1.4205E-03  0.0000E+00  0.0000E+00
 87  0.0000E+00  1.9574E-04  0.0000E+00  1.6843E-03  0.0000E+00  0.0000E+00  0.0000E+00  0.0000E+00  0.0000E+00
 88  0.0000E+00  2.9876E-04  0.0000E+00  0.0000E+00  0.0000E+00  0.0000E+00  0.0000E+00  0.0000E+00  1.8271E-03
 89  0.0000E+00  6.9981E-04  0.0000E+00  0.0000E+00  0.0000E+00  0.0000E+00  0.0000E+00  0.0000E+00  0.0000E+00
 90  0.0000E+00  1.5181E-03  8.1532E-03  0.0000E+00  0.0000E+00  8.4539E-05  0.0000E+00  3.6367E-03  0.0000E+00
 91  0.0000E+00  3.4912E-03  0.0000E+00  0.0000E+00  0.0000E+00  0.0000E+00  0.0000E+00  0.0000E+00  0.0000E+00
 92  0.0000E+00  5.4433E-03  4.7072E-03  2.1611E-02  9.9220E-03  0.0000E+00  0.0000E+00  0.0000E+00  2.9100E-02
 93  0.0000E+00  3.1880E-02  0.0000E+00  0.0000E+00  4.4467E-05  0.0000E+00  0.0000E+00  5.3395E-02  0.0000E+00
 94  1.2459E-02  2.5837E-01  4.4580E-01  5.5673E-01  4.2833E-01  5.6476E-01  8.8374E-01  2.9136E-01  1.1933E-01
 95  3.9984E+00  1.3313E+00  1.7811E+00  2.3230E+00  1.8666E+00  8.5484E-01  1.5245E+00  1.6962E+00  1.7204E+00
 96  1.5302E+01  1.3742E+01  1.4621E+01  1.4037E+01  1.3751E+01  1.4008E+01  1.3810E+01  1.4199E+01  1.3742E+01
 97  3.9473E+01  3.4909E+01  3.4820E+01  3.6099E+01  3.5898E+01  3.6595E+01  3.4777E+01  3.5279E+01  3.5670E+01
 98  1.1292E+01  1.3133E+01  1.3264E+01  1.3097E+01  1.3585E+01  1.3173E+01  1.2807E+01  1.3496E+01  1.2718E+01
 99  4.4499E-02  4.8704E+00  4.8564E+00  3.9140E+00  3.6130E+00  2.3516E+00  7.3892E+00  5.1143E+00  4.3111E+00
100  0.0000E+00  4.0680E-01  8.5254E-01  0.0000E+00  4.8480E-01  0.0000E+00  0.0000E+00  6.5898E-01  8.1909E-01
101  0.0000E+00  1.6554E-05  0.0000E+00  1.0166E-05  0.0000E+00  0.0000E+00  0.0000E+00  0.0000E+00  4.9657E-05
102  0.0000E+00  1.2072E-05  9.6929E-07  0.0000E+00  7.8534E-05  0.0000E+00  7.4171E-06  0.0000E+00  6.1610E-05
103  0.0000E+00  1.0490E-05  0.0000E+00  0.0000E+00  9.8412E-06  0.0000E+00  0.0000E+00  0.0000E+00  0.0000E+00
104  0.0000E+00  2.6792E-05  0.0000E+00  0.0000E+00  0.0000E+00  0.0000E+00  0.0000E+00  0.0000E+00  0.0000E+00
105  0.0000E+00  2.6504E-05  0.0000E+00  1.6356E-04  3.0935E-06  0.0000E+00  3.9223E-05  0.0000E+00  0.0000E+00
106  0.0000E+00  5.6899E-05  0.0000E+00  0.0000E+00  0.0000E+00  0.0000E+00  0.0000E+00  0.0000E+00  0.0000E+00
107  0.0000E+00  7.4455E-05  0.0000E+00  0.0000E+00  0.0000E+00  0.0000E+00  2.8626E-04  0.0000E+00  0.0000E+00
108  0.0000E+00  1.0696E-04  2.1922E-05  0.0000E+00  0.0000E+00  0.0000E+00  0.0000E+00  0.0000E+00  0.0000E+00
109  0.0000E+00  1.3955E-04  0.0000E+00  0.0000E+00  8.7465E-05  0.0000E+00  0.0000E+00  0.0000E+00  1.3144E-03
110  0.0000E+00  8.0858E-05  0.0000E+00  0.0000E+00  0.0000E+00  0.0000E+00  0.0000E+00  0.0000E+00  0.0000E+00
111  0.0000E+00  1.3842E-04  5.3839E-04  0.0000E+00  0.0000E+00  0.0000E+00  0.0000E+00  7.1775E-05  0.0000E+00
112  0.0000E+00  1.1590E-04  0.0000E+00  0.0000E+00  0.0000E+00  0.0000E+00  0.0000E+00  0.0000E+00  0.0000E+00
113  0.0000E+00  2.0986E-04  0.0000E+00  0.0000E+00  0.0000E+00  0.0000E+00  0.0000E+00  0.0000E+00  0.0000E+00
114  0.0000E+00  1.1262E-03  0.0000E+00  0.0000E+00  2.6334E-03  0.0000E+00  0.0000E+00  0.0000E+00  4.4718E-03
115  0.0000E+00  2.7661E-03  0.0000E+00  0.0000E+00  0.0000E+00  0.0000E+00  0.0000E+00  2.0796E-02  0.0000E+00
116  0.0000E+00  8.9357E-03  0.0000E+00  0.0000E+00  5.9293E-04  0.0000E+00  0.0000E+00  0.0000E+00  4.9698E-02
117  0.0000E+00  1.3848E-02  0.0000E+00  1.5252E-02  5.0039E-03  0.0000E+00  0.0000E+00  9.2255E-03  0.0000E+00
118  0.0000E+00  7.5288E-02  0.0000E+00  0.0000E+00  0.0000E+00  1.9618E-02  6.2293E-02  2.1987E-01  0.0000E+00
119  0.0000E+00  2.1555E-01  0.0000E+00  4.4222E-02  0.0000E+00  2.1557E-01  1.6928E-01  0.0000E+00  2.0557E-01
120  0.0000E+00  2.1480E-01  3.7115E-01  0.0000E+00  2.5250E-01  1.6902E-01  0.0000E+00  0.0000E+00  1.8853E-01
121  0.0000E+00  1.7124E-01  0.0000E+00  3.2545E-01  0.0000E+00  2.0657E-01  1.4843E-01  0.0000E+00  7.2769E-02
122  0.0000E+00  1.2854E-01  1.1204E-01  0.0000E+00  0.0000E+00  0.0000E+00  4.1409E-02  0.0000E+00  0.0000E+00
123  0.0000E+00  1.6238E-01  4.3112E-02  0.0000E+00  0.0000E+00  3.9987E-01  7.0457E-01  0.0000E+00  6.3052E-02
124  3.0882E-01  1.7893E+00  1.9721E+00  1.1945E+00  2.0142E+00  2.0334E+00  2.1719E+00  2.1070E+00  1.3531E+00
125  7.5682E+00  8.2388E+00  7.2660E+00  9.0555E+00  8.8749E+00  8.6312E+00  5.8610E+00  7.5947E+00  8.4576E+00
126  0.0000E+00  9.4991E-06  0.0000E+00  0.0000E+00  0.0000E+00  0.0000E+00  0.0000E+00  0.0000E+00  0.0000E+00
127  0.0000E+00  1.2184E-05  0.0000E+00  0.0000E+00  0.0000E+00  1.2550E-06  1.0316E-05  0.0000E+00  0.0000E+00
128  0.0000E+00  1.1389E-05  6.0045E-05  0.0000E+00  0.0000E+00  8.0426E-05  0.0000E+00  2.4705E-05  0.0000E+00
129  0.0000E+00  2.9057E-05  0.0000E+00  0.0000E+00  0.0000E+00  0.0000E+00  0.0000E+00  0.0000E+00  0.0000E+00
130  0.0000E+00  3.1770E-05  0.0000E+00  0.0000E+00  0.0000E+00  0.0000E+00  1.1116E-05  0.0000E+00  0.0000E+00
131  0.0000E+00  5.8495E-05  0.0000E+00  0.0000E+00  0.0000E+00  0.0000E+00  0.0000E+00  0.0000E+00  0.0000E+00
132  0.0000E+00  3.5919E-05  0.0000E+00  0.0000E+00  0.0000E+00  0.0000E+00  0.0000E+00  0.0000E+00  0.0000E+00
133  0.0000E+00  7.4449E-05  0.0000E+00  2.9103E-04  0.0000E+00  0.0000E+00  0.0000E+00  0.0000E+00  0.0000E+00
134  0.0000E+00  6.6845E-05  0.0000E+00  0.0000E+00  0.0000E+00  0.0000E+00  5.1701E-04  0.0000E+00  0.0000E+00
135  0.0000E+00  9.2333E-05  0.0000E+00  0.0000E+00  2.0992E-04  0.0000E+00  0.0000E+00  0.0000E+00  0.0000E+00
136  0.0000E+00  1.9997E-04  0.0000E+00  0.0000E+00  0.0000E+00  0.0000E+00  0.0000E+00  0.0000E+00  0.0000E+00
137  0.0000E+00  1.5128E-04  0.0000E+00  0.0000E+00  0.0000E+00  0.0000E+00  0.0000E+00  0.0000E+00  0.0000E+00
138  0.0000E+00  3.2058E-04  0.0000E+00  0.0000E+00  0.0000E+00  0.0000E+00  0.0000E+00  0.0000E+00  0.0000E+00
139  0.0000E+00  1.0603E-03  6.7270E-04  0.0000E+00  0.0000E+00  0.0000E+00  0.0000E+00  0.0000E+00  0.0000E+00
140  0.0000E+00  1.0655E-02  0.0000E+00  0.0000E+00  0.0000E+00  1.6228E-02  9.1894E-03  0.0000E+00  0.0000E+00
141  0.0000E+00  1.5971E-01  2.2785E-01  5.3951E-02  6.8325E-02  4.2549E-02  4.7921E-03  1.1484E-01  7.5909E-02
142  0.0000E+00  6.3571E-02  4.5333E-02  0.0000E+00  0.0000E+00  1.6158E-01  2.7019E-02  9.7210E-02  7.3382E-02
143  3.0247E+00  1.1387E+00  1.1737E+00  1.1345E+00  1.0483E+00  1.3908E+00  8.3811E-01  1.1427E+00  1.3169E+00
144  0.0000E+00  1.6216E-01  6.7860E-01  0.0000E+00  1.4415E-01  1.1937E-01  3.0262E-01  1.3810E-01  0.0000E+00
145  0.0000E+00  1.9462E-01  4.4789E-02  4.5644E-01  6.9104E-02  1.1444E-01  1.9931E-01  0.0000E+00  2.7588E-01
146  0.0000E+00  1.6707E-01  0.0000E+00  0.0000E+00  3.7500E-02  0.0000E+00  2.8839E-01  0.0000E+00  4.9433E-02
147  0.0000E+00  6.5827E-02  0.0000E+00  0.0000E+00  0.0000E+00  0.0000E+00  2.4015E-01  4.8223E-02  0.0000E+00
148  0.0000E+00  7.4379E-02  0.0000E+00  2.9232E-01  0.0000E+00  0.0000E+00  1.7913E-01  3.9062E-01  4.3283E-01
149  0.0000E+00  9.5075E-02  0.0000E+00  0.0000E+00  5.6444E-01  5.1666E-01  0.0000E+00  0.0000E+00  0.0000E+00
150  0.0000E+00  1.4848E-01  0.0000E+00  0.0000E+00  0.0000E+00  2.4180E-01  2.5242E-01  0.0000E+00  3.5095E-01

# AV, chi2 & Mass for <> & i_chain = 1 ...  7 solutions
AV       0.5826      0.5759      0.5787      0.5749      0.5757      0.5755      0.5760      0.5778      0.5766
chi2 2.8018E+00  2.8523E+00  2.8378E+00  2.8372E+00  2.8347E+00  2.8376E+00  2.8397E+00  2.8408E+00  2.8409E+00
Mass 2.3720E-10  2.4873E-10  2.4664E-10  2.4788E-10  2.4929E-10  2.4594E-10  2.4933E-10  2.4819E-10  2.4838E-10
  15.68                                  [v0_min (km/s) before EX0s...]
  57.77                                  [vd_min (km/s) before EX0s...]


## Synthetic spectrum (Best Model) ##l_obs f_obs f_syn wei
 3070    [Nl_obs]
 3359.00    0.00000   0.41386   -2.000
 3360.00    0.00000   0.37242   -2.000
 3361.00    0.00000   0.36139   -2.000
 3362.00    0.29167   0.38466   -1.000
 3363.00    0.28697   0.42783   -1.000
 3364.00    0.28240   0.46646   -1.000
 3365.00    0.35133   0.48220   -1.000
 3366.00    0.24013   0.47178   -1.000
 3367.00    0.29038   0.44628   -1.000
 3368.00    0.19124   0.42028   -1.000
 3369.00    0.22193   0.40214   -1.000
 3370.00    0.33910   0.38994   -1.000
 3371.00    0.20866   0.38199   -1.000
 3372.00    0.14517   0.38299   -1.000
 3373.00    0.20511   0.39962   -1.000
 3374.00    0.34226   0.43167   -1.000
 3375.00    0.35448   0.47081   -1.000
 3376.00    0.34778   0.50091   -1.000
 3377.00    0.36504   0.50633   -1.000
 3378.00    0.28244   0.48562   -1.000
 3379.00    0.27553   0.45524   -1.000
 3380.00    0.27520   0.43425   -1.000
 3381.00    0.31015   0.43286   -1.000
 3382.00    0.28367   0.44822   -1.000
 3383.00    0.29485   0.46748   -1.000
 3384.00    0.33639   0.48256   -1.000
 3385.00    0.28225   0.49464   -1.000
 3386.00    0.26910   0.50115   -1.000
 3387.00    0.34731   0.50137   -1.000
 3388.00    0.38658   0.50058   -1.000
 3389.00    0.34256   0.50135   -1.000
 3390.00    0.35656   0.49998   -1.000
 3391.00    0.35457   0.49000   -1.000
 3392.00    0.36921   0.47123   -1.000
 3393.00    0.31078   0.45730   -1.000
 3394.00    0.30161   0.46125   -1.000
 3395.00    0.35335   0.48265   -1.000
 3396.00    0.34604   0.51084   -1.000
 3397.00    0.40911   0.53689   -1.000
 3398.00    0.44769   0.55692   -1.000
 3399.00    0.46597   0.56616   -1.000
 3400.00    0.39357   0.56323   -1.000
 3401.00    0.43666   0.55190   -1.000
 3402.00    0.46391   0.53441   -1.000
 3403.00    0.40665   0.51674   -1.000
 3404.00    0.37901   0.50470   -1.000
 3405.00    0.32224   0.49721   -1.000
 3406.00    0.34898   0.49035   -1.000
 3407.00    0.37245   0.48357   -1.000
 3408.00    0.41020   0.47998   -1.000
 3409.00    0.39483   0.48293   -1.000
 3410.00    0.39523   0.49132   -1.000
 3411.00    0.45127   0.49514   58.790
 3412.00    0.44212   0.48618   58.451
 3413.00    0.45255   0.46837   56.728
 3414.00    0.42606   0.45410   56.233
 3415.00    0.36259   0.45462   -1.000
 3416.00    0.37196   0.46933   -1.000
 3417.00    0.43002   0.49268   -1.000
 3418.00    0.44963   0.51866   -1.000
 3419.00    0.43457   0.54246   -1.000
 3420.00    0.40028   0.55640   -1.000
 3421.00    0.44105   0.55335   -1.000
 3422.00    0.48013   0.53587   50.106
 3423.00    0.44797   0.51875   -1.000
 3424.00    0.37048   0.51306   -1.000
 3425.00    0.44212   0.51638   -1.000
 3426.00    0.41032   0.52133   -1.000
 3427.00    0.45130   0.52869   -1.000
 3428.00    0.48259   0.54513   -1.000
 3429.00    0.49493   0.56745   -1.000
 3430.00    0.50954   0.57836   -1.000
 3431.00    0.52200   0.56729   -1.000
 3432.00    0.45085   0.54291   -1.000
 3433.00    0.42745   0.52390   -1.000
 3434.00    0.47778   0.52323   -1.000
 3435.00    0.45422   0.53388   -1.000
 3436.00    0.44287   0.53808   -1.000
 3437.00    0.45710   0.52791   -1.000
 3438.00    0.42803   0.50437   -1.000
 3439.00    0.46614   0.46927   53.050
 3440.00    0.44131   0.42991   51.569
 3441.00    0.43193   0.39929   54.631
 3442.00    0.40938   0.38772   58.917
 3443.00    0.42469   0.39481   61.451
 3444.00    0.37596   0.41233   61.712
 3445.00    0.41750   0.43282   61.472
 3446.00    0.52733   0.45648   -1.000
 3447.00    0.47733   0.48412   55.988
 3448.00    0.44697   0.51251   -1.000
 3449.00    0.44259   0.53638   -1.000
 3450.00    0.40435   0.54642   -1.000
 3451.00    0.47610   0.53684   -1.000
 3452.00    0.47585   0.51892   -1.000
 3453.00    0.49109   0.50958   -1.000
 3454.00    0.52729   0.51387   -1.000
 3455.00    0.52540   0.52289  388.486
 3456.00    0.48303   0.52297   -1.000
 3457.00    0.46757   0.50880   -1.000
 3458.00    0.50496   0.48684   -1.000
 3459.00    0.51216   0.46725   -1.000
 3460.00    0.50889   0.45444   -1.000
 3461.00    0.46774   0.45364   53.898
 3462.00    0.45193   0.47001   50.177
 3463.00    0.46718   0.49609   49.923
 3464.00    0.43706   0.51208   -1.000
 3465.00    0.49338   0.51118   -1.000
 3466.00    0.52407   0.50561   -1.000
 3467.00    0.48477   0.50930   -1.000
 3468.00    0.52982   0.52544  388.486
 3469.00    0.58133   0.54515   -1.000
 3470.00    0.55058   0.55482  388.486
 3471.00    0.63281   0.54709   -1.000
 3472.00    0.53481   0.52521   -1.000
 3473.00    0.53046   0.49492   -1.000
 3474.00    0.52241   0.46255   -1.000
 3475.00    0.49824   0.43690   -1.000
 3476.00    0.43072   0.42962  388.486
 3477.00    0.38856   0.44470   -1.000
 3478.00    0.43087   0.47257   51.677
 3479.00    0.42971   0.49969   -1.000
 3480.00    0.45637   0.51780   -1.000
 3481.00    0.50569   0.52323   -1.000
 3482.00    0.46234   0.51653   -1.000
 3483.00    0.43900   0.50482   -1.000
 3484.00    0.45737   0.49951   -1.000
 3485.00    0.51260   0.51004  388.486
 3486.00    0.49388   0.53140   -1.000
 3487.00    0.52619   0.54513   -1.000
 3488.00    0.59207   0.53692   -1.000
 3489.00    0.58671   0.51031   -1.000
 3490.00    0.52814   0.48256   -1.000
 3491.00    0.44572   0.46903   -1.000
 3492.00    0.41020   0.47189   -1.000
 3493.00    0.44718   0.48244   -1.000
 3494.00    0.47154   0.48946   -1.000
 3495.00    0.50342   0.48561   -1.000
 3496.00    0.50270   0.47545   -1.000
 3497.00    0.50833   0.47595   -1.000
 3498.00    0.48394   0.49710   -1.000
 3499.00    0.54263   0.52816   -1.000
 3500.00    0.60629   0.55070   -1.000
 3501.00    0.57817   0.56190   -1.000
 3502.00    0.62325   0.57035   -1.000
 3503.00    0.65069   0.57623   -1.000
 3504.00    0.55145   0.57285   -1.000
 3505.00    0.58981   0.55996   -1.000
 3506.00    0.58152   0.54588   -1.000
 3507.00    0.58447   0.53975   -1.000
 3508.00    0.55737   0.53932   -1.000
 3509.00    0.54155   0.53424  388.486
 3510.00    0.52314   0.52286  388.486
 3511.00    0.48259   0.50998   -1.000
 3512.00    0.54687   0.49636   -1.000
 3513.00    0.59104   0.48166   -1.000
 3514.00    0.52952   0.47507   -1.000
 3515.00    0.53151   0.49012   -1.000
 3516.00    0.50993   0.52606   -1.000
 3517.00    0.52158   0.56318   -1.000
 3518.00    0.56791   0.58032   -1.000
 3519.00    0.60073   0.57026   -1.000
 3520.00    0.62011   0.54338   -1.000
 3521.00    0.55497   0.51420   -1.000
 3522.00    0.54719   0.48983   -1.000
 3523.00    0.45968   0.46738  388.486
 3524.00    0.41906   0.44531   -1.000
 3525.00    0.50890   0.43122   -1.000
 3526.00    0.48359   0.43804   56.013
 3527.00    0.47531   0.46776   51.100
 3528.00    0.50559   0.50860   51.026
 3529.00    0.48645   0.54227   -1.000
 3530.00    0.53365   0.55712   -1.000
 3531.00    0.59233   0.55440   -1.000
 3532.00    0.61544   0.54754   -1.000
 3533.00    0.58799   0.54946   -1.000
 3534.00    0.51275   0.55977   -1.000
 3535.00    0.56053   0.57003   -1.000
 3536.00    0.64124   0.57594   -1.000
 3537.00    0.59084   0.58229   -1.000
 3538.00    0.57007   0.59429   -1.000
 3539.00    0.59104   0.60549   -1.000
 3540.00    0.60942   0.60552  388.486
 3541.00    0.61301   0.59613   -1.000
 3542.00    0.53049   0.58972   -1.000
 3543.00    0.55949   0.59360   -1.000
 3544.00    0.67747   0.60288   -1.000
 3545.00    0.63322   0.60787   -1.000
 3546.00    0.59140   0.60412   -1.000
 3547.00    0.58617   0.59633   -1.000
 3548.00    0.58774   0.59201  388.486
 3549.00    0.56419   0.59349   -1.000
 3550.00    0.57149   0.59569   -1.000
 3551.00    0.58556   0.59149  388.486
 3552.00    0.58990   0.57825   -1.000
 3553.00    0.52303   0.56159   -1.000
 3554.00    0.53366   0.55140   -1.000
 3555.00    0.45728   0.55273   -1.000
 3556.00    0.48877   0.55966   -1.000
 3557.00    0.55607   0.56305  388.486
 3558.00    0.49752   0.56018   -1.000
 3559.00    0.52884   0.55652   -1.000
 3560.00    0.54653   0.55980   -1.000
 3561.00    0.46556   0.57228   -1.000
 3562.00    0.51503   0.58468   -1.000
 3563.00    0.57757   0.57787  388.486
 3564.00    0.56026   0.54205   -1.000
 3565.00    0.53287   0.49445   -1.000
 3566.00    0.48521   0.46444   -1.000
 3567.00    0.45018   0.45927   57.994
 3568.00    0.44034   0.46045   51.778
 3569.00    0.44909   0.45154   51.572
 3570.00    0.46398   0.43945   51.237
 3571.00    0.42616   0.43945   52.687
 3572.00    0.42196   0.45407   53.784
 3573.00    0.47579   0.47267   52.478
 3574.00    0.49817   0.48597   50.223
 3575.00    0.53252   0.49390   -1.000
 3576.00    0.51189   0.49918   -1.000
 3577.00    0.48869   0.49776   -1.000
 3578.00    0.47694   0.48457  388.486
 3579.00    0.47886   0.45806   -1.000
 3580.00    0.47466   0.42598   -1.000
 3581.00    0.43375   0.40125   60.492
 3582.00    0.36848   0.39464   55.155
 3583.00    0.38069   0.40224   58.404
 3584.00    0.38259   0.40479   59.216
 3585.00    0.37025   0.39493   59.476
 3586.00    0.36835   0.38382   60.784
 3587.00    0.35967   0.38486   62.722
 3588.00    0.36675   0.40369   63.795
 3589.00    0.41754   0.43714   61.182
 3590.00    0.47583   0.47690   57.937
 3591.00    0.51009   0.51154   55.095
 3592.00    0.55593   0.53030   50.492
 3593.00    0.55553   0.53520   -1.000
 3594.00    0.53951   0.54064  388.486
 3595.00    0.52796   0.55719   -1.000
 3596.00    0.56379   0.58100   -1.000
 3597.00    0.57235   0.60094   -1.000
 3598.00    0.61679   0.61417  388.486
 3599.00    0.61304   0.62309   -1.000
 3600.00    0.61903   0.62263  379.413
 3601.00    0.60912   0.60426  372.601
 3602.00    0.63329   0.57194   -1.000
 3603.00    0.56825   0.53888   -1.000
 3604.00    0.55060   0.51737   -1.000
 3605.00    0.55045   0.51078   -1.000
 3606.00    0.50913   0.51032  388.486
 3607.00    0.48831   0.50337   -1.000
 3608.00    0.50395   0.48745   -1.000
 3609.00    0.49323   0.47511   -1.000
 3610.00    0.46503   0.47949   -1.000
 3611.00    0.44137   0.49871   -1.000
 3612.00    0.50113   0.51869   -1.000
 3613.00    0.56974   0.53385   -1.000
 3614.00    0.55967   0.54958   -1.000
 3615.00    0.54166   0.56516   -1.000
 3616.00    0.56905   0.56396  388.486
 3617.00    0.55769   0.53323   -1.000
 3618.00    0.51431   0.48779   -1.000
 3619.00    0.50765   0.46236   -1.000
 3620.00    0.49825   0.47522   -1.000
 3621.00    0.49883   0.51552   59.210
 3622.00    0.53594   0.55787   -1.000
 3623.00    0.60051   0.58607   -1.000
 3624.00    0.61496   0.60615   -1.000
 3625.00    0.57500   0.63230   -1.000
 3626.00    0.62653   0.66349   -1.000
 3627.00    0.65661   0.68586   -1.000
 3628.00    0.69665   0.68225   -1.000
 3629.00    0.62122   0.64321   -1.000
 3630.00    0.52219   0.57970   -1.000
 3631.00    0.45945   0.52375   -1.000
 3632.00    0.49828   0.50038  388.486
 3633.00    0.53431   0.50925   -1.000
 3634.00    0.53977   0.53283  388.486
 3635.00    0.50130   0.55505   -1.000
 3636.00    0.50816   0.57172   -1.000
 3637.00    0.55826   0.59027   -1.000
 3638.00    0.58781   0.61554   -1.000
 3639.00    0.59213   0.64089   -1.000
 3640.00    0.60436   0.65472   -1.000
 3641.00    0.65752   0.64962  360.405
 3642.00    0.62194   0.62794  357.839
 3643.00    0.55445   0.59953   -1.000
 3644.00    0.57483   0.57376  376.925
 3645.00    0.60105   0.55385   -1.000
 3646.00    0.56168   0.53758   -1.000
 3647.00    0.53075   0.52480  388.486
 3648.00    0.52968   0.52168   -1.000
 3649.00    0.54874   0.53175   -1.000
 3650.00    0.57215   0.55486   -1.000
 3651.00    0.60346   0.58718   -1.000
 3652.00    0.65178   0.62078   -1.000
 3653.00    0.64677   0.64602  388.343
 3654.00    0.65830   0.66036  371.561
 3655.00    0.62723   0.66933   -1.000
 3656.00    0.67146   0.68025   -1.000
 3657.00    0.68836   0.69456  353.585
 3658.00    0.66109   0.70622   -1.000
 3659.00    0.65671   0.71190   -1.000
 3660.00    0.65649   0.71099   -1.000
 3661.00    0.69273   0.70177   -1.000
 3662.00    0.61016   0.68534   -1.000
 3663.00    0.58876   0.66960   -1.000
 3664.00    0.65266   0.66226   -1.000
 3665.00    0.65118   0.66303   -1.000
 3666.00    0.62986   0.66428   -1.000
 3667.00    0.62839   0.65789   -1.000
 3668.00    0.62615   0.64326   -1.000
 3669.00    0.61130   0.63038   -1.000
 3670.00    0.58688   0.63228   -1.000
 3671.00    0.60181   0.65014   -1.000
 3672.00    0.66045   0.67085   -1.000
 3673.00    0.69838   0.68287   -1.000
 3674.00    0.67893   0.68430  350.439
 3675.00    0.67074   0.67511  348.063
 3676.00    0.65933   0.65520  347.774
 3677.00    0.64289   0.62875   -1.000
 3678.00    0.60483   0.60289  357.158
 3679.00    0.60317   0.58543   -1.000
 3680.00    0.62175   0.58242   -1.000
 3681.00    0.59175   0.59375  388.486
 3682.00    0.60217   0.61146   -1.000
 3683.00    0.64750   0.62389   -1.000
 3684.00    0.62180   0.62029  371.458
 3685.00    0.60784   0.59809   -1.000
 3686.00    0.59216   0.56871   -1.000
 3687.00    0.57319   0.55244   -1.000
 3688.00    0.54910   0.56219   -1.000
 3689.00    0.58403   0.59646   -1.000
 3690.00    0.64869   0.64032  388.486
 3691.00    0.64012   0.67360   -1.000
 3692.00    0.66313   0.68288   -1.000
 3693.00    0.64608   0.67202   -1.000
 3694.00    0.64370   0.65712   -1.000
 3695.00    0.64855   0.64912  349.863
 3696.00    0.62879   0.65032   -1.000
 3697.00    0.65668   0.66159  355.547
 3698.00    0.63075   0.68378   -1.000
 3699.00    0.65375   0.70897   -1.000
 3700.00    0.68113   0.72393   -1.000
 3701.00    0.71415   0.71716  329.487
 3702.00    0.72577   0.68265   -1.000
 3703.00    0.68175   0.62618   -1.000
 3704.00    0.67393   0.56711   -1.000
 3705.00    0.62223   0.52508   -1.000
 3706.00    0.57244   0.50946   -1.000
 3707.00    0.52676   0.51372   -1.000
 3708.00    0.50306   0.52595   -1.000
 3709.00    0.53494   0.54301   -1.000
 3710.00    0.59768   0.56751   -1.000
 3711.00    0.63660   0.60005   -1.000
 3712.00    0.66304   0.63911   -1.000
 3713.00    0.66352   0.67786   -1.000
 3714.00    0.70851   0.70534  350.686
 3715.00    0.73036   0.71319   -1.000
 3716.00    0.73225   0.70079   -1.000
 3717.00    0.71973   0.66934   -1.000
 3718.00    0.65920   0.61615   -1.000
 3719.00    0.52345   0.54445   -1.000
 3720.00    0.44491   0.47576   -1.000
 3721.00    0.45701   0.44005   -1.000
 3722.00    0.50492   0.45059   -1.000
 3723.00    0.50988   0.49773   64.678
 3724.00    0.54454   0.55961  152.800
 3725.00    0.61415   0.60694  388.486
 3726.00    0.65102   0.62137   -1.000
 3727.00    0.65874   0.61410   -1.000
 3728.00    0.67466   0.60863   -1.000
 3729.00    0.77838   0.61120   -1.000
 3730.00    0.86975   0.60886   -1.000
 3731.00    0.79514   0.58485   -1.000
 3732.00    0.63898   0.53357   -1.000
 3733.00    0.51244   0.46935   -1.000
 3734.00    0.43090   0.41283   -1.000
 3735.00    0.43814   0.38208   -1.000
 3736.00    0.46547   0.38763   -1.000
 3737.00    0.46520   0.42813   56.879
 3738.00    0.48072   0.49112   55.214
 3739.00    0.51453   0.55853   50.564
 3740.00    0.55280   0.60845   -1.000
 3741.00    0.60786   0.62580   -1.000
 3742.00    0.60814   0.60973  375.123
 3743.00    0.59466   0.57366   -1.000
 3744.00    0.57486   0.53440   -1.000
 3745.00    0.52375   0.50324   -1.000
 3746.00    0.52764   0.47869   -1.000
 3747.00    0.51599   0.45155   -1.000
 3748.00    0.47619   0.42198   -1.000
 3749.00    0.43828   0.40687   65.548
 3750.00    0.46294   0.42488   52.438
 3751.00    0.51883   0.47747   53.743
 3752.00    0.60048   0.54585   -1.000
 3753.00    0.64441   0.61176   -1.000
 3754.00    0.67516   0.66306   -1.000
 3755.00    0.69375   0.68422   -1.000
 3756.00    0.69928   0.66418   -1.000
 3757.00    0.66547   0.61183   -1.000
 3758.00    0.54214   0.55623   -1.000
 3759.00    0.50801   0.52923   -1.000
 3760.00    0.55858   0.53578   -1.000
 3761.00    0.61312   0.55616   -1.000
 3762.00    0.60080   0.57153   -1.000
 3763.00    0.58946   0.57828   -1.000
 3764.00    0.57813   0.58142  383.943
 3765.00    0.59366   0.58045   -1.000
 3766.00    0.57481   0.57321  376.108
 3767.00    0.59321   0.56552   -1.000
 3768.00    0.64886   0.56254   -1.000
 3769.00    0.62963   0.56243   -1.000
 3770.00    0.61073   0.56416   -1.000
 3771.00    0.60229   0.57654   -1.000
 3772.00    0.60984   0.60363  388.486
 3773.00    0.66666   0.63378   -1.000
 3774.00    0.71184   0.65393   -1.000
 3775.00    0.71004   0.66300   -1.000
 3776.00    0.67138   0.66838  342.586
 3777.00    0.67858   0.67709  342.073
 3778.00    0.69624   0.69175  341.345
 3779.00    0.70628   0.71043  340.416
 3780.00    0.71526   0.72910   -1.000
 3781.00    0.73568   0.74277  327.002
 3782.00    0.76620   0.75025   -1.000
 3783.00    0.77717   0.75180   -1.000
 3784.00    0.74323   0.74032  312.978
 3785.00    0.70066   0.70878  312.601
 3786.00    0.67411   0.66491  317.929
 3787.00    0.63170   0.62412  332.303
 3788.00    0.60534   0.59760  355.427
 3789.00    0.58281   0.58998  375.796
 3790.00    0.59216   0.59698  385.948
 3791.00    0.63147   0.60664   -1.000
 3792.00    0.64526   0.60627   -1.000
 3793.00    0.58546   0.59063  377.671
 3794.00    0.54425   0.56617   -1.000
 3795.00    0.51569   0.54145   -1.000
 3796.00    0.50775   0.51660   -1.000
 3797.00    0.52098   0.48885   -1.000
 3798.00    0.52464   0.47064   -1.000
 3799.00    0.52106   0.48239   -1.000
 3800.00    0.57105   0.52655   -1.000
 3801.00    0.62449   0.58585   -1.000
 3802.00    0.64384   0.64017  388.486
 3803.00    0.65373   0.67663   -1.000
 3804.00    0.68573   0.69121  361.904
 3805.00    0.69335   0.68330   -1.000
 3806.00    0.66682   0.66229  348.232
 3807.00    0.65255   0.64862  351.553
 3808.00    0.66028   0.65575  362.749
 3809.00    0.68068   0.67840  371.847
 3810.00    0.70081   0.69809  366.778
 3811.00    0.69391   0.69711  353.642
 3812.00    0.65218   0.66995   -1.000
 3813.00    0.60044   0.62574   -1.000
 3814.00    0.58544   0.58086  366.223
 3815.00    0.55844   0.55271  388.276
 3816.00    0.57437   0.54977   -1.000
 3817.00    0.56607   0.56101  388.486
 3818.00    0.59088   0.56303   -1.000
 3819.00    0.56930   0.54244   -1.000
 3820.00    0.52752   0.51590   -1.000
 3821.00    0.53637   0.50877   -1.000
 3822.00    0.52998   0.52076   -1.000
 3823.00    0.53833   0.52728   -1.000
 3824.00    0.53280   0.51042   -1.000
 3825.00    0.46735   0.48046   -1.000
 3826.00    0.44316   0.45781   -1.000
 3827.00    0.44748   0.45064   71.678
 3828.00    0.42876   0.45549   52.521
 3829.00    0.42984   0.46431   52.529
 3830.00    0.41836   0.46645   51.784
 3831.00    0.40735   0.45357   50.933
 3832.00    0.45553   0.42782   51.128
 3833.00    0.44039   0.39965   52.961
 3834.00    0.39276   0.38356   56.667
 3835.00    0.40571   0.38402   59.281
 3836.00    0.42972   0.39374   58.969
 3837.00    0.42272   0.40227   56.911
 3838.00    0.41904   0.40536   55.342
 3839.00    0.40879   0.41083   55.805
 3840.00    0.40341   0.43191   57.131
 3841.00    0.45337   0.47400   56.831
 3842.00    0.50646   0.52721   54.206
 3843.00    0.52133   0.57505   -1.000
 3844.00    0.55923   0.60487   -1.000
 3845.00    0.59801   0.61800   -1.000
 3846.00    0.60181   0.62513   -1.000
 3847.00    0.61614   0.63051   -1.000
 3848.00    0.64203   0.62802   -1.000
 3849.00    0.61860   0.61768  388.486
 3850.00    0.56069   0.61041   -1.000
 3851.00    0.56200   0.61540   -1.000
 3852.00    0.60790   0.62842   -1.000
 3853.00    0.63285   0.63548  388.486
 3854.00    0.60697   0.62821   -1.000
 3855.00    0.55200   0.61091   -1.000
 3856.00    0.53442   0.59158   -1.000
 3857.00    0.52949   0.57017   -1.000
 3858.00    0.50241   0.54463   -1.000
 3859.00    0.48476   0.52431   -1.000
 3860.00    0.49221   0.52631   69.594
 3861.00    0.52828   0.55692   51.075
 3862.00    0.56897   0.60188   51.309
 3863.00    0.61471   0.63513  125.036
 3864.00    0.63810   0.64371  388.486
 3865.00    0.61222   0.63743   -1.000
 3866.00    0.58493   0.63022   -1.000
 3867.00    0.58736   0.62656   -1.000
 3868.00    0.59566   0.62195   -1.000
 3869.00    0.57613   0.60950   -1.000
 3870.00    0.54069   0.58634   -1.000
 3871.00    0.50816   0.56010   -1.000
 3872.00    0.49578   0.54473   -1.000
 3873.00    0.50511   0.55384   -1.000
 3874.00    0.53987   0.58628   -1.000
 3875.00    0.58761   0.61816   -1.000
 3876.00    0.61475   0.62265  388.486
 3877.00    0.57361   0.59916   -1.000
 3878.00    0.56413   0.57358   -1.000
 3879.00    0.55887   0.56516  388.486
 3880.00    0.54405   0.56965   -1.000
 3881.00    0.54749   0.57585   -1.000
 3882.00    0.54621   0.57947   -1.000
 3883.00    0.56759   0.58381   -1.000
 3884.00    0.59988   0.58292   -1.000
 3885.00    0.58395   0.56385   -1.000
 3886.00    0.56710   0.52895   -1.000
 3887.00    0.56157   0.49554   -1.000
 3888.00    0.54587   0.48047   -1.000
 3889.00    0.56743   0.49259   -1.000
 3890.00    0.59173   0.53125   -1.000
 3891.00    0.61556   0.58542   -1.000
 3892.00    0.64740   0.63217   -1.000
 3893.00    0.67467   0.65324   -1.000
 3894.00    0.67042   0.65399   -1.000
 3895.00    0.64785   0.65348  334.202
 3896.00    0.67840   0.66208   -1.000
 3897.00    0.70347   0.67339   -1.000
 3898.00    0.69227   0.67797   -1.000
 3899.00    0.71457   0.67672   -1.000
 3900.00    0.71609   0.67770   -1.000
 3901.00    0.68948   0.68285  330.621
 3902.00    0.67806   0.68449  329.048
 3903.00    0.70372   0.67580   -1.000
 3904.00    0.69936   0.65800   -1.000
 3905.00    0.66536   0.64177   -1.000
 3906.00    0.64023   0.64182  347.273
 3907.00    0.65541   0.66480   -1.000
 3908.00    0.71944   0.70142   -1.000
 3909.00    0.71894   0.73397   -1.000
 3910.00    0.71292   0.75426   -1.000
 3911.00    0.76450   0.76616  308.711
 3912.00    0.78140   0.77139  304.495
 3913.00    0.73728   0.76807   -1.000
 3914.00    0.74625   0.75750   -1.000
 3915.00    0.76270   0.74496   -1.000
 3916.00    0.73910   0.73395  306.610
 3917.00    0.70496   0.72218   -1.000
 3918.00    0.67914   0.70436   -1.000
 3919.00    0.67216   0.67782  322.908
 3920.00    0.65994   0.64900   -1.000
 3921.00    0.62614   0.63045  343.512
 3922.00    0.63112   0.62914  359.618
 3923.00    0.64807   0.63813   -1.000
 3924.00    0.65351   0.64198   -1.000
 3925.00    0.64224   0.62937   -1.000
 3926.00    0.59038   0.59606  364.577
 3927.00    0.52247   0.54546   -1.000
 3928.00    0.46558   0.48618   -1.000
 3929.00    0.43088   0.42683  388.486
 3930.00    0.36827   0.37004   81.794
 3931.00    0.30809   0.31529   60.379
 3932.00    0.27388   0.26512   70.695
 3933.00    0.24106   0.22965   83.273
 3934.00    0.20740   0.22198   97.875
 3935.00    0.21656   0.24635   -1.000
 3936.00    0.27049   0.29481  110.446
 3937.00    0.31877   0.35719   -1.000
 3938.00    0.38291   0.42461   -1.000
 3939.00    0.45820   0.48654   68.486
 3940.00    0.53414   0.53542   57.132
 3941.00    0.55735   0.56588  119.294
 3942.00    0.53944   0.57815   -1.000
 3943.00    0.56092   0.58377   -1.000
 3944.00    0.58596   0.59797   -1.000
 3945.00    0.60118   0.62602   -1.000
 3946.00    0.64659   0.65729   -1.000
 3947.00    0.67893   0.67864  374.940
 3948.00    0.69622   0.69118  348.572
 3949.00    0.71492   0.70518  338.840
 3950.00    0.73624   0.72146   -1.000
 3951.00    0.74776   0.73001   -1.000
 3952.00    0.74957   0.73093   -1.000
 3953.00    0.75494   0.73530   -1.000
 3954.00    0.76401   0.74307   -1.000
 3955.00    0.76904   0.74349   -1.000
 3956.00    0.75910   0.73412   -1.000
 3957.00    0.74582   0.72438   -1.000
 3958.00    0.70818   0.72076   -1.000
 3959.00    0.72162   0.71067   -1.000
 3960.00    0.72327   0.67394   -1.000
 3961.00    0.65620   0.61559   -1.000
 3962.00    0.59058   0.55934   -1.000
 3963.00    0.52831   0.51740   -1.000
 3964.00    0.46853   0.48123   -1.000
 3965.00    0.42903   0.43342  388.486
 3966.00    0.38347   0.36798   79.562
 3967.00    0.32311   0.29917   56.655
 3968.00    0.26475   0.25107   68.444
 3969.00    0.24193   0.23999   84.082
 3970.00    0.26524   0.26740   96.976
 3971.00    0.33381   0.32335   96.311
 3972.00    0.42081   0.39258   82.762
 3973.00    0.48507   0.46399   68.034
 3974.00    0.51897   0.53251   56.562
 3975.00    0.57894   0.59427  112.526
 3976.00    0.64245   0.64943   -1.000
 3977.00    0.70138   0.69987  378.211
 3978.00    0.74887   0.74661  345.709
 3979.00    0.80634   0.78605   -1.000
 3980.00    0.83106   0.80904   -1.000
 3981.00    0.84378   0.81280   -1.000
 3982.00    0.83101   0.80525   -1.000
 3983.00    0.80059   0.80058  280.805
 3984.00    0.80196   0.80885  284.953
 3985.00    0.82767   0.82580  285.887
 3986.00    0.86248   0.84360   -1.000
 3987.00    0.85539   0.86034  275.617
 3988.00    0.85598   0.87320   -1.000
 3989.00    0.89306   0.87984   -1.000
 3990.00    0.90803   0.88454   -1.000
 3991.00    0.91168   0.89352   -1.000
 3992.00    0.92922   0.90673   -1.000
 3993.00    0.98303   0.91623   -1.000
 3994.00    0.98086   0.91288   -1.000
 3995.00    0.92087   0.89527   -1.000
 3996.00    0.89703   0.87356   -1.000
 3997.00    0.89310   0.86326   -1.000
 3998.00    0.89050   0.87292   -1.000
 3999.00    0.91509   0.89820   -1.000
 4000.00    0.94664   0.92664   -1.000
 4001.00    0.96386   0.94839   -1.000
 4002.00    0.97528   0.95648   -1.000
 4003.00    0.99779   0.94321   -1.000
 4004.00    0.93161   0.90672   -1.000
 4005.00    0.86839   0.86580  239.328
 4006.00    0.84999   0.85136  250.985
 4007.00    0.88707   0.87342   -1.000
 4008.00    0.93683   0.91301   -1.000
 4009.00    0.95590   0.94569  259.512
 4010.00    0.96327   0.96336  247.189
 4011.00    0.98803   0.96977   -1.000
 4012.00    1.00191   0.97121   -1.000
 4013.00    0.99400   0.97401   -1.000
 4014.00    0.95276   0.97951   -1.000
 4015.00    0.99789   0.98318   -1.000
 4016.00    1.02370   0.98160   -1.000
 4017.00    1.00000   0.97863   -1.000
 4018.00    1.00243   0.98161   -1.000
 4019.00    1.01593   0.99020   -1.000
 4020.00    1.00078   0.99739  238.974
 4021.00    1.00739   0.99765  236.238
 4022.00    1.01993   0.99166   -1.000
 4023.00    0.99362   0.98244  237.355
 4024.00    0.96302   0.97433   -1.000
 4025.00    0.99184   0.97652   -1.000
 4026.00    1.03286   0.99517   -1.000
 4027.00    1.06690   1.02004   -1.000
 4028.00    1.09415   1.02706   -1.000
 4029.00    1.05854   1.00023   -1.000
 4030.00    0.98602   0.94892   -1.000
 4031.00    0.92680   0.89832   -1.000
 4032.00    0.88311   0.86845   -1.000
 4033.00    0.89181   0.86567   -1.000
 4034.00    0.92553   0.88780   -1.000
 4035.00    0.94388   0.92975   -1.000
 4036.00    0.97916   0.98203  257.491
 4037.00    1.02000   1.02959  246.414
 4038.00    1.07104   1.05501   -1.000
 4039.00    1.09472   1.05285   -1.000
 4040.00    1.06196   1.03613   -1.000
 4041.00    1.00408   1.02095   -1.000
 4042.00    1.00176   1.00377  228.420
 4043.00    1.02309   0.96318   -1.000
 4044.00    0.98074   0.89439   -1.000
 4045.00    0.91383   0.83277   -1.000
 4046.00    0.84888   0.82313   -1.000
 4047.00    0.84416   0.87171   -1.000
 4048.00    0.92360   0.94357   -1.000
 4049.00    1.00073   1.00165  262.552
 4050.00    1.04664   1.03024   -1.000
 4051.00    1.04985   1.03326   -1.000
 4052.00    1.03961   1.01962   -1.000
 4053.00    1.02376   0.99690   -1.000
 4054.00    0.97463   0.97472  232.168
 4055.00    0.94107   0.95793   -1.000
 4056.00    0.93923   0.94443  243.217
 4057.00    0.96381   0.93585   -1.000
 4058.00    0.98722   0.94159   -1.000
 4059.00    1.00502   0.96398   -1.000
 4060.00    1.02380   0.98564   -1.000
 4061.00    1.00545   0.97859   -1.000
 4062.00    0.96294   0.93440   -1.000
 4063.00    0.92777   0.88280   -1.000
 4064.00    0.89870   0.85894   -1.000
 4065.00    0.89682   0.86752   -1.000
 4066.00    0.92558   0.89331   -1.000
 4067.00    0.93900   0.92383   -1.000
 4068.00    0.97755   0.95199   -1.000
 4069.00    1.04765   0.96597   -1.000
 4070.00    1.04322   0.95350   -1.000
 4071.00    0.99533   0.92561   -1.000
 4072.00    0.96800   0.91302   -1.000
 4073.00    0.98517   0.92584   -1.000
 4074.00    1.01395   0.94001   -1.000
 4075.00    0.99497   0.92677   -1.000
 4076.00    0.93778   0.88757   -1.000
 4077.00    0.88970   0.85414   -1.000
 4078.00    0.88794   0.85541   -1.000
 4079.00    0.92111   0.89675   -1.000
 4080.00    0.97879   0.95549   -1.000
 4081.00    1.02759   0.99804   -1.000
 4082.00    1.05553   1.00637   -1.000
 4083.00    1.01979   0.98790   -1.000
 4084.00    0.95933   0.96727  231.093
 4085.00    0.96296   0.96664  237.393
 4086.00    1.00559   0.99150   -1.000
 4087.00    1.06963   1.02948   -1.000
 4088.00    1.12232   1.06139   -1.000
 4089.00    1.14254   1.07398   -1.000
 4090.00    1.11462   1.06645   -1.000
 4091.00    1.06203   1.04978  217.105
 4092.00    1.04335   1.03614  220.139
 4093.00    1.04498   1.02537   -1.000
 4094.00    1.02638   1.00885   -1.000
 4095.00    1.00403   0.98194   -1.000
 4096.00    0.98755   0.95024   -1.000
 4097.00    0.96696   0.92332   -1.000
 4098.00    0.95404   0.89784   -1.000
 4099.00    0.90976   0.85837   -1.000
 4100.00    0.84919   0.80225   -1.000
 4101.00    0.81114   0.75312   -1.000
 4102.00    0.79590   0.74007   -1.000
 4103.00    0.82011   0.77468   -1.000
 4104.00    0.87583   0.84028   -1.000
 4105.00    0.93322   0.90564   -1.000
 4106.00    0.97819   0.95133   -1.000
 4107.00    1.01140   0.97476   -1.000
 4108.00    0.99994   0.97927   -1.000
 4109.00    0.98619   0.97311  241.113
 4110.00    0.99680   0.96727   -1.000
 4111.00    0.98603   0.97011   -1.000
 4112.00    0.97689   0.98370  249.811
 4113.00    0.99340   1.00457  249.827
 4114.00    1.01916   1.02633  245.220
 4115.00    1.04563   1.04157  240.339
 4116.00    1.05583   1.04331  236.466
 4117.00    1.05262   1.02926   -1.000
 4118.00    1.03420   1.00688   -1.000
 4119.00    1.00036   0.98937  236.349
 4120.00    1.00145   0.98558   -1.000
 4121.00    1.00752   0.99156   -1.000
 4122.00    0.98540   0.99866   -1.000
 4123.00    0.98293   1.00615   -1.000
 4124.00    1.01323   1.01553  244.129
 4125.00    1.04309   1.02283   -1.000
 4126.00    1.03459   1.02078   -1.000
 4127.00    0.99487   1.00873   -1.000
 4128.00    0.98510   0.99524  238.209
 4129.00    1.02464   0.98595   -1.000
 4130.00    1.04205   0.97369   -1.000
 4131.00    1.00057   0.95189   -1.000
 4132.00    0.95384   0.92851   -1.000
 4133.00    0.92908   0.92091  255.543
 4134.00    0.93751   0.93937  263.742
 4135.00    0.97832   0.97690  268.106
 4136.00    1.02548   1.01731  263.624
 4137.00    1.05349   1.04943  252.272
 4138.00    1.05492   1.07067   -1.000
 4139.00    1.06804   1.07947  236.096
 4140.00    1.08097   1.06799   -1.000
 4141.00    1.04248   1.02854   -1.000
 4142.00    0.96582   0.96959  232.227
 4143.00    0.89882   0.92166   -1.000
 4144.00    0.88862   0.91406   -1.000
 4145.00    0.94209   0.94691  275.594
 4146.00    1.00228   0.99235   -1.000
 4147.00    1.02723   1.02069  263.030
 4148.00    1.01614   1.02390  250.213
 4149.00    0.99454   1.01424   -1.000
 4150.00    0.98167   1.00634   -1.000
 4151.00    0.98819   1.00355   -1.000
 4152.00    1.00011   0.99986  256.775
 4153.00    0.97257   0.99018   -1.000
 4154.00    0.94338   0.97837   -1.000
 4155.00    0.94873   0.97330   -1.000
 4156.00    0.97039   0.98002  259.436
 4157.00    0.98009   0.99725   -1.000
 4158.00    1.03551   1.02026   -1.000
 4159.00    1.27803   1.04306   -1.000
 4160.00    1.28930   1.06111   -1.000
 4161.00    0.84512   1.07389   -1.000
 4162.00    0.77662   1.08323   -1.000
 4163.00    1.08485   1.08854  241.808
 4164.00    1.09678   1.08613  236.667
 4165.00    1.00569   1.07350   -1.000
 4166.00    0.99293   1.05364   -1.000
 4167.00    0.97293   1.03765   -1.000
 4168.00    0.96645   1.03436   -1.000
 4169.00    0.98272   1.03700   -1.000
 4170.00    0.98136   1.02653   -1.000
 4171.00    0.94331   0.99230   -1.000
 4172.00    0.90802   0.94930   -1.000
 4173.00    0.89518   0.92528   -1.000
 4174.00    0.90366   0.93233   -1.000
 4175.00    0.94030   0.95662   -1.000
 4176.00    0.97858   0.97638  277.041
 4177.00    0.98626   0.98658  266.823
 4178.00    0.97852   0.99584   -1.000
 4179.00    0.96400   1.00798   -1.000
 4180.00    0.96915   1.01630   -1.000
 4181.00    0.96921   1.01520   -1.000
 4182.00    0.94548   1.01204   -1.000
 4183.00    0.95983   1.01941   -1.000
 4184.00    1.01220   1.03386   -1.000
 4185.00    1.04132   1.03879  250.568
 4186.00    1.02012   1.02555  245.768
 4187.00    0.97928   1.00586   -1.000
 4188.00    0.96376   0.99901   -1.000
 4189.00    0.98685   1.00738   -1.000
 4190.00    1.01228   1.02033  258.618
 4191.00    1.02126   1.03422   -1.000
 4192.00    1.04773   1.05001  250.551
 4193.00    1.06684   1.06145  248.231
 4194.00    1.03584   1.05553   -1.000
 4195.00    0.99961   1.02649   -1.000
 4196.00    0.96833   0.98700   -1.000
 4197.00    0.92535   0.95517   -1.000
 4198.00    0.89291   0.93892   -1.000
 4199.00    0.90651   0.93458   -1.000
 4200.00    0.94563   0.93667  271.608
 4201.00    0.94380   0.94228  270.365
 4202.00    0.92617   0.95124   -1.000
 4203.00    0.94117   0.96797   -1.000
 4204.00    0.96535   0.99361   -1.000
 4205.00    0.99119   1.02194   -1.000
 4206.00    1.01351   1.04815   -1.000
 4207.00    1.02965   1.06979   -1.000
 4208.00    1.05471   1.08137   -1.000
 4209.00    1.07387   1.08161  242.318
 4210.00    1.06371   1.07811   -1.000
 4211.00    1.04877   1.07905   -1.000
 4212.00    1.04902   1.08109   -1.000
 4213.00    1.02692   1.06917   -1.000
 4214.00    0.99745   1.03958   -1.000
 4215.00    0.98760   1.01098   -1.000
 4216.00    0.97416   1.00607   -1.000
 4217.00    1.00582   1.03382   -1.000
 4218.00    1.06650   1.07768   -1.000
 4219.00    1.08595   1.11430   -1.000
 4220.00    1.09616   1.13193   -1.000
 4221.00    1.12842   1.12619  226.073
 4222.00    1.10926   1.09260   -1.000
 4223.00    1.04168   1.02990  221.459
 4224.00    0.96780   0.94421   -1.000
 4225.00    0.87575   0.85515   -1.000
 4226.00    0.79997   0.79760  259.617
 4227.00    0.76991   0.80549   -1.000
 4228.00    0.82569   0.88017   -1.000
 4229.00    0.95389   0.98108   -1.000
 4230.00    1.02822   1.05578   -1.000
 4231.00    1.05701   1.08223   -1.000
 4232.00    1.05608   1.07362   -1.000
 4233.00    1.03298   1.05098   -1.000
 4234.00    1.04994   1.02691   -1.000
 4235.00    1.03725   1.00818   -1.000
 4236.00    1.01021   0.99751  241.979
 4237.00    0.99184   0.99713  245.779
 4238.00    0.98227   1.00926   -1.000
 4239.00    0.99449   1.03081   -1.000
 4240.00    1.02100   1.05485   -1.000
 4241.00    1.05524   1.07636   -1.000
 4242.00    1.08035   1.09453   -1.000
 4243.00    1.10078   1.11135   -1.000
 4244.00    1.11920   1.12616  233.649
 4245.00    1.12299   1.12771  231.294
 4246.00    1.11278   1.10379  226.798
 4247.00    1.05993   1.06088  225.242
 4248.00    0.99600   1.01891   -1.000
 4249.00    0.97990   0.99436   -1.000
 4250.00    0.97956   0.99371   -1.000
 4251.00    0.98129   1.01165   -1.000
 4252.00    0.99335   1.03037   -1.000
 4253.00    1.02087   1.03360   -1.000
 4254.00    1.01492   1.02589  243.783
 4255.00    0.99201   1.02809   -1.000
 4256.00    1.02851   1.04845   -1.000
 4257.00    1.07465   1.06454  246.987
 4258.00    1.08560   1.04947   -1.000
 4259.00    1.04710   1.00902   -1.000
 4260.00    0.98533   0.97845  237.387
 4261.00    0.96006   0.98875   -1.000
 4262.00    1.00236   1.03831   -1.000
 4263.00    1.05692   1.09910   -1.000
 4264.00    1.09947   1.14187   -1.000
 4265.00    1.13956   1.15538   -1.000
 4266.00    1.14886   1.14594  223.104
 4267.00    1.10057   1.12132   -1.000
 4268.00    1.06862   1.08259   -1.000
 4269.00    1.04289   1.03046  226.955
 4270.00    0.97635   0.97094  234.358
 4271.00    0.92577   0.91903  242.284
 4272.00    0.89042   0.89191  254.564
 4273.00    0.87477   0.89634   -1.000
 4274.00    0.87998   0.92497   -1.000
 4275.00    0.90932   0.96946   -1.000
 4276.00    0.95793   1.02538   -1.000
 4277.00    1.04881   1.07728   -1.000
 4278.00    1.09022   1.10086   -1.000
 4279.00    1.05424   1.08966   -1.000
 4280.00    1.01515   1.06309   -1.000
 4281.00    1.00473   1.04825   -1.000
 4282.00    0.99638   1.05234   -1.000
 4283.00    1.00501   1.05814   -1.000
 4284.00    1.01808   1.05109   -1.000
 4285.00    0.99700   1.03297   -1.000
 4286.00    0.98945   1.01233   -1.000
 4287.00    0.97474   0.99118   -1.000
 4288.00    0.94572   0.96244   -1.000
 4289.00    0.89567   0.92850   -1.000
 4290.00    0.84047   0.91065   -1.000
 4291.00    0.86141   0.92614   -1.000
 4292.00    0.93018   0.96518   -1.000
 4293.00    0.98653   0.99810   -1.000
 4294.00    1.00576   1.00512  265.400
 4295.00    0.98484   0.98977  253.493
 4296.00    0.93391   0.96030   -1.000
 4297.00    0.89586   0.91610   -1.000
 4298.00    0.85921   0.85971  260.387
 4299.00    0.80014   0.80623  269.422
 4300.00    0.73561   0.77332   -1.000
 4301.00    0.72788   0.76642   -1.000
 4302.00    0.73988   0.77692   -1.000
 4303.00    0.76741   0.79253   -1.000
 4304.00    0.77166   0.80452   -1.000
 4305.00    0.77887   0.80468   -1.000
 4306.00    0.77883   0.78730   -1.000
 4307.00    0.75339   0.75825  305.243
 4308.00    0.72651   0.73541   -1.000
 4309.00    0.71755   0.73693   -1.000
 4310.00    0.71821   0.76670   -1.000
 4311.00    0.76569   0.81415   -1.000
 4312.00    0.80805   0.86788   -1.000
 4313.00    0.84552   0.92809   -1.000
 4314.00    0.92212   1.00283   -1.000
 4315.00    1.02087   1.09115   -1.000
 4316.00    0.76609   1.17731   -1.000
 4317.00    0.50075   1.23853   -1.000
 4318.00    1.02292   1.26150   -1.000
 4319.00    1.24086   1.25227  211.105
 4320.00    1.18827   1.22416   -1.000
 4321.00    1.17788   1.18002  208.571
 4322.00    1.13121   1.11557  212.558
 4323.00    1.03389   1.03347  218.414
 4324.00    0.95484   0.95445  227.278
 4325.00    0.89330   0.91567   -1.000
 4326.00    0.88713   0.94363   -1.000
 4327.00    0.95477   1.02613   -1.000
 4328.00    1.06012   1.11777   -1.000
 4329.00    1.14490   1.17715   -1.000
 4330.00    1.18592   1.19776   -1.000
 4331.00    1.18604   1.20049   -1.000
 4332.00    1.17032   1.20640   -1.000
 4333.00    1.15938   1.21821   -1.000
 4334.00    1.19293   1.22347   -1.000
 4335.00    1.21772   1.20525  211.632
 4336.00    1.19017   1.15052   -1.000
 4337.00    1.08810   1.06134   -1.000
 4338.00    0.99239   0.96012   -1.000
 4339.00    0.90146   0.88183   -1.000
 4340.00    0.84721   0.85335  259.530
 4341.00    0.88349   0.88225  282.603
 4342.00    0.98103   0.95347   -1.000
 4343.00    1.06868   1.03407   -1.000
 4344.00    1.09465   1.09765  267.940
 4345.00    1.10248   1.14029   -1.000
 4346.00    1.13079   1.17078   -1.000
 4347.00    1.15256   1.19705   -1.000
 4348.00    1.16654   1.21622   -1.000
 4349.00    1.19320   1.21132   -1.000
 4350.00    1.16870   1.17040  215.818
 4351.00    1.10429   1.11020  213.851
 4352.00    1.04986   1.06983   -1.000
 4353.00    1.02560   1.07605   -1.000
 4354.00    1.04489   1.11781   -1.000
 4355.00    1.09675   1.16348   -1.000
 4356.00    1.14690   1.19274   -1.000
 4357.00    1.17878   1.20207   -1.000
 4358.00    1.17305   1.19607   -1.000
 4359.00    1.14276   1.18874   -1.000
 4360.00    1.16438   1.19654   -1.000
 4361.00    1.19690   1.22026   -1.000
 4362.00    1.20279   1.24721   -1.000
 4363.00    1.22163   1.26810   -1.000
 4364.00    1.22508   1.28058   -1.000
 4365.00    1.23917   1.27962   -1.000
 4366.00    1.25387   1.25823  206.881
 4367.00    1.18395   1.22324   -1.000
 4368.00    1.13819   1.19457   -1.000
 4369.00    1.16422   1.18208   -1.000
 4370.00    1.19196   1.17861  220.746
 4371.00    1.17443   1.17153  221.158
 4372.00    1.13769   1.15174   -1.000
 4373.00    1.11469   1.11806  218.242
 4374.00    1.08275   1.08346  219.003
 4375.00    1.05947   1.07202   -1.000
 4376.00    1.07335   1.09632   -1.000
 4377.00    1.12175   1.14217   -1.000
 4378.00    1.17534   1.17960  234.872
 4379.00    1.17187   1.18817   -1.000
 4380.00    1.15007   1.16277   -1.000
 4381.00    1.12757   1.10169   -1.000
 4382.00    1.07117   1.01098   -1.000
 4383.00    0.95943   0.92468   -1.000
 4384.00    0.86343   0.89049   -1.000
 4385.00    0.89677   0.92734   -1.000
 4386.00    1.00080   1.00457  285.968
 4387.00    1.07526   1.06980  276.110
 4388.00    1.11528   1.09761   -1.000
 4389.00    1.11497   1.09970   -1.000
 4390.00    1.10429   1.09948  227.592
 4391.00    1.09568   1.10915   -1.000
 4392.00    1.10168   1.12503   -1.000
 4393.00    1.14768   1.13536  229.538
 4394.00    1.15601   1.13726   -1.000
 4395.00    1.12227   1.14535   -1.000
 4396.00    1.13201   1.17040   -1.000
 4397.00    1.18012   1.19840   -1.000
 4398.00    1.22981   1.20465   -1.000
 4399.00    1.18081   1.18353  213.986
 4400.00    1.12601   1.15714   -1.000
 4401.00    1.10473   1.14444   -1.000
 4402.00    1.14377   1.13615  224.142
 4403.00    1.15438   1.11235   -1.000
 4404.00    1.08042   1.07341  223.677
 4405.00    1.02310   1.04703   -1.000
 4406.00    1.02964   1.05357   -1.000
 4407.00    1.07631   1.08127  243.915
 4408.00    1.09721   1.11338   -1.000
 4409.00    1.12911   1.15267   -1.000
 4410.00    1.17402   1.20317   -1.000
 4411.00    1.22978   1.24976   -1.000
 4412.00    1.24663   1.26636   -1.000
 4413.00    1.25080   1.24226  209.357
 4414.00    1.22387   1.19181   -1.000
 4415.00    1.14609   1.14601  204.608
 4416.00    1.09224   1.13649   -1.000
 4417.00    1.14272   1.16876   -1.000
 4418.00    1.21914   1.21997  228.243
 4419.00    1.24486   1.26184   -1.000
 4420.00    1.23705   1.27603   -1.000
 4421.00    1.23339   1.26154   -1.000
 4422.00    1.21386   1.23693   -1.000
 4423.00    1.21206   1.22313  207.197
 4424.00    1.18852   1.22416   -1.000
 4425.00    1.17574   1.23029   -1.000
 4426.00    1.18369   1.23393   -1.000
 4427.00    1.18552   1.23671   -1.000
 4428.00    1.21032   1.23919   -1.000
 4429.00    1.23589   1.23882  213.587
 4430.00    1.21645   1.23668   -1.000
 4431.00    1.19981   1.23663   -1.000
 4432.00    1.19685   1.23399   -1.000
 4433.00    1.20830   1.21592  213.725
 4434.00    1.16314   1.18459   -1.000
 4435.00    1.11865   1.16532   -1.000
 4436.00    1.12969   1.18367   -1.000
 4437.00    1.18284   1.23666   -1.000
 4438.00    1.24145   1.29236   -1.000
 4439.00    1.25623   1.31775   -1.000
 4440.00    1.27157   1.30092   -1.000
 4441.00    1.25790   1.25699  198.437
 4442.00    1.21533   1.21623  200.541
 4443.00    1.17203   1.20508   -1.000
 4444.00    1.15375   1.23030   -1.000
 4445.00    1.18813   1.27576   -1.000
 4446.00    1.25047   1.31489   -1.000
 4447.00    1.26987   1.33248   -1.000
 4448.00    1.28620   1.33410   -1.000
 4449.00    1.31165   1.33090   -1.000
 4450.00    1.30157   1.32504   -1.000
 4451.00    1.28031   1.31424   -1.000
 4452.00    1.28002   1.29523   -1.000
 4453.00    1.26640   1.26186  207.292
 4454.00    1.21219   1.21592  206.529
 4455.00    1.14523   1.17660   -1.000
 4456.00    1.13406   1.16211   -1.000
 4457.00    1.16276   1.16832  227.268
 4458.00    1.16462   1.17779   -1.000
 4459.00    1.15244   1.17950   -1.000
 4460.00    1.14027   1.17639   -1.000
 4461.00    1.14239   1.17889   -1.000
 4462.00    1.17191   1.19563   -1.000
 4463.00    1.22515   1.22631  226.415
 4464.00    1.25507   1.25844  226.262
 4465.00    1.24196   1.27795   -1.000
 4466.00    1.23391   1.28117   -1.000
 4467.00    1.24971   1.27298   -1.000
 4468.00    1.25975   1.26093  209.014
 4469.00    1.22595   1.25439   -1.000
 4470.00    1.22676   1.26352   -1.000
 4471.00    1.26999   1.29219   -1.000
 4472.00    1.31160   1.33120   -1.000
 4473.00    1.34947   1.36593   -1.000
 4474.00    1.32728   1.38850   -1.000
 4475.00    1.33717   1.40150   -1.000
 4476.00    1.36695   1.41222   -1.000
 4477.00    1.38017   1.41790   -1.000
 4478.00    1.37879   1.40378   -1.000
 4479.00    1.31608   1.36243   -1.000
 4480.00    1.24870   1.30849   -1.000
 4481.00    1.20547   1.27142   -1.000
 4482.00    1.21614   1.27235   -1.000
 4483.00    1.26379   1.31023   -1.000
 4484.00    1.32197   1.36438   -1.000
 4485.00    1.37362   1.40775   -1.000
 4486.00    1.37870   1.42207   -1.000
 4487.00    1.37858   1.40408   -1.000
 4488.00    1.33576   1.36613   -1.000
 4489.00    1.29050   1.33127   -1.000
 4490.00    1.24969   1.32031   -1.000
 4491.00    1.27466   1.33469   -1.000
 4492.00    1.30715   1.35297   -1.000
 4493.00    1.33252   1.35106   -1.000
 4494.00    1.32227   1.32833  198.945
 4495.00    1.30351   1.30810  197.755
 4496.00    1.29538   1.31108   -1.000
 4497.00    1.26934   1.33674   -1.000
 4498.00    1.32207   1.36771   -1.000
 4499.00    1.36218   1.38678   -1.000
 4500.00    1.36274   1.39022   -1.000
 4501.00    1.34157   1.39107   -1.000
 4502.00    1.33530   1.40604   -1.000
 4503.00    1.35595   1.43601   -1.000
 4504.00    1.40049   1.46704   -1.000
 4505.00    1.39976   1.48453   -1.000
 4506.00    1.40615   1.48355   -1.000
 4507.00    1.40767   1.47139   -1.000
 4508.00    1.41031   1.46076   -1.000
 4509.00    1.43774   1.45833   -1.000
 4510.00    1.44673   1.46021  188.790
 4511.00    1.43326   1.45672   -1.000
 4512.00    1.41719   1.44147   -1.000
 4513.00    1.39619   1.41928   -1.000
 4514.00    1.36462   1.40065   -1.000
 4515.00    1.36051   1.39086   -1.000
 4516.00    1.33965   1.38797   -1.000
 4517.00    1.32251   1.38613   -1.000
 4518.00    1.31081   1.38528   -1.000
 4519.00    1.30105   1.39237   -1.000
 4520.00    1.34545   1.40630   -1.000
 4521.00    1.38576   1.41487   -1.000
 4522.00    1.36672   1.40859   -1.000
 4523.00    1.34928   1.38911   -1.000
 4524.00    1.31911   1.36412   -1.000
 4525.00    1.27984   1.33633   -1.000
 4526.00    1.25281   1.30303   -1.000
 4527.00    1.21285   1.26513   -1.000
 4528.00    1.18580   1.23303   -1.000
 4529.00    1.18792   1.22104   -1.000
 4530.00    1.20628   1.23241   -1.000
 4531.00    1.22979   1.25558   -1.000
 4532.00    1.25633   1.27193   -1.000
 4533.00    1.25564   1.26892   -1.000
 4534.00    1.22139   1.25378   -1.000
 4535.00    1.19458   1.25062   -1.000
 4536.00    1.22042   1.28003   -1.000
 4537.00    1.29493   1.33431   -1.000
 4538.00    1.35868   1.38282   -1.000
 4539.00    1.38449   1.40302   -1.000
 4540.00    1.37842   1.39779   -1.000
 4541.00    1.38791   1.38688  190.469
 4542.00    1.38843   1.38408  193.398
 4543.00    1.36017   1.38621   -1.000
 4544.00    1.34212   1.38327   -1.000
 4545.00    1.31520   1.37305   -1.000
 4546.00    1.33402   1.36170   -1.000
 4547.00    1.24613   1.35139   -2.000
 4548.00    0.52451   1.33798   -2.000
 4549.00   -0.27852   1.32397   -2.000
 4550.00   -0.15328   1.31979    0.000
 4551.00    0.36058   1.32891   -1.000
 4552.00    0.63508   1.33957   -1.000
 4553.00    0.42125   1.33877   -1.000
 4554.00    1.29445   1.33039   -1.000
 4555.00    1.30678   1.33015   -1.000
 4556.00    1.33504   1.35015   -1.000
 4557.00    1.38435   1.38735  208.091
 4558.00    1.38970   1.42477   -1.000
 4559.00    1.42415   1.44950   -1.000
 4560.00    1.47876   1.46089   -1.000
 4561.00    1.46010   1.46065  186.954
 4562.00    1.43521   1.44722  187.891
 4563.00    1.39676   1.42075   -1.000
 4564.00    1.33062   1.39137   -1.000
 4565.00    1.31008   1.37678   -1.000
 4566.00    1.34601   1.38730   -1.000
 4567.00    1.39876   1.41622   -1.000
 4568.00    1.45282   1.44364  196.768
 4569.00    1.42534   1.45187   -1.000
 4570.00    1.40233   1.43847   -1.000
 4571.00    1.39065   1.41611   -1.000
 4572.00    1.35351   1.40365   -1.000
 4573.00    1.35092   1.41194   -1.000
 4574.00    1.44405   1.43312  197.959
 4575.00    1.45292   1.45000  195.039
 4576.00    1.41962   1.45407   -1.000
 4577.00    1.39073   1.44587   -1.000
 4578.00    1.37313   1.42601   -1.000
 4579.00    1.36695   1.39616   -1.000
 4580.00    1.33782   1.36482   -1.000
 4581.00    1.31925   1.34463   -1.000
 4582.00    1.34659   1.34152  200.411
 4583.00    1.38701   1.34900   -1.000
 4584.00    1.37348   1.35617   -1.000
 4585.00    1.33666   1.35983   -1.000
 4586.00    1.33454   1.36729   -1.000
 4587.00    1.37414   1.38724  199.266
 4588.00    1.37785   1.41618   -1.000
 4589.00    1.40817   1.43859   -1.000
 4590.00    1.43390   1.44251  190.981
 4591.00    1.43463   1.42811  187.884
 4592.00    1.37614   1.40489   -1.000
 4593.00    1.34718   1.38590   -1.000
 4594.00    1.34988   1.37806   -1.000
 4595.00    1.35631   1.37753   -1.000
 4596.00    1.38341   1.38019  197.376
 4597.00    1.38685   1.38641  195.643
 4598.00    1.37553   1.39373   -1.000
 4599.00    1.37355   1.39699   -1.000
 4600.00    1.37761   1.39480   -1.000
 4601.00    1.36202   1.39124   -1.000
 4602.00    1.35622   1.39132   -1.000
 4603.00    1.38268   1.39506  196.855
 4604.00    1.39221   1.39895  196.729
 4605.00    1.39610   1.40402  194.491
 4606.00    1.38707   1.41648   -1.000
 4607.00    1.37973   1.43980   -1.000
 4608.00    1.42902   1.46908   -1.000
 4609.00    1.48817   1.49347  189.824
 4610.00    1.51533   1.50272  185.918
 4611.00    1.48580   1.49475  182.332
 4612.00    1.44004   1.47843   -1.000
 4613.00    1.43969   1.46551   -1.000
 4614.00    1.43396   1.46321   -1.000
 4615.00    1.45133   1.47034   -1.000
 4616.00    1.47311   1.47824  187.274
 4617.00    1.44322   1.48024   -1.000
 4618.00    1.42747   1.47696   -1.000
 4619.00    1.43573   1.47404   -1.000
 4620.00    1.44647   1.47723   -1.000
 4621.00    1.47469   1.48670  186.737
 4622.00    1.48630   1.49599  186.125
 4623.00    1.46350   1.49818   -1.000
 4624.00    1.48934   1.49358  181.652
 4625.00    1.48819   1.48759  181.850
 4626.00    1.45598   1.48336   -1.000
 4627.00    1.45988   1.48157   -1.000
 4628.00    1.45961   1.48181   -1.000
 4629.00    1.44712   1.48308   -1.000
 4630.00    1.45940   1.48543   -1.000
 4631.00    1.48514   1.48828  185.949
 4632.00    1.45439   1.48780   -1.000
 4633.00    1.43987   1.48046   -1.000
 4634.00    1.43577   1.46850   -1.000
 4635.00    1.43255   1.45685   -1.000
 4636.00    1.43331   1.44578  187.208
 4637.00    1.41392   1.43338   -1.000
 4638.00    1.40645   1.42188   -1.000
 4639.00    1.42159   1.41647  190.667
 4640.00    1.40262   1.42209   -1.000
 4641.00    1.41905   1.43883   -1.000
 4642.00    1.44161   1.45771   -1.000
 4643.00    1.46845   1.46534  188.675
 4644.00    1.47234   1.45388   -1.000
 4645.00    1.44481   1.42551   -1.000
 4646.00    1.40128   1.39018  184.105
 4647.00    1.36706   1.36455  188.034
 4648.00    1.33586   1.36279   -1.000
 4649.00    1.36386   1.38481   -1.000
 4650.00    1.43262   1.41869  197.560
 4651.00    1.45444   1.44827  193.618
 4652.00    1.45135   1.46122  189.419
 4653.00    1.44552   1.45561  187.375
 4654.00    1.43819   1.43798  187.146
 4655.00    1.41601   1.42074  187.270
 4656.00    1.38306   1.41878   -1.000
 4657.00    1.37523   1.44045   -1.000
 4658.00    1.40716   1.48042   -1.000
 4659.00    1.48555   1.52067   -1.000
 4660.00    1.55203   1.54154  186.077
 4661.00    1.52799   1.53548  179.468
 4662.00    1.46084   1.51100   -1.000
 4663.00    1.44270   1.48146   -1.000
 4664.00    1.47382   1.45248   -1.000
 4665.00    1.43247   1.41868  183.914
 4666.00    1.34275   1.37592   -1.000
 4667.00    1.29576   1.33540   -1.000
 4668.00    1.26923   1.31815   -1.000
 4669.00    1.30736   1.33608   -1.000
 4670.00    1.39800   1.37768   -1.000
 4671.00    1.45247   1.41849   -1.000
 4672.00    1.45575   1.44335  198.505
 4673.00    1.43946   1.45332  190.646
 4674.00    1.45245   1.45911  186.400
 4675.00    1.47464   1.46947  185.728
 4676.00    1.46331   1.48147   -1.000
 4677.00    1.49032   1.48282  185.230
 4678.00    1.52325   1.46666   -1.000
 4679.00    1.46926   1.43931   -1.000
 4680.00    1.40727   1.41347  182.193
 4681.00    1.39765   1.40026  186.257
 4682.00    1.38973   1.40398  189.808
 4683.00    1.41161   1.42065  192.676
 4684.00    1.45627   1.44005   -1.000
 4685.00    1.48166   1.45246   -1.000
 4686.00    1.48766   1.45537   -1.000
 4687.00    1.47163   1.45212   -1.000
 4688.00    1.44726   1.44721  184.996
 4689.00    1.44445   1.44316  185.208
 4690.00    1.45690   1.44031  186.138
 4691.00    1.44989   1.43864  186.090
 4692.00    1.46602   1.44116   -1.000
 4693.00    1.47970   1.45184   -1.000
 4694.00    1.50300   1.46869   -1.000
 4695.00    1.51387   1.48353   -1.000
 4696.00    1.51064   1.48718   -1.000
 4697.00    1.50648   1.47397   -1.000
 4698.00    1.42687   1.44704   -1.000
 4699.00    1.40486   1.41890  178.265
 4700.00    1.39910   1.39939  183.701
 4701.00    1.40231   1.38645  188.684
 4702.00    1.38582   1.37601  190.053
 4703.00    1.39014   1.37275   -1.000
 4704.00    1.40043   1.38168   -1.000
 4705.00    1.43705   1.39701   -1.000
 4706.00    1.42087   1.40546  193.897
 4707.00    1.42918   1.40037   -1.000
 4708.00    1.38794   1.38941  188.259
 4709.00    1.37062   1.38669   -1.000
 4710.00    1.39654   1.39947  194.956
 4711.00    1.43902   1.42204   -1.000
 4712.00    1.49421   1.44050   -1.000
 4713.00    1.52092   1.44378   -1.000
 4714.00    1.48585   1.43635   -1.000
 4715.00    1.44273   1.43564  182.688
 4716.00    1.45315   1.45162  184.908
 4717.00    1.49073   1.47926  187.945
 4718.00    1.50790   1.50730  187.144
 4719.00    1.50311   1.52716   -1.000
 4720.00    1.53107   1.53583  180.120
 4721.00    1.53768   1.53424  179.211
 4722.00    1.48859   1.52728   -1.000
 4723.00    1.47868   1.52345   -1.000
 4724.00    1.52565   1.52596  179.927
 4725.00    1.54768   1.52480   -1.000
 4726.00    1.50797   1.50644  179.492
 4727.00    1.46159   1.46873  177.841
 4728.00    1.43722   1.42614  178.852
 4729.00    1.42259   1.39946   -1.000
 4730.00    1.39201   1.39718  190.526
 4731.00    1.39029   1.41219   -1.000
 4732.00    1.43682   1.43367  192.687
 4733.00    1.42946   1.45449   -1.000
 4734.00    1.45173   1.46919   -1.000
 4735.00    1.47687   1.47385  186.899
 4736.00    1.47798   1.47094  185.400
 4737.00    1.50131   1.46881   -1.000
 4738.00    1.49826   1.47406   -1.000
 4739.00    1.48567   1.48462  185.688
 4740.00    1.48075   1.49187  185.429
 4741.00    1.48903   1.49281  183.243
 4742.00    1.50029   1.49376  183.610
 4743.00    1.49896   1.49809  184.613
 4744.00    1.50671   1.50333  184.558
 4745.00    1.50114   1.50977  182.904
 4746.00    1.50143   1.51904   -1.000
 4747.00    1.52795   1.52995  181.685
 4748.00    1.53213   1.54017  181.613
 4749.00    1.55359   1.54754  180.102
 4750.00    1.54113   1.55090  178.454
 4751.00    1.54255   1.54893  178.251
 4752.00    1.51588   1.53968   -1.000
 4753.00    1.49863   1.52411   -1.000
 4754.00    1.47155   1.50735   -1.000
 4755.00    1.49424   1.49569  182.296
 4756.00    1.45932   1.49323   -1.000
 4757.00    1.47267   1.49974   -1.000
 4758.00    1.46913   1.51135   -1.000
 4759.00    1.47406   1.52289   -1.000
 4760.00    1.47263   1.52732   -1.000
 4761.00    1.44883   1.51729   -1.000
 4762.00    1.46773   1.49274   -1.000
 4763.00    1.42001   1.46288   -1.000
 4764.00    1.39578   1.43893   -1.000
 4765.00    1.38693   1.42560   -1.000
 4766.00    1.39260   1.42301   -1.000
 4767.00    1.41606   1.43401   -1.000
 4768.00    1.43815   1.46052   -1.000
 4769.00    1.48482   1.49470  193.040
 4770.00    1.50231   1.52094   -1.000
 4771.00    1.49588   1.52966   -1.000
 4772.00    1.48289   1.52789   -1.000
 4773.00    1.46667   1.53105   -1.000
 4774.00    1.50440   1.54577   -1.000
 4775.00    1.52613   1.56474   -1.000
 4776.00    1.52301   1.57743   -1.000
 4777.00    1.54534   1.58167   -1.000
 4778.00    1.54158   1.58026   -1.000
 4779.00    1.51990   1.57396   -1.000
 4780.00    1.51725   1.56331   -1.000
 4781.00    1.51227   1.55081   -1.000
 4782.00    1.48112   1.53807   -1.000
 4783.00    1.47284   1.52594   -1.000
 4784.00    1.47579   1.51616   -1.000
 4785.00    1.45619   1.50871   -1.000
 4786.00    1.47147   1.50069   -1.000
 4787.00    1.46621   1.49196   -1.000
 4788.00    1.44219   1.48749   -1.000
 4789.00    1.45579   1.48987   -1.000
 4790.00    1.48606   1.49787  191.436
 4791.00    1.46893   1.51213   -1.000
 4792.00    1.47888   1.53418   -1.000
 4793.00    1.49803   1.56343   -1.000
 4794.00    1.56373   1.59457   -1.000
 4795.00    1.56421   1.61737   -1.000
 4796.00    1.57365   1.62259   -1.000
 4797.00    1.54418   1.60754   -1.000
 4798.00    1.51082   1.57798   -1.000
 4799.00    1.50663   1.54831   -1.000
 4800.00    1.47995   1.53522   -1.000
 4801.00    1.49938   1.54522   -1.000
 4802.00    1.53629   1.56963   -1.000
 4803.00    1.56418   1.59066   -1.000
 4804.00    1.55658   1.59381   -1.000
 4805.00    1.52731   1.57946   -1.000
 4806.00    1.51290   1.55976   -1.000
 4807.00    1.54086   1.54558  182.208
 4808.00    1.51487   1.54059   -1.000
 4809.00    1.50531   1.54465   -1.000
 4810.00    1.52459   1.55536   -1.000
 4811.00    1.54492   1.56706   -1.000
 4812.00    1.56746   1.57496  184.283
 4813.00    1.53228   1.57870   -1.000
 4814.00    1.53120   1.58189   -1.000
 4815.00    1.54518   1.58921   -1.000
 4816.00    1.55032   1.60211   -1.000
 4817.00    1.56646   1.61733   -1.000
 4818.00    1.59037   1.62992   -1.000
 4819.00    1.59201   1.63672   -1.000
 4820.00    1.57805   1.63674   -1.000
 4821.00    1.53715   1.62684   -1.000
 4822.00    1.51907   1.60262   -1.000
 4823.00    1.51399   1.56971   -1.000
 4824.00    1.46923   1.54498   -1.000
 4825.00    1.47885   1.54185   -1.000
 4826.00    1.52141   1.55707   -1.000
 4827.00    1.52246   1.57316   -1.000
 4828.00    1.53533   1.57663   -1.000
 4829.00    1.51588   1.56885   -1.000
 4830.00    1.49558   1.55707   -1.000
 4831.00    1.50212   1.54499   -1.000
 4832.00    1.49200   1.53541   -1.000
 4833.00    1.50309   1.53443   -1.000
 4834.00    1.51688   1.54509   -1.000
 4835.00    1.56859   1.56160  185.358
 4836.00    1.58792   1.57358  182.258
 4837.00    1.52368   1.57501   -1.000
 4838.00    1.49295   1.56631   -1.000
 4839.00    1.49967   1.55043   -1.000
 4840.00    1.47527   1.53352   -1.000
 4841.00    1.47147   1.52291   -1.000
 4842.00    1.50634   1.52037  186.639
 4843.00    1.55765   1.52365   -1.000
 4844.00    1.51659   1.53357   -1.000
 4845.00    1.52634   1.55075   -1.000
 4846.00    1.54382   1.56686   -1.000
 4847.00    1.55851   1.56936  181.694
 4848.00    1.53159   1.55703   -1.000
 4849.00    1.52279   1.54419   -1.000
 4850.00    1.52838   1.54369  182.250
 4851.00    1.51872   1.55168   -1.000
 4852.00    1.52031   1.55533   -1.000
 4853.00    1.53629   1.54471  181.799
 4854.00    1.51409   1.51642  181.593
 4855.00    1.46367   1.47825   -1.000
 4856.00    1.41003   1.44715   -1.000
 4857.00    1.39467   1.43039   -1.000
 4858.00    1.42042   1.41088  195.293
 4859.00    1.38475   1.35937   -1.000
 4860.00    1.24906   1.26942   -1.000
 4861.00    1.17238   1.17931  199.272
 4862.00    1.22807   1.14244   -1.000
 4863.00    1.37698   1.17962   -1.000
 4864.00    1.46356   1.26400   -1.000
 4865.00    1.39855   1.34940   -1.000
 4866.00    1.36764   1.41249   -1.000
 4867.00    1.41700   1.45290   -1.000
 4868.00    1.46412   1.47436  195.184
 4869.00    1.47267   1.47573  191.326
 4870.00    1.45374   1.45441  189.743
 4871.00    1.39138   1.41805   -1.000
 4872.00    1.36765   1.39029   -1.000
 4873.00    1.38854   1.39431  196.650
 4874.00    1.40958   1.42761   -1.000
 4875.00    1.44808   1.46532   -1.000
 4876.00    1.48194   1.49082  193.059
 4877.00    1.49141   1.50799   -1.000
 4878.00    1.49182   1.52735   -1.000
 4879.00    1.49595   1.54973   -1.000
 4880.00    1.49737   1.56444   -1.000
 4881.00    1.50065   1.56323   -1.000
 4882.00    1.47333   1.54970   -1.000
 4883.00    1.46909   1.53416   -1.000
 4884.00    1.52113   1.51986  187.199
 4885.00    1.49829   1.50185  188.134
 4886.00    1.47434   1.48202  187.501
 4887.00    1.46323   1.47001  188.685
 4888.00    1.44502   1.46613   -1.000
 4889.00    1.43780   1.45824   -1.000
 4890.00    1.40532   1.43933   -1.000
 4891.00    1.34587   1.42292   -1.000
 4892.00    1.41609   1.43545   -1.000
 4893.00    1.46561   1.48775   -1.000
 4894.00    1.54922   1.56130  196.576
 4895.00    1.59458   1.62639   -1.000
 4896.00    1.62706   1.66497   -1.000
 4897.00    1.61126   1.67569   -1.000
 4898.00    1.62350   1.66590   -1.000
 4899.00    1.62030   1.64455   -1.000
 4900.00    1.56518   1.62156   -1.000
 4901.00    1.55424   1.60473   -1.000
 4902.00    1.52536   1.59331   -1.000
 4903.00    1.52434   1.58374   -1.000
 4904.00    1.50906   1.58083   -1.000
 4905.00    1.53574   1.59293   -1.000
 4906.00    1.55113   1.61479   -1.000
 4907.00    1.59985   1.62581   -1.000
 4908.00    1.56358   1.61116   -1.000
 4909.00    1.51301   1.57586   -1.000
 4910.00    1.50194   1.53829   -1.000
 4911.00    1.47327   1.51822   -1.000
 4912.00    1.48017   1.52405   -1.000
 4913.00    1.50228   1.54880   -1.000
 4914.00    1.54716   1.57869   -1.000
 4915.00    1.56729   1.60179   -1.000
 4916.00    1.58140   1.60662   -1.000
 4917.00    1.56680   1.58027  178.111
 4918.00    1.49539   1.51923   -1.000
 4919.00    1.42928   1.44088  177.727
 4920.00    1.37435   1.37885  184.281
 4921.00    1.36865   1.36172  194.543
 4922.00    1.39938   1.38927  203.590
 4923.00    1.46387   1.43387   -1.000
 4924.00    1.48899   1.47034   -1.000
 4925.00    1.46530   1.49681   -1.000
 4926.00    1.46942   1.52604   -1.000
 4927.00    1.52043   1.56244   -1.000
 4928.00    1.57022   1.59786   -1.000
 4929.00    1.58336   1.62570   -1.000
 4930.00    1.62572   1.64274   -1.000
 4931.00    1.62639   1.64294   -1.000
 4932.00    1.56774   1.62169   -1.000
 4933.00    1.51967   1.58477   -1.000
 4934.00    1.49478   1.55075   -1.000
 4935.00    1.49168   1.53557   -1.000
 4936.00    1.51482   1.53212   -1.000
 4937.00    1.53103   1.51865  187.653
 4938.00    1.44866   1.49018   -1.000
 4939.00    1.42158   1.46955   -1.000
 4940.00    1.46593   1.48245  189.941
 4941.00    1.53835   1.52876  195.069
 4942.00    1.56987   1.58408  193.050
 4943.00    1.57760   1.62312   -1.000
 4944.00    1.59682   1.63736   -1.000
 4945.00    1.62800   1.63398  177.135
 4946.00    1.60174   1.62634   -1.000
 4947.00    1.59919   1.62671   -1.000
 4948.00    1.61209   1.63863   -1.000
 4949.00    1.65552   1.65560  177.416
 4950.00    1.67263   1.66791  175.738
 4951.00    1.63272   1.67064   -1.000
 4952.00    1.62160   1.66505   -1.000
 4953.00    1.62409   1.65420   -1.000
 4954.00    1.60412   1.63721   -1.000
 4955.00    1.58742   1.60465   -1.000
 4956.00    1.52806   1.54735   -1.000
 4957.00    1.44678   1.47881   -1.000
 4958.00    1.41476   1.43966   -1.000
 4959.00    1.46301   1.46004  193.511
 4960.00    1.56646   1.52447   -1.000
 4961.00    1.62548   1.59019   -1.000
 4962.00    1.61858   1.62697  185.202
 4963.00    1.59129   1.63201   -1.000
 4964.00    1.57123   1.61624   -1.000
 4965.00    1.57645   1.58922  178.663
 4966.00    1.54515   1.56139   -1.000
 4967.00    1.51907   1.54376   -1.000
 4968.00    1.49982   1.53886   -1.000
 4969.00    1.50637   1.54228   -1.000
 4970.00    1.54102   1.55227  188.555
 4971.00    1.56558   1.56928  187.985
 4972.00    1.58614   1.59181  186.567
 4973.00    1.58639   1.61494   -1.000
 4974.00    1.60320   1.63129   -1.000
 4975.00    1.59897   1.63587   -1.000
 4976.00    1.59185   1.62799   -1.000
 4977.00    1.60498   1.60933  177.988
 4978.00    1.56300   1.58459   -1.000
 4979.00    1.52662   1.55966   -1.000
 4980.00    1.49492   1.53448   -1.000
 4981.00    1.49505   1.50199  186.691
 4982.00    1.43120   1.45858   -1.000
 4983.00    1.36623   1.41637   -1.000
 4984.00    1.39527   1.39857  198.083
 4985.00    1.42505   1.41664  204.528
 4986.00    1.47099   1.46105  204.392
 4987.00    1.50403   1.51212  200.463
 4988.00    1.54707   1.55066  194.789
 4989.00    1.54644   1.56520   -1.000
 4990.00    1.52774   1.55898   -1.000
 4991.00    1.53659   1.54799  184.176
 4992.00    1.53025   1.54520  186.951
 4993.00    1.56255   1.55122  188.864
 4994.00    1.52726   1.55984   -1.000
 4995.00    1.54085   1.56800   -1.000
 4996.00    1.58353   1.57580  186.420
 4997.00    1.56294   1.57878   -1.000
 4998.00    1.54990   1.56885   -1.000
 4999.00    1.53763   1.54349  184.446
 5000.00    1.50016   1.51093  185.594
 5001.00    1.45632   1.48552   -1.000
 5002.00    1.49237   1.47513   -1.000
 5003.00    1.51628   1.47372   -1.000
 5004.00    1.52299   1.46788   -1.000
 5005.00    1.47670   1.45047   -1.000
 5006.00    1.43570   1.43076  191.304
 5007.00    1.44858   1.42901   -1.000
 5008.00    1.46068   1.45533  199.084
 5009.00    1.53130   1.49406   -1.000
 5010.00    1.50569   1.51673  195.232
 5011.00    1.48072   1.50700   -1.000
 5012.00    1.45833   1.47061  187.251
 5013.00    1.41644   1.42844  189.727
 5014.00    1.42547   1.40162   -1.000
 5015.00    1.42359   1.39922   -1.000
 5016.00    1.43001   1.41374   -1.000
 5017.00    1.46833   1.42984   -1.000
 5018.00    1.46579   1.44031   -1.000
 5019.00    1.45595   1.44968  197.721
 5020.00    1.48679   1.46218   -1.000
 5021.00    1.51184   1.47308   -1.000
 5022.00    1.49663   1.47879   -1.000
 5023.00    1.48761   1.48543  193.097
 5024.00    1.50974   1.49956  193.952
 5025.00    1.49457   1.51621   -1.000
 5026.00    1.50629   1.52349   -1.000
 5027.00    1.51264   1.51922  191.226
 5028.00    1.50704   1.51547  189.939
 5029.00    1.51304   1.52422  190.839
 5030.00    1.55379   1.54588  191.759
 5031.00    1.60728   1.57376   -1.000
 5032.00    1.61022   1.60013  186.437
 5033.00    1.62107   1.61604  183.774
 5034.00    1.62884   1.61089  180.787
 5035.00    1.57137   1.58112  178.696
 5036.00    1.47765   1.54070   -1.000
 5037.00    1.47909   1.50942   -1.000
 5038.00    1.46411   1.48773   -1.000
 5039.00    1.45010   1.45749  195.275
 5040.00    1.37967   1.41163   -1.000
 5041.00    1.32654   1.37255   -1.000
 5042.00    1.38034   1.37445  206.157
 5043.00    1.44932   1.42678   -1.000
 5044.00    1.51541   1.50553  214.795
 5045.00    1.54394   1.57703   -1.000
 5046.00    1.59203   1.61907   -1.000
 5047.00    1.62478   1.62413  183.988
 5048.00    1.59218   1.59684  180.073
 5049.00    1.58766   1.55346   -1.000
 5050.00    0.43669   1.51554   -1.000
 5051.00   -0.12447   1.49787    0.000
 5052.00   -0.08032   1.50382    0.000
 5053.00    1.00683   1.52983   -1.000
 5054.00    1.68281   1.56713   -1.000
 5055.00    1.62871   1.60186   -1.000
 5056.00    1.62781   1.62393  183.891
 5057.00    1.63827   1.63415  180.519
 5058.00    1.64646   1.63924  178.772
 5059.00    1.63084   1.64526  178.177
 5060.00    1.62180   1.65478   -1.000
 5061.00    1.64483   1.66421   -1.000
 5062.00    1.63620   1.66314   -1.000
 5063.00    1.59684   1.64056   -1.000
 5064.00    1.53978   1.59755   -1.000
 5065.00    1.49125   1.55285   -1.000
 5066.00    1.49260   1.52795   -1.000
 5067.00    1.49447   1.52616   -1.000
 5068.00    1.51597   1.53552   -1.000
 5069.00    1.56620   1.54703   -1.000
 5070.00    1.58278   1.55747   -1.000
 5071.00    1.59773   1.56234   -1.000
 5072.00    1.56884   1.55851  187.404
 5073.00    1.54008   1.55170  186.173
 5074.00    1.55130   1.55106  187.613
 5075.00    1.56540   1.55765  189.107
 5076.00    1.56967   1.56375  186.874
 5077.00    1.58073   1.55899   -1.000
 5078.00    1.55947   1.53435   -1.000
 5079.00    1.52481   1.49064   -1.000
 5080.00    1.46569   1.44777   -1.000
 5081.00    1.45154   1.43168   -1.000
 5082.00    1.45795   1.44599  202.273
 5083.00    1.50661   1.47367   -1.000
 5084.00    1.51607   1.50269  200.708
 5085.00    1.57016   1.53114   -1.000
 5086.00    1.57601   1.55661   -1.000
 5087.00    1.58795   1.57467  190.093
 5088.00    1.59637   1.58493  186.824
 5089.00    1.57090   1.59208   -1.000
 5090.00    1.61226   1.60053  185.144
 5091.00    1.61128   1.61183  184.235
 5092.00    1.61468   1.62581  182.912
 5093.00    1.62037   1.63947   -1.000
 5094.00    1.63556   1.64525  180.949
 5095.00    1.62505   1.63378  178.897
 5096.00    1.59018   1.60147  177.270
 5097.00    1.54261   1.55586  178.775
 5098.00    1.50731   1.51235  182.448
 5099.00    1.49073   1.48798  186.392
 5100.00    1.51201   1.49437   -1.000
 5101.00    1.53740   1.52695  194.928
 5102.00    1.55585   1.56376  195.686
 5103.00    1.57086   1.58349  191.077
 5104.00    1.55924   1.58203   -1.000
 5105.00    1.55063   1.56832   -1.000
 5106.00    1.53682   1.54944  184.749
 5107.00    1.52687   1.52858  187.142
 5108.00    1.53242   1.51022   -1.000
 5109.00    1.51705   1.50021   -1.000
 5110.00    1.51899   1.50365  194.250
 5111.00    1.52233   1.52210  194.073
 5112.00    1.52804   1.55042   -1.000
 5113.00    1.57657   1.57850  191.480
 5114.00    1.58582   1.59957  188.783
 5115.00    1.60233   1.61524  186.450
 5116.00    1.63110   1.62958  184.177
 5117.00    1.65019   1.64294  182.491
 5118.00    1.61785   1.65126   -1.000
 5119.00    1.59938   1.64858   -1.000
 5120.00    1.63413   1.63174  178.087
 5121.00    1.59817   1.60304  178.518
 5122.00    1.54365   1.56725   -1.000
 5123.00    1.48703   1.52977   -1.000
 5124.00    1.46349   1.49888   -1.000
 5125.00    1.47304   1.48294  191.232
 5126.00    1.49439   1.48220  196.979
 5127.00    1.48209   1.48838  198.590
 5128.00    1.48693   1.49383  196.969
 5129.00    1.45416   1.49838   -1.000
 5130.00    1.48841   1.50644   -1.000
 5131.00    1.54270   1.52089   -1.000
 5132.00    1.54947   1.54013  194.857
 5133.00    1.56454   1.55965  192.438
 5134.00    1.57927   1.57577  189.181
 5135.00    1.58134   1.58532  187.551
 5136.00    1.58656   1.58284  185.784
 5137.00    1.55253   1.56374  184.138
 5138.00    1.51280   1.53376   -1.000
 5139.00    1.50586   1.50881  186.698
 5140.00    1.50864   1.49909  191.200
 5141.00    1.51406   1.49935  194.351
 5142.00    1.50085   1.49943  194.780
 5143.00    1.48578   1.49896  193.134
 5144.00    1.48051   1.50445   -1.000
 5145.00    1.53471   1.51283   -1.000
 5146.00    1.54737   1.51311   -1.000
 5147.00    1.50734   1.50545  193.374
 5148.00    1.50178   1.50210  192.538
 5149.00    1.54412   1.50808   -1.000
 5150.00    1.54607   1.51396   -1.000
 5151.00    1.49706   1.50973  192.553
 5152.00    1.49988   1.49838  191.376
 5153.00    1.49531   1.49085  193.534
 5154.00    1.49430   1.49513  197.020
 5155.00    1.52728   1.51419  198.477
 5156.00    1.56045   1.54567   -1.000
 5157.00    1.59819   1.58058   -1.000
 5158.00    1.62583   1.60814   -1.000
 5159.00    1.62678   1.62299  184.319
 5160.00    1.63544   1.62528  180.785
 5161.00    1.64750   1.61656   -1.000
 5162.00    1.62954   1.59840   -1.000
 5163.00    1.61725   1.57065   -1.000
 5164.00    1.58050   1.52736   -1.000
 5165.00    1.48672   1.45763   -1.000
 5166.00    1.37212   1.35958  185.543
 5167.00    1.22198   1.25916   -1.000
 5168.00    1.16934   1.20220   -1.000
 5169.00    1.24399   1.20949   -1.000
 5170.00    1.31750   1.24576   -1.000
 5171.00    1.28745   1.25207   -1.000
 5172.00    1.20430   1.21607  228.357
 5173.00    1.15671   1.19088   -1.000
 5174.00    1.22979   1.23058  237.663
 5175.00    1.35795   1.33039   -1.000
 5176.00    1.47927   1.43849   -1.000
 5177.00    1.52174   1.51184  219.889
 5178.00    1.54793   1.54526  201.264
 5179.00    1.56653   1.55006   -1.000
 5180.00    1.55043   1.52636   -1.000
 5181.00    1.48378   1.46257   -1.000
 5182.00    1.36348   1.35862  191.715
 5183.00    1.21985   1.24778   -1.000
 5184.00    1.13282   1.18878   -1.000
 5185.00    1.19757   1.22211   -1.000
 5186.00    1.38326   1.32721   -1.000
 5187.00    1.52294   1.43939   -1.000
 5188.00    1.57059   1.51263   -1.000
 5189.00    1.58073   1.54332   -1.000
 5190.00    1.58438   1.54323   -1.000
 5191.00    1.54994   1.51851   -1.000
 5192.00    1.50842   1.48038   -1.000
 5193.00    1.49118   1.45314   -1.000
 5194.00    1.48831   1.45252   -1.000
 5195.00    1.52023   1.47042   -1.000
 5196.00    1.55099   1.49329   -1.000
 5197.00    1.59557   1.51912   -1.000
 5198.00    1.63043   1.54923   -1.000
 5199.00    1.63714   1.57865   -1.000
 5200.00    1.66281   1.59911   -1.000
 5201.00    1.63770   1.60463   -1.000
 5202.00    1.61857   1.59208   -1.000
 5203.00    1.60755   1.56087   -1.000
 5204.00    1.54232   1.51467   -1.000
 5205.00    1.46999   1.46349  188.333
 5206.00    1.43377   1.42117  192.578
 5207.00    1.42763   1.39645   -1.000
 5208.00    1.44555   1.38891   -1.000
 5209.00    1.43353   1.39762   -1.000
 5210.00    1.46194   1.42764   -1.000
 5211.00    1.54179   1.48009   -1.000
 5212.00    1.62496   1.54153   -1.000
 5213.00    1.67259   1.58938   -1.000
 5214.00    1.64788   1.60625   -1.000
 5215.00    1.64594   1.59254   -1.000
 5216.00    1.58742   1.56789   -1.000
 5217.00    1.57132   1.55723  181.051
 5218.00    1.61281   1.57192   -1.000
 5219.00    1.65307   1.60379   -1.000
 5220.00    1.66962   1.63617   -1.000
 5221.00    1.68970   1.65562   -1.000
 5222.00    1.69667   1.65455   -1.000
 5223.00    1.67137   1.62957   -1.000
 5224.00    1.60187   1.58031   -1.000
 5225.00    1.52471   1.51309  179.449
 5226.00    1.46667   1.44827   -1.000
 5227.00    1.46678   1.41590   -1.000
 5228.00    1.49217   1.43460   -1.000
 5229.00    1.57557   1.49468   -1.000
 5230.00    1.66485   1.56134   -1.000
 5231.00    1.67564   1.59898   -1.000
 5232.00    1.63793   1.59619   -1.000
 5233.00    1.59849   1.56997   -1.000
 5234.00    1.58233   1.55059   -1.000
 5235.00    1.60799   1.55939   -1.000
 5236.00    1.64414   1.59418   -1.000
 5237.00    1.66795   1.63639   -1.000
 5238.00    1.68791   1.66757   -1.000
 5239.00    1.71764   1.68134   -1.000
 5240.00    1.73290   1.68314   -1.000
 5241.00    1.69874   1.68021   -1.000
 5242.00    1.71501   1.67729   -1.000
 5243.00    1.73615   1.67782   -1.000
 5244.00    1.70497   1.68107   -1.000
 5245.00    1.70899   1.67763   -1.000
 5246.00    1.67776   1.65683   -1.000
 5247.00    1.61603   1.62235  174.946
 5248.00    1.59635   1.59080  178.040
 5249.00    1.61621   1.57223   -1.000
 5250.00    1.63836   1.56421   -1.000
 5251.00    1.61350   1.56449   -1.000
 5252.00    1.60481   1.57334   -1.000
 5253.00    1.65003   1.58504   -1.000
 5254.00    1.65383   1.59210   -1.000
 5255.00    1.63842   1.59840   -1.000
 5256.00    1.65575   1.61738   -1.000
 5257.00    1.72457   1.65336   -1.000
 5258.00    1.75682   1.69068   -1.000
 5259.00    1.73982   1.70697   -1.000
 5260.00    1.72573   1.69035   -1.000
 5261.00    1.69113   1.64238   -1.000
 5262.00    1.61241   1.57385   -1.000
 5263.00    1.53041   1.49973   -1.000
 5264.00    1.45502   1.43572   -1.000
 5265.00    1.41626   1.39583   -1.000
 5266.00    1.45559   1.38616   -1.000
 5267.00    1.49187   1.39509   -1.000
 5268.00    1.49556   1.39614   -1.000
 5269.00    1.44714   1.37608   -1.000
 5270.00    1.40268   1.35772   -1.000
 5271.00    1.45288   1.37667   -1.000
 5272.00    1.56481   1.43656   -1.000
 5273.00    1.61613   1.50203   -1.000
 5274.00    1.61284   1.54013   -1.000
 5275.00    1.62188   1.55521   -1.000
 5276.00    1.64258   1.57461   -1.000
 5277.00    1.67542   1.61334   -1.000
 5278.00    1.73025   1.65911   -1.000
 5279.00    1.77967   1.68550   -1.000
 5280.00    1.74196   1.67818   -1.000
 5281.00    1.65864   1.64548  173.361
 5282.00    1.62707   1.60686   -1.000
 5283.00    1.60711   1.58093   -1.000
 5284.00    1.62325   1.58228   -1.000
 5285.00    1.67617   1.61599   -1.000
 5286.00    1.73109   1.66864   -1.000
 5287.00    1.77028   1.71512   -1.000
 5288.00    1.78136   1.74105   -1.000
 5289.00    1.75510   1.75169  172.836
 5290.00    1.76681   1.75708  170.980
 5291.00    1.79776   1.75892   -1.000
 5292.00    1.77914   1.75427   -1.000
 5293.00    1.75734   1.74335  170.873
 5294.00    1.74602   1.72678   -1.000
 5295.00    1.72700   1.69882   -1.000
 5296.00    1.70202   1.65346   -1.000
 5297.00    1.61185   1.59958  175.003
 5298.00    1.56008   1.56187  179.423
 5299.00    1.61311   1.55917   -1.000
 5300.00    1.62144   1.58423   -1.000
 5301.00    1.65563   1.61477   -1.000
 5302.00    1.67781   1.64121   -1.000
 5303.00    1.71362   1.67067   -1.000
 5304.00    1.75822   1.70675   -1.000
 5305.00    1.78906   1.73834   -1.000
 5306.00    1.79045   1.75165   -1.000
 5307.00    1.79126   1.74813   -1.000
 5308.00    1.75119   1.74306  170.673
 5309.00    1.77738   1.74826   -1.000
 5310.00    1.81483   1.76105   -1.000
 5311.00    1.80007   1.76996   -1.000
 5312.00    1.76511   1.76824  171.109
 5313.00    1.75880   1.75793  169.908
 5314.00    1.75342   1.74327  169.900
 5315.00    1.74573   1.72614   -1.000
 5316.00    1.74940   1.70871   -1.000
 5317.00    1.72895   1.69704   -1.000
 5318.00    1.74019   1.69673   -1.000
 5319.00    1.75642   1.70466   -1.000
 5320.00    1.77112   1.71092   -1.000
 5321.00    1.78273   1.70778   -1.000
 5322.00    1.73333   1.69248   -1.000
 5323.00    1.71074   1.66698   -1.000
 5324.00    1.67720   1.63895   -1.000
 5325.00    1.63540   1.61296   -1.000
 5326.00    1.63661   1.57943   -1.000
 5327.00    1.58456   1.52691   -1.000
 5328.00    1.52247   1.46948   -1.000
 5329.00    1.50766   1.44702   -1.000
 5330.00    1.57423   1.48458   -1.000
 5331.00    1.64683   1.55935   -1.000
 5332.00    1.71830   1.62594   -1.000
 5333.00    1.75797   1.66518   -1.000
 5334.00    1.74611   1.68825   -1.000
 5335.00    1.75594   1.70705   -1.000
 5336.00    1.77063   1.71971   -1.000
 5337.00    1.75731   1.71894   -1.000
 5338.00    1.74850   1.70133   -1.000
 5339.00    1.71414   1.66883   -1.000
 5340.00    1.68473   1.63161   -1.000
 5341.00    1.63065   1.60995   -1.000
 5342.00    1.62322   1.61883  182.129
 5343.00    1.69666   1.64899   -1.000
 5344.00    1.75031   1.67553   -1.000
 5345.00    1.71660   1.68380   -1.000
 5346.00    1.71643   1.67701   -1.000
 5347.00    1.71802   1.66423   -1.000
 5348.00    1.70363   1.65138   -1.000
 5349.00    1.68983   1.64443   -1.000
 5350.00    1.69715   1.65193   -1.000
 5351.00    1.72898   1.67579   -1.000
 5352.00    1.75016   1.70624   -1.000
 5353.00    1.76616   1.73256   -1.000
 5354.00    1.78860   1.75332   -1.000
 5355.00    1.79228   1.77287   -1.000
 5356.00    1.80748   1.79133  171.902
 5357.00    1.83027   1.80340   -1.000
 5358.00    1.84215   1.80605   -1.000
 5359.00    1.84843   1.80028   -1.000
 5360.00    1.84252   1.78686   -1.000
 5361.00    1.80575   1.76652   -1.000
 5362.00    1.78395   1.74278   -1.000
 5363.00    1.78014   1.72019   -1.000
 5364.00    1.74304   1.70127   -1.000
 5365.00    1.73704   1.68712   -1.000
 5366.00    1.74048   1.67871   -1.000
 5367.00    1.70897   1.67411   -1.000
 5368.00    1.70912   1.66405   -1.000
 5369.00    1.70935   1.63719   -1.000
 5370.00    1.66491   1.59583   -1.000
 5371.00    1.60747   1.56257   -1.000
 5372.00    1.63798   1.56481   -1.000
 5373.00    1.70195   1.60918   -1.000
 5374.00    1.73756   1.67392   -1.000
 5375.00    1.77490   1.72828   -1.000
 5376.00    1.81753   1.75612   -1.000
 5377.00    1.80886   1.76160   -1.000
 5378.00    1.81068   1.75764   -1.000
 5379.00    1.80230   1.75196   -1.000
 5380.00    1.77542   1.74404   -1.000
 5381.00    1.77594   1.73158   -1.000
 5382.00    1.77438   1.71700   -1.000
 5383.00    1.78217   1.70741   -1.000
 5384.00    1.73579   1.70880   -1.000
 5385.00    1.75799   1.72013   -1.000
 5386.00    1.78851   1.73296   -1.000
 5387.00    1.80364   1.73770   -1.000
 5388.00    1.78015   1.72991   -1.000
 5389.00    1.74010   1.71128   -1.000
 5390.00    1.70391   1.68798  173.316
 5391.00    1.69420   1.66743   -1.000
 5392.00    1.69937   1.65371   -1.000
 5393.00    1.71918   1.64620   -1.000
 5394.00    1.70580   1.64050   -1.000
 5395.00    1.67665   1.62913   -1.000
 5396.00    1.63538   1.60849   -1.000
 5397.00    1.62828   1.58844   -1.000
 5398.00    1.67552   1.58686   -1.000
 5399.00    1.69600   1.60987   -1.000
 5400.00    1.71122   1.64450   -1.000
 5401.00    1.74466   1.67191   -1.000
 5402.00    1.75014   1.67902   -1.000
 5403.00    1.71962   1.65895   -1.000
 5404.00    1.65977   1.61446   -1.000
 5405.00    1.60494   1.56477   -1.000
 5406.00    1.59517   1.53797   -1.000
 5407.00    1.61413   1.54577   -1.000
 5408.00    1.65174   1.57149   -1.000
 5409.00    1.66871   1.59099   -1.000
 5410.00    1.64723   1.60073   -1.000
 5411.00    1.66126   1.61714   -1.000
 5412.00    1.70458   1.64906   -1.000
 5413.00    1.76828   1.68367   -1.000
 5414.00    1.79426   1.70547   -1.000
 5415.00    1.75523   1.71631   -1.000
 5416.00    1.76061   1.72794   -1.000
 5417.00    1.79755   1.74275   -1.000
 5418.00    1.79334   1.75101   -1.000
 5419.00    1.79054   1.74629   -1.000
 5420.00    1.77365   1.73418   -1.000
 5421.00    1.77895   1.72395   -1.000
 5422.00    1.74989   1.71714   -1.000
 5423.00    1.74045   1.70830   -1.000
 5424.00    1.75738   1.69880   -1.000
 5425.00    1.71931   1.70126   -1.000
 5426.00    1.77037   1.72024   -1.000
 5427.00    1.78702   1.73683   -1.000
 5428.00    1.79486   1.72566   -1.000
 5429.00    1.94031   1.68683   -1.000
 5430.00    1.79973   1.64911   -1.000
 5431.00    1.68148   1.63656   -1.000
 5432.00    1.70090   1.64235   -1.000
 5433.00    1.71721   1.64314   -1.000
 5434.00    1.65948   1.63049   -1.000
 5435.00    1.65764   1.61923   -1.000
 5436.00    1.68940   1.62902   -1.000
 5437.00    1.70690   1.66527   -1.000
 5438.00    1.77086   1.71581   -1.000
 5439.00    1.82395   1.76200   -1.000
 5440.00    1.84872   1.79229   -1.000
 5441.00    1.84277   1.80660   -1.000
 5442.00    1.82536   1.80928  171.736
 5443.00    1.81589   1.79971  170.128
 5444.00    1.78747   1.77090  169.618
 5445.00    1.75107   1.72060   -1.000
 5446.00    1.69702   1.66351   -1.000
 5447.00    1.65684   1.62739   -1.000
 5448.00    1.68068   1.63171   -1.000
 5449.00    1.73999   1.67041   -1.000
 5450.00    1.78419   1.71695   -1.000
 5451.00    1.80567   1.74594   -1.000
 5452.00    1.81639   1.74796   -1.000
 5453.00    1.78839   1.72532   -1.000
 5454.00    1.73070   1.68487   -1.000
 5455.00    1.67277   1.64282   -1.000
 5456.00    1.66120   1.62478   -1.000
 5457.00    1.70652   1.64653   -1.000
 5458.00    1.78229   1.69489   -1.000
 5459.00    1.80777   1.73699   -1.000
 5460.00    1.79666   1.74919   -1.000
 5461.00    1.77097   1.73143   -1.000
 5462.00    1.73775   1.70018   -1.000
 5463.00    1.73783   1.67600   -1.000
 5464.00    1.74647   1.67251   -1.000
 5465.00    1.75012   1.68806   -1.000
 5466.00    1.76496   1.70962   -1.000
 5467.00    1.75929   1.72643   -1.000
 5468.00    1.75512   1.73576   -1.000
 5469.00    1.76828   1.73749   -1.000
 5470.00    1.76445   1.73171   -1.000
 5471.00    1.73613   1.72109  175.818
 5472.00    1.75310   1.70900   -1.000
 5473.00    1.73170   1.69537   -1.000
 5474.00    1.73608   1.67658   -1.000
 5475.00    1.71102   1.64948   -1.000
 5476.00    1.67855   1.61843   -1.000
 5477.00    1.66387   1.60019   -1.000
 5478.00    1.68331   1.61084   -1.000
 5479.00    1.73364   1.64233   -1.000
 5480.00    1.76604   1.66670   -1.000
 5481.00    1.74439   1.66874   -1.000
 5482.00    1.68646   1.66214   -1.000
 5483.00    1.69306   1.67005   -1.000
 5484.00    1.74975   1.69723   -1.000
 5485.00    1.80131   1.72619   -1.000
 5486.00    1.80839   1.73687   -1.000
 5487.00    1.78244   1.72613   -1.000
 5488.00    1.75533   1.70843   -1.000
 5489.00    1.75059   1.70027   -1.000
 5490.00    1.75721   1.70613   -1.000
 5491.00    1.75069   1.71845   -1.000
 5492.00    1.75118   1.72755   -1.000
 5493.00    1.75531   1.72987   -1.000
 5494.00    1.74773   1.72858   -1.000
 5495.00    1.76101   1.72699   -1.000
 5496.00    1.78647   1.72371   -1.000
 5497.00    1.79296   1.71851   -1.000
 5498.00    1.79196   1.71764   -1.000
 5499.00    1.78119   1.72360   -1.000
 5500.00    1.79319   1.72640   -1.000
 5501.00    1.77767   1.71604   -1.000
 5502.00    1.75699   1.69778   -1.000
 5503.00    1.74569   1.68544   -1.000
 5504.00    1.77711   1.68254   -1.000
 5505.00    1.77549   1.67988   -1.000
 5506.00    1.71968   1.67200   -1.000
 5507.00    1.72901   1.66668   -1.000
 5508.00    1.77053   1.67347   -1.000
 5509.00    1.79626   1.68858   -1.000
 5510.00    1.78202   1.69675   -1.000
 5511.00    1.74899   1.68710   -1.000
 5512.00    1.71115   1.66356   -1.000
 5513.00    1.68276   1.64143   -1.000
 5514.00    1.68692   1.63499   -1.000
 5515.00    1.72451   1.64724   -1.000
 5516.00    1.73125   1.67136   -1.000
 5517.00    1.74745   1.69965   -1.000
 5518.00    1.79561   1.72758   -1.000
 5519.00    1.83462   1.75096   -1.000
 5520.00    1.85316   1.76489   -1.000
 5521.00    1.85018   1.76812   -1.000
 5522.00    1.82879   1.76527   -1.000
 5523.00    1.81594   1.76149   -1.000
 5524.00    1.80045   1.75588   -1.000
 5525.00    1.79134   1.74207   -1.000
 5526.00    1.77195   1.71532   -1.000
 5527.00    1.73413   1.68017   -1.000
 5528.00    1.71555   1.65226   -1.000
 5529.00    1.71492   1.64874   -1.000
 5530.00    1.72047   1.67214   -1.000
 5531.00    1.75102   1.70578   -1.000
 5532.00    1.79613   1.72853   -1.000
 5533.00    1.82723   1.73230   -1.000
 5534.00    1.80162   1.72378   -1.000
 5535.00    1.77740   1.71419   -1.000
 5536.00    1.79764   1.71090   -1.000
 5537.00    1.78914   1.71523   -1.000
 5538.00    1.78600   1.72476   -1.000
 5539.00    1.80672   1.73790   -1.000
 5540.00    1.83627   1.75310   -1.000
 5541.00    1.86819   1.76452   -1.000
 5542.00    1.85505   1.76496   -1.000
 5543.00    1.83855   1.75464   -1.000
 5544.00    1.80527   1.74222   -1.000
 5545.00    1.77922   1.73613   -1.000
 5546.00    1.80022   1.73846   -1.000
 5547.00    1.81797   1.74808   -1.000
 5548.00    1.82870   1.76397   -1.000
 5549.00    1.85007   1.78216   -1.000
 5550.00    1.83837   1.79559   -1.000
 5551.00    1.84745   1.79926   -1.000
 5552.00    1.85335   1.79245   -1.000
 5553.00    1.83345   1.77813   -1.000
 5554.00    1.81861   1.76330   -1.000
 5555.00    1.80782   1.75542   -1.000
 5556.00    1.82566   1.75585   -1.000
 5557.00    1.82463   1.75968   -1.000
 5558.00    1.82169   1.76244   -1.000
 5559.00    1.83073   1.76385   -1.000
 5560.00    1.81858   1.76403   -1.000
 5561.00    1.82184   1.76009   -1.000
 5562.00    1.81147   1.75011   -1.000
 5563.00    1.75850   1.73710   -1.000
 5564.00    1.74916   1.72623   -1.000
 5565.00    1.75846   1.71969   -1.000
 5566.00    1.76705   1.71594   -1.000
 5567.00    1.77050   1.71327   -1.000
 5568.00    1.76294   1.71194   -1.000
 5569.00    1.74940   1.71286   -1.000
 5570.00    1.75981   1.71527   -1.000
 5571.00    1.79608   1.71654   -1.000
 5572.00    1.79594   1.71519   -1.000
 5573.00    1.77793   1.71422   -1.000
 5574.00    1.78233   1.71912   -1.000
 5575.00    1.82349   1.73062   -1.000
 5576.00    1.92561   1.74302   -1.000
 5577.00    2.19788   1.75193   -1.000
 5578.00    3.63912   1.75868   -1.000
 5579.00    7.12076   1.76506   -1.000
 5580.00    8.88904   1.76959   -1.000
 5581.00    4.88348   1.76992   -1.000
 5582.00   -1.15731   1.76575    0.000
 5583.00   -3.27419   1.75850    0.000
 5584.00   -1.65607   1.74715    0.000
 5585.00    0.23794   1.72555   -1.000
 5586.00    1.26606   1.68937   -1.000
 5587.00    1.59194   1.64582   -1.000
 5588.00    1.61961   1.61211  182.594
 5589.00    1.65638   1.60239   -1.000
 5590.00    1.69238   1.61734   -1.000
 5591.00    1.70945   1.64454   -1.000
 5592.00    1.74276   1.66827   -1.000
 5593.00    1.75357   1.68149   -1.000
 5594.00    1.74579   1.69029   -1.000
 5595.00    1.75161   1.70484   -1.000
 5596.00    1.77780   1.72410   -1.000
 5597.00    1.79880   1.73413   -1.000
 5598.00    1.76807   1.72519   -1.000
 5599.00    1.73856   1.70317   -1.000
 5600.00    1.72901   1.67987   -1.000
 5601.00    1.71325   1.66138   -1.000
 5602.00    1.69349   1.65194   -1.000
 5603.00    1.71161   1.66019   -1.000
 5604.00    1.77456   1.69218   -1.000
 5605.00    1.81751   1.73967   -1.000
 5606.00    1.84060   1.78384   -1.000
 5607.00    1.86555   1.81105   -1.000
 5608.00    1.89249   1.82110   -1.000
 5609.00    1.87422   1.82202   -1.000
 5610.00    1.84168   1.82208   -1.000
 5611.00    1.83702   1.82388  174.687
 5612.00    1.85584   1.82061   -1.000
 5613.00    1.87491   1.79950   -1.000
 5614.00    1.82403   1.75451   -1.000
 5615.00    1.73915   1.70017   -1.000
 5616.00    1.70389   1.66587   -1.000
 5617.00    1.73612   1.66869   -1.000
 5618.00    1.79881   1.69695   -1.000
 5619.00    1.81833   1.72659   -1.000
 5620.00    1.80770   1.74643   -1.000
 5621.00    1.81495   1.75866   -1.000
 5622.00    1.81886   1.76225   -1.000
 5623.00    1.80565   1.75060   -1.000
 5624.00    1.77335   1.72569   -1.000
 5625.00    1.74056   1.70385   -1.000
 5626.00    1.75099   1.70224   -1.000
 5627.00    1.79173   1.72203   -1.000
 5628.00    1.81188   1.74994   -1.000
 5629.00    1.80815   1.77409   -1.000
 5630.00    1.83161   1.79115   -1.000
 5631.00    1.85551   1.80097   -1.000
 5632.00    1.83538   1.80298   -1.000
 5633.00    1.83387   1.79721   -1.000
 5634.00    1.82920   1.78499   -1.000
 5635.00    1.80674   1.76866   -1.000
 5636.00    1.80791   1.75135   -1.000
 5637.00    1.79983   1.73741   -1.000
 5638.00    1.77964   1.73098   -1.000
 5639.00    1.80607   1.73144   -1.000
 5640.00    1.82757   1.73274   -1.000
 5641.00    1.81662   1.73067   -1.000
 5642.00    1.79790   1.72837   -1.000
 5643.00    1.79737   1.73133   -1.000
 5644.00    1.82568   1.73971   -1.000
 5645.00    1.83308   1.74941   -1.000
 5646.00    1.83846   1.75739   -1.000
 5647.00    1.82816   1.76207   -1.000
 5648.00    1.83793   1.76179   -1.000
 5649.00    1.85699   1.75759   -1.000
 5650.00    1.84382   1.75487   -1.000
 5651.00    1.84637   1.75838   -1.000
 5652.00    1.85183   1.76571   -1.000
 5653.00    1.87020   1.76878   -1.000
 5654.00    1.85557   1.76270   -1.000
 5655.00    1.80527   1.74894   -1.000
 5656.00    1.79304   1.72868   -1.000
 5657.00    1.75980   1.70069   -1.000
 5658.00    1.69897   1.67029   -1.000
 5659.00    1.68079   1.65248   -1.000
 5660.00    1.72191   1.65739   -1.000
 5661.00    1.76205   1.67623   -1.000
 5662.00    1.76145   1.69300   -1.000
 5663.00    1.75823   1.70570   -1.000
 5664.00    1.78900   1.72207   -1.000
 5665.00    1.81036   1.74053   -1.000
 5666.00    1.80331   1.75030   -1.000
 5667.00    1.79454   1.74695   -1.000
 5668.00    1.79461   1.73805   -1.000
 5669.00    1.79824   1.73411   -1.000
 5670.00    1.80021   1.73947   -1.000
 5671.00    1.80618   1.75274   -1.000
 5672.00    1.82354   1.77073   -1.000
 5673.00    1.85664   1.78855   -1.000
 5674.00    1.88125   1.80062   -1.000
 5675.00    1.88492   1.80521   -1.000
 5676.00    1.88126   1.80544   -1.000
 5677.00    1.87776   1.80438   -1.000
 5678.00    1.86571   1.80120   -1.000
 5679.00    1.83696   1.79358   -1.000
 5680.00    1.83776   1.78122   -1.000
 5681.00    1.84316   1.76502   -1.000
 5682.00    1.82227   1.74621   -1.000
 5683.00    1.80307   1.72983   -1.000
 5684.00    1.79512   1.72296   -1.000
 5685.00    1.79844   1.72545   -1.000
 5686.00    1.80225   1.72858   -1.000
 5687.00    1.78748   1.72649   -1.000
 5688.00    1.76941   1.72347   -1.000
 5689.00    1.78580   1.72820   -1.000
 5690.00    1.82293   1.74353   -1.000
 5691.00    1.84405   1.76402   -1.000
 5692.00    1.84503   1.78177   -1.000
 5693.00    1.85799   1.79217   -1.000
 5694.00    1.87801   1.79514   -1.000
 5695.00    1.87459   1.79331   -1.000
 5696.00    1.86409   1.78866   -1.000
 5697.00    1.85576   1.78059   -1.000
 5698.00    1.83586   1.76820   -1.000
 5699.00    1.79744   1.75322   -1.000
 5700.00    1.78879   1.73852   -1.000
 5701.00    1.78150   1.72638   -1.000
 5702.00    1.75391   1.72057   -1.000
 5703.00    1.76766   1.72402   -1.000
 5704.00    1.80983   1.73197   -1.000
 5705.00    1.80870   1.73369   -1.000
 5706.00    1.76868   1.72227   -1.000
 5707.00    1.75692   1.70028   -1.000
 5708.00    1.72498   1.67581   -1.000
 5709.00    1.67615   1.65626   -1.000
 5710.00    1.66881   1.64669   -1.000
 5711.00    1.69358   1.65023   -1.000
 5712.00    1.74076   1.66843   -1.000
 5713.00    1.78987   1.69998   -1.000
 5714.00    1.83450   1.73671   -1.000
 5715.00    1.85777   1.76656   -1.000
 5716.00    1.87408   1.78449   -1.000
 5717.00    1.86534   1.79445   -1.000
 5718.00    1.84287   1.80194   -1.000
 5719.00    1.86828   1.81002   -1.000
 5720.00    1.88562   1.81964   -1.000
 5721.00    1.87788   1.83002   -1.000
 5722.00    1.87532   1.83946   -1.000
 5723.00    1.88145   1.84619   -1.000
 5724.00    1.89798   1.84775   -1.000
 5725.00    1.88629   1.84116   -1.000
 5726.00    1.85295   1.82677   -1.000
 5727.00    1.83734   1.81165   -1.000
 5728.00    1.86129   1.80481   -1.000
 5729.00    1.88100   1.80709   -1.000
 5730.00    1.85635   1.81019   -1.000
 5731.00    1.84441   1.80860   -1.000
 5732.00    1.84193   1.80722   -1.000
 5733.00    1.84355   1.81381   -1.000
 5734.00    1.87820   1.82739   -1.000
 5735.00    1.89223   1.83859   -1.000
 5736.00    1.88525   1.84047   -1.000
 5737.00    1.89281   1.83503   -1.000
 5738.00    1.88857   1.82874   -1.000
 5739.00    1.87259   1.82550   -1.000
 5740.00    1.86527   1.82443   -1.000
 5741.00    1.85443   1.82294   -1.000
 5742.00    1.85784   1.82101   -1.000
 5743.00    1.87309   1.82188   -1.000
 5744.00    1.87765   1.82800   -1.000
 5745.00    1.88521   1.83585   -1.000
 5746.00    1.87072   1.83744   -1.000
 5747.00    1.86683   1.82945   -1.000
 5748.00    1.87395   1.81962   -1.000
 5749.00    1.86340   1.81825   -1.000
 5750.00    1.84478   1.82377   -1.000
 5751.00    1.85451   1.82254   -1.000
 5752.00    1.85856   1.80467   -1.000
 5753.00    1.83387   1.77753   -1.000
 5754.00    1.81997   1.76084   -1.000
 5755.00    1.82777   1.76850   -1.000
 5756.00    1.84961   1.79623   -1.000
 5757.00    1.86986   1.82662   -1.000
 5758.00    1.88650   1.84326   -1.000
 5759.00    1.89445   1.84014   -1.000
 5760.00    1.88727   1.82137   -1.000
 5761.00    1.85835   1.79662   -1.000
 5762.00    1.83898   1.77746   -1.000
 5763.00    1.84412   1.77457   -1.000
 5764.00    1.85283   1.79224   -1.000
 5765.00    1.86560   1.82230   -1.000
 5766.00    1.89763   1.84900   -1.000
 5767.00    1.91801   1.86304   -1.000
 5768.00    1.89838   1.86612   -1.000
 5769.00    1.89142   1.86325   -1.000
 5770.00    1.90765   1.85734   -1.000
 5771.00    1.89316   1.84955   -1.000
 5772.00    1.87271   1.84056   -1.000
 5773.00    1.87321   1.83171   -1.000
 5774.00    1.86141   1.82534   -1.000
 5775.00    1.86883   1.82362   -1.000
 5776.00    1.89433   1.82658   -1.000
 5777.00    1.89530   1.82997   -1.000
 5778.00    1.88566   1.82569   -1.000
 5779.00    1.85622   1.80707   -1.000
 5780.00    1.80107   1.77546   -1.000
 5781.00    1.75219   1.74150  175.203
 5782.00    1.70997   1.71793  176.957
 5783.00    1.69945   1.70965  180.490
 5784.00    1.71862   1.71139  183.652
 5785.00    1.75586   1.71792   -1.000
 5786.00    1.81058   1.73220   -1.000
 5787.00    1.84007   1.75652   -1.000
 5788.00    1.86720   1.78264   -1.000
 5789.00    1.87133   1.79896   -1.000
 5790.00    1.85701   1.80241   -1.000
 5791.00    1.85511   1.80016   -1.000
 5792.00    1.84697   1.80289   -1.000
 5793.00    1.84700   1.81553   -1.000
 5794.00    1.85387   1.83326   -1.000
 5795.00    1.86459   1.84629   -1.000
 5796.00    1.87220   1.84759   -1.000
 5797.00    1.86306   1.83910   -1.000
 5798.00    1.85085   1.83205   -1.000
 5799.00    1.84740   1.83726  173.733
 5800.00    1.87249   1.85423   -1.000
 5801.00    1.91283   1.87187   -1.000
 5802.00    1.91018   1.87864   -1.000
 5803.00    1.90534   1.87056   -1.000
 5804.00    1.91780   1.85306   -1.000
 5805.00    1.88337   1.83691   -1.000
 5806.00    1.86001   1.83024   -1.000
 5807.00    1.86836   1.83345   -1.000
 5808.00    1.87833   1.84175   -1.000
 5809.00    1.89554   1.85076   -1.000
 5810.00    1.91217   1.85865   -1.000
 5811.00    1.92407   1.86433   -1.000
 5812.00    1.90660   1.86589   -1.000
 5813.00    1.89614   1.86127   -1.000
 5814.00    1.90816   1.85018   -1.000
 5815.00    1.88902   1.83583   -1.000
 5816.00    1.87330   1.82603   -1.000
 5817.00    1.89351   1.82906   -1.000
 5818.00    1.91457   1.84526   -1.000
 5819.00    1.93942   1.86526   -1.000
 5820.00    1.94630   1.87900   -1.000
 5821.00    1.94751   1.88315   -1.000
 5822.00    1.95772   1.88040   -1.000
 5823.00    1.94890   1.87557   -1.000
 5824.00    1.92428   1.87235   -1.000
 5825.00    1.91296   1.87193   -1.000
 5826.00    1.91710   1.87353   -1.000
 5827.00    1.92170   1.87617   -1.000
 5828.00    1.92614   1.87949   -1.000
 5829.00    1.91541   1.88293   -1.000
 5830.00    1.89615   1.88507  169.504
 5831.00    1.90051   1.88469  169.725
 5832.00    1.91665   1.88166   -1.000
 5833.00    1.93004   1.87626   -1.000
 5834.00    1.93785   1.86940   -1.000
 5835.00    1.92628   1.86412   -1.000
 5836.00    1.92836   1.86312   -1.000
 5837.00    1.93363   1.86500   -1.000
 5838.00    1.91880   1.86708   -1.000
 5839.00    1.91143   1.87053   -1.000
 5840.00    1.91454   1.87759   -1.000
 5841.00    1.92064   1.88645   -1.000
 5842.00    1.93233   1.89249   -1.000
 5843.00    1.94807   1.89261   -1.000
 5844.00    1.93770   1.88647   -1.000
 5845.00    1.92142   1.87519   -1.000
 5846.00    1.90311   1.86108   -1.000
 5847.00    1.87766   1.84829   -1.000
 5848.00    1.86937   1.84119   -1.000
 5849.00    1.89388   1.84034   -1.000
 5850.00    1.90955   1.84017   -1.000
 5851.00    1.89465   1.83330   -1.000
 5852.00    1.87998   1.81843   -1.000
 5853.00    1.85901   1.80229   -1.000
 5854.00    1.85155   1.79190   -1.000
 5855.00    1.85288   1.78556   -1.000
 5856.00    1.83612   1.77473   -1.000
 5857.00    1.80573   1.75719   -1.000
 5858.00    1.80186   1.74407   -1.000
 5859.00    1.82884   1.74788   -1.000
 5860.00    1.85272   1.76737   -1.000
 5861.00    1.86686   1.78994   -1.000
 5862.00    1.86712   1.80570   -1.000
 5863.00    1.88815   1.81421   -1.000
 5864.00    1.89647   1.81856   -1.000
 5865.00    1.88296   1.81874   -1.000
 5866.00    1.89413   1.81425   -1.000
 5867.00    1.90149   1.81024   -1.000
 5868.00    1.91280   1.81441   -1.000
 5869.00    1.94249   1.82757   -1.000
 5870.00    1.93972   1.84198   -1.000
 5871.00    1.91357   1.84996   -1.000
 5872.00    1.89557   1.85032   -1.000
 5873.00    1.88362   1.84717   -1.000
 5874.00    1.89932   1.84470   -1.000
 5875.00    1.90599   1.84360   -1.000
 5876.00    1.89534   1.84131   -1.000
 5877.00    1.90317   1.83487   -1.000
 5878.00    1.90870   1.82362   -1.000
 5879.00    1.88758   1.80987   -1.000
 5880.00    1.86992   1.79774   -1.000
 5881.00    1.86619   1.79061   -1.000
 5882.00    1.84968   1.78806   -1.000
 5883.00    1.83262   1.78611   -1.000
 5884.00    1.83933   1.78262   -1.000
 5885.00    1.86423   1.77772   -1.000
 5886.00    1.87880   1.76367   -1.000
 5887.00    1.85424   1.72127   -1.000
 5888.00    1.76356   1.63767   -1.000
 5889.00    1.64208   1.53082   -1.000
 5890.00    1.60608   1.44935   -1.000
 5891.00    1.74871   1.43408   -1.000
 5892.00    2.09059   1.47752   -1.000
 5893.00    2.20454   1.53020   -1.000
 5894.00    1.62183   1.54732   -1.000
 5895.00    0.79484   1.52537   -1.000
 5896.00    0.54625   1.50058   -1.000
 5897.00    0.98836   1.51340   -1.000
 5898.00    1.57642   1.56874  202.661
 5899.00    1.86230   1.63737   -1.000
 5900.00    1.67523   1.69379   -1.000
 5901.00    1.36441   1.73356   -1.000
 5902.00    1.29737   1.76017   -1.000
 5903.00    1.48507   1.77589   -1.000
 5904.00    1.70430   1.78326   -1.000
 5905.00    1.80680   1.78618   -1.000
 5906.00    1.84628   1.78890   -1.000
 5907.00    1.88020   1.79437   -1.000
 5908.00    1.90452   1.80205   -1.000
 5909.00    1.89796   1.80904   -1.000
 5910.00    1.88079   1.81335   -1.000
 5911.00    1.85713   1.81361   -1.000
 5912.00    1.83682   1.80689   -1.000
 5913.00    1.83789   1.79146   -1.000
 5914.00    1.83242   1.77176   -1.000
 5915.00    1.82836   1.75730   -1.000
 5916.00    1.82141   1.75516   -1.000
 5917.00    1.84303   1.76501   -1.000
 5918.00    1.86868   1.78113   -1.000
 5919.00    1.88665   1.79657   -1.000
 5920.00    1.86161   1.80625   -1.000
 5921.00    1.82510   1.80915  180.203
 5922.00    1.82987   1.80837   -1.000
 5923.00    1.85224   1.80860   -1.000
 5924.00    1.86388   1.81220   -1.000
 5925.00    1.87288   1.81790   -1.000
 5926.00    1.86791   1.82243   -1.000
 5927.00    1.87699   1.82185   -1.000
 5928.00    1.89171   1.81385   -1.000
 5929.00    1.88029   1.80139   -1.000
 5930.00    1.85337   1.79296   -1.000
 5931.00    1.84292   1.79501   -1.000
 5932.00    1.85196   1.80344   -1.000
 5933.00    1.87196   1.80749   -1.000
 5934.00    1.89049   1.80356   -1.000
 5935.00    1.89068   1.79929   -1.000
 5936.00    1.88803   1.80312   -1.000
 5937.00    1.88378   1.81443   -1.000
 5938.00    1.87137   1.82499   -1.000
 5939.00    1.84959   1.82728   -1.000
 5940.00    1.84175   1.81957   -1.000
 5941.00    1.86411   1.80657   -1.000
 5942.00    1.87418   1.79696   -1.000
 5943.00    1.86117   1.79723   -1.000
 5944.00    1.85775   1.80636   -1.000
 5945.00    1.86157   1.81711   -1.000
 5946.00    1.86944   1.82153   -1.000
 5947.00    1.87385   1.81572   -1.000
 5948.00    1.84987   1.80335   -1.000
 5949.00    1.84012   1.79382   -1.000
 5950.00    1.85757   1.79281   -1.000
 5951.00    1.87473   1.79582   -1.000
 5952.00    1.85867   1.79576   -1.000
 5953.00    1.83940   1.79359   -1.000
 5954.00    1.85578   1.79428   -1.000
 5955.00    1.87069   1.79673   -1.000
 5956.00    1.87394   1.79610   -1.000
 5957.00    1.86532   1.79329   -1.000
 5958.00    1.84671   1.79515   -1.000
 5959.00    1.82993   1.80559   -1.000
 5960.00    1.83553   1.82104  181.346
 5961.00    1.86639   1.83493   -1.000
 5962.00    1.88527   1.84301   -1.000
 5963.00    1.90025   1.84434   -1.000
 5964.00    1.89367   1.84005   -1.000
 5965.00    1.87303   1.83296   -1.000
 5966.00    1.86597   1.82764   -1.000
 5967.00    1.85583   1.82801   -1.000
 5968.00    1.86854   1.83371   -1.000
 5969.00    1.89797   1.84114   -1.000
 5970.00    1.89168   1.84790   -1.000
 5971.00    1.91544   1.85306   -1.000
 5972.00    1.93662   1.85507   -1.000
 5973.00    1.92273   1.85174   -1.000
 5974.00    1.90099   1.84146   -1.000
 5975.00    1.87656   1.82476   -1.000
 5976.00    1.85112   1.80636   -1.000
 5977.00    1.83755   1.79403   -1.000
 5978.00    1.85336   1.79332   -1.000
 5979.00    1.87206   1.80343   -1.000
 5980.00    1.88317   1.81721   -1.000
 5981.00    1.89526   1.82463   -1.000
 5982.00    1.86127   1.81866   -1.000
 5983.00    1.82953   1.80110   -1.000
 5984.00    1.82558   1.78282   -1.000
 5985.00    1.82037   1.77584   -1.000
 5986.00    1.83743   1.78352   -1.000
 5987.00    1.84468   1.79903   -1.000
 5988.00    1.87144   1.81361   -1.000
 5989.00    1.90013   1.82302   -1.000
 5990.00    1.88667   1.82665   -1.000
 5991.00    1.87608   1.82699   -1.000
 5992.00    1.88435   1.82975   -1.000
 5993.00    1.90519   1.83830   -1.000
 5994.00    1.91341   1.84757   -1.000
 5995.00    1.90902   1.84894   -1.000
 5996.00    1.88998   1.83995   -1.000
 5997.00    1.87441   1.82668   -1.000
 5998.00    1.86715   1.81794   -1.000
 5999.00    1.87766   1.81774   -1.000
 6000.00    1.88924   1.82247   -1.000
 6001.00    1.89035   1.82499   -1.000
 6002.00    1.89066   1.82186   -1.000
 6003.00    1.86387   1.81633   -1.000
 6004.00    1.84065   1.81334   -1.000
 6005.00    1.84088   1.81142   -1.000
 6006.00    1.83822   1.80379   -1.000
 6007.00    1.85122   1.78958   -1.000
 6008.00    1.84980   1.77899   -1.000
 6009.00    1.82526   1.78302   -1.000
 6010.00    1.83881   1.79954   -1.000
 6011.00    1.85085   1.81389   -1.000
 6012.00    1.84940   1.81548   -1.000
 6013.00    1.84127   1.80814   -1.000
 6014.00    1.82824   1.80148   -1.000
 6015.00    1.84100   1.79939   -1.000
 6016.00    1.83926   1.79930   -1.000
 6017.00    1.84341   1.79850   -1.000
 6018.00    1.86341   1.79639   -1.000
 6019.00    1.83575   1.79183   -1.000
 6020.00    1.82541   1.78506   -1.000
 6021.00    1.82110   1.78069   -1.000
 6022.00    1.82492   1.78301   -1.000
 6023.00    1.84159   1.79108   -1.000
 6024.00    1.84625   1.80186   -1.000
 6025.00    1.83541   1.81393   -1.000
 6026.00    1.84420   1.82597   -1.000
 6027.00    1.85873   1.83632   -1.000
 6028.00    1.86579   1.84533   -1.000
 6029.00    1.87129   1.85379   -1.000
 6030.00    1.87974   1.86051   -1.000
 6031.00    1.89695   1.86511   -1.000
 6032.00    1.90545   1.86942   -1.000
 6033.00    1.90206   1.87427   -1.000
 6034.00    1.88961   1.87850  177.285
 6035.00    1.88736   1.88112  177.426
 6036.00    1.90478   1.88185   -1.000
 6037.00    1.90481   1.88022   -1.000
 6038.00    1.88803   1.87590  175.894
 6039.00    1.87335   1.86959  175.741
 6040.00    1.85719   1.86335  175.597
 6041.00    1.85479   1.85954  176.185
 6042.00    1.86761   1.85939  176.999
 6043.00    1.86910   1.86357  177.362
 6044.00    1.88004   1.87179  177.573
 6045.00    1.90039   1.88114   -1.000
 6046.00    1.91678   1.88821   -1.000
 6047.00    1.90849   1.89239  175.474
 6048.00    1.89199   1.89491  174.649
 6049.00    1.88964   1.89638  174.885
 6050.00    1.92003   1.89644   -1.000
 6051.00    1.93438   1.89411   -1.000
 6052.00    1.91200   1.88822   -1.000
 6053.00    1.88332   1.87884  175.596
 6054.00    1.86684   1.86773  175.864
 6055.00    1.86397   1.85724  176.076
 6056.00    1.87030   1.85014   -1.000
 6057.00    1.85816   1.84935  177.276
 6058.00    1.84101   1.85538  177.970
 6059.00    1.86341   1.86470  178.833
 6060.00    1.89203   1.87189   -1.000
 6061.00    1.88413   1.87222  178.343
 6062.00    1.86597   1.86299  177.355
 6063.00    1.85969   1.84508  176.900
 6064.00    1.84976   1.82474   -1.000
 6065.00    1.86997   1.81278   -1.000
 6066.00    2.00656   1.81825   -1.000
 6067.00    2.21653   1.84011   -1.000
 6068.00    1.95630   1.86712   -1.000
 6069.00    0.71076   1.88797   -1.000
 6070.00    0.19440   1.89937   -1.000
 6071.00    1.20453   1.90363   -1.000
 6072.00    2.00663   1.90278   -1.000
 6073.00    2.13832   1.89913   -1.000
 6074.00    1.75431   1.89672   -1.000
 6075.00    0.77890   1.89502   -1.000
 6076.00    1.05880   1.88819   -1.000
 6077.00    1.97484   1.87434   -1.000
 6078.00    1.85386   1.85850  175.795
 6079.00    1.84787   1.84680  176.561
 6080.00    1.85584   1.84008  177.539
 6081.00    1.85648   1.83492   -1.000
 6082.00    1.83961   1.83020  180.016
 6083.00    1.80872   1.82805   -1.000
 6084.00    1.81688   1.82907  180.730
 6085.00    1.84145   1.83195  181.051
 6086.00    1.84669   1.83626  181.404
 6087.00    1.85457   1.84130  181.287
 6088.00    1.87504   1.84381   -1.000
 6089.00    1.87953   1.84048   -1.000
 6090.00    1.86893   1.83265   -1.000
 6091.00    1.85538   1.82609   -1.000
 6092.00    1.83787   1.82579  180.570
 6093.00    1.82790   1.83247  181.602
 6094.00    1.83877   1.84335  182.010
 6095.00    1.86972   1.85394   -1.000
 6096.00    1.89620   1.86093   -1.000
 6097.00    1.89530   1.86493   -1.000
 6098.00    1.88404   1.86803   -1.000
 6099.00    1.87471   1.86752  177.986
 6100.00    1.87590   1.85479   -1.000
 6101.00    1.84040   1.82488  178.620
 6102.00    1.79522   1.78808  178.660
 6103.00    1.78453   1.76675   -1.000
 6104.00    1.80304   1.77417   -1.000
 6105.00    1.80549   1.80113  186.748
 6106.00    1.82511   1.82815  187.986
 6107.00    1.83316   1.84474  185.423
 6108.00    1.86233   1.85328  181.994
 6109.00    1.88139   1.85917   -1.000
 6110.00    1.86379   1.86319  180.138
 6111.00    1.85531   1.86458  180.840
 6112.00    1.85160   1.86585  181.060
 6113.00    1.84757   1.86979   -1.000
 6114.00    1.86240   1.87450  180.266
 6115.00    1.84892   1.87571   -1.000
 6116.00    1.85865   1.87286  179.421
 6117.00    1.85837   1.86842  178.547
 6118.00    1.83626   1.86102   -1.000
 6119.00    1.80100   1.84527   -1.000
 6120.00    1.78774   1.81961   -1.000
 6121.00    1.78010   1.79144  180.811
 6122.00    1.77109   1.77409  182.372
 6123.00    1.76488   1.77698  185.093
 6124.00    1.78274   1.79589  187.221
 6125.00    1.81430   1.81613  188.384
 6126.00    1.81782   1.82685  187.261
 6127.00    1.83555   1.82853  184.156
 6128.00    1.83982   1.82871  182.684
 6129.00    1.82593   1.83462  183.223
 6130.00    1.83163   1.84784  183.928
 6131.00    1.82999   1.86324   -1.000
 6132.00    1.83670   1.87256   -1.000
 6133.00    1.85016   1.86769   -1.000
 6134.00    1.82402   1.84185   -1.000
 6135.00    1.78829   1.79516  179.777
 6136.00    1.74609   1.74304  180.635
 6137.00    1.71667   1.71238  183.275
 6138.00    1.72214   1.71957  188.090
 6139.00    1.78007   1.75349   -1.000
 6140.00    1.81892   1.78694   -1.000
 6141.00    1.81552   1.80447  195.102
 6142.00    1.80095   1.81349  189.530
 6143.00    1.79533   1.82704   -1.000
 6144.00    1.82193   1.84531   -1.000
 6145.00    1.83052   1.85902   -1.000
 6146.00    1.84824   1.86220  184.371
 6147.00    1.85136   1.85602  182.180
 6148.00    1.82330   1.84511   -1.000
 6149.00    1.81302   1.83437   -1.000
 6150.00    1.80217   1.82797   -1.000
 6151.00    1.79266   1.82806   -1.000
 6152.00    1.81238   1.83251   -1.000
 6153.00    1.81943   1.83520  185.117
 6154.00    1.83728   1.83157  184.799
 6155.00    1.84720   1.82361   -1.000
 6156.00    1.81244   1.81686  182.867
 6157.00    1.79978   1.81269  183.338
 6158.00    1.80483   1.80509  184.867
 6159.00    1.78740   1.78381  185.461
 6160.00    1.75470   1.74296  185.729
 6161.00    1.69652   1.69104  186.966
 6162.00    1.63841   1.65021  189.579
 6163.00    1.61969   1.64013   -1.000
 6164.00    1.63703   1.66171   -1.000
 6165.00    1.68528   1.69805  204.576
 6166.00    1.72720   1.72870  204.535
 6167.00    1.74209   1.74085  200.201
 6168.00    1.71854   1.73325  195.252
 6169.00    1.69624   1.71735   -1.000
 6170.00    1.70205   1.71172  193.003
 6171.00    1.72359   1.72606  194.257
 6172.00    1.74858   1.75234  196.821
 6173.00    1.76673   1.77566  197.628
 6174.00    1.76267   1.78925   -1.000
 6175.00    1.75754   1.79524   -1.000
 6176.00    1.74428   1.79811   -1.000
 6177.00    1.74193   1.80166   -1.000
 6178.00    1.76990   1.80754   -1.000
 6179.00    1.77755   1.81452   -1.000
 6180.00    1.77149   1.82130   -1.000
 6181.00    1.77096   1.82860   -1.000
 6182.00    1.79353   1.83613   -1.000
 6183.00    1.81079   1.84047   -1.000
 6184.00    1.79163   1.83820   -1.000
 6185.00    1.78484   1.82860   -1.000
 6186.00    1.78263   1.81381   -1.000
 6187.00    1.75585   1.79756   -1.000
 6188.00    1.73874   1.78176   -1.000
 6189.00    1.72329   1.76425   -1.000
 6190.00    1.72131   1.74399   -1.000
 6191.00    1.70388   1.72865   -1.000
 6192.00    1.68217   1.73055   -1.000
 6193.00    1.71385   1.75241   -1.000
 6194.00    1.74569   1.78320   -1.000
 6195.00    1.76687   1.80916   -1.000
 6196.00    1.77589   1.82327   -1.000
 6197.00    1.78033   1.82419   -1.000
 6198.00    1.75998   1.81365   -1.000
 6199.00    1.72638   1.79845   -1.000
 6200.00    1.74093   1.78991   -1.000
 6201.00    1.75389   1.79523   -1.000
 6202.00    1.76285   1.81090   -1.000
 6203.00    1.76379   1.82748   -1.000
 6204.00    1.76818   1.83853   -1.000
 6205.00    1.78198   1.84393   -1.000
 6206.00    1.79890   1.84684   -1.000
 6207.00    1.79544   1.84910   -1.000
 6208.00    1.76831   1.84952   -1.000
 6209.00    1.76680   1.84553   -1.000
 6210.00    1.76864   1.83507   -1.000
 6211.00    1.76335   1.81694   -1.000
 6212.00    1.75658   1.79133   -1.000
 6213.00    1.72068   1.76262   -1.000
 6214.00    1.70376   1.73975   -1.000
 6215.00    1.67341   1.73017   -1.000
 6216.00    1.75269   1.73343   -1.000
 6217.00    1.98410   1.74142   -1.000
 6218.00    2.04614   1.74513   -1.000
 6219.00    2.03153   1.74259   -1.000
 6220.00    2.04441   1.74015   -1.000
 6221.00    2.04983   1.74459   -1.000
 6222.00    2.07057   1.75529   -1.000
 6223.00    2.09683   1.76642   -1.000
 6224.00    2.09314   1.77417   -1.000
 6225.00    2.00147   1.77855   -1.000
 6226.00    1.54539   1.77941   -1.000
 6227.00    0.87231   1.77344   -1.000
 6228.00    1.49265   1.75618   -1.000
 6229.00    1.74732   1.72823   -1.000
 6230.00    1.64909   1.69988   -1.000
 6231.00    1.63865   1.68629   -1.000
 6232.00    1.64959   1.69557   -1.000
 6233.00    1.68126   1.72303   -1.000
 6234.00    1.72602   1.75586   -1.000
 6235.00    1.75641   1.78078   -1.000
 6236.00    1.77968   1.78967  198.365
 6237.00    1.82417   1.78249   -1.000
 6238.00    1.82785   1.76596   -1.000
 6239.00    1.77532   1.74827   -1.000
 6240.00    1.71724   1.73470   -1.000
 6241.00    1.65347   1.72554   -1.000
 6242.00    1.59879   1.71719   -1.000
 6243.00    1.61591   1.70748   -1.000
 6244.00    1.64505   1.69926   -1.000
 6245.00    1.65674   1.69789   -1.000
 6246.00    1.66662   1.70719   -1.000
 6247.00    1.68068   1.72683   -1.000
 6248.00    1.72200   1.75017   -1.000
 6249.00    1.71736   1.76623   -1.000
 6250.00    1.68165   1.76624   -1.000
 6251.00    1.68149   1.74924   -1.000
 6252.00    1.68031   1.72355   -1.000
 6253.00    1.64988   1.70134   -1.000
 6254.00    1.62349   1.68906   -1.000
 6255.00    1.63968   1.68358   -1.000
 6256.00    1.66310   1.67847  203.045
 6257.00    1.62180   1.67265   -1.000
 6258.00    1.60136   1.67191   -1.000
 6259.00    1.66643   1.68255   -1.000
 6260.00    1.71982   1.70503   -1.000
 6261.00    1.73696   1.73361  207.993
 6262.00    1.75244   1.75980  206.227
 6263.00    1.71256   1.77624   -1.000
 6264.00    1.65663   1.78086   -1.000
 6265.00    1.67937   1.77916   -1.000
 6266.00    1.72036   1.77905   -1.000
 6267.00    1.71819   1.78260   -1.000
 6268.00    1.71596   1.78539   -1.000
 6269.00    1.71970   1.78444   -1.000
 6270.00    1.71588   1.78287   -1.000
 6271.00    1.72218   1.78499   -1.000
 6272.00    1.70385   1.79027   -1.000
 6273.00    1.69017   1.79368   -1.000
 6274.00    1.70590   1.79055   -1.000
 6275.00    1.72214   1.78005   -1.000
 6276.00    1.73233   1.76419   -1.000
 6277.00    1.73414   1.74515  195.924
 6278.00    1.71505   1.72513  197.476
 6279.00    1.67581   1.70785   -1.000
 6280.00    1.63498   1.69907   -1.000
 6281.00    1.58786   1.70350   -1.000
 6282.00    1.58874   1.72050   -1.000
 6283.00    1.59498   1.74426   -1.000
 6284.00    1.59379   1.76793   -1.000
 6285.00    1.61569   1.78763   -1.000
 6286.00    1.63487   1.80292   -1.000
 6287.00    1.65906   1.81393   -1.000
 6288.00    1.70283   1.81909   -1.000
 6289.00    1.73783   1.81631   -1.000
 6290.00    1.74813   1.80647   -1.000
 6291.00    1.71535   1.79432   -1.000
 6292.00    1.66321   1.78515   -1.000
 6293.00    1.62205   1.78060   -1.000
 6294.00    1.62408   1.77744   -1.000
 6295.00    1.65614   1.77063   -1.000
 6296.00    1.67982   1.75912   -1.000
 6297.00    1.68098   1.74780   -1.000
 6298.00    1.67946   1.74170   -1.000
 6299.00    1.72002   1.73947   -1.000
 6300.00    1.79272   1.73601   -1.000
 6301.00    1.86957   1.73080   -1.000
 6302.00    1.94821   1.73012   -1.000
 6303.00    2.05249   1.73964   -1.000
 6304.00    1.97144   1.75771   -1.000
 6305.00    1.60957   1.77839   -1.000
 6306.00    1.21867   1.79736   -1.000
 6307.00    1.19803   1.81225   -1.000
 6308.00    1.46041   1.82027   -1.000
 6309.00    1.62606   1.81982   -1.000
 6310.00    1.69831   1.81305   -1.000
 6311.00    1.69406   1.80431   -1.000
 6312.00    1.66794   1.79586   -1.000
 6313.00    1.62054   1.78644   -1.000
 6314.00    1.59773   1.77439   -1.000
 6315.00    1.63382   1.76139   -1.000
 6316.00    1.66791   1.75102   -1.000
 6317.00    1.64887   1.74518   -1.000
 6318.00    1.65197   1.74533   -1.000
 6319.00    1.65517   1.75381   -1.000
 6320.00    1.65350   1.76957   -1.000
 6321.00    1.65686   1.78690   -1.000
 6322.00    1.66524   1.80174   -1.000
 6323.00    1.70343   1.81469   -1.000
 6324.00    1.72851   1.82644   -1.000
 6325.00    1.73571   1.83512   -1.000
 6326.00    1.73765   1.83917   -1.000
 6327.00    1.70374   1.83973   -1.000
 6328.00    1.70868   1.83925   -1.000
 6329.00    1.75601   1.83913   -1.000
 6330.00    1.77095   1.84016   -1.000
 6331.00    1.76491   1.84307   -1.000
 6332.00    1.78295   1.84529   -1.000
 6333.00    1.77235   1.83994   -1.000
 6334.00    1.72073   1.82294   -1.000
 6335.00    1.68358   1.79993   -1.000
 6336.00    1.64893   1.78322   -1.000
 6337.00    1.63058   1.78140   -1.000
 6338.00    1.65860   1.79322   -1.000
 6339.00    1.69607   1.81132   -1.000
 6340.00    1.76149   1.82788   -1.000
 6341.00    1.72948   1.83662   -1.000
 6342.00    1.73988   1.83489   -1.000
 6343.00    1.74407   1.82662   -1.000
 6344.00    1.72312   1.82054   -1.000
 6345.00    1.70261   1.82314   -1.000
 6346.00    1.73548   1.83407   -1.000
 6347.00    1.74757   1.84849   -1.000
 6348.00    1.76939   1.86199   -1.000
 6349.00    1.74857   1.87217   -1.000
 6350.00    1.75934   1.87773   -1.000
 6351.00    1.78115   1.87774   -1.000
 6352.00    1.75464   1.87131   -1.000
 6353.00    1.74632   1.85869   -1.000
 6354.00    1.70876   1.84316   -1.000
 6355.00    1.70605   1.82972   -1.000
 6356.00    1.68870   1.81985   -1.000
 6357.00    1.71026   1.80992   -1.000
 6358.00    1.70669   1.79741   -1.000
 6359.00    1.71025   1.78466   -1.000
 6360.00    1.71757   1.77482   -1.000
 6361.00    1.68321   1.76857   -1.000
 6362.00    1.66746   1.76650   -1.000
 6363.00    1.70704   1.77037   -1.000
 6364.00    1.75893   1.78090   -1.000
 6365.00    1.78267   1.79653  193.590
 6366.00    1.82726   1.81431  193.365
 6367.00    1.88044   1.83088   -1.000
 6368.00    1.79687   1.84325   -1.000
 6369.00    1.68302   1.85039   -1.000
 6370.00    1.58525   1.85475   -1.000
 6371.00    1.61895   1.86016   -1.000
 6372.00    1.66788   1.86781   -1.000
 6373.00    1.73306   1.87534   -1.000
 6374.00    1.75927   1.87963   -1.000
 6375.00    1.75417   1.87942   -1.000
 6376.00    1.73942   1.87526   -1.000
 6377.00    1.75852   1.86809   -1.000
 6378.00    1.74048   1.85933   -1.000
 6379.00    1.74043   1.85132   -1.000
 6380.00    1.72009   1.84630   -1.000
 6381.00    1.70003   1.84515   -1.000
 6382.00    1.72458   1.84700   -1.000
 6383.00    1.75565   1.84988   -1.000
 6384.00    1.71896   1.85276   -1.000
 6385.00    1.68674   1.85638   -1.000
 6386.00    1.71691   1.86114   -1.000
 6387.00    1.70349   1.86563   -1.000
 6388.00    1.69549   1.86787   -1.000
 6389.00    1.71407   1.86622   -1.000
 6390.00    1.72109   1.85840   -1.000
 6391.00    1.67365   1.84246   -1.000
 6392.00    1.65150   1.82147   -1.000
 6393.00    1.62668   1.80583   -1.000
 6394.00    1.64957   1.80642   -1.000
 6395.00    1.62766   1.82336   -1.000
 6396.00    1.62993   1.84349   -1.000
 6397.00    1.65490   1.85084   -1.000
 6398.00    1.64349   1.83909   -1.000
 6399.00    1.61150   1.81699   -1.000
 6400.00    1.57525   1.80310   -1.000
 6401.00    1.57922   1.81073   -1.000
 6402.00    1.58981   1.83639   -1.000
 6403.00    1.62106   1.86432   -1.000
 6404.00    1.61920   1.88051   -1.000
 6405.00    1.62122   1.88055   -1.000
 6406.00    1.60689   1.86842   -1.000
 6407.00    1.59684   1.85304   -1.000
 6408.00    1.56970   1.84309   -1.000
 6409.00    1.53925   1.84047   -1.000
 6410.00    1.55058   1.84027   -1.000
 6411.00    1.54018   1.83913   -1.000
 6412.00    1.52976   1.83927   -1.000
 6413.00    1.50920   1.84311   -1.000
 6414.00    1.50550   1.84939   -1.000
 6415.00    1.51178   1.85533   -1.000
 6416.00    1.51562   1.85847   -1.000
 6417.00    1.50715   1.85609   -1.000
 6418.00    1.50116   1.84597   -1.000
 6419.00    1.46500   1.82986   -1.000
 6420.00    1.44279   1.81583   -1.000
 6421.00    1.40003   1.81412   -1.000
 6422.00    1.40563   1.82855   -1.000
 6423.00    1.42863   1.85220   -1.000
 6424.00    1.41854   1.87409   -1.000
 6425.00    1.41255   1.88885   -1.000
 6426.00    1.42765   1.89662   -1.000
 6427.00    1.39817   1.89648   -1.000
 6428.00    1.39246   1.88511   -1.000
