###################################################################
## OUTPUT of StarlightChains_v04.for    [Cid@UFSC - 01/Apr/2007] ##
###################################################################

## Some input info
NGC6528_b_2.cxt                          [arq_obs]
Base.BC03.S                              [arq_base]
NGC6528_b_2.msk                          [arq_masks]
StCv04.C99.config                        [arq_config]
  150                                    [N_base]
    0                                    [N_YAV_components = # of components with extra extinction!]
    0                                    [i_FitPowerLaw (1/0 = Yes/No)]
-9.99                                    [alpha_PowerLaw]
CCM                                      [red_law_option]
 1.458241                                [q_norm = A(l_norm)/A(V)]

## (Re)Sampling Parameters
 3359.00                                 [l_ini (A)]
 6428.00                                 [l_fin (A)]
    1.00                                 [dl    (A)]     (OBS: dl_cushion =    50.00 A)

## Normalization info
 4020.00                                 [l_norm (A) - for base]
 4010.00                                 [llow_norm (A) - window for f_obs]
 4060.00                                 [lupp_norm (A) - window for f_obs]
4.330667E-15                             [fobs_norm (in input units)]

## S/N
 4730.00                                 [llow_SN (A) - window for S/N]
 4780.00                                 [lupp_SN (A) - window for S/N]
  27.791                                 [S/N in S/N window]
  14.946                                 [S/N in norm. window]
 304.113                                 [S/N_err in S/N window]
 163.548                                 [S/N_err in norm. window]
  1.0000                                 [fscale_chi2]

## etc...
  2147483603                             [idum_orig]
  3066                                   [NOl_eff]
   825                                   [Nl_eff]
  2241    NSIGMA                         [Ntot_cliped & clip_method]
  4869690                                [Nglobal_steps]
   7                                     [N_chains]
  27                                     [NEX0s_base = N_base in EX0s-fits]
 0   0   1      139   2.0   3.772E+02    [Clip-Bug, RC-Crash & Burn-In warning-flags, n_censored_weights, wei_nsig_threshold & wei_limit]
   186    186.818    186.813      0.004  [idt_all, wdt_TotTime, wdt_UsrTime & wdt_SysTime (sec)]

## Synthesis Results - Best model ##

 3.21577E+00                             [chi2/Nl_eff]
     2.35780                             [adev (%)]

    96.70869                             [sum-of-x (%)]
 3.36771E-14                             [Flux_tot (units of input spectrum!)]
 2.50591E-09                             [Mini_tot (???)]
 1.25239E-09                             [Mcor_tot (???)]

  -8.13                                  [v0_min  (km/s)]
  58.41                                  [vd_min  (km/s)]
 1.5521                                  [AV_min  (mag)]
 0.0000                                  [YAV_min (mag)]

# j     x_j(%)      Mini_j(%)     Mcor_j(%)     age_j(yr)     Z_j      (L/M)_j    YAV?  Mstars   component_j        a/Fe...       SSP_chi2r SSP_adev(%)   SSP_AV   SSP_x(%)
  1      1.0101     1.7203E-03    3.4421E-03    1.000000E+06  0.00010  8.160E-03    0   1.0000   age020_m22            0.0000     4.7514E+03    47.2543   4.0000    98.7930
  2      5.6647     1.6541E-03    3.3097E-03    3.160000E+06  0.00010  4.759E-02    0   1.0000   age045_m22            0.0000     4.0084E+02    10.3636   3.8853    95.2946
  3      6.0553     4.3555E-03    8.3505E-03    5.010000E+06  0.00010  1.932E-02    0   0.9582   age055_m22            0.0000     7.4296E+02    17.5161   4.0000    88.9265
  4      0.0000     0.0000E+00    0.0000E+00    6.610000E+06  0.00010  9.973E-03    0   0.9297   age061_m22            0.0000     4.8188E+03    46.6236   4.0000   101.7626
  5      0.0000     0.0000E+00    0.0000E+00    8.710000E+06  0.00010  7.690E-03    0   0.9030   age067_m22            0.0000     4.7139E+03    46.2374   4.0000   102.2422
  6      0.8834     1.9258E-03    3.4302E-03    1.000000E+07  0.00010  6.375E-03    0   0.8902   age070_m22            0.0000     4.7025E+03    46.2127   4.0000   102.4735
  7      0.0000     0.0000E+00    0.0000E+00    1.445000E+07  0.00010  4.874E-03    0   0.8589   age078_m22            0.0000     3.7225E+03    41.8985   4.0000   104.9342
  8      0.2182     7.3893E-04    1.2085E-03    2.512000E+07  0.00010  4.103E-03    0   0.8174   age090_m22            0.0000     2.0995E+03    32.0048   4.0000   108.4113
  9      1.3974     5.3144E-03    8.3261E-03    4.000000E+07  0.00010  3.654E-03    0   0.7830   age104_m22            0.0000     1.3463E+03    24.3130   4.0000   109.3508
 10      0.0000     0.0000E+00    0.0000E+00    5.500000E+07  0.00010  3.093E-03    0   0.7597   age110_m22            0.0000     1.1612E+03    21.7179   4.0000   109.1811
 11      0.0000     0.0000E+00    0.0000E+00    1.015200E+08  0.00010  2.431E-03    0   0.7138   age116_m22            0.0000     8.3017E+02    15.6649   4.0000   106.2216
 12      0.0000     0.0000E+00    0.0000E+00    1.609000E+08  0.00010  1.319E-03    0   0.6775   age120_m22            0.0000     6.4353E+02    11.7676   4.0000    99.4105
 13      0.0000     0.0000E+00    0.0000E+00    2.861200E+08  0.00010  1.075E-03    0   0.6412   age125_m22            0.0000     9.7129E+02    14.5286   4.0000   102.6288
 14      0.0000     0.0000E+00    0.0000E+00    5.088000E+08  0.00010  7.183E-04    0   0.6083   age130_m22            0.0000     1.0719E+03    15.2789   3.7931   103.3101
 15      0.0000     0.0000E+00    0.0000E+00    9.047900E+08  0.00010  4.524E-04    0   0.5785   age135_m22            0.0000     1.0623E+03    15.3407   3.5861   104.4569
 16      0.0000     0.0000E+00    0.0000E+00    1.278050E+09  0.00010  3.018E-04    0   0.5588   age138_m22            0.0000     6.8472E+02    12.1724   3.0883   102.9022
 17      0.0000     0.0000E+00    0.0000E+00    1.434000E+09  0.00010  2.691E-04    0   0.5532   age139_m22            0.0000     6.1254E+02    11.5588   2.9380   102.3601
 18      0.0000     0.0000E+00    0.0000E+00    2.500000E+09  0.00010  1.582E-04    0   0.5296   age150_m22            0.0000     5.8216E+02    11.3646   2.8366   103.2564
 19      0.0000     0.0000E+00    0.0000E+00    4.250000E+09  0.00010  1.007E-04    0   0.5110   age158_m22            0.0000     4.5045E+02    10.0108   2.6808   101.9787
 20      0.0000     0.0000E+00    0.0000E+00    6.250000E+09  0.00010  6.869E-05    0   0.4985   age166_m22            0.0000     3.5652E+02     8.9336   2.6260    99.5224
 21      0.0000     0.0000E+00    0.0000E+00    7.500000E+09  0.00010  5.873E-05    0   0.4931   age171_m22            0.0000     3.5215E+02     8.9709   2.6246    99.0139
 22      0.0000     0.0000E+00    0.0000E+00    1.000000E+10  0.00010  4.481E-05    0   0.4854   age181_m22            0.0000     3.4438E+02     8.8813   2.5867    98.6288
 23      0.0000     0.0000E+00    0.0000E+00    1.300000E+10  0.00010  3.489E-05    0   0.4791   age193_m22            0.0000     3.2605E+02     8.6570   2.5278    98.0982
 24      0.0061     2.7853E-03    2.6561E-03    1.500000E+10  0.00010  3.035E-05    0   0.4766   age201_m22            0.0000     3.1441E+02     8.5373   2.4885    97.9460
 25      0.0000     0.0000E+00    0.0000E+00    1.800000E+10  0.00010  2.510E-05    0   0.4735   age213_m22            0.0000     2.9086E+02     8.2768   2.4199    97.4162
 26      0.5399     8.8703E-04    1.7749E-03    1.000000E+06  0.00040  8.458E-03    0   1.0000   age020_m32            0.0000     4.8523E+03    47.4323   4.0000    99.5528
 27      0.0000     0.0000E+00    0.0000E+00    3.160000E+06  0.00040  3.973E-02    0   1.0000   age045_m32            0.0000     1.8952E+03    30.1869   4.0000   107.3774
 28      0.0000     0.0000E+00    0.0000E+00    5.010000E+06  0.00040  1.935E-02    0   0.9532   age055_m32            0.0000     3.0041E+03    37.2883   4.0000   103.5625
 29      0.0000     0.0000E+00    0.0000E+00    6.610000E+06  0.00040  1.204E-02    0   0.9243   age061_m32            0.0000     4.0824E+03    43.4654   4.0000   103.4911
 30      0.0000     0.0000E+00    0.0000E+00    8.710000E+06  0.00040  9.433E-03    0   0.9001   age067_m32            0.0000     3.8714E+03    42.5378   4.0000   104.3835
 31      0.0000     0.0000E+00    0.0000E+00    1.000000E+07  0.00040  8.053E-03    0   0.8877   age070_m32            0.0000     3.7040E+03    41.7189   4.0000   104.6875
 32      0.0000     0.0000E+00    0.0000E+00    1.445000E+07  0.00040  7.027E-03    0   0.8578   age078_m32            0.0000     1.9498E+03    30.2647   4.0000   105.7292
 33      0.0000     0.0000E+00    0.0000E+00    2.512000E+07  0.00040  4.707E-03    0   0.8166   age090_m32            0.0000     1.2306E+03    23.1426   4.0000   105.6781
 34      0.0000     0.0000E+00    0.0000E+00    4.000000E+07  0.00040  3.714E-03    0   0.7827   age104_m32            0.0000     8.9583E+02    18.0955   4.0000   105.5063
 35      0.0000     0.0000E+00    0.0000E+00    5.500000E+07  0.00040  2.982E-03    0   0.7593   age110_m32            0.0000     8.3418E+02    16.6799   4.0000   105.3848
 36      0.0000     0.0000E+00    0.0000E+00    1.015200E+08  0.00040  2.188E-03    0   0.7143   age116_m32            0.0000     7.6825E+02    13.6310   4.0000   103.8052
 37      0.2958     2.4327E-03    3.3372E-03    1.609000E+08  0.00040  1.690E-03    0   0.6856   age120_m32            0.0000     8.5365E+02    13.7279   4.0000   102.0658
 38      0.0000     0.0000E+00    0.0000E+00    2.861200E+08  0.00040  1.152E-03    0   0.6509   age125_m32            0.0000     9.8199E+02    14.5968   3.7812   102.9990
 39      0.0000     0.0000E+00    0.0000E+00    5.088000E+08  0.00040  7.331E-04    0   0.6182   age130_m32            0.0000     1.0102E+03    14.9358   3.6076   103.5380
 40      0.0000     0.0000E+00    0.0000E+00    9.047900E+08  0.00040  3.960E-04    0   0.5890   age135_m32            0.0000     6.9518E+02    12.4114   3.1467   102.3630
 41      0.0000     0.0000E+00    0.0000E+00    1.278050E+09  0.00040  2.854E-04    0   0.5687   age138_m32            0.0000     6.1350E+02    11.6645   2.8758   104.4366
 42      0.0000     0.0000E+00    0.0000E+00    1.434000E+09  0.00040  2.531E-04    0   0.5632   age139_m32            0.0000     6.0124E+02    11.5841   2.8247   104.3093
 43      0.3919     3.6602E-02    3.9446E-02    2.500000E+09  0.00040  1.488E-04    0   0.5386   age150_m32            0.0000     4.8659E+02    10.5758   2.5707   102.6087
 44      0.0000     0.0000E+00    0.0000E+00    4.250000E+09  0.00040  9.082E-05    0   0.5199   age158_m32            0.0000     3.1998E+02     8.5522   2.4798    99.6808
 45      0.0000     0.0000E+00    0.0000E+00    6.250000E+09  0.00040  6.362E-05    0   0.5076   age166_m32            0.0000     2.4514E+02     7.6511   2.4538    96.7140
 46      0.0000     0.0000E+00    0.0000E+00    7.500000E+09  0.00040  5.289E-05    0   0.5027   age171_m32            0.0000     2.2745E+02     7.3984   2.4154    95.5039
 47      0.0000     0.0000E+00    0.0000E+00    1.000000E+10  0.00040  3.972E-05    0   0.4948   age181_m32            0.0000     2.0951E+02     7.1281   2.3482    94.1353
 48      0.0000     0.0000E+00    0.0000E+00    1.300000E+10  0.00040  3.283E-05    0   0.4870   age193_m32            0.0000     2.3156E+02     7.3345   2.2994    96.6719
 49      0.0000     0.0000E+00    0.0000E+00    1.500000E+10  0.00040  2.925E-05    0   0.4854   age201_m32            0.0000     2.5279E+02     7.6321   2.2793    98.1435
 50      0.0000     0.0000E+00    0.0000E+00    1.800000E+10  0.00040  2.469E-05    0   0.4819   age213_m32            0.0000     2.5699E+02     7.7170   2.2395    98.6098
 51      0.6420     8.0084E-04    1.6024E-03    1.000000E+06  0.00400  1.114E-02    0   1.0000   age020_m42            0.0000     4.5028E+03    45.9597   4.0000    99.7887
 52      0.0000     0.0000E+00    0.0000E+00    3.160000E+06  0.00400  4.073E-02    0   0.9999   age045_m42            0.0000     1.1430E+03    22.9100   4.0000   105.7910
 53      0.0000     0.0000E+00    0.0000E+00    5.010000E+06  0.00400  2.534E-02    0   0.9488   age055_m42            0.0000     2.2704E+03    33.3015   4.0000   104.5802
 54      1.3447     7.2342E-04    1.3346E-03    6.610000E+06  0.00400  2.583E-02    0   0.9220   age061_m42            0.0000     8.8113E+02    19.0876   4.0000   103.7961
 55      1.3785     1.1229E-03    2.0182E-03    8.710000E+06  0.00400  1.706E-02    0   0.8983   age067_m42            0.0000     7.7113E+02    17.1533   4.0000   100.1417
 56      0.6073     6.6399E-04    1.1774E-03    1.000000E+07  0.00400  1.271E-02    0   0.8862   age070_m42            0.0000     8.4783E+02    18.0366   4.0000    99.1942
 57      0.0000     0.0000E+00    0.0000E+00    1.445000E+07  0.00400  7.666E-03    0   0.8571   age078_m42            0.0000     1.5365E+03    26.5161   4.0000   101.3277
 58      0.0000     0.0000E+00    0.0000E+00    2.512000E+07  0.00400  5.070E-03    0   0.8174   age090_m42            0.0000     6.6411E+02    15.8699   4.0000    98.6230
 59      0.0000     0.0000E+00    0.0000E+00    4.000000E+07  0.00400  3.505E-03    0   0.7851   age104_m42            0.0000     4.0003E+02    12.0862   4.0000    95.3347
 60      0.0000     0.0000E+00    0.0000E+00    5.500000E+07  0.00400  3.059E-03    0   0.7629   age110_m42            0.0000     4.7832E+02    10.5631   4.0000    99.2698
 61      0.0000     0.0000E+00    0.0000E+00    1.015200E+08  0.00400  2.268E-03    0   0.7207   age116_m42            0.0000     7.3211E+02    12.6495   3.9365   102.2427
 62      0.0000     0.0000E+00    0.0000E+00    1.609000E+08  0.00400  1.720E-03    0   0.6930   age120_m42            0.0000     7.6004E+02    12.9745   3.7657   103.9720
 63      0.0000     0.0000E+00    0.0000E+00    2.861200E+08  0.00400  1.079E-03    0   0.6613   age125_m42            0.0000     7.5729E+02    12.6542   3.4354   104.0272
 64      0.0000     0.0000E+00    0.0000E+00    5.088000E+08  0.00400  6.261E-04    0   0.6313   age130_m42            0.0000     8.0533E+02    13.2710   3.2358   106.9159
 65      0.0000     0.0000E+00    0.0000E+00    9.047900E+08  0.00400  3.535E-04    0   0.6024   age135_m42            0.0000     5.4616E+02    11.0141   2.8338   107.3568
 66      0.0000     0.0000E+00    0.0000E+00    1.278050E+09  0.00400  2.677E-04    0   0.5837   age138_m42            0.0000     2.0571E+02     7.4425   2.1605   104.1251
 67      0.0000     0.0000E+00    0.0000E+00    1.434000E+09  0.00400  1.910E-04    0   0.5716   age139_m42            0.0000     2.7947E+02     8.3199   2.3090   105.3164
 68      0.0000     0.0000E+00    0.0000E+00    2.500000E+09  0.00400  9.818E-05    0   0.5463   age150_m42            0.0000     1.0713E+02     5.5343   2.0326   100.5784
 69      0.0000     0.0000E+00    0.0000E+00    4.250000E+09  0.00400  5.491E-05    0   0.5269   age158_m42            0.0000     5.7930E+01     4.2569   1.9284    97.7486
 70      0.0000     0.0000E+00    0.0000E+00    6.250000E+09  0.00400  3.857E-05    0   0.5151   age166_m42            0.0000     3.9111E+01     3.9284   1.7946    96.3711
 71      0.0000     0.0000E+00    0.0000E+00    7.500000E+09  0.00400  3.243E-05    0   0.5110   age171_m42            0.0000     3.4004E+01     3.8781   1.7147    95.7268
 72      0.0000     0.0000E+00    0.0000E+00    1.000000E+10  0.00400  2.424E-05    0   0.5028   age181_m42            0.0000     3.1061E+01     3.9210   1.6362    94.9608
 73      1.6877     1.2455E+00    1.2279E+00    1.300000E+10  0.00400  1.883E-05    0   0.4927   age193_m42            0.0000     3.0716E+01     3.9916   1.6032    94.5276
 74      1.2638     1.0422E+00    1.0258E+00    1.500000E+10  0.00400  1.685E-05    0   0.4919   age201_m42            0.0000     3.0321E+01     3.8840   1.6119    94.5501
 75      1.1647     1.1147E+00    1.0871E+00    1.800000E+10  0.00400  1.452E-05    0   0.4874   age213_m42            0.0000     2.9927E+01     3.7308   1.6343    94.8168
 76      0.0000     0.0000E+00    0.0000E+00    1.000000E+06  0.00800  1.286E-02    0   1.0000   age020_m52            0.0000     4.3167E+03    45.0713   4.0000   101.6677
 77      0.0000     0.0000E+00    0.0000E+00    3.160000E+06  0.00800  3.147E-02    0   0.9966   age045_m52            0.0000     4.0133E+03    43.4784   4.0000   103.0766
 78      0.0000     0.0000E+00    0.0000E+00    5.010000E+06  0.00800  2.664E-02    0   0.9443   age055_m52            0.0000     2.6765E+03    36.2207   4.0000   104.6797
 79      0.0000     0.0000E+00    0.0000E+00    6.610000E+06  0.00800  2.151E-02    0   0.9177   age061_m52            0.0000     4.2517E+02    13.1437   4.0000    93.3795
 80      0.0065     5.5752E-06    9.9818E-06    8.710000E+06  0.00800  1.628E-02    0   0.8948   age067_m52            0.0000     7.5690E+02    16.9461   4.0000   100.1638
 81      0.0000     0.0000E+00    0.0000E+00    1.000000E+07  0.00800  1.215E-02    0   0.8827   age070_m52            0.0000     1.3017E+03    24.1702   4.0000   103.4804
 82      0.0000     0.0000E+00    0.0000E+00    1.445000E+07  0.00800  8.739E-03    0   0.8552   age078_m52            0.0000     1.3115E+03    24.3692   4.0000   105.1819
 83      0.0000     0.0000E+00    0.0000E+00    2.512000E+07  0.00800  5.676E-03    0   0.8162   age090_m52            0.0000     7.5916E+02    15.7600   4.0000   103.7323
 84      0.0000     0.0000E+00    0.0000E+00    4.000000E+07  0.00800  3.939E-03    0   0.7841   age104_m52            0.0000     6.3348E+02    12.7241   4.0000   102.6219
 85      0.0000     0.0000E+00    0.0000E+00    5.500000E+07  0.00800  3.155E-03    0   0.7627   age110_m52            0.0000     6.3892E+02    11.9819   4.0000   103.0938
 86      0.0000     0.0000E+00    0.0000E+00    1.015200E+08  0.00800  2.206E-03    0   0.7226   age116_m52            0.0000     6.6241E+02    11.7986   3.9918   102.3396
 87      0.0000     0.0000E+00    0.0000E+00    1.609000E+08  0.00800  1.596E-03    0   0.6963   age120_m52            0.0000     7.0469E+02    12.1989   3.7583   104.0540
 88      0.0000     0.0000E+00    0.0000E+00    2.861200E+08  0.00800  1.002E-03    0   0.6665   age125_m52            0.0000     8.2768E+02    13.6746   3.4487   106.2163
 89      0.0000     0.0000E+00    0.0000E+00    5.088000E+08  0.00800  5.759E-04    0   0.6377   age130_m52            0.0000     7.9686E+02    13.8751   3.0729   110.0304
 90      0.0000     0.0000E+00    0.0000E+00    9.047900E+08  0.00800  2.972E-04    0   0.6086   age135_m52            0.0000     4.7002E+02    11.0602   2.5232   108.4398
 91      0.0000     0.0000E+00    0.0000E+00    1.278050E+09  0.00800  2.242E-04    0   0.5907   age138_m52            0.0000     1.7181E+02     7.4520   1.9513   106.5076
 92      0.0000     0.0000E+00    0.0000E+00    1.434000E+09  0.00800  1.645E-04    0   0.5787   age139_m52            0.0000     1.7091E+02     7.1757   2.0975   106.1973
 93      0.0000     0.0000E+00    0.0000E+00    2.500000E+09  0.00800  7.723E-05    0   0.5519   age150_m52            0.0000     6.3082E+01     5.4189   1.7489   102.5708
 94      0.0000     0.0000E+00    0.0000E+00    4.250000E+09  0.00800  4.151E-05    0   0.5320   age158_m52            0.0000     4.2740E+01     4.8015   1.6791   100.1643
 95      0.0000     0.0000E+00    0.0000E+00    6.250000E+09  0.00800  3.010E-05    0   0.5197   age166_m52            0.0000     2.6868E+01     4.6820   1.4781    98.6286
 96      0.7508     4.2291E-01    4.3487E-01    7.500000E+09  0.00800  2.467E-05    0   0.5139   age171_m52            0.0000     2.6054E+01     4.8061   1.4338    98.1835
 97     29.7656     2.2215E+01    2.2465E+01    1.000000E+10  0.00800  1.862E-05    0   0.5054   age181_m52            0.0000     2.9169E+01     5.4697   1.2926    97.6608
 98      0.0000     0.0000E+00    0.0000E+00    1.300000E+10  0.00800  1.433E-05    0   0.4988   age193_m52            0.0000     3.6437E+01     6.2710   1.1876    98.1780
 99      0.0000     0.0000E+00    0.0000E+00    1.500000E+10  0.00800  1.244E-05    0   0.4936   age201_m52            0.0000     4.1343E+01     6.5806   1.1597    98.5359
100      0.0000     0.0000E+00    0.0000E+00    1.800000E+10  0.00800  1.070E-05    0   0.4888   age213_m52            0.0000     4.6343E+01     6.8564   1.1241    98.3460
101      0.0000     0.0000E+00    0.0000E+00    1.000000E+06  0.02000  1.989E-02    0   1.0000   age020_m62            0.0000     4.3832E+03    45.0668   4.0000   100.4668
102      0.0000     0.0000E+00    0.0000E+00    3.160000E+06  0.02000  3.772E-02    0   0.9858   age045_m62            0.0000     3.8025E+03    42.4298   4.0000   102.4525
103      0.0000     0.0000E+00    0.0000E+00    5.010000E+06  0.02000  3.227E-02    0   0.9342   age055_m62            0.0000     1.7743E+03    29.5136   4.0000   106.1851
104      0.0000     0.0000E+00    0.0000E+00    6.610000E+06  0.02000  2.387E-02    0   0.9090   age061_m62            0.0000     1.5137E+03    26.1090   4.0000   103.2800
105      0.0000     0.0000E+00    0.0000E+00    8.710000E+06  0.02000  1.102E-02    0   0.8861   age067_m62            0.0000     1.4930E+03    24.4958   4.0000    96.3114
106      0.0000     0.0000E+00    0.0000E+00    1.000000E+07  0.02000  1.011E-02    0   0.8751   age070_m62            0.0000     1.2325E+03    22.0315   4.0000    97.9598
107      0.0000     0.0000E+00    0.0000E+00    1.445000E+07  0.02000  7.331E-03    0   0.8472   age078_m62            0.0000     1.0520E+03    20.4097   4.0000    98.6221
108      0.0000     0.0000E+00    0.0000E+00    2.512000E+07  0.02000  4.206E-03    0   0.8099   age090_m62            0.0000     9.4320E+02    19.4308   4.0000    96.7096
109      0.0000     0.0000E+00    0.0000E+00    4.000000E+07  0.02000  3.373E-03    0   0.7799   age104_m62            0.0000     5.7525E+02    13.3250   4.0000   100.4195
110      0.0000     0.0000E+00    0.0000E+00    5.500000E+07  0.02000  2.747E-03    0   0.7595   age110_m62            0.0000     5.8592E+02    11.6919   4.0000   101.7769
111      0.0000     0.0000E+00    0.0000E+00    1.015200E+08  0.02000  1.878E-03    0   0.7221   age116_m62            0.0000     7.3158E+02    12.3322   4.0000   102.6113
112      0.0000     0.0000E+00    0.0000E+00    1.609000E+08  0.02000  1.378E-03    0   0.6978   age120_m62            0.0000     8.5904E+02    13.3612   3.8241   104.8967
113      0.0000     0.0000E+00    0.0000E+00    2.861200E+08  0.02000  8.869E-04    0   0.6700   age125_m62            0.0000     1.0364E+03    15.0332   3.4345   108.7356
114      0.0000     0.0000E+00    0.0000E+00    5.088000E+08  0.02000  4.834E-04    0   0.6430   age130_m62            0.0000     8.5071E+02    14.2558   2.9430   111.2378
115      0.0000     0.0000E+00    0.0000E+00    9.047900E+08  0.02000  2.312E-04    0   0.6152   age135_m62            0.0000     4.0958E+02    10.4640   2.3355   110.2993
116      0.0000     0.0000E+00    0.0000E+00    1.278050E+09  0.02000  1.387E-04    0   0.5927   age138_m62            0.0000     1.7947E+02     7.3363   1.9705   105.8151
117      0.0000     0.0000E+00    0.0000E+00    1.434000E+09  0.02000  1.168E-04    0   0.5865   age139_m62            0.0000     1.4478E+02     6.7346   1.9417   104.2686
118      0.0000     0.0000E+00    0.0000E+00    2.500000E+09  0.02000  5.505E-05    0   0.5610   age150_m62            0.0000     5.3040E+01     5.5122   1.5608   101.1945
119      0.0000     0.0000E+00    0.0000E+00    4.250000E+09  0.02000  3.070E-05    0   0.5407   age158_m62            0.0000     4.9549E+01     6.5621   1.2520   100.6744
120      0.0000     0.0000E+00    0.0000E+00    6.250000E+09  0.02000  2.104E-05    0   0.5277   age166_m62            0.0000     6.0333E+01     7.4066   1.1162   100.8822
121      0.0000     0.0000E+00    0.0000E+00    7.500000E+09  0.02000  1.770E-05    0   0.5223   age171_m62            0.0000     7.1041E+01     7.9073   1.0231   101.1682
122      0.0000     0.0000E+00    0.0000E+00    1.000000E+10  0.02000  1.297E-05    0   0.5121   age181_m62            0.0000     9.8556E+01     8.9278   0.8568   101.4863
123      9.0288     1.2947E+01    1.3074E+01    1.300000E+10  0.02000  9.691E-06    0   0.5047   age193_m62            0.0000     1.2308E+02     9.5781   0.7751   101.6711
124      9.8687     1.6404E+01    1.6408E+01    1.500000E+10  0.02000  8.360E-06    0   0.4999   age201_m62            0.0000     1.4588E+02    10.1961   0.6987   101.8521
125     21.0814     4.2390E+01    4.1951E+01    1.800000E+10  0.02000  6.911E-06    0   0.4946   age213_m62            0.0000     1.7637E+02    10.9963   0.6134   102.1001
126      0.0000     0.0000E+00    0.0000E+00    1.000000E+06  0.05000  2.651E-02    0   0.9998   age020_m72            0.0000     4.2499E+03    44.6498   4.0000   101.5710
127      0.0000     0.0000E+00    0.0000E+00    3.160000E+06  0.05000  4.817E-02    0   0.9577   age045_m72            0.0000     2.9896E+03    38.3750   4.0000   105.3170
128      0.0000     0.0000E+00    0.0000E+00    5.010000E+06  0.05000  3.101E-02    0   0.9147   age055_m72            0.0000     2.0429E+03    31.2823   4.0000   105.0776
129      0.0000     0.0000E+00    0.0000E+00    6.610000E+06  0.05000  1.472E-02    0   0.8877   age061_m72            0.0000     1.6494E+03    25.6065   4.0000    99.5092
130      0.0000     0.0000E+00    0.0000E+00    8.710000E+06  0.05000  1.050E-02    0   0.8638   age067_m72            0.0000     2.1855E+03    31.5006   4.0000   103.4860
131      0.0000     0.0000E+00    0.0000E+00    1.000000E+07  0.05000  8.954E-03    0   0.8524   age070_m72            0.0000     2.5869E+03    35.5545   4.0000   105.7464
132      0.0000     0.0000E+00    0.0000E+00    1.445000E+07  0.05000  6.392E-03    0   0.8262   age078_m72            0.0000     2.3263E+03    33.9376   4.0000   106.2962
133      0.0000     0.0000E+00    0.0000E+00    2.512000E+07  0.05000  4.207E-03    0   0.7902   age090_m72            0.0000     1.3322E+03    25.0976   4.0000   106.5379
134      0.0000     0.0000E+00    0.0000E+00    4.000000E+07  0.05000  3.198E-03    0   0.7618   age104_m72            0.0000     7.1545E+02    13.7089   4.0000   105.6849
135      0.0000     0.0000E+00    0.0000E+00    5.500000E+07  0.05000  2.593E-03    0   0.7432   age110_m72            0.0000     7.3418E+02    12.9775   4.0000   105.8391
136      0.0000     0.0000E+00    0.0000E+00    1.015200E+08  0.05000  1.716E-03    0   0.7092   age116_m72            0.0000     8.1853E+02    12.9726   4.0000   104.3510
137      0.0000     0.0000E+00    0.0000E+00    1.609000E+08  0.05000  1.218E-03    0   0.6876   age120_m72            0.0000     9.2625E+02    13.9333   3.7789   105.3720
138      0.0000     0.0000E+00    0.0000E+00    2.861200E+08  0.05000  7.047E-04    0   0.6618   age125_m72            0.0000     9.4799E+02    14.8060   3.2030   109.0668
139      0.0000     0.0000E+00    0.0000E+00    5.088000E+08  0.05000  3.590E-04    0   0.6356   age130_m72            0.0000     6.6700E+02    13.1675   2.5876   111.6672
140      0.0000     0.0000E+00    0.0000E+00    9.047900E+08  0.05000  1.484E-04    0   0.6088   age135_m72            0.0000     1.9502E+02     8.3261   1.8558   104.9471
141      0.0000     0.0000E+00    0.0000E+00    1.278050E+09  0.05000  9.435E-05    0   0.5924   age138_m72            0.0000     9.5835E+01     7.5163   1.4237   102.0085
142      0.0000     0.0000E+00    0.0000E+00    1.434000E+09  0.05000  7.827E-05    0   0.5847   age139_m72            0.0000     7.9020E+01     7.0254   1.4443   101.4097
143      0.0000     0.0000E+00    0.0000E+00    2.500000E+09  0.05000  3.759E-05    0   0.5583   age150_m72            0.0000     6.5319E+01     7.5122   1.1159   100.3926
144      0.0000     0.0000E+00    0.0000E+00    4.250000E+09  0.05000  1.842E-05    0   0.5374   age158_m72            0.0000     1.1176E+02     8.6308   0.8395    99.1852
145      0.8540     9.8321E-01    1.0313E+00    6.250000E+09  0.05000  1.207E-05    0   0.5242   age166_m72            0.0000     1.7015E+02    10.1281   0.5849    98.7172
146      0.7548     1.0496E+00    1.0885E+00    7.500000E+09  0.05000  9.993E-06    0   0.5183   age171_m72            0.0000     1.8302E+02    10.3326   0.5400    98.6388
147      0.0000     0.0000E+00    0.0000E+00    1.000000E+10  0.05000  7.291E-06    0   0.5081   age181_m72            0.0000     2.4047E+02    11.5263   0.3986    98.5030
148      0.0418     1.0923E-01    1.0967E-01    1.300000E+10  0.05000  5.316E-06    0   0.5018   age193_m72            0.0000     3.3811E+02    13.2821   0.1827    98.4724
149      0.0049     1.5136E-02    1.5058E-02    1.500000E+10  0.05000  4.497E-06    0   0.4972   age201_m72            0.0000     3.9252E+02    14.1718   0.0928    98.7728
150      0.0000     0.0000E+00    0.0000E+00    1.800000E+10  0.05000  3.739E-06    0   0.4924   age213_m72            0.0000     4.5890E+02    15.3043  -0.0437    99.1451


## Synthesis Results - Average & Chains ##

# j      x_j: min, <> & last-chain-values for 1 ...  7 chains
  1      1.0101      1.4070      1.4849      1.4144      1.4163      1.3647      1.2549      1.4430      1.3352
  2      5.6647      4.3590      4.6474      4.5623      4.3978      4.3326      4.5246      4.5185      4.3370
  3      6.0553      5.0222      5.0923      5.3103      5.0683      5.1180      5.0795      5.3210      5.0294
  4      0.0000      0.0363      0.0000      0.1538      0.0000      0.0000      0.1083      0.0000      0.0097
  5      0.0000      0.0343      0.0000      0.0000      0.0000      0.0200      0.0770      0.0000      0.0075
  6      0.8834      0.4780      0.5730      0.6362      0.5099      0.4858      0.5003      0.4321      0.4948
  7      0.0000      0.0216      0.0000      0.0000      0.0754      0.0888      0.0000      0.0000      0.0000
  8      0.2182      0.0621      0.2919      0.0096      0.0000      0.1560      0.1527      0.2586      0.1331
  9      1.3974      0.9488      1.0493      0.9802      0.9241      0.9716      1.1169      0.9375      0.9187
 10      0.0000      0.0571      0.0000      0.0000      0.0467      0.0191      0.0000      0.0503      0.0000
 11      0.0000      0.0318      0.1384      0.1388      0.2100      0.0000      0.0000      0.1350      0.2095
 12      0.0000      0.0295      0.0000      0.1697      0.0000      0.0000      0.0000      0.0000      0.0000
 13      0.0000      0.0226      0.0000      0.0000      0.0392      0.0000      0.0164      0.0000      0.0000
 14      0.0000      0.0111      0.0699      0.0000      0.0000      0.0000      0.0000      0.0352      0.0000
 15      0.0000      0.0151      0.0000      0.1424      0.0000      0.0000      0.0059      0.0000      0.1070
 16      0.0000      0.0178      0.0000      0.0000      0.0000      0.0000      0.0526      0.0000      0.0000
 17      0.0000      0.0240      0.0000      0.0000      0.1421      0.0000      0.0000      0.0000      0.0279
 18      0.0000      0.0188      0.0000      0.0000      0.1195      0.0000      0.0000      0.0000      0.0000
 19      0.0000      0.0326      0.0000      0.0000      0.0000      0.0000      0.0000      0.0000      0.0000
 20      0.0000      0.0408      0.0000      0.0000      0.0000      0.0000      0.0480      0.0000      0.1364
 21      0.0000      0.0444      0.0000      0.0000      0.0081      0.0000      0.0000      0.0035      0.0678
 22      0.0000      0.0448      0.0000      0.0199      0.0000      0.3174      0.0000      0.0000      0.0000
 23      0.0000      0.0478      0.0983      0.0000      0.0000      0.0089      0.1008      0.0000      0.0000
 24      0.0061      0.0443      0.0000      0.2364      0.0000      0.3603      0.0000      0.1967      0.1929
 25      0.0000      0.0458      0.0000      0.0000      0.0665      0.0000      0.0000      0.0000      0.0309
 26      0.5399      0.8753      0.9147      0.8790      0.9263      0.8930      0.9485      0.8849      0.8581
 27      0.0000      0.0409      0.0130      0.0000      0.2938      0.0000      0.0000      0.0000      0.1236
 28      0.0000      0.0454      0.0000      0.0311      0.0000      0.0000      0.0000      0.0000      0.0253
 29      0.0000      0.0408      0.0090      0.0234      0.1216      0.0000      0.0000      0.0000      0.0806
 30      0.0000      0.0607      0.0621      0.0226      0.1155      0.0000      0.0368      0.0000      0.0000
 31      0.0000      0.0292      0.0000      0.0065      0.0000      0.0000      0.0000      0.0000      0.0000
 32      0.0000      0.0533      0.0356      0.5125      0.0000      0.1752      0.0000      0.0000      0.0000
 33      0.0000      0.0376      0.0000      0.0000      0.0424      0.0872      0.0000      0.0890      0.0000
 34      0.0000      0.0511      0.0449      0.0000      0.0000      0.0800      0.0000      0.0000      0.0842
 35      0.0000      0.0344      0.1042      0.0000      0.0363      0.0177      0.0000      0.0000      0.1379
 36      0.0000      0.0281      0.0000      0.0000      0.1033      0.0293      0.0000      0.0000      0.0000
 37      0.2958      0.0236      0.0000      0.0000      0.0000      0.0665      0.0000      0.1878      0.0878
 38      0.0000      0.0285      0.0000      0.2355      0.0000      0.0000      0.1740      0.0000      0.0000
 39      0.0000      0.0180      0.0000      0.1091      0.0000      0.0000      0.0000      0.1079      0.0000
 40      0.0000      0.0131      0.0088      0.0000      0.0000      0.0000      0.0000      0.0000      0.0000
 41      0.0000      0.0228      0.0000      0.0000      0.0000      0.0000      0.3014      0.0246      0.0404
 42      0.0000      0.0265      0.0000      0.0000      0.0096      0.0000      0.1349      0.0000      0.0539
 43      0.3919      0.3301      0.3481      0.2925      0.4761      0.2674      0.0000      0.3367      0.0000
 44      0.0000      0.0598      0.0000      0.0000      0.2863      0.0000      0.0865      0.0407      0.0000
 45      0.0000      0.0538      0.0000      0.0000      0.0000      0.0826      0.0000      0.0505      0.0000
 46      0.0000      0.0598      0.0000      0.0000      0.0000      0.0000      0.0000      0.0000      0.0082
 47      0.0000      0.0516      0.0000      0.0000      0.0000      0.0959      0.0000      0.0000      0.0000
 48      0.0000      0.0456      0.0045      0.0000      0.0196      0.0000      0.0000      0.0454      0.0241
 49      0.0000      0.0544      0.4078      0.0000      0.0000      0.0000      0.0000      0.0000      0.0000
 50      0.0000      0.0476      0.0000      0.0000      0.0000      0.0000      0.1287      0.0000      0.0000
 51      0.6420      0.8134      0.7990      0.6292      0.9117      0.7427      0.7806      0.9710      0.8601
 52      0.0000      0.0348      0.0000      0.0325      0.2065      0.0623      0.0365      0.0142      0.0000
 53      0.0000      0.0365      0.0094      0.0000      0.0000      0.0000      0.0000      0.0000      0.0000
 54      1.3447      1.2353      1.3076      1.2603      1.3965      1.2052      1.1345      1.3369      1.1667
 55      1.3785      1.2242      1.1944      1.3082      1.1943      1.3517      1.4229      1.2628      1.3321
 56      0.6073      0.4138      0.4317      0.4105      0.2404      0.4123      0.4464      0.5124      0.4100
 57      0.0000      0.0284      0.0000      0.0000      0.0560      0.2349      0.0000      0.0000      0.0440
 58      0.0000      0.0263      0.0000      0.0000      0.0000      0.0000      0.0000      0.0000      0.0000
 59      0.0000      0.0185      0.0000      0.1183      0.0000      0.0194      0.0000      0.0000      0.0000
 60      0.0000      0.0238      0.0000      0.0000      0.0000      0.0000      0.0000      0.0000      0.0000
 61      0.0000      0.0227      0.0718      0.0208      0.0000      0.0700      0.0000      0.0000      0.1314
 62      0.0000      0.0279      0.0000      0.0000      0.0000      0.0000      0.0000      0.0295      0.0000
 63      0.0000      0.0244      0.0208      0.0000      0.0123      0.0000      0.0000      0.0000      0.0000
 64      0.0000      0.0187      0.0000      0.1557      0.0833      0.0000      0.0000      0.0000      0.0697
 65      0.0000      0.0304      0.0966      0.0424      0.1087      0.0000      0.0471      0.1813      0.1466
 66      0.0000      0.0762      0.0000      0.0194      0.1252      0.0264      0.0000      0.0000      0.1838
 67      0.0000      0.0410      0.0000      0.0000      0.0000      0.1106      0.1331      0.0000      0.0295
 68      0.0000      0.0506      0.0000      0.0000      0.0000      0.0000      0.0000      0.0392      0.0000
 69      0.0000      0.0903      0.6020      0.0000      0.0906      0.0000      0.0000      0.0000      0.0687
 70      0.0000      0.1237      0.0928      0.0000      0.0000      0.0000      0.0000      0.0000      0.0000
 71      0.0000      0.1525      0.0000      0.0092      0.0889      0.0000      0.0001      0.0000      0.1135
 72      0.0000      0.2625      0.3246      0.0000      0.0172      0.1590      0.0000      0.0713      0.0000
 73      1.6877      0.5544      1.2152      1.3919      0.9066      0.6954      0.4398      1.0920      2.6022
 74      1.2638      0.4782      0.3692      0.9262      0.9198      0.7122      0.5319      1.0067      0.1997
 75      1.1647      0.4427      0.9465      0.4227      0.0000      0.8828      1.8483      0.8778      0.1642
 76      0.0000      0.0247      0.0000      0.0000      0.0000      0.0000      0.0000      0.0000      0.0000
 77      0.0000      0.0175      0.0642      0.0000      0.0000      0.0000      0.0000      0.0000      0.0709
 78      0.0000      0.0285      0.0072      0.0000      0.0000      0.0224      0.0000      0.0000      0.0000
 79      0.0000      0.0227      0.0000      0.0004      0.0000      0.0815      0.1077      0.0000      0.0343
 80      0.0065      0.0334      0.0000      0.0000      0.0000      0.1867      0.0000      0.2891      0.0000
 81      0.0000      0.0198      0.0132      0.0000      0.0000      0.0000      0.0810      0.0000      0.0917
 82      0.0000      0.0456      0.0000      0.0241      0.0000      0.0000      0.0272      0.0000      0.1309
 83      0.0000      0.0362      0.1410      0.0000      0.0000      0.0000      0.0559      0.0327      0.3594
 84      0.0000      0.0261      0.0000      0.0000      0.0000      0.0000      0.0000      0.0000      0.0000
 85      0.0000      0.0306      0.0675      0.0000      0.0000      0.1838      0.0755      0.0790      0.0000
 86      0.0000      0.0140      0.0000      0.0501      0.0000      0.0000      0.0604      0.0000      0.0000
 87      0.0000      0.0176      0.0575      0.0000      0.0000      0.0000      0.0000      0.0895      0.0000
 88      0.0000      0.0175      0.0000      0.0000      0.0000      0.0000      0.0000      0.0000      0.0000
 89      0.0000      0.0181      0.0000      0.0000      0.0305      0.0673      0.0000      0.1066      0.0000
 90      0.0000      0.0143      0.0000      0.0000      0.0000      0.0000      0.0000      0.0000      0.0223
 91      0.0000      0.0470      0.0000      0.0000      0.0000      0.1362      0.0000      0.0000      0.0000
 92      0.0000      0.0333      0.0048      0.0000      0.0000      0.0000      0.0000      0.0000      0.0000
 93      0.0000      0.0742      0.0159      0.0000      0.0000      0.3082      0.0000      0.0574      0.0467
 94      0.0000      0.1973      0.0000      0.2684      0.1694      0.0969      0.7174      0.0000      0.2989
 95      0.0000      0.4487      0.3316      0.0022      1.3726      0.7308      0.5770      0.0000      0.4340
 96      0.7508      0.4294      0.8792      0.4693      0.5541      0.0944      0.2525      0.2093      0.3836
 97     29.7656     31.3726     30.1616     31.4357     30.8189     31.2866     31.3446     31.6428     30.9056
 98      0.0000      0.2499      0.0000      0.3838      0.1821      0.0374      0.1846      0.1554      0.0000
 99      0.0000      0.1600      0.1467      0.0000      0.0000      0.0000      0.0000      0.0000      0.0000
100      0.0000      0.1431      0.0000      0.0000      0.0000      0.0000      0.0636      0.0000      0.0000
101      0.0000      0.0210      0.0236      0.0000      0.0260      0.0000      0.0151      0.0000      0.0000
102      0.0000      0.0185      0.0000      0.0258      0.0049      0.0000      0.0000      0.0336      0.0000
103      0.0000      0.0455      0.0000      0.0000      0.0704      0.3895      0.0000      0.0000      0.0284
104      0.0000      0.0388      0.0000      0.0000      0.0409      0.0000      0.0945      0.0000      0.0574
105      0.0000      0.0584      0.0000      0.0000      0.0000      0.0061      0.2048      0.0000      0.0000
106      0.0000      0.0713      0.0000      0.0000      0.0000      0.0000      0.0000      0.0000      0.1285
107      0.0000      0.0214      0.0000      0.0000      0.0000      0.0000      0.0187      0.0000      0.0000
108      0.0000      0.0138      0.0046      0.0000      0.0000      0.0000      0.0831      0.0000      0.0000
109      0.0000      0.0139      0.0474      0.0000      0.0000      0.0000      0.0000      0.0000      0.0000
110      0.0000      0.0223      0.0675      0.0000      0.0000      0.0000      0.0000      0.0000      0.0000
111      0.0000      0.0188      0.0000      0.0000      0.0027      0.0000      0.0081      0.0867      0.0000
112      0.0000      0.0197      0.0440      0.0766      0.0000      0.0000      0.0000      0.0000      0.0000
113      0.0000      0.0200      0.0000      0.0000      0.0000      0.0000      0.0000      0.0000      0.0057
114      0.0000      0.0147      0.0000      0.0000      0.0209      0.1469      0.0000      0.0000      0.0000
115      0.0000      0.0216      0.0000      0.0000      0.0000      0.0000      0.0370      0.0000      0.0368
116      0.0000      0.0392      0.0000      0.0000      0.0000      0.0000      0.0000      0.0000      0.1002
117      0.0000      0.0330      0.0773      0.0544      0.0888      0.0000      0.0000      0.0000      0.0000
118      0.0000      0.0660      0.0310      0.0000      0.0000      0.0000      0.0026      0.0000      0.0000
119      0.0000      0.0824      0.0000      0.0988      0.0000      0.0751      0.0000      0.0000      0.0000
120      0.0000      0.1097      0.0000      0.0000      0.0000      0.0000      0.0031      0.0000      0.0000
121      0.0000      0.1082      0.0000      0.0000      0.0000      0.0602      0.0000      0.0000      0.0416
122      0.0000      0.1255      0.2580      0.0000      0.0000      0.0153      0.0000      0.0000      0.1267
123      9.0288      9.1725      9.8847      9.2059      9.4941      9.5934      9.9013      9.6041      8.8348
124      9.8687      8.9433      9.0666      9.5113      9.4183      9.4754      9.0487      9.2909      9.0803
125     21.0814     20.1834     20.3283     20.6743     20.3426     20.6395     20.2123     20.7173     20.7982
126      0.0000      0.0131      0.0234      0.0000      0.0000      0.0000      0.0000      0.0000      0.0000
127      0.0000      0.0126      0.0000      0.0000      0.0184      0.0000      0.0000      0.0000      0.0000
128      0.0000      0.0197      0.0000      0.0395      0.0719      0.0000      0.0000      0.1116      0.1060
129      0.0000      0.0150      0.0000      0.0062      0.0000      0.0000      0.0413      0.0000      0.0000
130      0.0000      0.0267      0.0000      0.0000      0.0000      0.0000      0.0798      0.0000      0.0091
131      0.0000      0.0163      0.0000      0.0000      0.0000      0.0000      0.0000      0.0000      0.0000
132      0.0000      0.0109      0.0000      0.0000      0.0000      0.0000      0.0104      0.0000      0.0522
133      0.0000      0.0160      0.0000      0.0000      0.0000      0.0000      0.0000      0.0000      0.0147
134      0.0000      0.0096      0.1553      0.0000      0.0000      0.0000      0.0504      0.0869      0.0000
135      0.0000      0.0150      0.0000      0.0000      0.0000      0.0000      0.0928      0.0000      0.0000
136      0.0000      0.0180      0.0000      0.0000      0.0689      0.0000      0.0049      0.0000      0.0000
137      0.0000      0.0136      0.0000      0.0840      0.0000      0.0000      0.0000      0.0000      0.0000
138      0.0000      0.0148      0.0000      0.0000      0.0000      0.0000      0.0000      0.0000      0.0000
139      0.0000      0.0153      0.0000      0.0000      0.0000      0.0000      0.0000      0.0000      0.0000
140      0.0000      0.0419      0.0000      0.0000      0.0000      0.0000      0.0000      0.0000      0.0000
141      0.0000      0.0333      0.0000      0.0000      0.0000      0.0000      0.0000      0.0000      0.0000
142      0.0000      0.0436      0.0000      0.0000      0.0000      0.0000      0.0000      0.0000      0.0000
143      0.0000      0.0459      0.0000      0.0000      0.0000      0.0000      0.0000      0.0000      0.0000
144      0.0000      0.2325      0.1457      0.1931      0.2929      0.0000      0.0175      0.1607      0.6996
145      0.8540      0.4111      0.4213      0.0066      0.4962      0.0000      0.3998      0.2379      0.7365
146      0.7548      0.7112      0.7320      0.6105      0.4945      0.6022      0.8005      0.7759      0.7311
147      0.0000      0.1482      0.1754      0.0000      0.0000      0.2122      0.0000      0.0000      0.0000
148      0.0418      0.4202      0.2660      0.6523      0.4127      0.3400      0.3691      0.2711      0.3094
149      0.0049      0.3436      0.2249      0.2760      0.5059      0.2966      0.0000      0.2445      0.0115
150      0.0000      0.0598      0.0000      0.0000      0.0000      0.0000      0.0315      0.0000      0.0000

# j      m_j: min, <> & last-chain-values for 1 ...  7 chains
  1  3.4421E-03  4.8062E-03  5.0643E-03  4.7827E-03  4.8136E-03  4.6290E-03  4.2918E-03  4.8957E-03  4.5861E-03
  2  3.3097E-03  2.5530E-03  2.7177E-03  2.6451E-03  2.5629E-03  2.5199E-03  2.6534E-03  2.6285E-03  2.5543E-03
  3  8.3505E-03  6.9428E-03  7.0286E-03  7.2668E-03  6.9715E-03  7.0258E-03  7.0308E-03  7.3058E-03  6.9914E-03
  4  0.0000E+00  9.4332E-05  0.0000E+00  3.9554E-04  0.0000E+00  0.0000E+00  2.8178E-04  0.0000E+00  2.5244E-05
  5  0.0000E+00  1.1237E-04  0.0000E+00  0.0000E+00  0.0000E+00  6.4929E-05  2.5223E-04  0.0000E+00  2.4620E-05
  6  3.4302E-03  1.8606E-03  2.2266E-03  2.4512E-03  1.9746E-03  1.8777E-03  1.9496E-03  1.6705E-03  1.9366E-03
  7  0.0000E+00  1.0600E-04  0.0000E+00  0.0000E+00  3.6845E-04  4.3289E-04  0.0000E+00  0.0000E+00  0.0000E+00
  8  1.2085E-03  3.4457E-04  1.6182E-03  5.2874E-05  0.0000E+00  8.6039E-04  8.4901E-04  1.4262E-03  7.4320E-04
  9  8.3261E-03  5.6671E-03  6.2575E-03  5.7955E-03  5.4918E-03  5.7626E-03  6.6794E-03  5.5617E-03  5.5179E-03
 10  0.0000E+00  3.9114E-04  0.0000E+00  0.0000E+00  3.1816E-04  1.3001E-04  0.0000E+00  3.4204E-04  0.0000E+00
 11  0.0000E+00  2.6017E-04  1.1309E-03  1.1243E-03  1.7099E-03  0.0000E+00  0.0000E+00  1.0977E-03  1.7239E-03
 12  0.0000E+00  4.2176E-04  0.0000E+00  2.4056E-03  0.0000E+00  0.0000E+00  0.0000E+00  0.0000E+00  0.0000E+00
 13  0.0000E+00  3.7584E-04  0.0000E+00  0.0000E+00  6.4791E-04  0.0000E+00  2.7306E-04  0.0000E+00  0.0000E+00
 14  0.0000E+00  2.6224E-04  1.6472E-03  0.0000E+00  0.0000E+00  0.0000E+00  0.0000E+00  8.2582E-04  0.0000E+00
 15  0.0000E+00  5.3935E-04  0.0000E+00  5.0253E-03  0.0000E+00  0.0000E+00  2.0968E-04  0.0000E+00  3.8353E-03
 16  0.0000E+00  9.1617E-04  0.0000E+00  0.0000E+00  0.0000E+00  0.0000E+00  2.7169E-03  0.0000E+00  0.0000E+00
 17  0.0000E+00  1.3778E-03  0.0000E+00  0.0000E+00  8.1018E-03  0.0000E+00  0.0000E+00  0.0000E+00  1.6082E-03
 18  0.0000E+00  1.7574E-03  0.0000E+00  0.0000E+00  1.1096E-02  0.0000E+00  0.0000E+00  0.0000E+00  0.0000E+00
 19  0.0000E+00  4.6175E-03  0.0000E+00  0.0000E+00  0.0000E+00  0.0000E+00  0.0000E+00  0.0000E+00  0.0000E+00
 20  0.0000E+00  8.2505E-03  0.0000E+00  0.0000E+00  0.0000E+00  0.0000E+00  9.7313E-03  0.0000E+00  2.7741E-02
 21  0.0000E+00  1.0398E-02  0.0000E+00  0.0000E+00  1.8875E-03  0.0000E+00  0.0000E+00  8.1611E-04  1.5951E-02
 22  0.0000E+00  1.3527E-02  0.0000E+00  5.9621E-03  0.0000E+00  9.5175E-02  0.0000E+00  0.0000E+00  0.0000E+00
 23  0.0000E+00  1.8311E-02  3.7569E-02  0.0000E+00  0.0000E+00  3.3871E-03  3.8612E-02  0.0000E+00  0.0000E+00
 24  2.6561E-03  1.9402E-02  0.0000E+00  1.0243E-01  0.0000E+00  1.5659E-01  0.0000E+00  8.5491E-02  8.4905E-02
 25  0.0000E+00  2.4069E-02  0.0000E+00  0.0000E+00  3.4795E-02  0.0000E+00  0.0000E+00  0.0000E+00  1.6336E-02
 26  1.7749E-03  2.8846E-03  3.0095E-03  2.8675E-03  3.0375E-03  2.9224E-03  3.1296E-03  2.8965E-03  2.8435E-03
 27  0.0000E+00  2.8696E-05  9.0878E-06  0.0000E+00  2.0506E-04  0.0000E+00  0.0000E+00  0.0000E+00  8.7206E-05
 28  0.0000E+00  6.2364E-05  0.0000E+00  4.2296E-05  0.0000E+00  0.0000E+00  0.0000E+00  0.0000E+00  3.4957E-05
 29  0.0000E+00  8.7268E-05  1.9166E-05  4.9671E-05  2.5886E-04  0.0000E+00  0.0000E+00  0.0000E+00  1.7348E-04
 30  0.0000E+00  1.6147E-04  1.6503E-04  5.9611E-05  3.0578E-04  0.0000E+00  9.8076E-05  0.0000E+00  0.0000E+00
 31  0.0000E+00  8.9822E-05  0.0000E+00  1.9732E-05  0.0000E+00  0.0000E+00  0.0000E+00  0.0000E+00  0.0000E+00
 32  0.0000E+00  1.8137E-04  1.2090E-04  1.7262E-03  0.0000E+00  5.9206E-04  0.0000E+00  0.0000E+00  0.0000E+00
 33  0.0000E+00  1.8203E-04  0.0000E+00  0.0000E+00  2.0389E-04  4.1850E-04  0.0000E+00  4.2727E-04  0.0000E+00
 34  0.0000E+00  3.0043E-04  2.6348E-04  0.0000E+00  0.0000E+00  4.6686E-04  0.0000E+00  0.0000E+00  4.9723E-04
 35  0.0000E+00  2.4437E-04  7.3849E-04  0.0000E+00  2.5601E-04  1.2494E-04  0.0000E+00  0.0000E+00  9.8430E-04
 36  0.0000E+00  2.5573E-04  0.0000E+00  0.0000E+00  9.3498E-04  2.6487E-04  0.0000E+00  0.0000E+00  0.0000E+00
 37  3.3372E-03  2.6735E-04  0.0000E+00  0.0000E+00  0.0000E+00  7.4666E-04  0.0000E+00  2.1092E-03  9.9857E-04
 38  0.0000E+00  4.4910E-04  0.0000E+00  3.6711E-03  0.0000E+00  0.0000E+00  2.7445E-03  0.0000E+00  0.0000E+00
 39  0.0000E+00  4.2247E-04  0.0000E+00  2.5378E-03  0.0000E+00  0.0000E+00  0.0000E+00  2.5196E-03  0.0000E+00
 40  0.0000E+00  5.4252E-04  3.6483E-04  0.0000E+00  0.0000E+00  0.0000E+00  0.0000E+00  0.0000E+00  0.0000E+00
 41  0.0000E+00  1.2658E-03  0.0000E+00  0.0000E+00  0.0000E+00  0.0000E+00  1.6763E-02  1.3577E-03  2.2563E-03
 42  0.0000E+00  1.6437E-03  0.0000E+00  0.0000E+00  5.9485E-04  0.0000E+00  8.3748E-03  0.0000E+00  3.3643E-03
 43  3.9446E-02  3.3308E-02  3.5066E-02  2.9217E-02  4.7789E-02  2.6791E-02  0.0000E+00  3.3741E-02  0.0000E+00
 44  0.0000E+00  9.5395E-03  0.0000E+00  0.0000E+00  4.5461E-02  0.0000E+00  1.3819E-02  6.4442E-03  0.0000E+00
 45  0.0000E+00  1.1957E-02  0.0000E+00  0.0000E+00  0.0000E+00  1.8249E-02  0.0000E+00  1.1146E-02  0.0000E+00
 46  0.0000E+00  1.5850E-02  0.0000E+00  0.0000E+00  0.0000E+00  0.0000E+00  0.0000E+00  0.0000E+00  2.1946E-03
 47  0.0000E+00  1.7926E-02  0.0000E+00  0.0000E+00  0.0000E+00  3.3082E-02  0.0000E+00  0.0000E+00  0.0000E+00
 48  0.0000E+00  1.8847E-02  1.8495E-03  0.0000E+00  8.0814E-03  0.0000E+00  0.0000E+00  1.8636E-02  1.0021E-02
 49  0.0000E+00  2.5149E-02  1.8833E-01  0.0000E+00  0.0000E+00  0.0000E+00  0.0000E+00  0.0000E+00  0.0000E+00
 50  0.0000E+00  2.5896E-02  0.0000E+00  0.0000E+00  0.0000E+00  0.0000E+00  7.0089E-02  0.0000E+00  0.0000E+00
 51  1.6024E-03  2.0352E-03  1.9961E-03  1.5584E-03  2.2698E-03  1.8453E-03  1.9556E-03  2.4129E-03  2.1640E-03
 52  0.0000E+00  2.3836E-05  0.0000E+00  2.2009E-05  1.4058E-04  4.2332E-05  2.5027E-05  9.6684E-06  0.0000E+00
 53  0.0000E+00  3.8046E-05  9.7912E-06  0.0000E+00  0.0000E+00  0.0000E+00  0.0000E+00  0.0000E+00  0.0000E+00
 54  1.3346E-03  1.2290E-03  1.2989E-03  1.2413E-03  1.3824E-03  1.1907E-03  1.1302E-03  1.3211E-03  1.1673E-03
 55  2.0182E-03  1.7968E-03  1.7502E-03  1.9007E-03  1.7440E-03  1.9700E-03  2.0910E-03  1.8408E-03  1.9660E-03
 56  1.1774E-03  8.0428E-04  8.3774E-04  7.8973E-04  4.6485E-04  7.9575E-04  8.6874E-04  9.8906E-04  8.0128E-04
 57  0.0000E+00  8.8577E-05  0.0000E+00  0.0000E+00  1.7372E-04  7.2704E-04  0.0000E+00  0.0000E+00  1.3787E-04
 58  0.0000E+00  1.1803E-04  0.0000E+00  0.0000E+00  0.0000E+00  0.0000E+00  0.0000E+00  0.0000E+00  0.0000E+00
 59  0.0000E+00  1.1568E-04  0.0000E+00  7.3098E-04  0.0000E+00  1.2054E-04  0.0000E+00  0.0000E+00  0.0000E+00
 60  0.0000E+00  1.6514E-04  0.0000E+00  0.0000E+00  0.0000E+00  0.0000E+00  0.0000E+00  0.0000E+00  0.0000E+00
 61  0.0000E+00  2.0143E-04  6.3481E-04  1.8197E-04  0.0000E+00  6.1612E-04  0.0000E+00  0.0000E+00  1.1705E-03
 62  0.0000E+00  3.1345E-04  0.0000E+00  0.0000E+00  0.0000E+00  0.0000E+00  0.0000E+00  3.2863E-04  0.0000E+00
 63  0.0000E+00  4.1696E-04  3.5458E-04  0.0000E+00  2.0958E-04  0.0000E+00  0.0000E+00  0.0000E+00  0.0000E+00
 64  0.0000E+00  5.2470E-04  0.0000E+00  4.3309E-03  2.3283E-03  0.0000E+00  0.0000E+00  0.0000E+00  1.9689E-03
 65  0.0000E+00  1.4458E-03  4.5825E-03  1.9950E-03  5.1391E-03  0.0000E+00  2.2385E-03  8.5520E-03  7.0027E-03
 66  0.0000E+00  4.6285E-03  0.0000E+00  1.1691E-03  7.5721E-03  1.5934E-03  0.0000E+00  0.0000E+00  1.1235E-02
 67  0.0000E+00  3.4210E-03  0.0000E+00  0.0000E+00  0.0000E+00  9.1591E-03  1.1116E-02  0.0000E+00  2.4707E-03
 68  0.0000E+00  7.8401E-03  0.0000E+00  0.0000E+00  0.0000E+00  0.0000E+00  0.0000E+00  6.0318E-03  0.0000E+00
 69  0.0000E+00  2.4151E-02  1.6076E-01  0.0000E+00  2.4119E-02  0.0000E+00  0.0000E+00  0.0000E+00  1.8475E-02
 70  0.0000E+00  4.6035E-02  3.4495E-02  0.0000E+00  0.0000E+00  0.0000E+00  0.0000E+00  0.0000E+00  0.0000E+00
 71  0.0000E+00  6.6975E-02  0.0000E+00  4.0056E-03  3.8867E-02  0.0000E+00  5.7362E-05  0.0000E+00  5.0133E-02
 72  0.0000E+00  1.5176E-01  1.8737E-01  0.0000E+00  9.8787E-03  9.1284E-02  0.0000E+00  4.0919E-02  0.0000E+00
 73  1.2279E+00  4.0432E-01  8.8490E-01  1.0049E+00  6.5788E-01  5.0364E-01  3.2117E-01  7.9103E-01  1.9084E+00
 74  1.0258E+00  3.8910E-01  2.9997E-01  7.4602E-01  7.4470E-01  5.7546E-01  4.3339E-01  8.1360E-01  1.6340E-01
 75  1.0871E+00  4.1423E-01  8.8416E-01  3.9149E-01  0.0000E+00  8.2023E-01  1.7315E+00  8.1576E-01  1.5450E-01
 76  0.0000E+00  5.3597E-05  0.0000E+00  0.0000E+00  0.0000E+00  0.0000E+00  0.0000E+00  0.0000E+00  0.0000E+00
 77  0.0000E+00  1.5444E-05  5.6555E-05  0.0000E+00  0.0000E+00  0.0000E+00  0.0000E+00  0.0000E+00  6.2957E-05
 78  0.0000E+00  2.8136E-05  7.1218E-06  0.0000E+00  0.0000E+00  2.2022E-05  0.0000E+00  0.0000E+00  0.0000E+00
 79  0.0000E+00  2.6947E-05  0.0000E+00  5.0720E-07  0.0000E+00  9.6298E-05  1.2825E-04  0.0000E+00  4.1037E-05
 80  9.9818E-06  5.1245E-05  0.0000E+00  0.0000E+00  0.0000E+00  2.8404E-04  0.0000E+00  4.3991E-04  0.0000E+00
 81  0.0000E+00  4.0001E-05  2.6717E-05  0.0000E+00  0.0000E+00  0.0000E+00  1.6420E-04  0.0000E+00  1.8679E-04
 82  0.0000E+00  1.2429E-04  0.0000E+00  6.5072E-05  0.0000E+00  0.0000E+00  7.4249E-05  0.0000E+00  3.5911E-04
 83  0.0000E+00  1.4522E-04  5.6443E-04  0.0000E+00  0.0000E+00  0.0000E+00  2.2427E-04  1.3019E-04  1.4485E-03
 84  0.0000E+00  1.4487E-04  0.0000E+00  0.0000E+00  0.0000E+00  0.0000E+00  0.0000E+00  0.0000E+00  0.0000E+00
 85  0.0000E+00  2.0645E-04  4.5417E-04  0.0000E+00  0.0000E+00  1.2299E-03  5.0918E-04  5.2890E-04  0.0000E+00
 86  0.0000E+00  1.2746E-04  0.0000E+00  4.5309E-04  0.0000E+00  0.0000E+00  5.5238E-04  0.0000E+00  0.0000E+00
 87  0.0000E+00  2.1380E-04  6.9800E-04  0.0000E+00  0.0000E+00  0.0000E+00  0.0000E+00  1.0810E-03  0.0000E+00
 88  0.0000E+00  3.2493E-04  0.0000E+00  0.0000E+00  0.0000E+00  0.0000E+00  0.0000E+00  0.0000E+00  0.0000E+00
 89  0.0000E+00  5.5956E-04  0.0000E+00  0.0000E+00  9.3751E-04  2.0629E-03  0.0000E+00  3.2686E-03  0.0000E+00
 90  0.0000E+00  8.1901E-04  0.0000E+00  0.0000E+00  0.0000E+00  0.0000E+00  0.0000E+00  0.0000E+00  1.2818E-03
 91  0.0000E+00  3.4551E-03  0.0000E+00  0.0000E+00  0.0000E+00  9.9326E-03  0.0000E+00  0.0000E+00  0.0000E+00
 92  0.0000E+00  3.2634E-03  4.7379E-04  0.0000E+00  0.0000E+00  0.0000E+00  0.0000E+00  0.0000E+00  0.0000E+00
 93  0.0000E+00  1.4773E-02  3.1620E-03  0.0000E+00  0.0000E+00  6.0964E-02  0.0000E+00  1.1354E-02  9.3548E-03
 94  0.0000E+00  7.0471E-02  0.0000E+00  9.4901E-02  6.0205E-02  3.4367E-02  2.5659E-01  0.0000E+00  1.0737E-01
 95  0.0000E+00  2.1596E-01  1.5935E-01  1.0692E-03  6.5728E-01  3.4925E-01  2.7802E-01  0.0000E+00  2.1005E-01
 96  4.3487E-01  2.4933E-01  5.0969E-01  2.6972E-01  3.2012E-01  5.4434E-02  1.4679E-01  1.2069E-01  2.2396E-01
 97  2.2465E+01  2.3735E+01  2.2783E+01  2.3543E+01  2.3200E+01  2.3505E+01  2.3744E+01  2.3777E+01  2.3512E+01
 98  0.0000E+00  2.4250E-01  0.0000E+00  3.6864E-01  1.7582E-01  3.6070E-02  1.7935E-01  1.4973E-01  0.0000E+00
 99  0.0000E+00  1.7691E-01  1.6198E-01  0.0000E+00  0.0000E+00  0.0000E+00  0.0000E+00  0.0000E+00  0.0000E+00
100  0.0000E+00  1.8219E-01  0.0000E+00  0.0000E+00  0.0000E+00  0.0000E+00  8.1027E-02  0.0000E+00  0.0000E+00
101  0.0000E+00  2.9364E-05  3.3012E-05  0.0000E+00  3.6223E-05  0.0000E+00  2.1203E-05  0.0000E+00  0.0000E+00
102  0.0000E+00  1.3506E-05  0.0000E+00  1.8614E-05  3.5155E-06  0.0000E+00  0.0000E+00  2.4281E-05  0.0000E+00
103  0.0000E+00  3.6710E-05  0.0000E+00  0.0000E+00  5.6530E-05  3.1212E-04  0.0000E+00  0.0000E+00  2.3060E-05
104  0.0000E+00  4.1178E-05  0.0000E+00  0.0000E+00  4.3187E-05  0.0000E+00  1.0044E-04  0.0000E+00  6.1312E-05
105  0.0000E+00  1.3089E-04  0.0000E+00  0.0000E+00  0.0000E+00  1.3620E-05  4.5950E-04  0.0000E+00  0.0000E+00
106  0.0000E+00  1.7206E-04  0.0000E+00  0.0000E+00  0.0000E+00  0.0000E+00  0.0000E+00  0.0000E+00  3.1181E-04
107  0.0000E+00  6.8856E-05  0.0000E+00  0.0000E+00  0.0000E+00  0.0000E+00  6.0362E-05  0.0000E+00  0.0000E+00
108  0.0000E+00  7.4334E-05  2.4686E-05  0.0000E+00  0.0000E+00  0.0000E+00  4.4656E-04  0.0000E+00  0.0000E+00
109  0.0000E+00  8.9384E-05  3.0493E-04  0.0000E+00  0.0000E+00  0.0000E+00  0.0000E+00  0.0000E+00  0.0000E+00
110  0.0000E+00  1.7159E-04  5.1944E-04  0.0000E+00  0.0000E+00  0.0000E+00  0.0000E+00  0.0000E+00  0.0000E+00
111  0.0000E+00  2.0195E-04  0.0000E+00  0.0000E+00  2.8618E-05  0.0000E+00  8.7007E-05  9.2283E-04  0.0000E+00
112  0.0000E+00  2.7846E-04  6.1963E-04  1.0699E-03  0.0000E+00  0.0000E+00  0.0000E+00  0.0000E+00  0.0000E+00
113  0.0000E+00  4.2065E-04  0.0000E+00  0.0000E+00  0.0000E+00  0.0000E+00  0.0000E+00  0.0000E+00  1.2051E-04
114  0.0000E+00  5.4657E-04  0.0000E+00  0.0000E+00  7.6976E-04  5.4087E-03  0.0000E+00  0.0000E+00  0.0000E+00
115  0.0000E+00  1.6052E-03  0.0000E+00  0.0000E+00  0.0000E+00  0.0000E+00  2.7479E-03  0.0000E+00  2.7444E-03
116  0.0000E+00  4.6747E-03  0.0000E+00  0.0000E+00  0.0000E+00  0.0000E+00  0.0000E+00  0.0000E+00  1.2004E-02
117  0.0000E+00  4.6166E-03  1.0802E-02  7.5334E-03  1.2369E-02  0.0000E+00  0.0000E+00  0.0000E+00  0.0000E+00
118  0.0000E+00  1.8741E-02  8.7942E-03  0.0000E+00  0.0000E+00  0.0000E+00  7.3445E-04  0.0000E+00  0.0000E+00
119  0.0000E+00  4.0457E-02  0.0000E+00  4.8029E-02  0.0000E+00  3.6592E-02  0.0000E+00  0.0000E+00  0.0000E+00
120  0.0000E+00  7.6656E-02  0.0000E+00  0.0000E+00  0.0000E+00  0.0000E+00  2.1955E-03  0.0000E+00  0.0000E+00
121  0.0000E+00  8.8991E-02  0.0000E+00  0.0000E+00  0.0000E+00  4.9176E-02  0.0000E+00  0.0000E+00  3.4428E-02
122  0.0000E+00  1.3812E-01  2.8344E-01  0.0000E+00  0.0000E+00  1.6693E-02  0.0000E+00  0.0000E+00  1.4026E-01
123  1.3074E+01  1.3315E+01  1.4326E+01  1.3228E+01  1.3713E+01  1.3829E+01  1.4391E+01  1.3847E+01  1.2896E+01
124  1.6408E+01  1.4906E+01  1.5088E+01  1.5693E+01  1.5619E+01  1.5683E+01  1.5101E+01  1.5380E+01  1.5219E+01
125  4.1951E+01  4.0262E+01  4.0487E+01  4.0825E+01  4.0377E+01  4.0885E+01  4.0371E+01  4.1046E+01  4.1719E+01
126  0.0000E+00  1.3786E-05  2.4529E-05  0.0000E+00  0.0000E+00  0.0000E+00  0.0000E+00  0.0000E+00  0.0000E+00
127  0.0000E+00  6.9675E-06  0.0000E+00  0.0000E+00  1.0121E-05  0.0000E+00  0.0000E+00  0.0000E+00  0.0000E+00
128  0.0000E+00  1.6211E-05  0.0000E+00  3.2165E-05  5.8802E-05  0.0000E+00  0.0000E+00  9.1135E-05  8.7604E-05
129  0.0000E+00  2.5244E-05  0.0000E+00  1.0351E-05  0.0000E+00  0.0000E+00  6.9504E-05  0.0000E+00  0.0000E+00
130  0.0000E+00  6.1323E-05  0.0000E+00  0.0000E+00  0.0000E+00  0.0000E+00  1.8318E-04  0.0000E+00  2.0942E-05
131  0.0000E+00  4.3347E-05  0.0000E+00  0.0000E+00  0.0000E+00  0.0000E+00  0.0000E+00  0.0000E+00  0.0000E+00
132  0.0000E+00  3.9224E-05  0.0000E+00  0.0000E+00  0.0000E+00  0.0000E+00  3.7533E-05  0.0000E+00  1.8929E-04
133  0.0000E+00  8.3520E-05  0.0000E+00  0.0000E+00  0.0000E+00  0.0000E+00  0.0000E+00  0.0000E+00  7.7596E-05
134  0.0000E+00  6.3648E-05  1.0297E-03  0.0000E+00  0.0000E+00  0.0000E+00  3.3535E-04  5.7289E-04  0.0000E+00
135  0.0000E+00  1.1995E-04  0.0000E+00  0.0000E+00  0.0000E+00  0.0000E+00  7.4193E-04  0.0000E+00  0.0000E+00
136  0.0000E+00  2.0713E-04  0.0000E+00  0.0000E+00  7.8992E-04  0.0000E+00  5.6263E-05  0.0000E+00  0.0000E+00
137  0.0000E+00  2.1414E-04  0.0000E+00  1.3080E-03  0.0000E+00  0.0000E+00  0.0000E+00  0.0000E+00  0.0000E+00
138  0.0000E+00  3.8625E-04  0.0000E+00  0.0000E+00  0.0000E+00  0.0000E+00  0.0000E+00  0.0000E+00  0.0000E+00
139  0.0000E+00  7.5414E-04  0.0000E+00  0.0000E+00  0.0000E+00  0.0000E+00  0.0000E+00  0.0000E+00  0.0000E+00
140  0.0000E+00  4.7878E-03  0.0000E+00  0.0000E+00  0.0000E+00  0.0000E+00  0.0000E+00  0.0000E+00  0.0000E+00
141  0.0000E+00  5.8203E-03  0.0000E+00  0.0000E+00  0.0000E+00  0.0000E+00  0.0000E+00  0.0000E+00  0.0000E+00
142  0.0000E+00  9.0686E-03  0.0000E+00  0.0000E+00  0.0000E+00  0.0000E+00  0.0000E+00  0.0000E+00  0.0000E+00
143  0.0000E+00  1.9006E-02  0.0000E+00  0.0000E+00  0.0000E+00  0.0000E+00  0.0000E+00  0.0000E+00  0.0000E+00
144  0.0000E+00  1.8904E-01  1.1827E-01  1.5542E-01  2.3699E-01  0.0000E+00  1.4276E-02  1.2983E-01  5.7211E-01
145  1.0313E+00  4.9766E-01  5.0917E-01  7.9026E-03  5.9767E-01  0.0000E+00  4.8457E-01  2.8601E-01  8.9658E-01
146  1.0885E+00  1.0282E+00  1.0566E+00  8.7365E-01  7.1125E-01  8.6448E-01  1.1587E+00  1.1140E+00  1.0628E+00
147  0.0000E+00  2.8783E-01  3.4024E-01  0.0000E+00  0.0000E+00  4.0935E-01  0.0000E+00  0.0000E+00  0.0000E+00
148  1.0967E-01  1.1055E+00  6.9883E-01  1.6990E+00  1.0805E+00  8.8844E-01  9.7237E-01  7.0857E-01  8.1871E-01
149  1.5058E-02  1.0588E+00  6.9194E-01  8.4199E-01  1.5512E+00  9.0783E-01  0.0000E+00  7.4824E-01  3.5701E-02
150  0.0000E+00  2.1969E-01  0.0000E+00  0.0000E+00  0.0000E+00  0.0000E+00  1.1581E-01  0.0000E+00  0.0000E+00

# AV, chi2 & Mass for <> & i_chain = 1 ...  7 solutions
AV       1.5521      1.5392      1.5451      1.5429      1.5378      1.5441      1.5471      1.5455      1.5445
chi2 3.2158E+00  3.2799E+00  3.2559E+00  3.2559E+00  3.2652E+00  3.2638E+00  3.2599E+00  3.2560E+00  3.2573E+00
Mass 1.2524E-09  1.2280E-09  1.2397E-09  1.2466E-09  1.2318E-09  1.2447E-09  1.2395E-09  1.2468E-09  1.2298E-09
  -7.68                                  [v0_min (km/s) before EX0s...]
  58.75                                  [vd_min (km/s) before EX0s...]


## Synthetic spectrum (Best Model) ##l_obs f_obs f_syn wei
 3070    [Nl_obs]
 3359.00    0.23214   0.36587   -1.000
 3360.00    0.22166   0.34323   -1.000
 3361.00    0.25036   0.34609   -1.000
 3362.00    0.25547   0.37190   -1.000
 3363.00    0.24920   0.40557   -1.000
 3364.00    0.26283   0.42893   -1.000
 3365.00    0.28177   0.43106   -1.000
 3366.00    0.30534   0.41464   -1.000
 3367.00    0.28968   0.39216   -1.000
 3368.00    0.31082   0.37255   -1.000
 3369.00    0.31727   0.36078   -1.000
 3370.00    0.27558   0.35475   -1.000
 3371.00    0.26882   0.35303   -1.000
 3372.00    0.26772   0.35950   -1.000
 3373.00    0.26515   0.37784   -1.000
 3374.00    0.28518   0.40512   -1.000
 3375.00    0.30189   0.43328   -1.000
 3376.00    0.32154   0.45032   -1.000
 3377.00    0.32365   0.44684   -1.000
 3378.00    0.30544   0.42682   -1.000
 3379.00    0.29965   0.40490   -1.000
 3380.00    0.29311   0.39415   -1.000
 3381.00    0.30870   0.39983   -1.000
 3382.00    0.31024   0.41433   -1.000
 3383.00    0.30634   0.42889   -1.000
 3384.00    0.31709   0.44000   -1.000
 3385.00    0.31183   0.44864   -1.000
 3386.00    0.32668   0.45259   -1.000
 3387.00    0.33769   0.45280   -1.000
 3388.00    0.32517   0.45191   -1.000
 3389.00    0.35513   0.45027   -1.000
 3390.00    0.34803   0.44415   -1.000
 3391.00    0.34521   0.43074   -1.000
 3392.00    0.34708   0.41732   -1.000
 3393.00    0.33287   0.41438   -1.000
 3394.00    0.34903   0.42551   -1.000
 3395.00    0.35904   0.44547   -1.000
 3396.00    0.36295   0.46484   -1.000
 3397.00    0.36829   0.48187   -1.000
 3398.00    0.39072   0.49482   -1.000
 3399.00    0.39058   0.49970   -1.000
 3400.00    0.37579   0.49640   -1.000
 3401.00    0.38656   0.48643   -1.000
 3402.00    0.37923   0.47213   -1.000
 3403.00    0.39542   0.45957   -1.000
 3404.00    0.37978   0.45081   -1.000
 3405.00    0.39295   0.44365   50.981
 3406.00    0.40366   0.43640   51.798
 3407.00    0.41447   0.43100   52.084
 3408.00    0.40103   0.43099   51.763
 3409.00    0.38954   0.43655   50.194
 3410.00    0.39670   0.44336   49.797
 3411.00    0.40477   0.44133   51.956
 3412.00    0.40777   0.42827   52.917
 3413.00    0.40564   0.41173   52.800
 3414.00    0.39128   0.40253   51.485
 3415.00    0.40589   0.40853   49.269
 3416.00    0.38312   0.42614   46.936
 3417.00    0.38054   0.44961   -1.000
 3418.00    0.40194   0.47232   -1.000
 3419.00    0.44485   0.49030   44.069
 3420.00    0.44553   0.49648   44.340
 3421.00    0.42332   0.48744   45.648
 3422.00    0.43914   0.46959   46.681
 3423.00    0.45207   0.45800   45.339
 3424.00    0.44384   0.45600   44.143
 3425.00    0.41589   0.45910   43.907
 3426.00    0.40483   0.46376   -1.000
 3427.00    0.43956   0.47209   -1.000
 3428.00    0.45552   0.48832   -1.000
 3429.00    0.44777   0.50513   -1.000
 3430.00    0.47203   0.50643   -1.000
 3431.00    0.44603   0.49138   44.596
 3432.00    0.44118   0.47091   43.783
 3433.00    0.43796   0.46088   -1.000
 3434.00    0.42961   0.46545   -1.000
 3435.00    0.40632   0.47229   44.176
 3436.00    0.41697   0.47041   45.825
 3437.00    0.41880   0.45647   48.591
 3438.00    0.42671   0.43185   52.477
 3439.00    0.41322   0.40029   54.586
 3440.00    0.37383   0.37100   54.668
 3441.00    0.35777   0.35250   54.433
 3442.00    0.33597   0.35074   52.257
 3443.00    0.34866   0.36151   49.388
 3444.00    0.38041   0.37719   46.651
 3445.00    0.39621   0.39362   45.035
 3446.00    0.38669   0.41219   -1.000
 3447.00    0.40599   0.43313   -1.000
 3448.00    0.45813   0.45592  377.234
 3449.00    0.47428   0.47407  377.234
 3450.00    0.45771   0.47717   -1.000
 3451.00    0.45516   0.46579   -1.000
 3452.00    0.43772   0.45401   -1.000
 3453.00    0.44847   0.45207  377.234
 3454.00    0.47215   0.46009   -1.000
 3455.00    0.46681   0.46603  377.234
 3456.00    0.42495   0.46037   -1.000
 3457.00    0.44163   0.44387   43.902
 3458.00    0.43778   0.42363   44.499
 3459.00    0.41502   0.40883   44.358
 3460.00    0.43478   0.40195   -1.000
 3461.00    0.44050   0.40669   -1.000
 3462.00    0.42279   0.42454  377.234
 3463.00    0.42314   0.44546   -1.000
 3464.00    0.45434   0.45244  377.234
 3465.00    0.47852   0.44906   -1.000
 3466.00    0.45420   0.44714   -1.000
 3467.00    0.42907   0.45451   -1.000
 3468.00    0.46239   0.47024  371.043
 3469.00    0.49396   0.48434   -1.000
 3470.00    0.49062   0.48787  377.234
 3471.00    0.48645   0.47649   -1.000
 3472.00    0.48117   0.45453   -1.000
 3473.00    0.44392   0.42793   44.285
 3474.00    0.44934   0.40319   45.935
 3475.00    0.43598   0.38741   45.442
 3476.00    0.43855   0.38908   -1.000
 3477.00    0.44643   0.40597   -1.000
 3478.00    0.42781   0.42901  376.375
 3479.00    0.46933   0.44833   -1.000
 3480.00    0.48107   0.45876   -1.000
 3481.00    0.47174   0.45822   -1.000
 3482.00    0.45680   0.44915   -1.000
 3483.00    0.45208   0.43991   -1.000
 3484.00    0.47269   0.44097   -1.000
 3485.00    0.47823   0.45535   -1.000
 3486.00    0.49505   0.47247   -1.000
 3487.00    0.48288   0.47833  377.234
 3488.00    0.47660   0.46473   -1.000
 3489.00    0.47286   0.43961   -1.000
 3490.00    0.44425   0.41839   -1.000
 3491.00    0.43635   0.41217   -1.000
 3492.00    0.45608   0.41994   -1.000
 3493.00    0.45553   0.43215   -1.000
 3494.00    0.44095   0.43857  377.234
 3495.00    0.43041   0.43382  377.234
 3496.00    0.42752   0.42664  377.234
 3497.00    0.42935   0.43174  368.143
 3498.00    0.42401   0.45472   -1.000
 3499.00    0.44948   0.48194   -1.000
 3500.00    0.47823   0.49748   -1.000
 3501.00    0.49041   0.50550   -1.000
 3502.00    0.51406   0.51291  350.048
 3503.00    0.54367   0.51620   -1.000
 3504.00    0.53300   0.51073   -1.000
 3505.00    0.51239   0.49868   -1.000
 3506.00    0.52084   0.48882   -1.000
 3507.00    0.51170   0.48575   -1.000
 3508.00    0.50492   0.48238   -1.000
 3509.00    0.49036   0.47293   -1.000
 3510.00    0.47203   0.46068   -1.000
 3511.00    0.46860   0.44795   -1.000
 3512.00    0.48682   0.43498   -1.000
 3513.00    0.47678   0.42368   -1.000
 3514.00    0.45363   0.42304   -1.000
 3515.00    0.43885   0.44282  352.315
 3516.00    0.44173   0.47634   -1.000
 3517.00    0.47092   0.50446   -1.000
 3518.00    0.50191   0.51314   -1.000
 3519.00    0.50230   0.49985  377.234
 3520.00    0.48831   0.47490   -1.000
 3521.00    0.46468   0.44847   -1.000
 3522.00    0.44456   0.42686   43.944
 3523.00    0.43174   0.40742   45.463
 3524.00    0.41478   0.39119   46.906
 3525.00    0.39412   0.38672   -1.000
 3526.00    0.38708   0.40113   -1.000
 3527.00    0.40183   0.43119   -1.000
 3528.00    0.44392   0.46527   -1.000
 3529.00    0.47502   0.48809   -1.000
 3530.00    0.49956   0.49355  374.462
 3531.00    0.49166   0.48759  370.117
 3532.00    0.47098   0.48506   -1.000
 3533.00    0.47899   0.49171   -1.000
 3534.00    0.51004   0.50287  351.020
 3535.00    0.52134   0.51067   -1.000
 3536.00    0.51746   0.51300  348.885
 3537.00    0.50565   0.51722   -1.000
 3538.00    0.51705   0.52556  348.046
 3539.00    0.53181   0.53015  354.569
 3540.00    0.51865   0.52600  357.290
 3541.00    0.52846   0.51738   -1.000
 3542.00    0.51248   0.51552  349.551
 3543.00    0.49989   0.52296   -1.000
 3544.00    0.50568   0.53140   -1.000
 3545.00    0.50110   0.53342   -1.000
 3546.00    0.47497   0.52788   -1.000
 3547.00    0.47590   0.52208   -1.000
 3548.00    0.50241   0.52095   -1.000
 3549.00    0.49639   0.52222   -1.000
 3550.00    0.48528   0.52021   -1.000
 3551.00    0.48493   0.51108   -1.000
 3552.00    0.48338   0.49669   -1.000
 3553.00    0.46193   0.48369   -1.000
 3554.00    0.46258   0.47971   -1.000
 3555.00    0.44952   0.48386   -1.000
 3556.00    0.45632   0.48822   -1.000
 3557.00    0.46502   0.48808   -1.000
 3558.00    0.45643   0.48433   -1.000
 3559.00    0.44524   0.48432   -1.000
 3560.00    0.43134   0.49228   -1.000
 3561.00    0.46143   0.50435   -1.000
 3562.00    0.46713   0.50903   -1.000
 3563.00    0.47244   0.49317   44.443
 3564.00    0.43904   0.45873   46.119
 3565.00    0.43017   0.42367   45.579
 3566.00    0.38751   0.40795   45.446
 3567.00    0.38501   0.40711   46.978
 3568.00    0.41197   0.40440   47.671
 3569.00    0.40519   0.39497   46.103
 3570.00    0.39296   0.38755   47.053
 3571.00    0.39225   0.39278  377.234
 3572.00    0.38712   0.40935   -1.000
 3573.00    0.42312   0.42542  377.234
 3574.00    0.45186   0.43640   -1.000
 3575.00    0.44495   0.44211  377.234
 3576.00    0.42939   0.44119  269.275
 3577.00    0.42571   0.43085   46.064
 3578.00    0.43388   0.41064   49.681
 3579.00    0.40956   0.38383   52.217
 3580.00    0.37112   0.36039   52.519
 3581.00    0.35414   0.34848   52.817
 3582.00    0.35405   0.35025   54.200
 3583.00    0.34094   0.35623   55.921
 3584.00    0.34685   0.35599   56.405
 3585.00    0.34173   0.34961   53.496
 3586.00    0.34309   0.34661   50.661
 3587.00    0.35811   0.35466   48.034
 3588.00    0.38140   0.37469   47.364
 3589.00    0.38049   0.40413   -1.000
 3590.00    0.39293   0.43569   -1.000
 3591.00    0.42066   0.45970   -1.000
 3592.00    0.45610   0.46937   -1.000
 3593.00    0.45763   0.47244   -1.000
 3594.00    0.45971   0.48056   -1.000
 3595.00    0.46876   0.49850   -1.000
 3596.00    0.49569   0.51970   -1.000
 3597.00    0.48713   0.53512   -1.000
 3598.00    0.50614   0.54675   -1.000
 3599.00    0.52866   0.55498   -1.000
 3600.00    0.52849   0.55139   -1.000
 3601.00    0.52759   0.53148  377.234
 3602.00    0.51948   0.50193   -1.000
 3603.00    0.48513   0.47358   -1.000
 3604.00    0.46424   0.45632   -1.000
 3605.00    0.44815   0.45032  377.234
 3606.00    0.46324   0.44671   -1.000
 3607.00    0.44376   0.43668   -1.000
 3608.00    0.41570   0.42337  377.234
 3609.00    0.41909   0.41876  377.234
 3610.00    0.43020   0.42996  377.234
 3611.00    0.46054   0.45114   -1.000
 3612.00    0.49783   0.46913   -1.000
 3613.00    0.48937   0.48344  357.540
 3614.00    0.48662   0.49739   -1.000
 3615.00    0.50153   0.50500  377.234
 3616.00    0.49862   0.49385  233.222
 3617.00    0.47079   0.46051   47.744
 3618.00    0.43805   0.42388   -1.000
 3619.00    0.42303   0.41385   -1.000
 3620.00    0.43024   0.43490  351.764
 3621.00    0.45049   0.47318   -1.000
 3622.00    0.48952   0.50757   -1.000
 3623.00    0.51851   0.53042   -1.000
 3624.00    0.53533   0.55099   -1.000
 3625.00    0.55737   0.57754   -1.000
 3626.00    0.55342   0.60363   -1.000
 3627.00    0.57736   0.61505   -1.000
 3628.00    0.57753   0.59954   -1.000
 3629.00    0.57048   0.55492   -1.000
 3630.00    0.52806   0.49795   -1.000
 3631.00    0.47807   0.45808   -1.000
 3632.00    0.44053   0.44713  377.234
 3633.00    0.45198   0.46087  373.266
 3634.00    0.45778   0.48358   -1.000
 3635.00    0.47162   0.50359   -1.000
 3636.00    0.51174   0.51897  326.868
 3637.00    0.53143   0.53766  317.103
 3638.00    0.56838   0.56112  317.785
 3639.00    0.57133   0.58090   -1.000
 3640.00    0.58423   0.58824  338.063
 3641.00    0.58224   0.57875  355.715
 3642.00    0.54796   0.55723   -1.000
 3643.00    0.51457   0.53272   -1.000
 3644.00    0.49628   0.51030   -1.000
 3645.00    0.49578   0.49105  377.234
 3646.00    0.48986   0.47337   -1.000
 3647.00    0.46823   0.46022   -1.000
 3648.00    0.48340   0.46022   -1.000
 3649.00    0.48492   0.47624   -1.000
 3650.00    0.51623   0.50563   -1.000
 3651.00    0.53793   0.54032  317.844
 3652.00    0.54458   0.57112   -1.000
 3653.00    0.56286   0.58945   -1.000
 3654.00    0.56881   0.59956   -1.000
 3655.00    0.57825   0.60858   -1.000
 3656.00    0.59793   0.62137   -1.000
 3657.00    0.61107   0.63611   -1.000
 3658.00    0.61611   0.64611   -1.000
 3659.00    0.63553   0.64940   -1.000
 3660.00    0.63501   0.64540   -1.000
 3661.00    0.61016   0.63382   -1.000
 3662.00    0.60387   0.61803   -1.000
 3663.00    0.59814   0.60611   -1.000
 3664.00    0.58808   0.60162   -1.000
 3665.00    0.58882   0.60237   -1.000
 3666.00    0.59196   0.60084   -1.000
 3667.00    0.60126   0.59167  329.920
 3668.00    0.61164   0.57782   -1.000
 3669.00    0.59481   0.57005   -1.000
 3670.00    0.57678   0.57858  308.950
 3671.00    0.58141   0.59769   -1.000
 3672.00    0.59875   0.61419   -1.000
 3673.00    0.61725   0.62165  309.987
 3674.00    0.62056   0.61960  319.823
 3675.00    0.60675   0.60803  329.763
 3676.00    0.59365   0.58717  339.560
 3677.00    0.56940   0.56071  346.909
 3678.00    0.55539   0.53549   -1.000
 3679.00    0.52901   0.52050  335.340
 3680.00    0.53374   0.52247   -1.000
 3681.00    0.53370   0.53809  325.046
 3682.00    0.54700   0.55590   -1.000
 3683.00    0.56467   0.56409  347.813
 3684.00    0.54652   0.55464   -1.000
 3685.00    0.53548   0.52964  365.044
 3686.00    0.51499   0.50286   -1.000
 3687.00    0.49681   0.49423  328.779
 3688.00    0.50961   0.51165  308.660
 3689.00    0.53164   0.54981   -1.000
 3690.00    0.58013   0.59123   -1.000
 3691.00    0.62994   0.61711   -1.000
 3692.00    0.62296   0.61749  315.887
 3693.00    0.61594   0.60288   -1.000
 3694.00    0.59771   0.59002  311.203
 3695.00    0.57593   0.58581   -1.000
 3696.00    0.57292   0.59181   -1.000
 3697.00    0.60457   0.60810  289.578
 3698.00    0.62641   0.63125  287.121
 3699.00    0.64710   0.65071  293.910
 3700.00    0.66548   0.65695  309.611
 3701.00    0.65586   0.64222   -1.000
 3702.00    0.63207   0.60332   -1.000
 3703.00    0.59073   0.54831   -1.000
 3704.00    0.54674   0.49676   -1.000
 3705.00    0.51179   0.46350   -1.000
 3706.00    0.48636   0.45503   -1.000
 3707.00    0.49577   0.46136   -1.000
 3708.00    0.49874   0.47423   -1.000
 3709.00    0.52201   0.49557   -1.000
 3710.00    0.55181   0.52698   -1.000
 3711.00    0.59565   0.56395   -1.000
 3712.00    0.63338   0.60182   -1.000
 3713.00    0.64713   0.63188   -1.000
 3714.00    0.65738   0.64494   -1.000
 3715.00    0.66060   0.63847   -1.000
 3716.00    0.63581   0.61460   -1.000
 3717.00    0.61697   0.57324   -1.000
 3718.00    0.55879   0.51682   -1.000
 3719.00    0.49185   0.45462   51.677
 3720.00    0.43790   0.40602   -1.000
 3721.00    0.42046   0.39268   -1.000
 3722.00    0.43478   0.41617   -1.000
 3723.00    0.47540   0.46353   -1.000
 3724.00    0.53445   0.51484   -1.000
 3725.00    0.56472   0.54726   -1.000
 3726.00    0.56405   0.55102   -1.000
 3727.00    0.54298   0.54250  327.461
 3728.00    0.52775   0.54085   -1.000
 3729.00    0.53656   0.54295  351.531
 3730.00    0.56158   0.53425   -1.000
 3731.00    0.54422   0.50236   44.512
 3732.00    0.48546   0.45034   49.338
 3733.00    0.44385   0.39661   50.416
 3734.00    0.41047   0.35600   47.456
 3735.00    0.38055   0.34113   51.121
 3736.00    0.38460   0.35677   -1.000
 3737.00    0.41540   0.39837   -1.000
 3738.00    0.44400   0.45427  327.065
 3739.00    0.49591   0.50975   -1.000
 3740.00    0.53922   0.54496  342.390
 3741.00    0.55274   0.54957  364.166
 3742.00    0.53127   0.52692  377.234
 3743.00    0.50867   0.49181   -1.000
 3744.00    0.49039   0.45796   -1.000
 3745.00    0.46354   0.43389   44.819
 3746.00    0.43080   0.41320   47.331
 3747.00    0.41202   0.39042   56.288
 3748.00    0.40337   0.37168   -1.000
 3749.00    0.38950   0.37089   -1.000
 3750.00    0.41290   0.39973   -1.000
 3751.00    0.46698   0.45211   -1.000
 3752.00    0.50776   0.50943  295.684
 3753.00    0.54820   0.56104   -1.000
 3754.00    0.59431   0.59696  314.602
 3755.00    0.60568   0.60128  355.977
 3756.00    0.58094   0.57081   -1.000
 3757.00    0.54882   0.52119   -1.000
 3758.00    0.50817   0.48173   -1.000
 3759.00    0.48560   0.47242   -1.000
 3760.00    0.48947   0.48518  337.732
 3761.00    0.51738   0.50134   -1.000
 3762.00    0.53686   0.50828   -1.000
 3763.00    0.52755   0.50863   -1.000
 3764.00    0.52572   0.50787   -1.000
 3765.00    0.52741   0.50419   -1.000
 3766.00    0.52364   0.49866   -1.000
 3767.00    0.52675   0.49818   -1.000
 3768.00    0.52746   0.50403   -1.000
 3769.00    0.54465   0.51211   -1.000
 3770.00    0.56927   0.52286   -1.000
 3771.00    0.57830   0.54058   -1.000
 3772.00    0.60538   0.56375   -1.000
 3773.00    0.63764   0.58399   -1.000
 3774.00    0.63587   0.59447   -1.000
 3775.00    0.62500   0.59888   -1.000
 3776.00    0.60962   0.60398  295.042
 3777.00    0.61909   0.61321  285.575
 3778.00    0.61531   0.62676   -1.000
 3779.00    0.62252   0.64212   -1.000
 3780.00    0.62434   0.65609   -1.000
 3781.00    0.64728   0.66558   -1.000
 3782.00    0.66576   0.67043  286.344
 3783.00    0.66931   0.66793  303.044
 3784.00    0.65909   0.65034   -1.000
 3785.00    0.62516   0.61632   -1.000
 3786.00    0.59405   0.57585   -1.000
 3787.00    0.54362   0.54132  341.996
 3788.00    0.53356   0.52221   -1.000
 3789.00    0.54011   0.52177   -1.000
 3790.00    0.52104   0.53247   -1.000
 3791.00    0.53377   0.54127  354.285
 3792.00    0.54426   0.53761   -1.000
 3793.00    0.52587   0.51987   -1.000
 3794.00    0.50414   0.49749   -1.000
 3795.00    0.49475   0.47603   -1.000
 3796.00    0.47930   0.45398   -1.000
 3797.00    0.45987   0.43225   -1.000
 3798.00    0.44703   0.42337   -1.000
 3799.00    0.45399   0.44194   -1.000
 3800.00    0.48478   0.48532  315.062
 3801.00    0.50710   0.53564   -1.000
 3802.00    0.53310   0.57831   -1.000
 3803.00    0.56641   0.60397   -1.000
 3804.00    0.57708   0.60977   -1.000
 3805.00    0.56415   0.59789   -1.000
 3806.00    0.53937   0.58054   -1.000
 3807.00    0.52889   0.57361   -1.000
 3808.00    0.54595   0.58434   -1.000
 3809.00    0.56245   0.60319   -1.000
 3810.00    0.56620   0.61350   -1.000
 3811.00    0.56386   0.60292   -1.000
 3812.00    0.54579   0.57196   -1.000
 3813.00    0.51904   0.53265   -1.000
 3814.00    0.48339   0.49824   -1.000
 3815.00    0.44708   0.48086   -1.000
 3816.00    0.44603   0.48123   -1.000
 3817.00    0.45958   0.48622   -1.000
 3818.00    0.47457   0.47827  377.234
 3819.00    0.45036   0.45712  377.234
 3820.00    0.42184   0.44100   -1.000
 3821.00    0.42323   0.44269   -1.000
 3822.00    0.42557   0.45414   -1.000
 3823.00    0.42253   0.45300   46.062
 3824.00    0.40709   0.43379   46.735
 3825.00    0.39026   0.41199   46.227
 3826.00    0.38983   0.40036   45.469
 3827.00    0.38836   0.40163   45.010
 3828.00    0.38955   0.41049   45.922
 3829.00    0.40723   0.41850   48.397
 3830.00    0.41704   0.41699   51.808
 3831.00    0.40725   0.40277   52.750
 3832.00    0.38522   0.38047   51.403
 3833.00    0.36901   0.36088   49.514
 3834.00    0.36158   0.35322   48.926
 3835.00    0.37928   0.35698   50.049
 3836.00    0.37512   0.36517   50.781
 3837.00    0.37738   0.37011   49.355
 3838.00    0.38103   0.37236   58.824
 3839.00    0.36963   0.38022   -1.000
 3840.00    0.37633   0.40286   -1.000
 3841.00    0.41165   0.44066   -1.000
 3842.00    0.44403   0.48307   -1.000
 3843.00    0.46624   0.51819   -1.000
 3844.00    0.48920   0.53792   -1.000
 3845.00    0.49776   0.54604   -1.000
 3846.00    0.49088   0.54935   -1.000
 3847.00    0.47963   0.54819   -1.000
 3848.00    0.46465   0.53995   -1.000
 3849.00    0.45621   0.52903   -1.000
 3850.00    0.45909   0.52566   -1.000
 3851.00    0.47446   0.53319   -1.000
 3852.00    0.47430   0.54193   -1.000
 3853.00    0.46535   0.54169   -1.000
 3854.00    0.46450   0.53046   -1.000
 3855.00    0.44412   0.51439   -1.000
 3856.00    0.43613   0.49812   44.041
 3857.00    0.44122   0.47972   45.934
 3858.00    0.43339   0.46103   56.985
 3859.00    0.41290   0.45281   -1.000
 3860.00    0.40139   0.46512   -1.000
 3861.00    0.41847   0.49673   -1.000
 3862.00    0.46642   0.53032   -1.000
 3863.00    0.50812   0.54862   -1.000
 3864.00    0.51839   0.54858   -1.000
 3865.00    0.51141   0.54110   -1.000
 3866.00    0.50294   0.53604   -1.000
 3867.00    0.48315   0.53339   -1.000
 3868.00    0.47303   0.52786   -1.000
 3869.00    0.45444   0.51428   -1.000
 3870.00    0.43505   0.49449   -1.000
 3871.00    0.42810   0.47987   -1.000
 3872.00    0.43033   0.48148   -1.000
 3873.00    0.46333   0.50342   -1.000
 3874.00    0.50839   0.53453   -1.000
 3875.00    0.52957   0.55347   -1.000
 3876.00    0.52577   0.54485   -1.000
 3877.00    0.50187   0.52037   -1.000
 3878.00    0.46939   0.50282   -1.000
 3879.00    0.46994   0.49923   -1.000
 3880.00    0.47326   0.50351   -1.000
 3881.00    0.46644   0.50844   -1.000
 3882.00    0.47034   0.51459   -1.000
 3883.00    0.49230   0.52274   -1.000
 3884.00    0.51336   0.51987  375.871
 3885.00    0.51728   0.49700   -1.000
 3886.00    0.49388   0.46540   -1.000
 3887.00    0.49683   0.44307   -1.000
 3888.00    0.51293   0.44368   -1.000
 3889.00    0.52724   0.47038   -1.000
 3890.00    0.56875   0.51608   -1.000
 3891.00    0.61743   0.56609   -1.000
 3892.00    0.63197   0.60182   -1.000
 3893.00    0.62489   0.61282   -1.000
 3894.00    0.61680   0.60939  290.520
 3895.00    0.62568   0.60770   -1.000
 3896.00    0.63194   0.61247   -1.000
 3897.00    0.63446   0.61773   -1.000
 3898.00    0.64999   0.61683   -1.000
 3899.00    0.64453   0.61351   -1.000
 3900.00    0.63722   0.61542   -1.000
 3901.00    0.64945   0.61979   -1.000
 3902.00    0.66173   0.61853   -1.000
 3903.00    0.63947   0.60805   -1.000
 3904.00    0.61012   0.59309   -1.000
 3905.00    0.59091   0.58552  292.114
 3906.00    0.60479   0.59509  275.813
 3907.00    0.64720   0.62277   -1.000
 3908.00    0.68532   0.65682   -1.000
 3909.00    0.70676   0.68375   -1.000
 3910.00    0.72083   0.69932   -1.000
 3911.00    0.72760   0.70766   -1.000
 3912.00    0.73674   0.71008   -1.000
 3913.00    0.72151   0.70574   -1.000
 3914.00    0.70641   0.69619  284.635
 3915.00    0.71536   0.68492   -1.000
 3916.00    0.70111   0.67271   -1.000
 3917.00    0.67333   0.65721   -1.000
 3918.00    0.65193   0.63454   -1.000
 3919.00    0.62944   0.60609   -1.000
 3920.00    0.61383   0.58076   -1.000
 3921.00    0.58841   0.56747   -1.000
 3922.00    0.58155   0.56950   -1.000
 3923.00    0.59340   0.57771   -1.000
 3924.00    0.59712   0.57912   -1.000
 3925.00    0.59076   0.56507   -1.000
 3926.00    0.56321   0.53385   50.592
 3927.00    0.51867   0.49192   59.299
 3928.00    0.46021   0.44692   69.579
 3929.00    0.37793   0.40548   82.136
 3930.00    0.32171   0.36748   -1.000
 3931.00    0.28911   0.33013   -1.000
 3932.00    0.28041   0.29526   92.267
 3933.00    0.28483   0.27323   78.757
 3934.00    0.28973   0.27640   64.934
 3935.00    0.31353   0.30432   53.709
 3936.00    0.34834   0.34674   63.282
 3937.00    0.39234   0.39589  377.234
 3938.00    0.43281   0.44616   -1.000
 3939.00    0.48227   0.48918  374.636
 3940.00    0.53947   0.51992   -1.000
 3941.00    0.56495   0.53495   -1.000
 3942.00    0.54679   0.53764   -1.000
 3943.00    0.52000   0.54062   -1.000
 3944.00    0.53309   0.55664   -1.000
 3945.00    0.57445   0.58422  298.386
 3946.00    0.61675   0.61141  293.580
 3947.00    0.64331   0.63046   -1.000
 3948.00    0.66436   0.64469   -1.000
 3949.00    0.69388   0.66165   -1.000
 3950.00    0.72685   0.67732   -1.000
 3951.00    0.73704   0.68265   -1.000
 3952.00    0.72024   0.68421   -1.000
 3953.00    0.71909   0.68994   -1.000
 3954.00    0.74157   0.69483   -1.000
 3955.00    0.74567   0.69143   -1.000
 3956.00    0.72433   0.68070   -1.000
 3957.00    0.70519   0.67164   -1.000
 3958.00    0.70910   0.66538   -1.000
 3959.00    0.70467   0.64466   -1.000
 3960.00    0.63971   0.60017   -1.000
 3961.00    0.56379   0.54724  123.032
 3962.00    0.50830   0.50318   47.771
 3963.00    0.46801   0.47371   56.856
 3964.00    0.43915   0.44598   70.065
 3965.00    0.40069   0.40577   83.378
 3966.00    0.35005   0.35300   87.334
 3967.00    0.32077   0.30040   77.805
 3968.00    0.30264   0.26781   63.980
 3969.00    0.30271   0.26673   52.882
 3970.00    0.33160   0.29600   63.724
 3971.00    0.37785   0.34613   -1.000
 3972.00    0.43063   0.40607   -1.000
 3973.00    0.48933   0.46732   -1.000
 3974.00    0.54273   0.52646   -1.000
 3975.00    0.59567   0.58020   -1.000
 3976.00    0.64359   0.62913   -1.000
 3977.00    0.68934   0.67463   -1.000
 3978.00    0.74355   0.71614   -1.000
 3979.00    0.78761   0.74900   -1.000
 3980.00    0.79637   0.76472   -1.000
 3981.00    0.79401   0.76437   -1.000
 3982.00    0.79454   0.75717   -1.000
 3983.00    0.80425   0.75636   -1.000
 3984.00    0.81474   0.76731   -1.000
 3985.00    0.82155   0.78454   -1.000
 3986.00    0.83214   0.80292   -1.000
 3987.00    0.84728   0.81965   -1.000
 3988.00    0.87723   0.83002   -1.000
 3989.00    0.88451   0.83355   -1.000
 3990.00    0.86980   0.83728   -1.000
 3991.00    0.86895   0.84662   -1.000
 3992.00    0.89527   0.85887   -1.000
 3993.00    0.90386   0.86452   -1.000
 3994.00    0.90328   0.85679   -1.000
 3995.00    0.89183   0.83856   -1.000
 3996.00    0.86053   0.82169   -1.000
 3997.00    0.84102   0.82000   -1.000
 3998.00    0.85028   0.83718  214.769
 3999.00    0.89002   0.86523   -1.000
 4000.00    0.93675   0.89141   -1.000
 4001.00    0.95270   0.90826   -1.000
 4002.00    0.97036   0.90900   -1.000
 4003.00    0.97593   0.88631   -1.000
 4004.00    0.93254   0.84518   -1.000
 4005.00    0.87097   0.81227   -1.000
 4006.00    0.85863   0.81135   -1.000
 4007.00    0.87460   0.84179   -1.000
 4008.00    0.91498   0.88098   -1.000
 4009.00    0.94156   0.90748   -1.000
 4010.00    0.95053   0.92026   -1.000
 4011.00    0.97239   0.92559   -1.000
 4012.00    1.01051   0.92903   -1.000
 4013.00    1.00311   0.93460   -1.000
 4014.00    1.00549   0.94136   -1.000
 4015.00    1.00864   0.94421   -1.000
 4016.00    1.00139   0.94230   -1.000
 4017.00    1.00355   0.94241   -1.000
 4018.00    1.00934   0.94897   -1.000
 4019.00    1.01428   0.95788   -1.000
 4020.00    1.02369   0.96189   -1.000
 4021.00    1.01919   0.95732   -1.000
 4022.00    1.00741   0.94736   -1.000
 4023.00    1.00228   0.93611   -1.000
 4024.00    0.99175   0.92919   -1.000
 4025.00    0.99837   0.93514   -1.000
 4026.00    1.02847   0.95606   -1.000
 4027.00    1.05152   0.97648   -1.000
 4028.00    1.04833   0.97262   -1.000
 4029.00    1.01096   0.93343   -1.000
 4030.00    0.94254   0.87482   -1.000
 4031.00    0.87524   0.82547   -1.000
 4032.00    0.82790   0.80052   -1.000
 4033.00    0.82323   0.80420   -1.000
 4034.00    0.84367   0.83566  200.500
 4035.00    0.89156   0.88820  195.691
 4036.00    0.97322   0.94687   -1.000
 4037.00    1.04336   0.99318   -1.000
 4038.00    1.07792   1.01079   -1.000
 4039.00    1.06098   1.00265   -1.000
 4040.00    1.03074   0.98576   -1.000
 4041.00    1.01539   0.97026   -1.000
 4042.00    1.00455   0.94240   -1.000
 4043.00    0.97342   0.88502   -1.000
 4044.00    0.88770   0.80950   -1.000
 4045.00    0.78121   0.75865   -1.000
 4046.00    0.76546   0.77137  207.005
 4047.00    0.84363   0.83696  202.473
 4048.00    0.92930   0.91201  201.526
 4049.00    1.00000   0.96695   -1.000
 4050.00    1.04743   0.99123   -1.000
 4051.00    1.03820   0.99092   -1.000
 4052.00    1.00828   0.97488   -1.000
 4053.00    0.97542   0.95173   -1.000
 4054.00    0.94801   0.92960   -1.000
 4055.00    0.93074   0.91157   -1.000
 4056.00    0.91970   0.89620   -1.000
 4057.00    0.91259   0.88868   -1.000
 4058.00    0.90397   0.89883  208.669
 4059.00    0.93254   0.92064  216.541
 4060.00    0.95622   0.92986   -1.000
 4061.00    0.96250   0.90390   -1.000
 4062.00    0.91669   0.85103   -1.000
 4063.00    0.83160   0.80924   -1.000
 4064.00    0.81497   0.80057  218.976
 4065.00    0.86084   0.82094   -1.000
 4066.00    0.90852   0.85567   -1.000
 4067.00    0.93887   0.89007   -1.000
 4068.00    0.96127   0.91411   -1.000
 4069.00    0.97396   0.91616   -1.000
 4070.00    0.95121   0.89121   -1.000
 4071.00    0.91412   0.86306   -1.000
 4072.00    0.90926   0.86198   -1.000
 4073.00    0.93756   0.88327   -1.000
 4074.00    0.95242   0.89557   -1.000
 4075.00    0.93138   0.87436   -1.000
 4076.00    0.88158   0.83526   -1.000
 4077.00    0.84764   0.81661   -1.000
 4078.00    0.85737   0.83906   -1.000
 4079.00    0.90268   0.89499  204.055
 4080.00    0.97791   0.95303   -1.000
 4081.00    1.03468   0.98512   -1.000
 4082.00    1.03181   0.98222   -1.000
 4083.00    0.99571   0.96049   -1.000
 4084.00    0.97341   0.94610   -1.000
 4085.00    0.98591   0.95638   -1.000
 4086.00    1.01564   0.98954   -1.000
 4087.00    1.06653   1.02814   -1.000
 4088.00    1.10872   1.05462   -1.000
 4089.00    1.11154   1.05853   -1.000
 4090.00    1.08389   1.04423   -1.000
 4091.00    1.05857   1.02571   -1.000
 4092.00    1.04719   1.01247   -1.000
 4093.00    1.03801   0.99888   -1.000
 4094.00    1.01922   0.97577   -1.000
 4095.00    0.97743   0.94274   -1.000
 4096.00    0.93426   0.90997   -1.000
 4097.00    0.91052   0.88576   -1.000
 4098.00    0.91260   0.86115   -1.000
 4099.00    0.89379   0.82177   -1.000
 4100.00    0.84011   0.77322   -1.000
 4101.00    0.79203   0.74096   -1.000
 4102.00    0.78294   0.74788   -1.000
 4103.00    0.82589   0.79470   -1.000
 4104.00    0.89555   0.85847   -1.000
 4105.00    0.94731   0.91519   -1.000
 4106.00    0.97624   0.95154   -1.000
 4107.00    0.97981   0.96634  220.834
 4108.00    0.97537   0.96375  221.700
 4109.00    0.96452   0.95248  217.898
 4110.00    0.94468   0.94399  213.378
 4111.00    0.93851   0.94722  209.886
 4112.00    0.96055   0.96284  207.133
 4113.00    0.98716   0.98566  206.339
 4114.00    1.00953   1.00738  208.763
 4115.00    1.02987   1.01889  214.347
 4116.00    1.02968   1.01341   -1.000
 4117.00    1.01360   0.99328   -1.000
 4118.00    0.98840   0.97012   -1.000
 4119.00    0.96971   0.95742  216.205
 4120.00    0.96864   0.95910  215.455
 4121.00    0.97986   0.96683  212.457
 4122.00    0.97821   0.97444  209.870
 4123.00    0.98378   0.98366  210.648
 4124.00    1.00842   0.99458  214.269
 4125.00    1.01789   1.00031   -1.000
 4126.00    1.00550   0.99400  219.266
 4127.00    0.97953   0.97882  221.025
 4128.00    0.95734   0.96381  225.544
 4129.00    0.94995   0.94900  232.800
 4130.00    0.94586   0.92751   -1.000
 4131.00    0.92128   0.89971   -1.000
 4132.00    0.87812   0.87903  224.741
 4133.00    0.87372   0.88381  214.940
 4134.00    0.90383   0.91597  209.478
 4135.00    0.94624   0.96042   -1.000
 4136.00    0.98948   1.00077  203.974
 4137.00    1.02055   1.02855  205.253
 4138.00    1.02929   1.04343   -1.000
 4139.00    1.03651   1.04395  226.352
 4140.00    1.02609   1.02045  242.904
 4141.00    0.98292   0.96772   -1.000
 4142.00    0.90155   0.90370  234.419
 4143.00    0.82384   0.86491   -1.000
 4144.00    0.81846   0.87201   -1.000
 4145.00    0.87253   0.91462   -1.000
 4146.00    0.92804   0.96025   -1.000
 4147.00    0.95612   0.98159   -1.000
 4148.00    0.95091   0.97871   -1.000
 4149.00    0.93609   0.96703   -1.000
 4150.00    0.91847   0.95923   -1.000
 4151.00    0.91694   0.95599   -1.000
 4152.00    0.91302   0.95157   -1.000
 4153.00    0.89820   0.94326   -1.000
 4154.00    0.91531   0.93539   -1.000
 4155.00    1.04384   0.93558   -1.000
 4156.00    1.12589   0.94768   -1.000
 4157.00    0.89775   0.96999   -1.000
 4158.00    0.74944   0.99771   -1.000
 4159.00    0.91856   1.02333   -1.000
 4160.00    1.01683   1.04224   -1.000
 4161.00    1.01975   1.05581   -1.000
 4162.00    1.03295   1.06445   -1.000
 4163.00    1.03874   1.06502   -1.000
 4164.00    1.02040   1.05402   -1.000
 4165.00    0.98919   1.03295   -1.000
 4166.00    0.95596   1.01098   -1.000
 4167.00    0.93370   1.00075   -1.000
 4168.00    0.94214   1.00352   -1.000
 4169.00    0.96738   1.00630   -1.000
 4170.00    0.97437   0.99004   -1.000
 4171.00    0.94108   0.95239  245.986
 4172.00    0.88777   0.91521   -1.000
 4173.00    0.86104   0.90058   -1.000
 4174.00    0.87823   0.91240   -1.000
 4175.00    0.89880   0.93382   -1.000
 4176.00    0.90844   0.94868   -1.000
 4177.00    0.90837   0.95809   -1.000
 4178.00    0.90591   0.96847   -1.000
 4179.00    0.91850   0.97851   -1.000
 4180.00    0.93268   0.98258   -1.000
 4181.00    0.93842   0.98120   -1.000
 4182.00    0.93440   0.98635   -1.000
 4183.00    0.94804   1.00363   -1.000
 4184.00    0.98211   1.01916   -1.000
 4185.00    0.98971   1.01686   -1.000
 4186.00    0.96357   0.99631   -1.000
 4187.00    0.94028   0.97775   -1.000
 4188.00    0.95080   0.97839   -1.000
 4189.00    0.96526   0.99308   -1.000
 4190.00    0.96964   1.00960   -1.000
 4191.00    0.97498   1.02441   -1.000
 4192.00    0.99938   1.03800   -1.000
 4193.00    1.02464   1.04244   -1.000
 4194.00    1.01917   1.02413  238.110
 4195.00    0.97387   0.98433  240.572
 4196.00    0.91996   0.94265   -1.000
 4197.00    0.88986   0.91443   -1.000
 4198.00    0.88183   0.90308   -1.000
 4199.00    0.89533   0.90286  232.943
 4200.00    0.91202   0.90829  230.416
 4201.00    0.91288   0.91708  227.624
 4202.00    0.91880   0.93264   -1.000
 4203.00    0.94398   0.95964   -1.000
 4204.00    0.98272   0.99484  214.733
 4205.00    1.01082   1.02899   -1.000
 4206.00    1.02831   1.05695   -1.000
 4207.00    1.03805   1.07548   -1.000
 4208.00    1.05507   1.08035   -1.000
 4209.00    1.05654   1.07570   -1.000
 4210.00    1.04134   1.07183   -1.000
 4211.00    1.04234   1.07302   -1.000
 4212.00    1.04060   1.06846   -1.000
 4213.00    1.02094   1.04349   -1.000
 4214.00    0.97317   1.00686   -1.000
 4215.00    0.92573   0.98742   -1.000
 4216.00    0.94549   1.00670   -1.000
 4217.00    1.02728   1.05831   -1.000
 4218.00    1.11344   1.11141  196.150
 4219.00    1.16327   1.14455  200.918
 4220.00    1.18781   1.14962   -1.000
 4221.00    1.18080   1.12522   -1.000
 4222.00    1.12788   1.07022   -1.000
 4223.00    1.04204   0.98591   -1.000
 4224.00    0.93866   0.88422   -1.000
 4225.00    0.81895   0.79524   -1.000
 4226.00    0.72427   0.75596   -1.000
 4227.00    0.73011   0.79217   -1.000
 4228.00    0.83937   0.88967   -1.000
 4229.00    0.97241   0.99838   -1.000
 4230.00    1.06575   1.06703  210.416
 4231.00    1.10284   1.08566  214.357
 4232.00    1.09607   1.07071   -1.000
 4233.00    1.07182   1.04279   -1.000
 4234.00    1.04770   1.01740   -1.000
 4235.00    1.03183   1.00278   -1.000
 4236.00    1.00907   0.99981  215.897
 4237.00    1.00865   1.00947  212.355
 4238.00    1.03603   1.03087  208.812
 4239.00    1.05562   1.05829  206.945
 4240.00    1.08144   1.08624  204.802
 4241.00    1.11682   1.11252  200.801
 4242.00    1.13457   1.13726  199.566
 4243.00    1.15103   1.16242  205.223
 4244.00    1.18801   1.18081  214.178
 4245.00    1.21328   1.17511   -1.000
 4246.00    1.17981   1.13873   -1.000
 4247.00    1.11630   1.08479   -1.000
 4248.00    1.06427   1.03458   -1.000
 4249.00    1.01738   1.00624  215.750
 4250.00    0.99052   1.00446   -1.000
 4251.00    0.99692   1.02001   -1.000
 4252.00    1.03579   1.03149  218.665
 4253.00    1.05372   1.02804   -1.000
 4254.00    1.02894   1.02349  207.445
 4255.00    1.02674   1.03969   -1.000
 4256.00    1.07439   1.07123  220.726
 4257.00    1.11133   1.08189   -1.000
 4258.00    1.08524   1.05282   -1.000
 4259.00    1.01723   1.00748  216.651
 4260.00    0.96771   0.98851   -1.000
 4261.00    0.98602   1.02103   -1.000
 4262.00    1.06586   1.09068   -1.000
 4263.00    1.15744   1.16146  196.402
 4264.00    1.20973   1.20309  201.355
 4265.00    1.21579   1.21099  207.890
 4266.00    1.20146   1.19323  215.027
 4267.00    1.16893   1.15431  226.252
 4268.00    1.12367   1.09692   -1.000
 4269.00    1.06209   1.02620   -1.000
 4270.00    0.97376   0.95347   -1.000
 4271.00    0.89135   0.90031  241.768
 4272.00    0.85789   0.88115   -1.000
 4273.00    0.86871   0.89698   -1.000
 4274.00    0.89887   0.93869   -1.000
 4275.00    0.94135   0.99869   -1.000
 4276.00    1.01525   1.06833   -1.000
 4277.00    1.10749   1.12542   -1.000
 4278.00    1.15620   1.14431  220.262
 4279.00    1.14470   1.12739   -1.000
 4280.00    1.10169   1.10143  216.130
 4281.00    1.07982   1.09210  216.591
 4282.00    1.08987   1.09772  221.345
 4283.00    1.09917   1.09997  227.533
 4284.00    1.09450   1.09027  231.978
 4285.00    1.07470   1.07276  238.038
 4286.00    1.05225   1.05299  248.801
 4287.00    1.02814   1.02636  255.302
 4288.00    0.98969   0.98733  248.497
 4289.00    0.93942   0.94907  233.873
 4290.00    0.91161   0.93898   -1.000
 4291.00    0.94180   0.96782   -1.000
 4292.00    1.00113   1.01315  226.552
 4293.00    1.04900   1.04123  231.084
 4294.00    1.06139   1.04211   -1.000
 4295.00    1.03587   1.02422  256.379
 4296.00    1.00090   0.99120  277.446
 4297.00    0.96607   0.94059   -1.000
 4298.00    0.90837   0.87958   -1.000
 4299.00    0.82928   0.82786  279.342
 4300.00    0.78453   0.80447   -1.000
 4301.00    0.79810   0.80862  271.466
 4302.00    0.82156   0.82504  270.507
 4303.00    0.83932   0.83970  276.028
 4304.00    0.85936   0.84499   -1.000
 4305.00    0.85396   0.83328   -1.000
 4306.00    0.81429   0.80305   -1.000
 4307.00    0.76377   0.76923  288.442
 4308.00    0.73080   0.75526   -1.000
 4309.00    0.74231   0.77478   -1.000
 4310.00    0.79918   0.82356   -1.000
 4311.00    0.87014   0.88696   -1.000
 4312.00    0.93982   0.95354  214.381
 4313.00    1.00118   1.02754   -1.000
 4314.00    1.07204   1.11568   -1.000
 4315.00    1.17923   1.21267   -1.000
 4316.00    1.29350   1.29987  185.080
 4317.00    1.36333   1.35061  188.756
 4318.00    1.38072   1.35777   -1.000
 4319.00    1.36031   1.33523   -1.000
 4320.00    1.32001   1.29605   -1.000
 4321.00    1.27622   1.23901   -1.000
 4322.00    1.21434   1.15819   -1.000
 4323.00    1.11128   1.05950   -1.000
 4324.00    0.98379   0.97634  221.503
 4325.00    0.90330   0.95375   -1.000
 4326.00    0.92520   1.01062   -1.000
 4327.00    1.05012   1.11991   -1.000
 4328.00    1.19972   1.22604   -1.000
 4329.00    1.27870   1.28539  189.876
 4330.00    1.29382   1.30269  187.226
 4331.00    1.29616   1.30716  186.173
 4332.00    1.30506   1.31924  187.753
 4333.00    1.32668   1.33556  195.789
 4334.00    1.34571   1.33733  212.134
 4335.00    1.34301   1.30424   -1.000
 4336.00    1.28622   1.22692   -1.000
 4337.00    1.17531   1.11761   -1.000
 4338.00    1.06239   1.01161   -1.000
 4339.00    0.98730   0.95002   -1.000
 4340.00    0.97289   0.94955   -1.000
 4341.00    1.01094   1.00375  206.053
 4342.00    1.08560   1.08707  200.205
 4343.00    1.16953   1.16627  195.910
 4344.00    1.22821   1.22320  193.341
 4345.00    1.27182   1.26263  190.698
 4346.00    1.29780   1.29457  189.536
 4347.00    1.30998   1.32372  195.592
 4348.00    1.33845   1.33909  208.909
 4349.00    1.35475   1.31720   -1.000
 4350.00    1.31033   1.25448   -1.000
 4351.00    1.20088   1.18420   -1.000
 4352.00    1.11832   1.15118   -1.000
 4353.00    1.13875   1.17293   -1.000
 4354.00    1.19991   1.22528   -1.000
 4355.00    1.25406   1.27458   -1.000
 4356.00    1.30139   1.30263  195.685
 4357.00    1.31419   1.30769  194.545
 4358.00    1.29428   1.29888  189.357
 4359.00    1.27535   1.29649   -1.000
 4360.00    1.29244   1.31456   -1.000
 4361.00    1.34369   1.34644  182.894
 4362.00    1.37437   1.37750  181.857
 4363.00    1.38825   1.39991  184.992
 4364.00    1.41235   1.41142  191.526
 4365.00    1.42419   1.40372   -1.000
 4366.00    1.38909   1.37046   -1.000
 4367.00    1.33137   1.32696  193.885
 4368.00    1.29812   1.29818  193.296
 4369.00    1.28151   1.28914  194.347
 4370.00    1.27636   1.28667  199.732
 4371.00    1.28550   1.27446  208.016
 4372.00    1.29034   1.24414   -1.000
 4373.00    1.25161   1.20054   -1.000
 4374.00    1.18594   1.16502   -1.000
 4375.00    1.16582   1.16452  190.266
 4376.00    1.20192   1.20397  189.649
 4377.00    1.26525   1.25728  192.200
 4378.00    1.32122   1.28796   -1.000
 4379.00    1.33424   1.27794   -1.000
 4380.00    1.29715   1.22347   -1.000
 4381.00    1.22467   1.12735   -1.000
 4382.00    1.10164   1.01391   -1.000
 4383.00    0.95201   0.93345   -1.000
 4384.00    0.88376   0.92820   -1.000
 4385.00    0.95690   0.99834   -1.000
 4386.00    1.10120   1.09394  203.213
 4387.00    1.20272   1.15889   -1.000
 4388.00    1.22542   1.18067   -1.000
 4389.00    1.20039   1.18144   -1.000
 4390.00    1.18929   1.18567  196.919
 4391.00    1.21361   1.20103  200.212
 4392.00    1.23930   1.21945   -1.000
 4393.00    1.25610   1.23060   -1.000
 4394.00    1.25389   1.23915  188.468
 4395.00    1.26823   1.26250  187.810
 4396.00    1.33110   1.30145   -1.000
 4397.00    1.39159   1.32993   -1.000
 4398.00    1.39385   1.32431   -1.000
 4399.00    1.34035   1.29222   -1.000
 4400.00    1.27892   1.26233   -1.000
 4401.00    1.25958   1.24332   -1.000
 4402.00    1.26337   1.21623   -1.000
 4403.00    1.21290   1.16574   -1.000
 4404.00    1.11391   1.11127  207.299
 4405.00    1.06902   1.09145   -1.000
 4406.00    1.10954   1.11582  199.661
 4407.00    1.16031   1.16148  191.278
 4408.00    1.19873   1.21413   -1.000
 4409.00    1.25591   1.27627   -1.000
 4410.00    1.33538   1.34415  182.419
 4411.00    1.39850   1.39077  190.885
 4412.00    1.42056   1.38745   -1.000
 4413.00    1.38713   1.33726   -1.000
 4414.00    1.29020   1.27160   -1.000
 4415.00    1.20842   1.23138   -1.000
 4416.00    1.20641   1.24524   -1.000
 4417.00    1.26856   1.30405   -1.000
 4418.00    1.34709   1.37099   -1.000
 4419.00    1.39658   1.41059  188.792
 4420.00    1.39759   1.40944  189.459
 4421.00    1.34878   1.37816   -1.000
 4422.00    1.29319   1.34488   -1.000
 4423.00    1.27123   1.33174   -1.000
 4424.00    1.27222   1.33780   -1.000
 4425.00    1.28286   1.34845   -1.000
 4426.00    1.29219   1.35600   -1.000
 4427.00    1.29706   1.36189   -1.000
 4428.00    1.32234   1.36438   -1.000
 4429.00    1.34380   1.36075   -1.000
 4430.00    1.32513   1.35503   -1.000
 4431.00    1.31687   1.35257   -1.000
 4432.00    1.32966   1.34412  203.719
 4433.00    1.30455   1.31548  199.314
 4434.00    1.24580   1.27954   -1.000
 4435.00    1.21978   1.27208   -1.000
 4436.00    1.26166   1.31524   -1.000
 4437.00    1.34379   1.39011   -1.000
 4438.00    1.43718   1.44991  186.831
 4439.00    1.48552   1.46200   -1.000
 4440.00    1.45410   1.42551   -1.000
 4441.00    1.38979   1.36964   -1.000
 4442.00    1.32252   1.33322  186.115
 4443.00    1.31107   1.34253   -1.000
 4444.00    1.36663   1.39195   -1.000
 4445.00    1.43008   1.45002   -1.000
 4446.00    1.47768   1.48804  181.430
 4447.00    1.50101   1.49990  183.366
 4448.00    1.50644   1.49854  183.179
 4449.00    1.51393   1.49334   -1.000
 4450.00    1.50541   1.48295   -1.000
 4451.00    1.47920   1.46396  196.268
 4452.00    1.45498   1.43108   -1.000
 4453.00    1.40879   1.37962   -1.000
 4454.00    1.33984   1.32188  197.876
 4455.00    1.28866   1.28523  196.623
 4456.00    1.28440   1.27885  197.409
 4457.00    1.30613   1.28776   -1.000
 4458.00    1.30378   1.29208  201.041
 4459.00    1.28953   1.28624  199.189
 4460.00    1.27803   1.28116  192.589
 4461.00    1.26256   1.29167   -1.000
 4462.00    1.27562   1.32470   -1.000
 4463.00    1.33076   1.37117   -1.000
 4464.00    1.40030   1.41061  186.560
 4465.00    1.43044   1.42884  189.687
 4466.00    1.43549   1.42735  191.817
 4467.00    1.44283   1.41641   -1.000
 4468.00    1.42875   1.40563   -1.000
 4469.00    1.39925   1.40466  179.261
 4470.00    1.40537   1.42461   -1.000
 4471.00    1.44488   1.46543   -1.000
 4472.00    1.50981   1.51177  171.011
 4473.00    1.56684   1.54928  170.217
 4474.00    1.58128   1.57371  168.987
 4475.00    1.59587   1.59239  169.606
 4476.00    1.62669   1.60967  174.209
 4477.00    1.64988   1.61217   -1.000
 4478.00    1.63821   1.58114   -1.000
 4479.00    1.57075   1.51786   -1.000
 4480.00    1.47621   1.45263   -1.000
 4481.00    1.40869   1.42426   -1.000
 4482.00    1.40903   1.44985   -1.000
 4483.00    1.48124   1.51407   -1.000
 4484.00    1.56485   1.58223   -1.000
 4485.00    1.63046   1.62443  177.714
 4486.00    1.65911   1.62413   -1.000
 4487.00    1.62822   1.58401   -1.000
 4488.00    1.55129   1.52847   -1.000
 4489.00    1.48540   1.49266  175.379
 4490.00    1.46383   1.49342   -1.000
 4491.00    1.49134   1.51682   -1.000
 4492.00    1.52330   1.52939  185.268
 4493.00    1.50492   1.51147  185.322
 4494.00    1.45538   1.47925   -1.000
 4495.00    1.42623   1.46485   -1.000
 4496.00    1.43391   1.48583   -1.000
 4497.00    1.48048   1.53007   -1.000
 4498.00    1.53028   1.57058   -1.000
 4499.00    1.55931   1.59011   -1.000
 4500.00    1.57505   1.59259   -1.000
 4501.00    1.58089   1.59850   -1.000
 4502.00    1.61642   1.62310  161.691
 4503.00    1.68833   1.66302   -1.000
 4504.00    1.74310   1.70078   -1.000
 4505.00    1.75576   1.71733   -1.000
 4506.00    1.73525   1.70920   -1.000
 4507.00    1.69930   1.69145  165.166
 4508.00    1.68355   1.68111  165.688
 4509.00    1.69927   1.68195  168.396
 4510.00    1.72181   1.68417   -1.000
 4511.00    1.70807   1.67439   -1.000
 4512.00    1.65344   1.64908  173.079
 4513.00    1.60585   1.61888  172.655
 4514.00    1.57679   1.59724   -1.000
 4515.00    1.57436   1.58898  175.479
 4516.00    1.59481   1.58877  173.817
 4517.00    1.60141   1.58967  170.443
 4518.00    1.59788   1.59503  169.623
 4519.00    1.62002   1.61168  172.550
 4520.00    1.66705   1.63325   -1.000
 4521.00    1.68623   1.64296   -1.000
 4522.00    1.66009   1.63046   -1.000
 4523.00    1.61718   1.60050   -1.000
 4524.00    1.57980   1.56304   -1.000
 4525.00    1.52868   1.51972  194.560
 4526.00    1.46777   1.46830  194.322
 4527.00    1.41188   1.41630  191.477
 4528.00    1.37211   1.38116  187.971
 4529.00    1.36410   1.37616  186.208
 4530.00    1.38941   1.39812  189.417
 4531.00    1.43420   1.42931  195.656
 4532.00    1.48088   1.44890   -1.000
 4533.00    1.47955   1.44746   -1.000
 4534.00    1.43349   1.43806  176.372
 4535.00    1.40855   1.44890   -1.000
 4536.00    1.48006   1.49620   -1.000
 4537.00    1.60419   1.56264   -1.000
 4538.00    1.66582   1.61158   -1.000
 4539.00    1.64164   1.62230   -1.000
 4540.00    1.59213   1.60653  172.320
 4541.00    1.57554   1.59159   -1.000
 4542.00    1.61503   1.59109   -2.000
 4543.00    1.47421   1.59654   -2.000
 4544.00    0.66133   1.59451   -2.000
 4545.00    0.08155   1.58337   -1.000
 4546.00    0.15198   1.57112   -1.000
 4547.00    0.78771   1.56028   -1.000
 4548.00    0.69856   1.54749   -1.000
 4549.00    0.97705   1.53718   -1.000
 4550.00    1.47529   1.53937   -1.000
 4551.00    1.59297   1.55198   -1.000
 4552.00    1.57791   1.55812   -1.000
 4553.00    1.54651   1.54915  177.563
 4554.00    1.52892   1.53853  170.530
 4555.00    1.54924   1.54786  166.285
 4556.00    1.61404   1.58631   -1.000
 4557.00    1.68254   1.64105   -1.000
 4558.00    1.72014   1.68817   -1.000
 4559.00    1.74990   1.71470   -1.000
 4560.00    1.76090   1.72268   -1.000
 4561.00    1.74022   1.71548   -1.000
 4562.00    1.70551   1.69197  176.229
 4563.00    1.66660   1.65453  172.432
 4564.00    1.62142   1.61933  167.872
 4565.00    1.59671   1.60830  165.315
 4566.00    1.63784   1.63021  166.091
 4567.00    1.70981   1.67111   -1.000
 4568.00    1.75050   1.70332   -1.000
 4569.00    1.75073   1.70689   -1.000
 4570.00    1.70356   1.68483   -1.000
 4571.00    1.64460   1.65849  167.139
 4572.00    1.64173   1.65207  166.517
 4573.00    1.69295   1.67210   -1.000
 4574.00    1.73945   1.70080   -1.000
 4575.00    1.75553   1.71710   -1.000
 4576.00    1.75025   1.71495   -1.000
 4577.00    1.71184   1.69678   -1.000
 4578.00    1.66261   1.66354  179.756
 4579.00    1.61494   1.62073  177.752
 4580.00    1.56610   1.58429  176.032
 4581.00    1.56561   1.56994  176.022
 4582.00    1.60337   1.57701   -1.000
 4583.00    1.62845   1.59029   -1.000
 4584.00    1.62244   1.59659   -1.000
 4585.00    1.60266   1.59845  167.641
 4586.00    1.61072   1.61129  166.402
 4587.00    1.65498   1.64339  168.087
 4588.00    1.71316   1.68241   -1.000
 4589.00    1.75569   1.70679   -1.000
 4590.00    1.74475   1.70452   -1.000
 4591.00    1.69023   1.67987  174.140
 4592.00    1.64984   1.64851  172.703
 4593.00    1.63466   1.62539  171.977
 4594.00    1.61794   1.61441  171.604
 4595.00    1.60825   1.61171  171.226
 4596.00    1.61278   1.61515  172.170
 4597.00    1.62486   1.62421  173.750
 4598.00    1.65654   1.63459   -1.000
 4599.00    1.67524   1.64052   -1.000
 4600.00    1.65220   1.64083  171.406
 4601.00    1.64174   1.63982  171.038
 4602.00    1.65585   1.64143  170.962
 4603.00    1.67212   1.64429   -1.000
 4604.00    1.67597   1.64684   -1.000
 4605.00    1.66966   1.65510  163.067
 4606.00    1.68554   1.67896  160.685
 4607.00    1.75587   1.72004   -1.000
 4608.00    1.82955   1.76638   -1.000
 4609.00    1.86056   1.79840   -1.000
 4610.00    1.85092   1.80259   -1.000
 4611.00    1.81659   1.78398   -1.000
 4612.00    1.78712   1.76035   -1.000
 4613.00    1.78778   1.74784   -1.000
 4614.00    1.78954   1.75211   -1.000
 4615.00    1.79693   1.76646   -1.000
 4616.00    1.80862   1.77937   -1.000
 4617.00    1.82021   1.78489   -1.000
 4618.00    1.82094   1.78424   -1.000
 4619.00    1.80743   1.78298   -1.000
 4620.00    1.83625   1.78686   -1.000
 4621.00    1.85208   1.79575   -1.000
 4622.00    1.83845   1.80244   -1.000
 4623.00    1.83358   1.80094   -1.000
 4624.00    1.84009   1.79345   -1.000
 4625.00    1.82854   1.78532   -1.000
 4626.00    1.80475   1.77907   -1.000
 4627.00    1.81053   1.77627   -1.000
 4628.00    1.82554   1.77758   -1.000
 4629.00    1.82974   1.78215   -1.000
 4630.00    1.82145   1.78901   -1.000
 4631.00    1.82802   1.79401   -1.000
 4632.00    1.82471   1.78947   -1.000
 4633.00    1.79153   1.77335   -1.000
 4634.00    1.76518   1.75361  170.003
 4635.00    1.75992   1.73723   -1.000
 4636.00    1.74062   1.72131   -1.000
 4637.00    1.70728   1.70193  168.916
 4638.00    1.68113   1.68347  165.059
 4639.00    1.66312   1.67548  162.292
 4640.00    1.67476   1.68470  162.205
 4641.00    1.72408   1.70748   -1.000
 4642.00    1.77072   1.72836   -1.000
 4643.00    1.77170   1.72947   -1.000
 4644.00    1.73640   1.70369   -1.000
 4645.00    1.67623   1.65875   -1.000
 4646.00    1.61214   1.61279  169.449
 4647.00    1.57806   1.58868  166.677
 4648.00    1.59385   1.59993  165.888
 4649.00    1.65746   1.64058   -1.000
 4650.00    1.73008   1.69129   -1.000
 4651.00    1.77720   1.73140   -1.000
 4652.00    1.78920   1.74844   -1.000
 4653.00    1.77764   1.74128   -1.000
 4654.00    1.74697   1.71950   -1.000
 4655.00    1.70461   1.70233  161.518
 4656.00    1.69936   1.70948  157.212
 4657.00    1.74089   1.74793  156.224
 4658.00    1.82519   1.80524   -1.000
 4659.00    1.89558   1.85453   -1.000
 4660.00    1.91802   1.87221   -1.000
 4661.00    1.87864   1.85382   -1.000
 4662.00    1.82094   1.81320  167.705
 4663.00    1.77473   1.76713  173.823
 4664.00    1.73474   1.72116   -1.000
 4665.00    1.69785   1.66902   -1.000
 4666.00    1.61650   1.61071  178.962
 4667.00    1.52461   1.56526   -1.000
 4668.00    1.50638   1.55851   -1.000
 4669.00    1.57512   1.59770   -1.000
 4670.00    1.68088   1.66073   -1.000
 4671.00    1.74961   1.71500   -1.000
 4672.00    1.78309   1.74353   -1.000
 4673.00    1.77790   1.75212   -1.000
 4674.00    1.76908   1.75822  160.457
 4675.00    1.78708   1.77136   -1.000
 4676.00    1.81909   1.78385   -1.000
 4677.00    1.82637   1.78018   -1.000
 4678.00    1.78282   1.75544   -1.000
 4679.00    1.73426   1.72024   -1.000
 4680.00    1.69925   1.69072  166.421
 4681.00    1.68427   1.67945  163.713
 4682.00    1.69731   1.68990  163.651
 4683.00    1.75268   1.71447   -1.000
 4684.00    1.78884   1.73842   -1.000
 4685.00    1.79676   1.75051   -1.000
 4686.00    1.78762   1.74972   -1.000
 4687.00    1.77899   1.74244   -1.000
 4688.00    1.76614   1.73600   -1.000
 4689.00    1.75531   1.73295   -1.000
 4690.00    1.76064   1.73150   -1.000
 4691.00    1.76195   1.73143   -1.000
 4692.00    1.76283   1.73738   -1.000
 4693.00    1.78460   1.75333   -1.000
 4694.00    1.81731   1.77565   -1.000
 4695.00    1.85305   1.79384   -1.000
 4696.00    1.85384   1.79504   -1.000
 4697.00    1.80752   1.77230   -1.000
 4698.00    1.75241   1.73374   -1.000
 4699.00    1.71820   1.69758   -1.000
 4700.00    1.70802   1.67420   -1.000
 4701.00    1.70597   1.66052   -1.000
 4702.00    1.69021   1.65419   -1.000
 4703.00    1.67137   1.66010  168.249
 4704.00    1.69148   1.67877  171.480
 4705.00    1.74100   1.69745   -1.000
 4706.00    1.75143   1.70102   -1.000
 4707.00    1.71730   1.68936   -1.000
 4708.00    1.69576   1.67819   -1.000
 4709.00    1.71695   1.68368   -1.000
 4710.00    1.76409   1.70755   -1.000
 4711.00    1.80789   1.73600   -1.000
 4712.00    1.80344   1.75112   -1.000
 4713.00    1.77502   1.74727   -1.000
 4714.00    1.75278   1.73933  160.503
 4715.00    1.75044   1.74876  159.050
 4716.00    1.80908   1.78152   -1.000
 4717.00    1.88627   1.82536   -1.000
 4718.00    1.91495   1.86435   -1.000
 4719.00    1.92814   1.89012   -1.000
 4720.00    1.95089   1.90078   -1.000
 4721.00    1.93793   1.89758   -1.000
 4722.00    1.90638   1.88857   -1.000
 4723.00    1.87987   1.88574  160.828
 4724.00    1.90304   1.88836   -1.000
 4725.00    1.92865   1.87867   -1.000
 4726.00    1.88626   1.84087   -1.000
 4727.00    1.80225   1.77954   -1.000
 4728.00    1.72431   1.72044  168.161
 4729.00    1.69669   1.69020  166.285
 4730.00    1.71319   1.69530   -1.000
 4731.00    1.74507   1.72393   -1.000
 4732.00    1.77409   1.75937  162.770
 4733.00    1.80807   1.78877   -1.000
 4734.00    1.83580   1.80468   -1.000
 4735.00    1.84803   1.80750   -1.000
 4736.00    1.84059   1.80583   -1.000
 4737.00    1.84698   1.81003   -1.000
 4738.00    1.86998   1.82399   -1.000
 4739.00    1.89848   1.84013   -1.000
 4740.00    1.89767   1.84789   -1.000
 4741.00    1.87082   1.84860   -1.000
 4742.00    1.85924   1.85112  161.009
 4743.00    1.88598   1.85771   -1.000
 4744.00    1.90661   1.86680   -1.000
 4745.00    1.91205   1.87996   -1.000
 4746.00    1.91668   1.89749   -1.000
 4747.00    1.92029   1.91543  158.201
 4748.00    1.93161   1.92899  159.141
 4749.00    1.94413   1.93650  160.839
 4750.00    1.94341   1.93736  162.296
 4751.00    1.92313   1.92876  163.452
 4752.00    1.89436   1.90926  163.440
 4753.00    1.86645   1.88334  163.875
 4754.00    1.84468   1.86012  164.995
 4755.00    1.83574   1.84797  165.391
 4756.00    1.84200   1.84949  164.303
 4757.00    1.84426   1.86146  163.774
 4758.00    1.83264   1.87851   -1.000
 4759.00    1.83818   1.89294   -1.000
 4760.00    1.86322   1.89393   -1.000
 4761.00    1.84775   1.87381   -1.000
 4762.00    1.80419   1.83666   -1.000
 4763.00    1.76478   1.79707   -1.000
 4764.00    1.73481   1.76740   -1.000
 4765.00    1.71033   1.74954   -1.000
 4766.00    1.70828   1.74537   -1.000
 4767.00    1.75477   1.76440  163.039
 4768.00    1.82017   1.80853  164.247
 4769.00    1.87632   1.85935  165.708
 4770.00    1.88560   1.89141  164.425
 4771.00    1.86325   1.89689   -1.000
 4772.00    1.84348   1.89389   -1.000
 4773.00    1.87283   1.90526   -1.000
 4774.00    1.92850   1.93388  159.937
 4775.00    1.95228   1.96439  160.880
 4776.00    1.95079   1.98303   -1.000
 4777.00    1.94600   1.98920   -1.000
 4778.00    1.94987   1.98678   -1.000
 4779.00    1.94364   1.97594   -1.000
 4780.00    1.92204   1.95787   -1.000
 4781.00    1.91925   1.93585   -1.000
 4782.00    1.90207   1.91176  166.792
 4783.00    1.85889   1.88936   -1.000
 4784.00    1.85475   1.87505   -1.000
 4785.00    1.84959   1.86892   -1.000
 4786.00    1.83926   1.86422   -1.000
 4787.00    1.83428   1.85914   -1.000
 4788.00    1.83299   1.85803   -1.000
 4789.00    1.83463   1.86273   -1.000
 4790.00    1.84216   1.87402   -1.000
 4791.00    1.86678   1.89666   -1.000
 4792.00    1.89774   1.93483   -1.000
 4793.00    1.95611   1.98458   -1.000
 4794.00    1.99934   2.03247   -1.000
 4795.00    2.02963   2.06120   -1.000
 4796.00    2.03002   2.05904   -1.000
 4797.00    1.98414   2.02749   -1.000
 4798.00    1.91871   1.98215   -1.000
 4799.00    1.87724   1.94626   -1.000
 4800.00    1.87962   1.93857   -1.000
 4801.00    1.93525   1.96165   -1.000
 4802.00    1.99674   1.99913  162.800
 4803.00    2.01138   2.02450  164.386
 4804.00    1.97947   2.02048   -1.000
 4805.00    1.94498   1.99284   -1.000
 4806.00    1.92367   1.96110   -1.000
 4807.00    1.90443   1.94046   -1.000
 4808.00    1.90744   1.93596   -1.000
 4809.00    1.91470   1.94647   -1.000
 4810.00    1.93316   1.96590   -1.000
 4811.00    1.95717   1.98416   -1.000
 4812.00    1.96253   1.99433   -1.000
 4813.00    1.96610   1.99864   -1.000
 4814.00    1.97024   2.00480   -1.000
 4815.00    1.98189   2.01802   -1.000
 4816.00    2.00921   2.03780   -1.000
 4817.00    2.02893   2.05998   -1.000
 4818.00    2.04669   2.07955   -1.000
 4819.00    2.06334   2.09130   -1.000
 4820.00    2.04692   2.08902   -1.000
 4821.00    2.00830   2.06632   -1.000
 4822.00    1.96595   2.02358   -1.000
 4823.00    1.90850   1.97595   -1.000
 4824.00    1.87860   1.94822   -1.000
 4825.00    1.92401   1.95440   -1.000
 4826.00    1.98997   1.98118  162.513
 4827.00    1.98838   2.00031  162.625
 4828.00    1.95019   1.99917   -1.000
 4829.00    1.94786   1.98621   -1.000
 4830.00    1.95155   1.97051  162.168
 4831.00    1.91930   1.95418   -1.000
 4832.00    1.89861   1.94303   -1.000
 4833.00    1.91283   1.94775   -1.000
 4834.00    1.95833   1.97011  159.931
 4835.00    2.00015   1.99705  161.910
 4836.00    1.99958   2.01260  164.729
 4837.00    1.98046   2.01072   -1.000
 4838.00    1.95027   1.99371   -1.000
 4839.00    1.91594   1.96832   -1.000
 4840.00    1.89635   1.94608   -1.000
 4841.00    1.90049   1.93552   -1.000
 4842.00    1.90294   1.93559   -1.000
 4843.00    1.89862   1.94397   -1.000
 4844.00    1.93599   1.96394   -1.000
 4845.00    1.98768   1.99335  163.161
 4846.00    2.00669   2.01575  163.502
 4847.00    1.97598   2.01484   -1.000
 4848.00    1.95209   1.99567   -1.000
 4849.00    1.94493   1.98146   -1.000
 4850.00    1.96742   1.98577  162.906
 4851.00    1.98079   1.99866  167.273
 4852.00    1.96689   2.00034   -1.000
 4853.00    1.94947   1.97696   -1.000
 4854.00    1.91074   1.92967  170.880
 4855.00    1.82821   1.87805   -1.000
 4856.00    1.80195   1.84582   -1.000
 4857.00    1.83859   1.83235  209.642
 4858.00    1.83513   1.80421   -1.000
 4859.00    1.73864   1.72586   -1.000
 4860.00    1.57680   1.60766   -1.000
 4861.00    1.47281   1.51221   -1.000
 4862.00    1.49537   1.49935  174.205
 4863.00    1.60745   1.57256   -1.000
 4864.00    1.71711   1.68287   -1.000
 4865.00    1.80033   1.78063   -1.000
 4866.00    1.84894   1.84914  168.705
 4867.00    1.85326   1.89015   -1.000
 4868.00    1.85216   1.90450   -1.000
 4869.00    1.84870   1.88851   -1.000
 4870.00    1.77519   1.84231   -1.000
 4871.00    1.68853   1.78490   -1.000
 4872.00    1.68518   1.75497   -1.000
 4873.00    1.75222   1.77806   -1.000
 4874.00    1.80320   1.83596   -1.000
 4875.00    1.82881   1.89093   -1.000
 4876.00    1.84658   1.92854   -1.000
 4877.00    1.87218   1.95862   -1.000
 4878.00    1.90917   1.99053   -1.000
 4879.00    1.94744   2.01921   -1.000
 4880.00    1.95783   2.03073   -1.000
 4881.00    1.91909   2.01877   -1.000
 4882.00    1.88937   1.99436   -1.000
 4883.00    1.91099   1.97247   -1.000
 4884.00    1.90111   1.95113   -1.000
 4885.00    1.84188   1.92146   -1.000
 4886.00    1.80417   1.89158   -1.000
 4887.00    1.81649   1.87600   -1.000
 4888.00    1.82632   1.86912   -1.000
 4889.00    1.80913   1.85128   -1.000
 4890.00    1.75555   1.81940   -1.000
 4891.00    1.74697   1.80316   -1.000
 4892.00    1.81621   1.84039   -1.000
 4893.00    1.96044   1.93566   -1.000
 4894.00    2.07267   2.05198   -1.000
 4895.00    2.11654   2.14316   -1.000
 4896.00    2.14824   2.18831   -1.000
 4897.00    2.15168   2.19401   -1.000
 4898.00    2.13569   2.17424   -1.000
 4899.00    2.08648   2.14178   -1.000
 4900.00    2.03827   2.10991   -1.000
 4901.00    2.03141   2.08680   -1.000
 4902.00    2.00859   2.07041   -1.000
 4903.00    1.99518   2.05982   -1.000
 4904.00    2.02056   2.06502   -1.000
 4905.00    2.07123   2.09289   -1.000
 4906.00    2.11357   2.12551  164.731
 4907.00    2.10957   2.12989  167.176
 4908.00    2.05283   2.09311   -1.000
 4909.00    1.97608   2.03353   -1.000
 4910.00    1.92786   1.98357   -1.000
 4911.00    1.92594   1.96870   -1.000
 4912.00    1.98403   1.99280  156.647
 4913.00    2.03811   2.03889  157.137
 4914.00    2.08549   2.08515  162.079
 4915.00    2.12768   2.11423   -1.000
 4916.00    2.11121   2.10737  178.989
 4917.00    2.04322   2.04550  181.843
 4918.00    1.89492   1.93283   -1.000
 4919.00    1.76188   1.80955   -1.000
 4920.00    1.69887   1.73170   -1.000
 4921.00    1.75061   1.73215   -1.000
 4922.00    1.85198   1.79457   -1.000
 4923.00    1.92234   1.87035   -1.000
 4924.00    1.94029   1.92658   -1.000
 4925.00    1.97102   1.96942  156.362
 4926.00    2.02124   2.01906  155.250
 4927.00    2.08725   2.07711  154.299
 4928.00    2.15029   2.13153   -1.000
 4929.00    2.18749   2.17334   -1.000
 4930.00    2.19411   2.19403  165.182
 4931.00    2.16281   2.18354  166.247
 4932.00    2.12542   2.14150  163.594
 4933.00    2.05134   2.08599   -1.000
 4934.00    2.01243   2.04543   -1.000
 4935.00    2.02004   2.03088  172.142
 4936.00    2.04116   2.02001   -1.000
 4937.00    1.97958   1.98542  165.910
 4938.00    1.89624   1.93625   -1.000
 4939.00    1.87515   1.91577   -1.000
 4940.00    1.97024   1.95362   -1.000
 4941.00    2.08206   2.03394   -1.000
 4942.00    2.14490   2.11445   -1.000
 4943.00    2.17743   2.16463   -1.000
 4944.00    2.20176   2.18130   -1.000
 4945.00    2.18214   2.17795  154.068
 4946.00    2.16661   2.17205  153.459
 4947.00    2.18493   2.17804  152.834
 4948.00    2.21374   2.19808   -1.000
 4949.00    2.24000   2.22116   -1.000
 4950.00    2.24973   2.23563   -1.000
 4951.00    2.25003   2.23759   -1.000
 4952.00    2.22417   2.22802  162.191
 4953.00    2.17865   2.20757   -1.000
 4954.00    2.13662   2.16969   -1.000
 4955.00    2.08143   2.09980  174.808
 4956.00    1.96773   1.99521   -1.000
 4957.00    1.83634   1.89421   -1.000
 4958.00    1.81959   1.86218   -1.000
 4959.00    1.95765   1.92321   -1.000
 4960.00    2.09484   2.03181   -1.000
 4961.00    2.14959   2.12192   -1.000
 4962.00    2.15627   2.16088  164.500
 4963.00    2.14992   2.15491  166.782
 4964.00    2.11286   2.12136  167.021
 4965.00    2.03960   2.07492   -1.000
 4966.00    1.98957   2.03424   -1.000
 4967.00    1.99616   2.01435  163.683
 4968.00    2.01032   2.01557  161.923
 4969.00    2.01976   2.03117  160.002
 4970.00    2.04255   2.05747  158.452
 4971.00    2.08121   2.09252  157.729
 4972.00    2.11231   2.13128  158.674
 4973.00    2.15408   2.16367  160.306
 4974.00    2.17441   2.18038  162.446
 4975.00    2.16374   2.17851  165.067
 4976.00    2.13497   2.15890   -1.000
 4977.00    2.08759   2.12510   -1.000
 4978.00    2.04444   2.08557   -1.000
 4979.00    2.00492   2.04736   -1.000
 4980.00    1.98236   2.00638   -1.000
 4981.00    1.93200   1.95157  177.924
 4982.00    1.83515   1.88460   -1.000
 4983.00    1.79324   1.83216   -1.000
 4984.00    1.83209   1.82524  163.324
 4985.00    1.90400   1.86979   -1.000
 4986.00    1.97294   1.94503   -1.000
 4987.00    2.04703   2.02098   -1.000
 4988.00    2.10023   2.07093   -1.000
 4989.00    2.07986   2.08349  165.960
 4990.00    2.05024   2.07188  165.189
 4991.00    2.05419   2.06091  165.065
 4992.00    2.08482   2.06305   -1.000
 4993.00    2.07683   2.07345  163.450
 4994.00    2.05972   2.08387   -1.000
 4995.00    2.07165   2.09440   -1.000
 4996.00    2.10209   2.10502  169.710
 4997.00    2.09484   2.10372  171.950
 4998.00    2.05061   2.07750   -1.000
 4999.00    2.01624   2.02894  170.715
 5000.00    1.98495   1.97787  169.542
 5001.00    1.96467   1.94597   -1.000
 5002.00    1.96111   1.93710   -1.000
 5003.00    1.96200   1.93461   -1.000
 5004.00    1.95341   1.91845   -1.000
 5005.00    1.91570   1.88665   -1.000
 5006.00    1.88829   1.86310   -1.000
 5007.00    1.91070   1.87789   -1.000
 5008.00    1.98221   1.93217   -1.000
 5009.00    2.04394   1.99033   -1.000
 5010.00    2.04551   2.01210   -1.000
 5011.00    1.99786   1.98406   -1.000
 5012.00    1.92043   1.92327  179.159
 5013.00    1.83834   1.86265   -1.000
 5014.00    1.80091   1.83178   -1.000
 5015.00    1.84229   1.83848  174.437
 5016.00    1.90594   1.86541   -1.000
 5017.00    1.93678   1.89018   -1.000
 5018.00    1.93039   1.90686   -1.000
 5019.00    1.95048   1.92323   -1.000
 5020.00    1.98101   1.94026   -1.000
 5021.00    1.97673   1.94959   -1.000
 5022.00    1.93428   1.95366  168.304
 5023.00    1.96691   1.96760  168.993
 5024.00    2.02997   1.99644   -1.000
 5025.00    2.04647   2.02432   -1.000
 5026.00    2.02485   2.03206  165.303
 5027.00    1.98766   2.02237   -1.000
 5028.00    1.98762   2.01868   -1.000
 5029.00    2.04263   2.03941  158.369
 5030.00    2.08625   2.08254  158.512
 5031.00    2.12753   2.13344  163.344
 5032.00    2.17814   2.17640  169.811
 5033.00    2.21906   2.19487   -1.000
 5034.00    2.20233   2.17447   -1.000
 5035.00    2.09872   2.11962  175.639
 5036.00    2.01053   2.05890   -1.000
 5037.00    1.99457   2.01491  189.783
 5038.00    1.99566   1.97680   -1.000
 5039.00    1.90739   1.91973  181.473
 5040.00    1.77585   1.84776   -1.000
 5041.00    1.74661   1.80546   -1.000
 5042.00    1.83919   1.83706  159.606
 5043.00    1.98715   1.94038   -1.000
 5044.00    2.14046   2.06897   -1.000
 5045.00    1.28147   2.17048   -1.000
 5046.00    0.19357   2.21527   -1.000
 5047.00    0.05352   2.19911   -1.000
 5048.00    0.61180   2.13794   -1.000
 5049.00    1.63299   2.06479   -1.000
 5050.00    1.95801   2.01424   -1.000
 5051.00    2.00677   2.00165  159.959
 5052.00    2.06237   2.02399   -1.000
 5053.00    2.11835   2.07176   -1.000
 5054.00    2.16629   2.12907   -1.000
 5055.00    2.19594   2.17644   -1.000
 5056.00    2.21569   2.20517  158.342
 5057.00    2.22757   2.22096  157.294
 5058.00    2.23948   2.23437  157.340
 5059.00    2.25751   2.25243  159.400
 5060.00    2.27447   2.27422  163.980
 5061.00    2.29955   2.28838  169.823
 5062.00    2.30264   2.27606   -1.000
 5063.00    2.22292   2.22572  169.951
 5064.00    2.11633   2.15048   -1.000
 5065.00    2.03485   2.08489   -1.000
 5066.00    2.04714   2.05453  166.000
 5067.00    2.08425   2.05605   -1.000
 5068.00    2.07132   2.07213  166.182
 5069.00    2.10368   2.09239  167.507
 5070.00    2.14396   2.11008   -1.000
 5071.00    2.13988   2.11597   -1.000
 5072.00    2.11017   2.10866  163.960
 5073.00    2.12137   2.10171   -1.000
 5074.00    2.16589   2.10671   -1.000
 5075.00    2.16850   2.11893   -1.000
 5076.00    2.14501   2.12440   -1.000
 5077.00    2.14567   2.10862   -1.000
 5078.00    2.10208   2.06112   -1.000
 5079.00    1.98212   1.99032  173.927
 5080.00    1.91218   1.93269  171.566
 5081.00    1.94593   1.92091   -1.000
 5082.00    2.00587   1.94978   -1.000
 5083.00    2.04038   1.99371   -1.000
 5084.00    2.06583   2.03884   -1.000
 5085.00    2.11247   2.08234   -1.000
 5086.00    2.15640   2.12043   -1.000
 5087.00    2.16919   2.14820   -1.000
 5088.00    2.17418   2.16601  160.261
 5089.00    2.18245   2.17931  158.417
 5090.00    2.20855   2.19393  156.987
 5091.00    2.24792   2.21440   -1.000
 5092.00    2.27111   2.24080   -1.000
 5093.00    2.30185   2.26326   -1.000
 5094.00    2.29267   2.26413   -1.000
 5095.00    2.24149   2.23158  172.775
 5096.00    2.17050   2.17005  173.348
 5097.00    2.09300   2.09769  169.107
 5098.00    2.00997   2.03766   -1.000
 5099.00    1.99508   2.01415  162.732
 5100.00    2.04060   2.03899  163.686
 5101.00    2.12936   2.09618   -1.000
 5102.00    2.18317   2.14860   -1.000
 5103.00    2.15976   2.16885  170.014
 5104.00    2.12569   2.15821   -1.000
 5105.00    2.12117   2.13270  171.890
 5106.00    2.10478   2.10279  170.781
 5107.00    2.05112   2.07307   -1.000
 5108.00    2.03033   2.04884  167.104
 5109.00    2.03153   2.03873  165.057
 5110.00    2.05286   2.05043  163.043
 5111.00    2.11630   2.08392   -1.000
 5112.00    2.17099   2.12816   -1.000
 5113.00    2.19037   2.16864   -1.000
 5114.00    2.23073   2.20028   -1.000
 5115.00    2.26590   2.22803   -1.000
 5116.00    2.26758   2.25528  160.250
 5117.00    2.29584   2.27791   -1.000
 5118.00    2.31408   2.28681   -1.000
 5119.00    2.30705   2.27446   -1.000
 5120.00    2.24885   2.24006  174.801
 5121.00    2.18915   2.18878  175.970
 5122.00    2.12911   2.12787  174.363
 5123.00    2.03705   2.06799   -1.000
 5124.00    2.00068   2.02487   -1.000
 5125.00    2.01863   2.00941  172.749
 5126.00    2.03663   2.01582   -1.000
 5127.00    2.04410   2.02767   -1.000
 5128.00    2.04262   2.03632  167.368
 5129.00    2.05726   2.04679  166.037
 5130.00    2.08552   2.06760   -1.000
 5131.00    2.13458   2.09925   -1.000
 5132.00    2.19307   2.13341   -1.000
 5133.00    2.21511   2.16239   -1.000
 5134.00    2.23327   2.18422   -1.000
 5135.00    2.24795   2.19560   -1.000
 5136.00    2.23271   2.18507   -1.000
 5137.00    2.16204   2.14555   -1.000
 5138.00    2.09322   2.09499  172.290
 5139.00    2.07672   2.06301   -1.000
 5140.00    2.10146   2.05797   -1.000
 5141.00    2.11757   2.06312   -1.000
 5142.00    2.07481   2.06377   -1.000
 5143.00    2.06283   2.06504  172.171
 5144.00    2.10923   2.07451   -1.000
 5145.00    2.10336   2.08021   -1.000
 5146.00    2.06463   2.07021  169.435
 5147.00    2.06297   2.05631  171.640
 5148.00    2.09204   2.05663   -1.000
 5149.00    2.09204   2.06898   -1.000
 5150.00    2.08970   2.07483   -1.000
 5151.00    2.07883   2.06457   -1.000
 5152.00    2.03892   2.04828  167.102
 5153.00    2.02168   2.04221  162.849
 5154.00    2.05177   2.05730  159.839
 5155.00    2.12129   2.09710   -1.000
 5156.00    2.19152   2.15416   -1.000
 5157.00    2.27588   2.21057   -1.000
 5158.00    2.31091   2.25008   -1.000
 5159.00    2.30949   2.26752   -1.000
 5160.00    2.32426   2.26515   -1.000
 5161.00    2.29767   2.24453   -1.000
 5162.00    2.24141   2.20469   -1.000
 5163.00    2.18857   2.14357   -1.000
 5164.00    2.09755   2.05543   -1.000
 5165.00    1.93891   1.92992   -1.000
 5166.00    1.72293   1.77297   -1.000
 5167.00    1.54342   1.63678   -1.000
 5168.00    1.54488   1.58501   -1.000
 5169.00    1.66868   1.61886   -1.000
 5170.00    1.73975   1.66217   -1.000
 5171.00    1.64682   1.64252  192.130
 5172.00    1.47816   1.58256   -1.000
 5173.00    1.48871   1.57437   -1.000
 5174.00    1.69816   1.67275   -1.000
 5175.00    1.95230   1.83838   -1.000
 5176.00    2.10478   1.98797   -1.000
 5177.00    2.15129   2.07619   -1.000
 5178.00    2.17346   2.10930   -1.000
 5179.00    2.14699   2.10016   -1.000
 5180.00    2.06915   2.04125   -1.000
 5181.00    1.90652   1.91699  216.083
 5182.00    1.67311   1.74710   -1.000
 5183.00    1.46016   1.60332   -1.000
 5184.00    1.46167   1.57211   -1.000
 5185.00    1.71675   1.67971   -1.000
 5186.00    1.99097   1.86109   -1.000
 5187.00    2.14295   2.02236   -1.000
 5188.00    2.20708   2.11832   -1.000
 5189.00    2.24247   2.15297   -1.000
 5190.00    2.25758   2.13782   -1.000
 5191.00    2.16369   2.08293   -1.000
 5192.00    2.02842   2.01905  172.925
 5193.00    2.01524   1.98920   -1.000
 5194.00    2.09275   2.00374   -1.000
 5195.00    2.13357   2.04019   -1.000
 5196.00    2.18563   2.08310   -1.000
 5197.00    2.23147   2.13238   -1.000
 5198.00    2.28327   2.18479   -1.000
 5199.00    2.32465   2.22877   -1.000
 5200.00    2.33930   2.25215   -1.000
 5201.00    2.31269   2.24779   -1.000
 5202.00    2.26686   2.21344   -1.000
 5203.00    2.22520   2.14892   -1.000
 5204.00    2.12653   2.06162   -1.000
 5205.00    2.01758   1.97234   -1.000
 5206.00    1.97004   1.90644   -1.000
 5207.00    1.95578   1.87553   -1.000
 5208.00    1.93712   1.87635   -1.000
 5209.00    1.96348   1.90904   -1.000
 5210.00    2.06260   1.98050   -1.000
 5211.00    2.19189   2.08190   -1.000
 5212.00    2.33051   2.18257   -1.000
 5213.00    2.38998   2.24620   -1.000
 5214.00    2.36498   2.25459   -1.000
 5215.00    2.31417   2.22225   -1.000
 5216.00    2.26389   2.18949   -1.000
 5217.00    2.28496   2.19248   -1.000
 5218.00    2.36328   2.23539   15.714
 5219.00    2.43657   2.29417   15.941
 5220.00    2.46924   2.34071   16.452
 5221.00    2.46501   2.35743   17.147
 5222.00    2.43736   2.33580   17.950
 5223.00    2.35682   2.27363   18.401
 5224.00    2.24445   2.17610   17.936
 5225.00    2.10782   2.06388   16.906
 5226.00    2.01536   1.97753   16.243
 5227.00    2.02177   1.96113   15.984
 5228.00    2.15459   2.02752   15.986
 5229.00    2.32082   2.14190   -1.000
 5230.00    2.40666   2.23888   -1.000
 5231.00    2.42498   2.27167   16.540
 5232.00    2.34828   2.24402   16.138
 5233.00    2.29100   2.20038   15.759
 5234.00    2.29217   2.18941   15.601
 5235.00    2.32932   2.22806   15.599
 5236.00    2.42138   2.29737   15.650
 5237.00    2.50529   2.36396   15.614
 5238.00    2.52321   2.40433   15.522
 5239.00    2.51392   2.41638   15.551
 5240.00    2.51121   2.41255   15.515
 5241.00    2.51007   2.40529   15.504
 5242.00    2.51594   2.40300   15.846
 5243.00    2.52234   2.40865   16.351
 5244.00    2.53314   2.41289   16.709
 5245.00    2.51688   2.39546   16.728
 5246.00    2.42416   2.34672   16.763
 5247.00    2.33836   2.28534   16.868
 5248.00    2.31973   2.23931   16.769
 5249.00    2.31809   2.21708   16.528
 5250.00    2.31284   2.21228   16.377
 5251.00    2.31299   2.22262   16.385
 5252.00    2.34795   2.24395   16.246
 5253.00    2.38504   2.26269   15.846
 5254.00    2.37934   2.27235   15.427
 5255.00    2.37506   2.28903   15.323
 5256.00    2.43433   2.33542   15.498
 5257.00    2.54718   2.40472   15.955
 5258.00    2.61333   2.46038   16.653
 5259.00    2.59115   2.46922   17.443
 5260.00    2.54542   2.42133   18.019
 5261.00    2.44469   2.32586   18.358
 5262.00    2.28917   2.20462   18.367
 5263.00    2.15695   2.08356   18.023
 5264.00    2.06547   1.98804   17.739
 5265.00    2.01334   1.93634   18.193
 5266.00    2.02577   1.92876   18.894
 5267.00    2.09425   1.93712   -1.000
 5268.00    2.07172   1.92170   17.321
 5269.00    1.93151   1.88177   16.632
 5270.00    1.91146   1.86935   16.508
 5271.00    2.09255   1.93352   16.524
 5272.00    2.27845   2.05368   -1.000
 5273.00    2.35388   2.15683   -1.000
 5274.00    2.36014   2.20696   15.562
 5275.00    2.35087   2.23461   15.312
 5276.00    2.40308   2.28350   15.447
 5277.00    2.52331   2.35926   15.841
 5278.00    2.62435   2.42692   -1.000
 5279.00    2.62145   2.44838   -1.000
 5280.00    2.54708   2.41607   16.563
 5281.00    2.48810   2.35233   16.188
 5282.00    2.40776   2.28955   15.681
 5283.00    2.35202   2.26043   15.211
 5284.00    2.31640   2.28794   15.134
 5285.00    2.49236   2.36909   15.221
 5286.00    2.67114   2.46508   -1.000
 5287.00    2.71654   2.53213   -1.000
 5288.00    2.71673   2.56063   15.096
 5289.00    2.70619   2.57053   15.197
 5290.00    2.73621   2.57833   15.348
 5291.00    2.74758   2.58184   15.571
 5292.00    2.70319   2.57275   16.022
 5293.00    2.66932   2.55098   16.640
 5294.00    2.66524   2.51589   17.032
 5295.00    2.59340   2.45580   16.864
 5296.00    2.46633   2.36768   16.423
 5297.00    2.32475   2.27834   16.141
 5298.00    2.28517   2.23214   16.044
 5299.00    2.37817   2.24803   15.820
 5300.00    2.46667   2.29995   15.388
 5301.00    2.50753   2.35358   15.134
 5302.00    2.55266   2.40421   15.125
 5303.00    2.63714   2.46464   15.284
 5304.00    2.73238   2.53216   -1.000
 5305.00    2.79040   2.58131   -1.000
 5306.00    2.76647   2.59501   15.116
 5307.00    2.72682   2.58693   15.033
 5308.00    2.74505   2.58440   15.061
 5309.00    2.78789   2.59887   -1.000
 5310.00    2.80623   2.61749   -1.000
 5311.00    2.78601   2.62233   15.334
 5312.00    2.75762   2.60993   15.487
 5313.00    2.75723   2.58811   15.613
 5314.00    2.73617   2.56329   15.598
 5315.00    2.72499   2.53770   -1.000
 5316.00    2.69197   2.51497   15.427
 5317.00    2.67588   2.50359   15.497
 5318.00    2.67622   2.50662   15.616
 5319.00    2.68780   2.51496   15.813
 5320.00    2.69998   2.51658   -1.000
 5321.00    2.67245   2.50391   -1.000
 5322.00    2.63227   2.47200   16.233
 5323.00    2.58861   2.42229   -1.000
 5324.00    2.52381   2.36410   -1.000
 5325.00    2.49733   2.29990   -1.000
 5326.00    2.46134   2.21583   -1.000
 5327.00    2.28830   2.11565   -1.000
 5328.00    2.12122   2.04499   15.946
 5329.00    2.17016   2.06278   15.801
 5330.00    2.37109   2.17194   -1.000
 5331.00    2.53884   2.30795   -1.000
 5332.00    2.59425   2.40842   -1.000
 5333.00    2.62982   2.46630   15.541
 5334.00    2.69710   2.50703   -1.000
 5335.00    2.75660   2.54251   -1.000
 5336.00    2.77017   2.56096   -1.000
 5337.00    2.73292   2.54893   -1.000
 5338.00    2.68769   2.50334   -1.000
 5339.00    2.59650   2.43399   15.843
 5340.00    2.50142   2.36932   15.599
 5341.00    2.48968   2.34900   15.628
 5342.00    2.56326   2.38341   -1.000
 5343.00    2.66493   2.43941   -1.000
 5344.00    2.70080   2.47613   -1.000
 5345.00    2.66484   2.48063   -1.000
 5346.00    2.63223   2.46458   16.055
 5347.00    2.62495   2.44234   -1.000
 5348.00    2.60430   2.42286   -1.000
 5349.00    2.58994   2.41972   15.252
 5350.00    2.64818   2.44691   -1.000
 5351.00    2.71962   2.49996   -1.000
 5352.00    2.77191   2.55861   -1.000
 5353.00    2.81797   2.60714   -1.000
 5354.00    2.84931   2.64601   -1.000
 5355.00    2.89721   2.68073   -1.000
 5356.00    2.92464   2.70765   -1.000
 5357.00    2.90947   2.71985   -1.000
 5358.00    2.88767   2.71701   15.358
 5359.00    2.87185   2.70110   15.567
 5360.00    2.84537   2.67199   -1.000
 5361.00    2.77645   2.63365   15.756
 5362.00    2.74353   2.59440   15.835
 5363.00    2.72456   2.56012   15.781
 5364.00    2.71149   2.53155   -1.000
 5365.00    2.67160   2.50820   16.003
 5366.00    2.67482   2.49198   -1.000
 5367.00    2.67494   2.47821   -1.000
 5368.00    2.62675   2.44747   -1.000
 5369.00    2.54030   2.38530   16.136
 5370.00    2.43836   2.30971   15.425
 5371.00    2.39095   2.26911   15.105
 5372.00    2.48777   2.30365   15.029
 5373.00    2.64866   2.40304   -1.000
 5374.00    2.78918   2.51627   -1.000
 5375.00    2.84841   2.59444   -1.000
 5376.00    2.84625   2.62478   -1.000
 5377.00    2.81235   2.62683   -1.000
 5378.00    2.80689   2.62397   -1.000
 5379.00    2.82021   2.62174   -1.000
 5380.00    2.81173   2.61153   -1.000
 5381.00    2.78416   2.58936   -1.000
 5382.00    2.77402   2.56462   -1.000
 5383.00    2.75565   2.55236   -1.000
 5384.00    2.76117   2.55999   -1.000
 5385.00    2.80859   2.58087   -1.000
 5386.00    2.83424   2.59836   -1.000
 5387.00    2.81078   2.59641   -1.000
 5388.00    2.74558   2.57048   -1.000
 5389.00    2.69180   2.52846   16.015
 5390.00    2.65276   2.48549   16.077
 5391.00    2.62505   2.45438   -1.000
 5392.00    2.61491   2.43886   -1.000
 5393.00    2.62870   2.43260   -1.000
 5394.00    2.62591   2.42238   -1.000
 5395.00    2.59393   2.39590   -1.000
 5396.00    2.52327   2.35654   15.724
 5397.00    2.48333   2.33133   15.676
 5398.00    2.55297   2.34764   -1.000
 5399.00    2.63832   2.40228   -1.000
 5400.00    2.68368   2.46327   -1.000
 5401.00    2.69362   2.49932   -1.000
 5402.00    2.69384   2.49318   -1.000
 5403.00    2.62301   2.43947   -1.000
 5404.00    2.49220   2.35037   16.508
 5405.00    2.41209   2.26828   16.425
 5406.00    2.40378   2.24177   16.559
 5407.00    2.46842   2.27335   -1.000
 5408.00    2.53144   2.32129   -1.000
 5409.00    2.52413   2.35081   15.616
 5410.00    2.52872   2.37192   15.495
 5411.00    2.59880   2.41543   -1.000
 5412.00    2.69570   2.48046   -1.000
 5413.00    2.77138   2.53717   -1.000
 5414.00    2.76469   2.56967   -1.000
 5415.00    2.76790   2.59123   15.398
 5416.00    2.79781   2.61835   -1.000
 5417.00    2.85333   2.64443   -1.000
 5418.00    2.86440   2.65048   -1.000
 5419.00    2.82097   2.63372   -1.000
 5420.00    2.77433   2.60982   15.749
 5421.00    2.77869   2.59312   -1.000
 5422.00    2.79903   2.58153   -1.000
 5423.00    2.76706   2.56679   -1.000
 5424.00    2.72365   2.55935   15.537
 5425.00    2.75684   2.57856   -1.000
 5426.00    2.82388   2.61586   -1.000
 5427.00    2.84060   2.62939   -1.000
 5428.00    2.75521   2.58554   -1.000
 5429.00    2.63031   2.50669   16.171
 5430.00    2.59169   2.44968   16.414
 5431.00    2.64333   2.44029   -1.000
 5432.00    2.67589   2.45092   -1.000
 5433.00    2.63749   2.44301   -1.000
 5434.00    2.59281   2.41757   15.628
 5435.00    2.58068   2.40964   15.328
 5436.00    2.63111   2.44664   -1.000
 5437.00    2.72295   2.52493   -1.000
 5438.00    2.81408   2.61671   -1.000
 5439.00    2.89903   2.69327   -1.000
 5440.00    2.93933   2.74069   -1.000
 5441.00    2.95258   2.76176   -1.000
 5442.00    2.93654   2.76196   -1.000
 5443.00    2.91501   2.73540   -1.000
 5444.00    2.82776   2.67030   16.540
 5445.00    2.68532   2.56981   15.988
 5446.00    2.55334   2.47129   15.600
 5447.00    2.53542   2.42595   15.500
 5448.00    2.61873   2.45581   15.536
 5449.00    2.74297   2.53390   -1.000
 5450.00    2.81248   2.60590   -1.000
 5451.00    2.84451   2.63575   -1.000
 5452.00    2.81298   2.61924   -1.000
 5453.00    2.73935   2.56551   -1.000
 5454.00    2.66140   2.49052   15.887
 5455.00    2.58212   2.42984   15.526
 5456.00    2.60122   2.42559   15.513
 5457.00    2.70958   2.49010   -1.000
 5458.00    2.82527   2.58095   -1.000
 5459.00    2.88513   2.63881   -1.000
 5460.00    2.83983   2.63826   -1.000
 5461.00    2.76453   2.59533   16.015
 5462.00    2.69802   2.54472   15.852
 5463.00    2.68101   2.51797   15.767
 5464.00    2.72208   2.52775   -1.000
 5465.00    2.78981   2.56120   -1.000
 5466.00    2.81066   2.59628   -1.000
 5467.00    2.81237   2.62012   -1.000
 5468.00    2.82706   2.62949   -1.000
 5469.00    2.81637   2.62422   -1.000
 5470.00    2.78174   2.60777   -1.000
 5471.00    2.75562   2.58693   -1.000
 5472.00    2.74348   2.56636   -1.000
 5473.00    2.72224   2.54264   -1.000
 5474.00    2.69770   2.50626   -1.000
 5475.00    2.64621   2.45560   -1.000
 5476.00    2.56784   2.40842   16.038
 5477.00    2.54520   2.39933   16.211
 5478.00    2.62785   2.43980   -1.000
 5479.00    2.71431   2.49370   -1.000
 5480.00    2.72141   2.51669   -1.000
 5481.00    2.66254   2.50561   15.662
 5482.00    2.62568   2.50043   15.598
 5483.00    2.66777   2.53407   15.788
 5484.00    2.75242   2.59350   15.994
 5485.00    2.82258   2.63772   -1.000
 5486.00    2.83196   2.63941   -1.000
 5487.00    2.77726   2.60944   15.906
 5488.00    2.75319   2.58037   -1.000
 5489.00    2.76712   2.57672   -1.000
 5490.00    2.79137   2.59653   -1.000
 5491.00    2.82740   2.62002   -1.000
 5492.00    2.84145   2.63166   -1.000
 5493.00    2.82934   2.63112   -1.000
 5494.00    2.81737   2.62733   -1.000
 5495.00    2.83100   2.62401   -1.000
 5496.00    2.82808   2.61777   -1.000
 5497.00    2.80382   2.61303   -1.000
 5498.00    2.82282   2.62040   -1.000
 5499.00    2.86188   2.63382   -1.000
 5500.00    2.86766   2.63231   -1.000
 5501.00    2.81424   2.60724   -1.000
 5502.00    2.77137   2.57590   -1.000
 5503.00    2.74557   2.55955   -1.000
 5504.00    2.75913   2.55474   -1.000
 5505.00    2.74126   2.54517   -1.000
 5506.00    2.71159   2.53219   -1.000
 5507.00    2.72168   2.53457   -1.000
 5508.00    2.77807   2.56098   -1.000
 5509.00    2.81420   2.59036   -1.000
 5510.00    2.81370   2.59180   -1.000
 5511.00    2.76956   2.55802   -1.000
 5512.00    2.69725   2.51033   -1.000
 5513.00    2.65756   2.47914   -1.000
 5514.00    2.67316   2.48008   -1.000
 5515.00    2.72766   2.50930   -1.000
 5516.00    2.79324   2.55486   -1.000
 5517.00    2.85007   2.60774   -1.000
 5518.00    2.90163   2.66061   -1.000
 5519.00    2.94585   2.70238   -1.000
 5520.00    2.95032   2.72270   -1.000
 5521.00    2.93831   2.72430   -1.000
 5522.00    2.93887   2.71938   -1.000
 5523.00    2.94539   2.71417   -1.000
 5524.00    2.92710   2.70189   -1.000
 5525.00    2.88358   2.66941   -1.000
 5526.00    2.81874   2.61309   -1.000
 5527.00    2.72811   2.54828   -1.000
 5528.00    2.66875   2.50935   15.721
 5529.00    2.69236   2.52217   15.799
 5530.00    2.78759   2.57667   -1.000
 5531.00    2.85723   2.63438   -1.000
 5532.00    2.86866   2.66359   -1.000
 5533.00    2.85690   2.66235   -1.000
 5534.00    2.85013   2.64780   -1.000
 5535.00    2.84441   2.63612   -1.000
 5536.00    2.84022   2.63499   -1.000
 5537.00    2.86067   2.64560   -1.000
 5538.00    2.88602   2.66588   -1.000
 5539.00    2.93155   2.69349   -1.000
 5540.00    2.97531   2.72123   -1.000
 5541.00    2.99955   2.73601   -1.000
 5542.00    2.97264   2.72954   -1.000
 5543.00    2.91281   2.70942   -1.000
 5544.00    2.89960   2.69205   -1.000
 5545.00    2.92223   2.68738   -1.000
 5546.00    2.93374   2.69636   -1.000
 5547.00    2.94199   2.71856   -1.000
 5548.00    2.99258   2.75079   -1.000
 5549.00    3.03629   2.78217   -1.000
 5550.00    3.04544   2.79993   -1.000
 5551.00    3.05482   2.79790   -1.000
 5552.00    3.04012   2.77782   -1.000
 5553.00    3.00240   2.74881   -1.000
 5554.00    2.96343   2.72498   -1.000
 5555.00    2.95601   2.71571   -1.000
 5556.00    2.97520   2.71856   -1.000
 5557.00    2.98826   2.72384   -1.000
 5558.00    2.99322   2.72643   -1.000
 5559.00    2.99841   2.72730   -1.000
 5560.00    2.99004   2.72442   -1.000
 5561.00    2.96532   2.71214   -1.000
 5562.00    2.93549   2.69180   -1.000
 5563.00    2.90713   2.67220   -1.000
 5564.00    2.88704   2.65944   -1.000
 5565.00    2.88448   2.65119   -1.000
 5566.00    2.88239   2.64307   -1.000
 5567.00    2.86946   2.63597   -1.000
 5568.00    2.87920   2.63396   -1.000
 5569.00    2.91394   2.63854   -1.000
 5570.00    2.98588   2.64619   -1.000
 5571.00    3.20144   2.65064   -1.000
 5572.00    3.55479   2.64936   -1.000
 5573.00    3.69812   2.64902   -1.000
 5574.00    3.35262   2.66125   -1.000
 5575.00    2.71711   2.68586   15.674
 5576.00    2.37320   2.70884   -1.000
 5577.00    2.68471   2.72312   16.193
 5578.00    2.98301   2.73450   -1.000
 5579.00    3.01612   2.74578   -1.000
 5580.00    3.01840   2.75220   -1.000
 5581.00    3.00448   2.74889   -1.000
 5582.00    2.97830   2.73656   -1.000
 5583.00    2.96401   2.71808   -1.000
 5584.00    2.94540   2.68741   -1.000
 5585.00    2.87772   2.63309   -1.000
 5586.00    2.77345   2.55734   -1.000
 5587.00    2.69200   2.48398   -1.000
 5588.00    2.66040   2.44426   -1.000
 5589.00    2.69586   2.45129   -1.000
 5590.00    2.75407   2.49292   -1.000
 5591.00    2.80143   2.54209   -1.000
 5592.00    2.82162   2.57775   -1.000
 5593.00    2.82169   2.59961   -1.000
 5594.00    2.84523   2.62324   -1.000
 5595.00    2.89588   2.65827   -1.000
 5596.00    2.94176   2.68999   -1.000
 5597.00    2.93229   2.69343   -1.000
 5598.00    2.87045   2.66268   -1.000
 5599.00    2.82162   2.61575   -1.000
 5600.00    2.79528   2.57346   -1.000
 5601.00    2.77048   2.54674   -1.000
 5602.00    2.75515   2.54499   -1.000
 5603.00    2.80263   2.58099   -1.000
 5604.00    2.90406   2.65412   -1.000
 5605.00    2.99996   2.73899   -1.000
 5606.00    3.06139   2.80502   -1.000
 5607.00    3.07862   2.83919   -1.000
 5608.00    3.08271   2.84830   -1.000
 5609.00    3.09043   2.84771   -1.000
 5610.00    3.10041   2.85020   -1.000
 5611.00    3.11440   2.85442   -1.000
 5612.00    3.10518   2.84101   -1.000
 5613.00    3.03999   2.78672   -1.000
 5614.00    2.90715   2.69234   -1.000
 5615.00    2.78947   2.59940   -1.000
 5616.00    2.77782   2.55870   -1.000
 5617.00    2.84666   2.58316   -1.000
 5618.00    2.91019   2.63792   -1.000
 5619.00    2.94399   2.68378   -1.000
 5620.00    2.95039   2.71328   -1.000
 5621.00    2.97184   2.73201   -1.000
 5622.00    2.97438   2.72961   -1.000
 5623.00    2.92439   2.69555   -1.000
 5624.00    2.83824   2.64513   -1.000
 5625.00    2.80184   2.61562   -1.000
 5626.00    2.85901   2.63102   -1.000
 5627.00    2.93666   2.67957   -1.000
 5628.00    3.00676   2.73493   -1.000
 5629.00    3.04220   2.78177   -1.000
 5630.00    3.07122   2.81382   -1.000
 5631.00    3.08889   2.82695   -1.000
 5632.00    3.08427   2.82139   -1.000
 5633.00    3.04203   2.80182   -1.000
 5634.00    2.99663   2.77363   -1.000
 5635.00    2.98434   2.74195   -1.000
 5636.00    2.95587   2.71338   -1.000
 5637.00    2.93406   2.69587   -1.000
 5638.00    2.93271   2.69260   -1.000
 5639.00    2.93364   2.69645   -1.000
 5640.00    2.92670   2.69598   -1.000
 5641.00    2.92303   2.68867   -1.000
 5642.00    2.93099   2.68513   -1.000
 5643.00    2.94770   2.69441   -1.000
 5644.00    2.96281   2.71286   -1.000
 5645.00    2.98667   2.73204   -1.000
 5646.00    2.99659   2.74693   -1.000
 5647.00    3.00213   2.75417   -1.000
 5648.00    3.00074   2.75244   -1.000
 5649.00    2.99327   2.74742   -1.000
 5650.00    3.00114   2.74967   -1.000
 5651.00    3.04810   2.76333   -1.000
 5652.00    3.08894   2.77713   -1.000
 5653.00    3.06444   2.77540   -1.000
 5654.00    3.01315   2.75688   -1.000
 5655.00    2.98589   2.72925   -1.000
 5656.00    2.95792   2.69262   -1.000
 5657.00    2.88053   2.64394   -1.000
 5658.00    2.80256   2.59566   -1.000
 5659.00    2.80431   2.57597   -1.000
 5660.00    2.87127   2.59540   -1.000
 5661.00    2.90936   2.62871   -1.000
 5662.00    2.90940   2.65357   -1.000
 5663.00    2.93484   2.67824   -1.000
 5664.00    2.99482   2.71210   -1.000
 5665.00    3.02171   2.74243   -1.000
 5666.00    3.00441   2.75194   -1.000
 5667.00    2.97522   2.74151   -1.000
 5668.00    2.95837   2.72866   -1.000
 5669.00    2.96383   2.72817   -1.000
 5670.00    3.00069   2.74309   -1.000
 5671.00    3.04272   2.77138   -1.000
 5672.00    3.08979   2.80812   -1.000
 5673.00    3.12504   2.84167   -1.000
 5674.00    3.13817   2.86116   -1.000
 5675.00    3.15059   2.86648   -1.000
 5676.00    3.16036   2.86587   -1.000
 5677.00    3.15489   2.86364   -1.000
 5678.00    3.15805   2.85531   -1.000
 5679.00    3.11782   2.83687   -1.000
 5680.00    3.07914   2.81041   -1.000
 5681.00    3.05733   2.77882   -1.000
 5682.00    3.02289   2.74692   -1.000
 5683.00    2.99637   2.72759   -1.000
 5684.00    3.02711   2.72826   -1.000
 5685.00    3.04859   2.73641   -1.000
 5686.00    3.00651   2.73523   -1.000
 5687.00    2.95582   2.72565   -1.000
 5688.00    2.95055   2.72418   -1.000
 5689.00    2.99718   2.74374   -1.000
 5690.00    3.06850   2.78081   -1.000
 5691.00    3.13253   2.82078   -1.000
 5692.00    3.15957   2.85053   -1.000
 5693.00    3.15690   2.86429   -1.000
 5694.00    3.14479   2.86412   -1.000
 5695.00    3.13282   2.85602   -1.000
 5696.00    3.10625   2.84244   -1.000
 5697.00    3.07248   2.82087   -1.000
 5698.00    3.03239   2.79150   -1.000
 5699.00    2.97797   2.75994   -1.000
 5700.00    2.93540   2.73148   -1.000
 5701.00    2.90518   2.71191   -1.000
 5702.00    2.89854   2.71027   -1.000
 5703.00    2.95153   2.72594   -1.000
 5704.00    3.00997   2.74097   -1.000
 5705.00    2.99939   2.73482   -1.000
 5706.00    2.93913   2.70230   -1.000
 5707.00    2.87546   2.65702   -1.000
 5708.00    2.82617   2.61694   -1.000
 5709.00    2.80807   2.59241   -1.000
 5710.00    2.82664   2.58865   -1.000
 5711.00    2.86270   2.60937   -1.000
 5712.00    2.92485   2.65544   -1.000
 5713.00    3.00666   2.71899   -1.000
 5714.00    3.06694   2.78081   -1.000
 5715.00    3.09101   2.82530   -1.000
 5716.00    3.13045   2.85239   -1.000
 5717.00    3.16439   2.86970   -1.000
 5718.00    3.17363   2.88402   -1.000
 5719.00    3.20163   2.90055   -1.000
 5720.00    3.21310   2.92118   -1.000
 5721.00    3.22091   2.94338   -1.000
 5722.00    3.25270   2.96219   -1.000
 5723.00    3.27082   2.97199   -1.000
 5724.00    3.25773   2.96646   -1.000
 5725.00    3.22406   2.94285   -1.000
 5726.00    3.17907   2.90974   -1.000
 5727.00    3.14141   2.88627   -1.000
 5728.00    3.14732   2.88480   -1.000
 5729.00    3.17744   2.89508   -1.000
 5730.00    3.18444   2.89786   -1.000
 5731.00    3.16689   2.89131   -1.000
 5732.00    3.16351   2.89238   -1.000
 5733.00    3.19061   2.91271   -1.000
 5734.00    3.22793   2.94088   -1.000
 5735.00    3.25094   2.95613   -1.000
 5736.00    3.23241   2.95210   -1.000
 5737.00    3.20339   2.93917   -1.000
 5738.00    3.18900   2.93011   -1.000
 5739.00    3.18258   2.92807   -1.000
 5740.00    3.18337   2.92771   -1.000
 5741.00    3.17229   2.92492   -1.000
 5742.00    3.16792   2.92322   -1.000
 5743.00    3.17615   2.93084   -1.000
 5744.00    3.20684   2.94847   -1.000
 5745.00    3.24576   2.96308   -1.000
 5746.00    3.23978   2.95923   -1.000
 5747.00    3.19664   2.93860   -1.000
 5748.00    3.16106   2.92255   -1.000
 5749.00    3.19025   2.92554   -1.000
 5750.00    3.23596   2.93435   -1.000
 5751.00    3.19860   2.92167   -1.000
 5752.00    3.12078   2.87951   -1.000
 5753.00    3.06571   2.83430   -1.000
 5754.00    3.06653   2.82303   -1.000
 5755.00    3.14225   2.85867   -1.000
 5756.00    3.23057   2.91904   -1.000
 5757.00    3.27098   2.96726   -1.000
 5758.00    3.26650   2.97949   -1.000
 5759.00    3.23262   2.95403   -1.000
 5760.00    3.16081   2.90518   -1.000
 5761.00    3.09176   2.85592   -1.000
 5762.00    3.06239   2.83130   -1.000
 5763.00    3.09582   2.84827   -1.000
 5764.00    3.17351   2.90187   -1.000
 5765.00    3.25598   2.96347   -1.000
 5766.00    3.28364   3.00575   -1.000
 5767.00    3.26874   3.02306   -1.000
 5768.00    3.26734   3.02351   -1.000
 5769.00    3.24789   3.01473   -1.000
 5770.00    3.22498   3.00128   -1.000
 5771.00    3.19755   2.98568   -1.000
 5772.00    3.15556   2.96950   -1.000
 5773.00    3.10200   2.95556   15.493
 5774.00    3.04837   2.94828   15.510
 5775.00    2.97955   2.95109   15.633
 5776.00    2.92892   2.96073   15.927
 5777.00    2.95261   2.96364   16.238
 5778.00    3.01973   2.94295   16.339
 5779.00    3.04139   2.89166   16.277
 5780.00    3.01438   2.82135   -1.000
 5781.00    2.97620   2.75739   -1.000
 5782.00    2.94878   2.72106   -1.000
 5783.00    2.93917   2.71274   -1.000
 5784.00    2.93669   2.71847   -1.000
 5785.00    2.95336   2.73552   -1.000
 5786.00    3.01760   2.77316   -1.000
 5787.00    3.10934   2.82711   -1.000
 5788.00    3.17832   2.87569   -1.000
 5789.00    3.18984   2.90126   -1.000
 5790.00    3.16125   2.90550   -1.000
 5791.00    3.12621   2.90636   -1.000
 5792.00    3.13277   2.92252   -1.000
 5793.00    3.17463   2.95669   -1.000
 5794.00    3.22592   2.99269   -1.000
 5795.00    3.27532   3.00950   -1.000
 5796.00    3.27949   2.99951   -1.000
 5797.00    3.25426   2.97826   -1.000
 5798.00    3.25493   2.97338   -1.000
 5799.00    3.30000   2.99904   -1.000
 5800.00    3.36890   3.04225   -1.000
 5801.00    3.39517   3.07489   -1.000
 5802.00    3.36375   3.07739   -1.000
 5803.00    3.31126   3.05088   -1.000
 5804.00    3.25481   3.01362   -1.000
 5805.00    3.21968   2.98714   -1.000
 5806.00    3.22017   2.98121   -1.000
 5807.00    3.24245   2.99120   -1.000
 5808.00    3.27545   3.00758   -1.000
 5809.00    3.30895   3.02438   -1.000
 5810.00    3.33680   3.03882   -1.000
 5811.00    3.35745   3.04715   -1.000
 5812.00    3.36188   3.04460   -1.000
 5813.00    3.32866   3.02811   -1.000
 5814.00    3.27927   2.99995   -1.000
 5815.00    3.25499   2.97157   -1.000
 5816.00    3.25203   2.96176   -1.000
 5817.00    3.28552   2.98202   -1.000
 5818.00    3.34221   3.02317   -1.000
 5819.00    3.37762   3.06237   -1.000
 5820.00    3.39524   3.08239   -1.000
 5821.00    3.39545   3.08214   -1.000
 5822.00    3.37969   3.07206   -1.000
 5823.00    3.38189   3.06394   -1.000
 5824.00    3.39339   3.06328   -1.000
 5825.00    3.39091   3.06822   -1.000
 5826.00    3.39006   3.07465   -1.000
 5827.00    3.39723   3.08089   -1.000
 5828.00    3.40748   3.08755   -1.000
 5829.00    3.41501   3.09398   -1.000
 5830.00    3.41000   3.09704   -1.000
 5831.00    3.41016   3.09417   -1.000
 5832.00    3.39480   3.08501   -1.000
 5833.00    3.36975   3.07119   -1.000
 5834.00    3.34924   3.05756   -1.000
 5835.00    3.34803   3.05048   -1.000
 5836.00    3.35699   3.05078   -1.000
 5837.00    3.35958   3.05342   -1.000
 5838.00    3.33945   3.05770   -1.000
 5839.00    3.33495   3.06917   -1.000
 5840.00    3.36648   3.08911   -1.000
 5841.00    3.39921   3.10972   -1.000
 5842.00    3.41264   3.12054   -1.000
 5843.00    3.41848   3.11614   -1.000
 5844.00    3.41217   3.09746   -1.000
 5845.00    3.38909   3.06935   -1.000
 5846.00    3.34441   3.03955   -1.000
 5847.00    3.31005   3.01732   -1.000
 5848.00    3.31412   3.00836   -1.000
 5849.00    3.32894   3.00841   -1.000
 5850.00    3.32659   3.00403   -1.000
 5851.00    3.29663   2.98522   -1.000
 5852.00    3.24751   2.95692   -1.000
 5853.00    3.20885   2.93344   -1.000
 5854.00    3.20841   2.92034   -1.000
 5855.00    3.21372   2.90580   -1.000
 5856.00    3.18206   2.87709   -1.000
 5857.00    3.13926   2.84362   -1.000
 5858.00    3.13604   2.83204   -1.000
 5859.00    3.18895   2.85635   -1.000
 5860.00    3.24635   2.90129   -1.000
 5861.00    3.25770   2.93988   -1.000
 5862.00    3.25193   2.96032   -1.000
 5863.00    3.24520   2.96798   -1.000
 5864.00    3.23232   2.96941   -1.000
 5865.00    3.22862   2.96421   -1.000
 5866.00    3.23344   2.95494   -1.000
 5867.00    3.25290   2.95506   -1.000
 5868.00    3.29307   2.97482   -1.000
 5869.00    3.33301   3.00591   -1.000
 5870.00    3.34735   3.03039   -1.000
 5871.00    3.34937   3.03860   -1.000
 5872.00    3.34500   3.03416   -1.000
 5873.00    3.34965   3.02718   -1.000
 5874.00    3.36017   3.02388   -1.000
 5875.00    3.34537   3.02143   -1.000
 5876.00    3.31088   3.01202   -1.000
 5877.00    3.27109   2.99172   -1.000
 5878.00    3.22813   2.96428   -1.000
 5879.00    3.20038   2.93810   -1.000
 5880.00    3.17258   2.92198   -1.000
 5881.00    3.12723   2.91891   -1.000
 5882.00    3.02295   2.92147   15.850
 5883.00    2.80829   2.91959   16.227
 5884.00    2.52337   2.91169   -1.000
 5885.00    2.25680   2.89337   -1.000
 5886.00    2.10631   2.83804   -1.000
 5887.00    2.13179   2.70973   -1.000
 5888.00    2.14641   2.50800   -1.000
 5889.00    2.02814   2.29826   -1.000
 5890.00    1.92176   2.17967   -1.000
 5891.00    1.89979   2.20057   -1.000
 5892.00    1.97867   2.30971   -1.000
 5893.00    2.16341   2.40040   -1.000
 5894.00    2.35084   2.40709   17.259
 5895.00    2.42002   2.35782   16.693
 5896.00    2.46934   2.34070   16.281
 5897.00    2.62585   2.41315   -1.000
 5898.00    2.85108   2.54825   -1.000
 5899.00    3.02831   2.68388   -1.000
 5900.00    3.13358   2.78708   -1.000
 5901.00    3.19249   2.85636   -1.000
 5902.00    3.21184   2.89822   -1.000
 5903.00    3.20854   2.91941   -1.000
 5904.00    3.20134   2.92709   -1.000
 5905.00    3.19317   2.92910   -1.000
 5906.00    3.19945   2.93396   -1.000
 5907.00    3.22554   2.94617   -1.000
 5908.00    3.24657   2.96246   -1.000
 5909.00    3.25665   2.97712   -1.000
 5910.00    3.26839   2.98636   -1.000
 5911.00    3.27475   2.98469   -1.000
 5912.00    3.25085   2.96517   -1.000
 5913.00    3.20233   2.92879   -1.000
 5914.00    3.17309   2.89060   -1.000
 5915.00    3.16384   2.87088   -1.000
 5916.00    3.16907   2.87848   -1.000
 5917.00    3.20427   2.90643   -1.000
 5918.00    3.24901   2.94056   -1.000
 5919.00    3.27062   2.96755   -1.000
 5920.00    3.26554   2.98041   -1.000
 5921.00    3.25396   2.98084   -1.000
 5922.00    3.25406   2.97759   -1.000
 5923.00    3.27068   2.98053   -1.000
 5924.00    3.30058   2.99265   -1.000
 5925.00    3.32454   3.00764   -1.000
 5926.00    3.32379   3.01452   -1.000
 5927.00    3.30257   3.00516   -1.000
 5928.00    3.25870   2.98157   -1.000
 5929.00    3.21676   2.95821   -1.000
 5930.00    3.22376   2.95212   -1.000
 5931.00    3.26321   2.96561   -1.000
 5932.00    3.29012   2.98136   -1.000
 5933.00    3.28638   2.98246   -1.000
 5934.00    3.26070   2.97302   -1.000
 5935.00    3.24900   2.97198   -1.000
 5936.00    3.27361   2.98910   -1.000
 5937.00    3.29919   3.01344   -1.000
 5938.00    3.32463   3.02719   -1.000
 5939.00    3.32062   3.02176   -1.000
 5940.00    3.29250   3.00029   -1.000
 5941.00    3.27216   2.97592   -1.000
 5942.00    3.26034   2.96553   -1.000
 5943.00    3.28262   2.97667   -1.000
 5944.00    3.32943   3.00079   -1.000
 5945.00    3.34710   3.02075   -1.000
 5946.00    3.34106   3.02267   -1.000
 5947.00    3.31311   3.00502   -1.000
 5948.00    3.27618   2.98157   -1.000
 5949.00    3.25298   2.97003   -1.000
 5950.00    3.25568   2.97298   -1.000
 5951.00    3.26707   2.97703   -1.000
 5952.00    3.26382   2.97407   -1.000
 5953.00    3.24485   2.97066   -1.000
 5954.00    3.23899   2.97325   -1.000
 5955.00    3.25912   2.97599   -1.000
 5956.00    3.26610   2.97162   -1.000
 5957.00    3.25411   2.96733   -1.000
 5958.00    3.27722   2.97751   -1.000
 5959.00    3.32167   3.00499   -1.000
 5960.00    3.34089   3.03866   -1.000
 5961.00    3.36055   3.06480   -1.000
 5962.00    3.37527   3.07583   -1.000
 5963.00    3.37305   3.07177   -1.000
 5964.00    3.34492   3.05798   -1.000
 5965.00    3.30276   3.04403   -1.000
 5966.00    3.30705   3.04048   -1.000
 5967.00    3.35073   3.05089   -1.000
 5968.00    3.38452   3.06886   -1.000
 5969.00    3.40205   3.08647   -1.000
 5970.00    3.41831   3.10026   -1.000
 5971.00    3.41762   3.10822   -1.000
 5972.00    3.40208   3.10727   -1.000
 5973.00    3.38847   3.09420   -1.000
 5974.00    3.36004   3.06747   -1.000
 5975.00    3.31455   3.03122   -1.000
 5976.00    3.27909   2.99773   -1.000
 5977.00    3.26810   2.98126   -1.000
 5978.00    3.28324   2.98802   -1.000
 5979.00    3.31758   3.01189   -1.000
 5980.00    3.34208   3.03592   -1.000
 5981.00    3.34313   3.04035   -1.000
 5982.00    3.32046   3.01667   -1.000
 5983.00    3.26000   2.97767   -1.000
 5984.00    3.20916   2.94997   -1.000
 5985.00    3.22009   2.95229   -1.000
 5986.00    3.26314   2.97971   -1.000
 5987.00    3.30859   3.01289   -1.000
 5988.00    3.34332   3.03874   -1.000
 5989.00    3.36540   3.05410   -1.000
 5990.00    3.37193   3.06060   -1.000
 5991.00    3.35870   3.06555   -1.000
 5992.00    3.36034   3.07862   -1.000
 5993.00    3.39423   3.09924   -1.000
 5994.00    3.41630   3.11266   -1.000
 5995.00    3.40146   3.10463   -1.000
 5996.00    3.36281   3.07714   -1.000
 5997.00    3.31385   3.04754   -1.000
 5998.00    3.29700   3.03343   -1.000
 5999.00    3.31301   3.03820   -1.000
 6000.00    3.32572   3.04971   -1.000
 6001.00    3.32067   3.05394   -1.000
 6002.00    3.29422   3.04861   -1.000
 6003.00    3.27311   3.04247   -1.000
 6004.00    3.26927   3.04001   -1.000
 6005.00    3.25694   3.03132   -1.000
 6006.00    3.22624   3.00718   -1.000
 6007.00    3.20273   2.97880   -1.000
 6008.00    3.21346   2.97117   -1.000
 6009.00    3.26782   2.99492   -1.000
 6010.00    3.33289   3.02966   -1.000
 6011.00    3.35718   3.04519   -1.000
 6012.00    3.33182   3.03512   -1.000
 6013.00    3.29543   3.01767   -1.000
 6014.00    3.28947   3.00979   -1.000
 6015.00    3.30383   3.01068   -1.000
 6016.00    3.30132   3.01163   -1.000
 6017.00    3.28537   3.01040   -1.000
 6018.00    3.28240   3.00661   -1.000
 6019.00    3.27740   2.99735   -1.000
 6020.00    3.26323   2.98667   -1.000
 6021.00    3.26420   2.98533   -1.000
 6022.00    3.28634   2.99776   -1.000
 6023.00    3.31023   3.01964   -1.000
 6024.00    3.32660   3.04517   -1.000
 6025.00    3.36212   3.07023   -1.000
 6026.00    3.41249   3.09232   -1.000
 6027.00    3.43699   3.11204   -1.000
 6028.00    3.44241   3.13129   -1.000
 6029.00    3.45432   3.14835   -1.000
 6030.00    3.45140   3.16048   -1.000
 6031.00    3.43657   3.16994   -1.000
 6032.00    3.43936   3.18167   -1.000
 6033.00    3.45169   3.19759   -1.000
 6034.00    3.45916   3.21430   -1.000
 6035.00    3.47086   3.22467   -1.000
 6036.00    3.48555   3.22354   -1.000
 6037.00    3.47608   3.21181   -1.000
 6038.00    3.45251   3.19459   -1.000
 6039.00    3.43806   3.17814   -1.000
 6040.00    3.42482   3.16816   -1.000
 6041.00    3.42346   3.16783   -1.000
 6042.00    3.44732   3.17706   -1.000
 6043.00    3.46944   3.19343   -1.000
 6044.00    3.48775   3.21173   -1.000
 6045.00    3.51948   3.22622   -1.000
 6046.00    3.53416   3.23507   -1.000
 6047.00    3.52073   3.23972   -1.000
 6048.00    3.51680   3.24206   -1.000
 6049.00    3.53602   3.24289   -1.000
 6050.00    3.55074   3.24066   -1.000
 6051.00    3.54286   3.23147   -1.000
 6052.00    3.51658   3.21314   -1.000
 6053.00    3.48838   3.18860   -1.000
 6054.00    3.46560   3.16356   -1.000
 6055.00    3.44494   3.14379   -1.000
 6056.00    3.43215   3.13556   -1.000
 6057.00    3.43481   3.14274   -1.000
 6058.00    3.45852   3.16123   -1.000
 6059.00    3.48250   3.18021   -1.000
 6060.00    3.50053   3.18832   -1.000
 6061.00    3.53235   3.17870   -1.000
 6062.00    3.24032   3.15127    7.826
 6063.00    2.51245   3.11432   -1.000
 6064.00    2.37154   3.08475   -1.000
 6065.00    2.90213   3.08188   15.709
 6066.00    3.25501   3.11331   15.471
 6067.00    3.38156   3.16558   -1.000
 6068.00    3.00478   3.21469   15.285
 6069.00    1.85104   3.24650   -1.000
 6070.00    2.24329   3.26294   -1.000
 6071.00    3.43919   3.27019   -1.000
 6072.00    3.58622   3.27055   -1.000
 6073.00    3.58752   3.26614   -1.000
 6074.00    3.58270   3.25855   -1.000
 6075.00    3.55716   3.24399   -1.000
 6076.00    3.52060   3.21853   -1.000
 6077.00    3.47584   3.18619   -1.000
 6078.00    3.43482   3.15694   -1.000
 6079.00    3.41557   3.13728   -1.000
 6080.00    3.41842   3.12453   -1.000
 6081.00    3.41734   3.11419   -1.000
 6082.00    3.40424   3.10813   -1.000
 6083.00    3.41387   3.10976   -1.000
 6084.00    3.42741   3.11760   -1.000
 6085.00    3.42810   3.12865   -1.000
 6086.00    3.41968   3.14069   -1.000
 6087.00    3.42009   3.14864   -1.000
 6088.00    3.43178   3.14549   -1.000
 6089.00    3.41747   3.13002   -1.000
 6090.00    3.38827   3.11162   -1.000
 6091.00    3.36801   3.10357   -1.000
 6092.00    3.37641   3.11213   -1.000
 6093.00    3.41493   3.13400   -1.000
 6094.00    3.45111   3.16002   -1.000
 6095.00    3.47687   3.18045   -1.000
 6096.00    3.48247   3.19191   -1.000
 6097.00    3.48492   3.19902   -1.000
 6098.00    3.48836   3.20311   -1.000
 6099.00    3.47122   3.19198   -1.000
 6100.00    3.43579   3.15029   -1.000
 6101.00    3.37070   3.08282   -1.000
 6102.00    3.28630   3.02413   -1.000
 6103.00    3.25802   3.01232   -1.000
 6104.00    3.31112   3.05078   -1.000
 6105.00    3.39303   3.10807   -1.000
 6106.00    3.45111   3.15289   -1.000
 6107.00    3.45408   3.17857   -1.000
 6108.00    3.43639   3.19423   -1.000
 6109.00    3.44502   3.20452   -1.000
 6110.00    3.46059   3.20844   -1.000
 6111.00    3.44815   3.21022   -1.000
 6112.00    3.45313   3.21764   -1.000
 6113.00    3.50484   3.23024   -1.000
 6114.00    3.53120   3.23806   -1.000
 6115.00    3.50553   3.23425   -1.000
 6116.00    3.47305   3.22265   -1.000
 6117.00    3.46143   3.20743   -1.000
 6118.00    3.44071   3.18245   -1.000
 6119.00    3.39369   3.13918   -1.000
 6120.00    3.34554   3.08239   -1.000
 6121.00    3.29830   3.03472   -1.000
 6122.00    3.28143   3.02284   -1.000
 6123.00    3.32551   3.05330   -1.000
 6124.00    3.39081   3.10221   -1.000
 6125.00    3.42378   3.13750   -1.000
 6126.00    3.41917   3.14813   -1.000
 6127.00    3.40616   3.14630   -1.000
 6128.00    3.41047   3.15106   -1.000
 6129.00    3.44438   3.17280   -1.000
 6130.00    3.48559   3.20615   -1.000
 6131.00    3.50362   3.23405   -1.000
 6132.00    3.49207   3.23693   -1.000
 6133.00    3.44599   3.19930   -1.000
 6134.00    3.36480   3.11745   -1.000
 6135.00    3.26015   3.01202   -1.000
 6136.00    3.15002   2.92989   -1.000
 6137.00    3.10486   2.91530   -1.000
 6138.00    3.18588   2.96993   -1.000
 6139.00    3.33268   3.04983   -1.000
 6140.00    3.41454   3.10777   -1.000
 6141.00    3.40330   3.13604   -1.000
 6142.00    3.40741   3.15855   -1.000
 6143.00    3.44816   3.19000   -1.000
 6144.00    3.47451   3.22080   -1.000
 6145.00    3.48191   3.23513   -1.000
 6146.00    3.46970   3.22781   -1.000
 6147.00    3.43997   3.20464   -1.000
 6148.00    3.39891   3.17639   -1.000
 6149.00    3.35948   3.15455   -1.000
 6150.00    3.35604   3.14737   -1.000
 6151.00    3.38284   3.15424   -1.000
 6152.00    3.41823   3.16385   -1.000
 6153.00    3.41012   3.16298   -1.000
 6154.00    3.36660   3.14924   -1.000
 6155.00    3.33414   3.13226   -1.000
 6156.00    3.31986   3.11940   -1.000
 6157.00    3.29897   3.10403   -1.000
 6158.00    3.25572   3.06851   -1.000
 6159.00    3.18012   2.99775   -1.000
 6160.00    3.06565   2.89710   -1.000
 6161.00    2.93356   2.80052   17.228
 6162.00    2.86340   2.75232   17.101
 6163.00    2.89900   2.77166   17.113
 6164.00    3.00623   2.83847   -1.000
 6165.00    3.09036   2.91247   -1.000
 6166.00    3.11786   2.95899   -1.000
 6167.00    3.11997   2.96382   -1.000
 6168.00    3.09322   2.93817   -1.000
 6169.00    3.05290   2.91426   16.826
 6170.00    3.05025   2.92240   16.853
 6171.00    3.10234   2.96460   16.827
 6172.00    3.17666   3.01556   -1.000
 6173.00    3.21192   3.05164   -1.000
 6174.00    3.21116   3.06900   16.678
 6175.00    3.21621   3.07565   16.608
 6176.00    3.22369   3.08076   16.554
 6177.00    3.23734   3.09070   16.485
 6178.00    3.26798   3.10577   -1.000
 6179.00    3.29204   3.12199   -1.000
 6180.00    3.30859   3.13783   -1.000
 6181.00    3.31260   3.15344   -1.000
 6182.00    3.31017   3.16404   16.774
 6183.00    3.31296   3.16218   -1.000
 6184.00    3.30675   3.14496   -1.000
 6185.00    3.28173   3.11564   -1.000
 6186.00    3.23856   3.08122   -1.000
 6187.00    3.18669   3.04799   17.602
 6188.00    3.14718   3.01572   17.496
 6189.00    3.12374   2.98014   17.120
 6190.00    3.08639   2.94702   16.785
 6191.00    3.05374   2.93669   16.637
 6192.00    3.08731   2.96429   16.595
 6193.00    3.17172   3.02073   16.664
 6194.00    3.24260   3.08003   -1.000
 6195.00    3.27449   3.12080   -1.000
 6196.00    3.26266   3.13511   17.026
 6197.00    3.22235   3.12411   16.894
 6198.00    3.16144   3.09768   16.687
 6199.00    3.11261   3.07624   16.589
 6200.00    3.11193   3.07868   16.585
 6201.00    3.16969   3.10540   16.566
 6202.00    3.25447   3.14047   16.556
 6203.00    3.31861   3.16826   16.602
 6204.00    3.34026   3.18417   -1.000
 6205.00    3.34741   3.19258   -1.000
 6206.00    3.35721   3.19802   -1.000
 6207.00    3.35592   3.20018   -1.000
 6208.00    3.33962   3.19517   -1.000
 6209.00    3.31842   3.17920   17.336
 6210.00    3.28984   3.14992   -1.000
 6211.00    3.25138   3.10577   -1.000
 6212.00    3.19439   3.04927   -1.000
 6213.00    3.13456   2.99266   17.328
 6214.00    3.09721   2.95440   17.405
 6215.00    3.08786   2.94537   17.408
 6216.00    3.10133   2.95878   17.287
 6217.00    3.14336   2.97523   -1.000
 6218.00    3.17394   2.97965   -1.000
 6219.00    3.15182   2.97469   -1.000
 6220.00    3.15234   2.97515   -1.000
 6221.00    3.18370   2.98897   -1.000
 6222.00    3.19375   3.00993   -1.000
 6223.00    3.20914   3.02827   -1.000
 6224.00    3.22344   3.04078   -1.000
 6225.00    3.22644   3.04820   -1.000
 6226.00    3.22722   3.04684   -1.000
 6227.00    3.22580   3.02756   -1.000
 6228.00    3.19484   2.98478   -1.000
 6229.00    3.11347   2.92817   -1.000
 6230.00    3.02034   2.88376   17.141
 6231.00    2.99055   2.87744   17.007
 6232.00    3.04143   2.91554   17.074
 6233.00    3.12280   2.98159   17.238
 6234.00    3.21901   3.04731   -1.000
 6235.00    3.28556   3.08726   -1.000
 6236.00    3.27463   3.09059   -1.000
 6237.00    3.22876   3.06433   -1.000
 6238.00    3.17713   3.02555   -1.000
 6239.00    3.13457   2.99000   -1.000
 6240.00    3.11038   2.96456   -1.000
 6241.00    3.09645   2.94623   -1.000
 6242.00    3.07767   2.92944   -1.000
 6243.00    3.05936   2.91556   -1.000
 6244.00    3.06284   2.91266   -1.000
 6245.00    3.10458   2.92789   -1.000
 6246.00    3.16032   2.96236   -1.000
 6247.00    3.21451   3.00800   -1.000
 6248.00    3.24099   3.04724   -1.000
 6249.00    3.23200   3.06143   -1.000
 6250.00    3.20398   3.04262   -1.000
 6251.00    3.15256   2.99925   -1.000
 6252.00    3.09574   2.95192   -1.000
 6253.00    3.05253   2.91860   -1.000
 6254.00    3.02499   2.90089   18.377
 6255.00    3.01600   2.88744   18.145
 6256.00    3.00672   2.87120   17.865
 6257.00    2.98781   2.86065   17.616
 6258.00    2.99558   2.87154   17.353
 6259.00    3.03581   2.91031   17.214
 6260.00    3.10550   2.96826   17.297
 6261.00    3.18736   3.02812   -1.000
 6262.00    3.22248   3.07310   -1.000
 6263.00    3.23008   3.09387   17.279
 6264.00    3.21484   3.09420   17.287
 6265.00    3.18723   3.08874   17.375
 6266.00    3.19015   3.08949   17.383
 6267.00    3.21165   3.09489   17.329
 6268.00    3.22274   3.09711   17.282
 6269.00    3.21029   3.09639   17.305
 6270.00    3.18540   3.10012   17.412
 6271.00    3.16505   3.11094   17.552
 6272.00    3.11652   3.12209   17.796
 6273.00    3.06123   3.12366   18.208
 6274.00    3.03766   3.11086   18.581
 6275.00    3.01500   3.08619   18.751
 6276.00    2.97924   3.05499   18.723
 6277.00    2.93212   3.02159   18.482
 6278.00    2.88484   2.99024   18.162
 6279.00    2.82345   2.96776   17.873
 6280.00    2.80547   2.96348   17.642
 6281.00    2.87131   2.98313   17.481
 6282.00    2.97919   3.02221   17.328
 6283.00    3.07686   3.06808   17.196
 6284.00    3.14861   3.10927   17.140
 6285.00    3.21656   3.14229   17.201
 6286.00    3.26835   3.16908   17.337
 6287.00    3.30015   3.18898   17.473
 6288.00    3.34170   3.19580   -1.000
 6289.00    3.35339   3.18462   -1.000
 6290.00    3.33328   3.15979   -1.000
 6291.00    3.29831   3.13368   -1.000
 6292.00    3.27576   3.11662   -1.000
 6293.00    3.28600   3.10821   -1.000
 6294.00    3.29945   3.09857   -1.000
 6295.00    3.26728   3.07939   -1.000
 6296.00    3.24303   3.05492   -1.000
 6297.00    3.22686   3.03805   -1.000
 6298.00    3.21159   3.03396   -1.000
 6299.00    3.21119   3.03376   -1.000
 6300.00    3.20757   3.02816   -1.000
 6301.00    3.18004   3.02169   -1.000
 6302.00    3.15690   3.02722   17.274
 6303.00    3.17106   3.05007   17.121
 6304.00    3.21291   3.08443   17.060
 6305.00    3.26008   3.12240   17.113
 6306.00    3.30204   3.15900   -1.000
 6307.00    3.36189   3.18832   -1.000
 6308.00    3.39052   3.20208   -1.000
 6309.00    3.37070   3.19662   -1.000
 6310.00    3.33649   3.17807   -1.000
 6311.00    3.30522   3.15662   -1.000
 6312.00    3.29351   3.13699   -1.000
 6313.00    3.27613   3.11644   -1.000
 6314.00    3.24532   3.09240   -1.000
 6315.00    3.22248   3.06811   -1.000
 6316.00    3.22484   3.04849   -1.000
 6317.00    3.21941   3.03782   -1.000
 6318.00    3.22699   3.04321   -1.000
 6319.00    3.25377   3.06880   -1.000
 6320.00    3.30600   3.10655   -1.000
 6321.00    3.34968   3.14342   -1.000
 6322.00    3.38014   3.17453   -1.000
 6323.00    3.39568   3.20159   -1.000
 6324.00    3.40547   3.22391   -1.000
 6325.00    3.43243   3.23810   -1.000
 6326.00    3.44274   3.24407   -1.000
 6327.00    3.43683   3.24601   -1.000
 6328.00    3.43745   3.24714   -1.000
 6329.00    3.45124   3.24854   -1.000
 6330.00    3.46068   3.25241   -1.000
 6331.00    3.46492   3.25855   -1.000
 6332.00    3.48935   3.25720   -1.000
 6333.00    3.47973   3.23510   -1.000
 6334.00    3.42362   3.19225   -1.000
 6335.00    3.35362   3.14820   -1.000
 6336.00    3.33044   3.12702   -1.000
 6337.00    3.37472   3.13716   -1.000
 6338.00    3.42228   3.16889   -1.000
 6339.00    3.44258   3.20533   -1.000
 6340.00    3.44649   3.23034   -1.000
 6341.00    3.44287   3.23332   -1.000
 6342.00    3.41931   3.21632   -1.000
 6343.00    3.40474   3.19535   -1.000
 6344.00    3.40039   3.18948   -1.000
 6345.00    3.40590   3.20604   -1.000
 6346.00    3.42931   3.23736   -1.000
 6347.00    3.46979   3.27098   -1.000
 6348.00    3.51154   3.29858   -1.000
 6349.00    3.52614   3.31672   -1.000
 6350.00    3.53372   3.32390   -1.000
 6351.00    3.53570   3.31829   -1.000
 6352.00    3.51365   3.29854   -1.000
 6353.00    3.46843   3.26808   -1.000
 6354.00    3.42137   3.23653   -1.000
 6355.00    3.39239   3.21139   -1.000
 6356.00    3.38867   3.18934   -1.000
 6357.00    3.36534   3.16233   -1.000
 6358.00    3.31494   3.12997   -1.000
 6359.00    3.28123   3.09965   -1.000
 6360.00    3.28025   3.07768   -1.000
 6361.00    3.28397   3.06707   -1.000
 6362.00    3.28391   3.07117   -1.000
 6363.00    3.31503   3.09251   -1.000
 6364.00    3.36440   3.12865   -1.000
 6365.00    3.41576   3.17272   -1.000
 6366.00    3.45464   3.21723   -1.000
 6367.00    3.48224   3.25534   -1.000
 6368.00    3.52112   3.28188   -1.000
 6369.00    3.54197   3.29737   -1.000
 6370.00    3.54352   3.30900   -1.000
 6371.00    3.55196   3.32369   -1.000
 6372.00    3.56628   3.34081   -1.000
 6373.00    3.56638   3.35385   -1.000
 6374.00    3.55385   3.35838   -1.000
 6375.00    3.55313   3.35462   -1.000
 6376.00    3.55904   3.34350   -1.000
 6377.00    3.54880   3.32611   -1.000
 6378.00    3.52057   3.30705   -1.000
 6379.00    3.51297   3.29327   -1.000
 6380.00    3.51147   3.28915   -1.000
 6381.00    3.49628   3.29373   -1.000
 6382.00    3.48893   3.30203   -1.000
 6383.00    3.49617   3.30959   -1.000
 6384.00    3.49477   3.31661   -1.000
 6385.00    3.49979   3.32585   -1.000
 6386.00    3.51848   3.33698   -1.000
 6387.00    3.52985   3.34607   -1.000
 6388.00    3.52150   3.34918   -1.000
 6389.00    3.50515   3.34197   -1.000
 6390.00    3.47686   3.31854   -1.000
 6391.00    3.42692   3.27834   -1.000
 6392.00    3.36343   3.23550   17.557
 6393.00    3.30087   3.21494   17.642
 6394.00    3.29064   3.23132   17.878
 6395.00    3.33563   3.27185   18.263
 6396.00    3.38130   3.30416   18.466
 6397.00    3.38631   3.30179   18.339
 6398.00    3.33372   3.26523   18.060
 6399.00    3.25630   3.22427   17.925
 6400.00    3.22385   3.21615   17.949
 6401.00    3.25569   3.25298   18.040
 6402.00    3.29893   3.31237   18.267
 6403.00    3.32686   3.36054   18.551
 6404.00    3.33818   3.37755   18.761
 6405.00    3.32089   3.36333   18.864
 6406.00    3.27092   3.33267   18.956
 6407.00    3.20149   3.30552   19.099
 6408.00    3.15720   3.29350   19.217
 6409.00    3.15144   3.29221   19.260
 6410.00    3.14152   3.29052   19.278
 6411.00    3.09918   3.28616   19.364
 6412.00    3.08664   3.28638   -1.000
 6413.00    3.09659   3.29597   -1.000
 6414.00    3.06896   3.31189   -1.000
 6415.00    3.06129   3.32698   -1.000
 6416.00    3.07385   3.33269   -1.000
 6417.00    3.04786   3.32138   -1.000
 6418.00    2.99778   3.29252   -1.000
 6419.00    2.92954   3.25844   -1.000
 6420.00    2.85725   3.24073   -1.000
 6421.00    2.84386   3.25486   -1.000
 6422.00    2.88078   3.29583   -1.000
 6423.00    2.90349   3.34311   -1.000
 6424.00    2.89114   3.38004   -1.000
 6425.00    2.87749   3.40293   -1.000
 6426.00    2.86029   3.41209   -1.000
 6427.00    0.79176   3.40224   -1.000
 6428.00    0.00000   3.36837   -2.000
